"ITI","_prepare","acc","accuracy","average_response_time","avg_rt","background","bidi","canvas_backend","clock_backend","color_backend","compensation","cond_trig","condtrigtime","coordinates","coroutines_cycles","coroutines_duration","coroutines_mean_cycle_duration","correct","correct_instructions_1","correct_new_keyboard_response_1","count_AB_m21","count_ITI","count_blank_screen","count_blink_screen","count_block1","count_break1","count_break2","count_break3_1","count_canvas","count_close_port","count_cond_trigger","count_correct_trigger","count_def_chain","count_end_screen","count_fixation_1","count_getting_started","count_inc_counter","count_instructions_1","count_logger","count_logscript","count_new_inline_script","count_new_inline_script_2","count_new_keyboard_response_1","count_open_port","count_reset_counter_prep","count_reset_counter_run","count_reset_counter_run_1","count_response_trigger_trial","count_responsescreen","count_sequence","count_target_present","count_word_trigger","counter","cresp","datetime","description","disable_garbage_collection","experiment_file","experiment_path","font_bold","font_family","font_italic","font_size","font_underline","foreground","form_clicks","fullscreen","height","keyboard_backend","live_row","live_row_block1","logfile","mouse_backend","opensesame_codename","opensesame_version","repeat_cycle","response","response_break1","response_break2","response_break3_1","response_end_screen","response_instructions_1","response_new_keyboard_response_1","response_time","response_time_break1","response_time_break2","response_time_break3_1","response_time_end_screen","response_time_instructions_1","response_time_new_keyboard_response_1","round_decimals","sampler_backend","sound_buf_size","sound_channels","sound_freq","sound_sample_size","start","subject_nr","subject_parity","targ_type","target","time_AB_m21","time_ITI","time_blank_screen","time_blink_screen","time_block1","time_break1","time_break2","time_break3_1","time_canvas","time_close_port","time_cond_trigger","time_correct_trigger","time_def_chain","time_end_screen","time_fixation_1","time_getting_started","time_inc_counter","time_instructions_1","time_logger","time_logscript","time_new_inline_script","time_new_inline_script_2","time_new_keyboard_response_1","time_open_port","time_reset_counter_prep","time_reset_counter_run","time_reset_counter_run_1","time_response_trigger_trial","time_responsescreen","time_sequence","time_target_present","time_word_trigger","title","total_correct","total_response_time","total_responses","uniform_coordinates","width","word_trig"
"350","","0","0","1200","1200","black","no","xpyriment","legacy","legacy","0","204","NA","uniform","NA","NA","NA","0","undefined","0","0","0","0","0","0","0","0","0","NA","0","0","NA","NA","0","0","NA","0","0","0","NA","NA","NA","0","0","0","NA","NA","0","0","0","0","0","1","z","Wed Jun 14 13:40:23 2023","Executes Python code","yes","m21-ba-lexicalDecision.osexp","C:\Users\emoore8\Desktop\m21_vsl-main","no","mono","no","18","no","white","no","yes","1080","legacy","0","0","C:/Users/emoore8/Desktop/m21_vsl-main/subject-4.csv","xpyriment","Lentiform Loewenfeld","3.3.11","0","None","NA","NA","NA","NA","space","None","1200","NA","NA","NA","NA","162246","1200","2","legacy","1024","2","48000","-16","AB_m21","4","even","NW_L_COMP","AGREELA","1511","168074","165704","NA","163927","NA","NA","NA","NA","NA","166205","NA","NA","NA","165204","NA","165168","1680","168424","NA","NA","NA","166245","1511","1665","NA","NA","167445","167470","165168","166205","166225","morph21_Oliver/Morris","0","1200","1","yes","1920","24"
"400","","50","50","1128","1128","black","no","xpyriment","legacy","legacy","0","208","NA","uniform","NA","NA","NA","1","undefined","1","0","1","1","1","0","1","1","1","NA","0","1","NA","NA","0","1","NA","1","0","1","NA","NA","NA","1","0","0","NA","NA","1","1","1","1","1","2","z","Wed Jun 14 13:40:23 2023","Executes Python code","yes","m21-ba-lexicalDecision.osexp","C:\Users\emoore8\Desktop\m21_vsl-main","no","mono","no","18","no","white","no","yes","1080","legacy","1","1","C:/Users/emoore8/Desktop/m21_vsl-main/subject-4.csv","xpyriment","Lentiform Loewenfeld","3.3.11","0","z","NA","NA","NA","NA","space","z","1056","NA","NA","NA","NA","162246","1056","2","legacy","1024","2","48000","-16","AB_m21","4","even","FILL_NW","DROES","1511","172172","169945","NA","163927","NA","NA","NA","NA","NA","170445","NA","NA","NA","169445","NA","169419","1680","172572","NA","NA","NA","170486","1511","1665","NA","NA","171542","171569","169419","170445","170466","morph21_Oliver/Morris","1","2256","2","yes","1920","17"
"200","","33.333333333333336","33.333333333333336","1152","1152","black","no","xpyriment","legacy","legacy","0","208","NA","uniform","NA","NA","NA","0","undefined","0","0","2","2","2","0","2","2","2","NA","0","2","NA","NA","0","2","NA","2","0","2","NA","NA","NA","2","0","0","NA","NA","2","2","2","2","2","3","z","Wed Jun 14 13:40:23 2023","Executes Python code","yes","m21-ba-lexicalDecision.osexp","C:\Users\emoore8\Desktop\m21_vsl-main","no","mono","no","18","no","white","no","yes","1080","legacy","2","2","C:/Users/emoore8/Desktop/m21_vsl-main/subject-4.csv","xpyriment","Lentiform Loewenfeld","3.3.11","0","None","NA","NA","NA","NA","space","None","1200","NA","NA","NA","NA","162246","1200","2","legacy","1024","2","48000","-16","AB_m21","4","even","FILL_NW","FALONS","1511","178122","174250","176618","163927","NA","NA","NA","NA","NA","174750","NA","NA","NA","173749","NA","173722","1680","178322","NA","NA","NA","174790","1511","1665","NA","NA","175990","176014","173722","174750","174770","morph21_Oliver/Morris","1","3456","3","yes","1920","19"
"250","","50","50","1074.75","1074.75","black","no","xpyriment","legacy","legacy","0","208","NA","uniform","NA","NA","NA","1","undefined","1","0","3","3","3","0","3","3","3","NA","0","3","NA","NA","0","3","NA","3","0","3","NA","NA","NA","3","0","0","NA","NA","3","3","3","3","3","4","z","Wed Jun 14 13:40:23 2023","Executes Python code","yes","m21-ba-lexicalDecision.osexp","C:\Users\emoore8\Desktop\m21_vsl-main","no","mono","no","18","no","white","no","yes","1080","legacy","3","3","C:/Users/emoore8/Desktop/m21_vsl-main/subject-4.csv","xpyriment","Lentiform Loewenfeld","3.3.11","0","z","NA","NA","NA","NA","space","z","843","NA","NA","NA","NA","162246","843","2","legacy","1024","2","48000","-16","AB_m21","4","even","FILL_NW","BUWL","1511","181867","179854","176618","163927","NA","NA","NA","NA","NA","180354","NA","NA","NA","179354","NA","179328","1680","182117","NA","NA","NA","180395","1511","1665","NA","NA","181239","181262","179327","180354","180375","morph21_Oliver/Morris","2","4299","4","yes","1920","9"
"200","","60","60","1037","1037","black","no","xpyriment","legacy","legacy","0","202","NA","uniform","NA","NA","NA","1","undefined","1","0","4","4","4","0","4","4","4","NA","0","4","NA","NA","0","4","NA","4","0","4","NA","NA","NA","4","0","0","NA","NA","4","4","4","4","4","5","/","Wed Jun 14 13:40:23 2023","Executes Python code","yes","m21-ba-lexicalDecision.osexp","C:\Users\emoore8\Desktop\m21_vsl-main","no","mono","no","18","no","white","no","yes","1080","legacy","4","4","C:/Users/emoore8/Desktop/m21_vsl-main/subject-4.csv","xpyriment","Lentiform Loewenfeld","3.3.11","0","/","NA","NA","NA","NA","space","/","886","NA","NA","NA","NA","162246","886","2","legacy","1024","2","48000","-16","AB_m21","4","even","CW_L","BOOTLESS","1511","185681","183627","176618","163927","NA","NA","NA","NA","NA","184127","NA","NA","NA","183126","NA","183104","1680","185881","NA","NA","NA","184168","1511","1665","NA","NA","185054","185078","183104","184127","184148","morph21_Oliver/Morris","3","5185","5","yes","1920","32"
"250","","66.66666666666667","66.66666666666667","978.1666666666666","978.1666666666666","black","no","xpyriment","legacy","legacy","0","207","NA","uniform","NA","NA","NA","1","undefined","1","0","5","5","5","0","5","5","5","NA","0","5","NA","NA","0","5","NA","5","0","5","NA","NA","NA","5","0","0","NA","NA","5","5","5","5","5","6","/","Wed Jun 14 13:40:23 2023","Executes Python code","yes","m21-ba-lexicalDecision.osexp","C:\Users\emoore8\Desktop\m21_vsl-main","no","mono","no","18","no","white","no","yes","1080","legacy","5","5","C:/Users/emoore8/Desktop/m21_vsl-main/subject-4.csv","xpyriment","Lentiform Loewenfeld","3.3.11","0","/","NA","NA","NA","NA","space","/","684","NA","NA","NA","NA","162246","684","2","legacy","1024","2","48000","-16","AB_m21","4","even","FILL_W","SLIM","1511","190744","187390","189242","163927","NA","NA","NA","NA","NA","187889","NA","NA","NA","186890","NA","186867","1680","190995","NA","NA","NA","187930","1511","1665","NA","NA","188614","188639","186867","187889","187910","morph21_Oliver/Morris","4","5869","6","yes","1920","6"
"350","","71.42857142857143","71.42857142857143","1009.7142857142857","1009.7142857142857","black","no","xpyriment","legacy","legacy","0","206","NA","uniform","NA","NA","NA","1","undefined","1","0","6","6","6","0","6","6","6","NA","0","6","NA","NA","0","6","NA","6","0","6","NA","NA","NA","6","0","0","NA","NA","6","6","6","6","6","7","z","Wed Jun 14 13:40:23 2023","Executes Python code","yes","m21-ba-lexicalDecision.osexp","C:\Users\emoore8\Desktop\m21_vsl-main","no","mono","no","18","no","white","no","yes","1080","legacy","6","6","C:/Users/emoore8/Desktop/m21_vsl-main/subject-4.csv","xpyriment","Lentiform Loewenfeld","3.3.11","0","z","NA","NA","NA","NA","space","z","1199","NA","NA","NA","NA","162246","1199","2","legacy","1024","2","48000","-16","AB_m21","4","even","NW_L_SIMP","NUTLY","1511","194880","192514","189242","163927","NA","NA","NA","NA","NA","193015","NA","NA","NA","192014","NA","191986","1680","195230","NA","NA","NA","193055","1511","1665","NA","NA","194254","194277","191986","193015","193035","morph21_Oliver/Morris","5","7068","7","yes","1920","14"
"350","","62.5","62.5","1033.5","1033.5","black","no","xpyriment","legacy","legacy","0","201","NA","uniform","NA","NA","NA","0","undefined","0","0","7","7","7","0","7","7","7","NA","0","7","NA","NA","0","7","NA","7","0","7","NA","NA","NA","7","0","0","NA","NA","7","7","7","7","7","8","/","Wed Jun 14 13:40:23 2023","Executes Python code","yes","m21-ba-lexicalDecision.osexp","C:\Users\emoore8\Desktop\m21_vsl-main","no","mono","no","18","no","white","no","yes","1080","legacy","7","7","C:/Users/emoore8/Desktop/m21_vsl-main/subject-4.csv","xpyriment","Lentiform Loewenfeld","3.3.11","0","None","NA","NA","NA","NA","space","None","1200","NA","NA","NA","NA","162246","1200","2","legacy","1024","2","48000","-16","AB_m21","4","even","CW_S","AMAZEMENT","1511","199105","196734","189242","163927","NA","NA","NA","NA","NA","197235","NA","NA","NA","196232","NA","196209","1680","199455","NA","NA","NA","197276","1511","1665","NA","NA","198476","198500","196209","197235","197256","morph21_Oliver/Morris","5","8268","8","yes","1920","39"
"200","","66.66666666666667","66.66666666666667","1027.888888888889","1027.888888888889","black","no","xpyriment","legacy","legacy","0","208","NA","uniform","NA","NA","NA","1","undefined","1","0","8","8","8","0","8","8","8","NA","0","8","NA","NA","0","8","NA","8","0","8","NA","NA","NA","8","0","0","NA","NA","8","8","8","8","8","9","z","Wed Jun 14 13:40:23 2023","Executes Python code","yes","m21-ba-lexicalDecision.osexp","C:\Users\emoore8\Desktop\m21_vsl-main","no","mono","no","18","no","white","no","yes","1080","legacy","8","8","C:/Users/emoore8/Desktop/m21_vsl-main/subject-4.csv","xpyriment","Lentiform Loewenfeld","3.3.11","0","z","NA","NA","NA","NA","space","z","983","NA","NA","NA","NA","162246","983","2","legacy","1024","2","48000","-16","AB_m21","4","even","FILL_NW","TUEER","1511","204606","200947","203099","163927","NA","NA","NA","NA","NA","201447","NA","NA","NA","200447","NA","200420","1680","204806","NA","NA","NA","201487","1511","1665","NA","NA","202470","202494","200420","201447","201467","morph21_Oliver/Morris","6","9251","9","yes","1920","44"
"300","","70","70","1006.4","1006.4","black","no","xpyriment","legacy","legacy","0","207","NA","uniform","NA","NA","NA","1","undefined","1","0","9","9","9","0","9","9","9","NA","0","9","NA","NA","0","9","NA","9","0","9","NA","NA","NA","9","0","0","NA","NA","9","9","9","9","9","10","/","Wed Jun 14 13:40:23 2023","Executes Python code","yes","m21-ba-lexicalDecision.osexp","C:\Users\emoore8\Desktop\m21_vsl-main","no","mono","no","18","no","white","no","yes","1080","legacy","9","9","C:/Users/emoore8/Desktop/m21_vsl-main/subject-4.csv","xpyriment","Lentiform Loewenfeld","3.3.11","0","/","NA","NA","NA","NA","space","/","813","NA","NA","NA","NA","162246","813","2","legacy","1024","2","48000","-16","AB_m21","4","even","FILL_W","IRON","1511","208307","206324","203099","163927","NA","NA","NA","NA","NA","206824","NA","NA","NA","205822","NA","205798","1680","208607","NA","NA","NA","206865","1511","1665","NA","NA","207679","207704","205798","206824","206845","morph21_Oliver/Morris","7","10064","10","yes","1920","33"
"400","","63.63636363636363","63.63636363636363","1024","1024","black","no","xpyriment","legacy","legacy","0","202","NA","uniform","NA","NA","NA","0","undefined","0","0","10","10","10","0","10","10","10","NA","0","10","NA","NA","0","10","NA","10","0","10","NA","NA","NA","10","0","0","NA","NA","10","10","10","10","10","11","/","Wed Jun 14 13:40:23 2023","Executes Python code","yes","m21-ba-lexicalDecision.osexp","C:\Users\emoore8\Desktop\m21_vsl-main","no","mono","no","18","no","white","no","yes","1080","legacy","10","10","C:/Users/emoore8/Desktop/m21_vsl-main/subject-4.csv","xpyriment","Lentiform Loewenfeld","3.3.11","0","None","NA","NA","NA","NA","space","None","1200","NA","NA","NA","NA","162246","1200","2","legacy","1024","2","48000","-16","AB_m21","4","even","CW_L","CLOUDLESS","1511","212476","210107","203099","163927","NA","NA","NA","NA","NA","210607","NA","NA","NA","209607","NA","209581","1680","212876","NA","NA","NA","210648","1511","1665","NA","NA","211848","211872","209581","210607","210628","morph21_Oliver/Morris","7","11264","11","yes","1920","33"
"250","","58.333333333333336","58.333333333333336","1038.6666666666667","1038.6666666666667","black","no","xpyriment","legacy","legacy","0","204","NA","uniform","NA","NA","NA","0","undefined","0","0","11","11","11","0","11","11","11","NA","0","11","NA","NA","0","11","NA","11","0","11","NA","NA","NA","11","0","0","NA","NA","11","11","11","11","11","12","z","Wed Jun 14 13:40:23 2023","Executes Python code","yes","m21-ba-lexicalDecision.osexp","C:\Users\emoore8\Desktop\m21_vsl-main","no","mono","no","18","no","white","no","yes","1080","legacy","11","11","C:/Users/emoore8/Desktop/m21_vsl-main/subject-4.csv","xpyriment","Lentiform Loewenfeld","3.3.11","0","None","NA","NA","NA","NA","space","None","1200","NA","NA","NA","NA","162246","1200","2","legacy","1024","2","48000","-16","AB_m21","4","even","NW_L_COMP","STIRANGE","1511","218252","214381","216748","163927","NA","NA","NA","NA","NA","214881","NA","NA","NA","213881","NA","213854","1680","218502","NA","NA","NA","214921","1511","1665","NA","NA","216121","216145","213854","214881","214901","morph21_Oliver/Morris","7","12464","12","yes","1920","1"
"300","","61.53846153846154","61.53846153846154","1021.5384615384615","1021.5384615384615","black","no","xpyriment","legacy","legacy","0","202","NA","uniform","NA","NA","NA","1","undefined","1","0","12","12","12","0","12","12","12","NA","0","12","NA","NA","0","12","NA","12","0","12","NA","NA","NA","12","0","0","NA","NA","12","12","12","12","12","13","/","Wed Jun 14 13:40:23 2023","Executes Python code","yes","m21-ba-lexicalDecision.osexp","C:\Users\emoore8\Desktop\m21_vsl-main","no","mono","no","18","no","white","no","yes","1080","legacy","12","12","C:/Users/emoore8/Desktop/m21_vsl-main/subject-4.csv","xpyriment","Lentiform Loewenfeld","3.3.11","0","/","NA","NA","NA","NA","space","/","816","NA","NA","NA","NA","162246","816","2","legacy","1024","2","48000","-16","AB_m21","4","even","CW_L","DOUBTFUL","1511","222011","220025","216748","163927","NA","NA","NA","NA","NA","220525","NA","NA","NA","219525","NA","219499","1680","222311","NA","NA","NA","220566","1511","1665","NA","NA","221383","221407","219499","220525","220546","morph21_Oliver/Morris","8","13280","13","yes","1920","21"
"250","","57.142857142857146","57.142857142857146","1034.2857142857142","1034.2857142857142","black","no","xpyriment","legacy","legacy","0","207","NA","uniform","NA","NA","NA","0","undefined","0","0","13","13","13","0","13","13","13","NA","0","13","NA","NA","0","13","NA","13","0","13","NA","NA","NA","13","0","0","NA","NA","13","13","13","13","13","14","/","Wed Jun 14 13:40:23 2023","Executes Python code","yes","m21-ba-lexicalDecision.osexp","C:\Users\emoore8\Desktop\m21_vsl-main","no","mono","no","18","no","white","no","yes","1080","legacy","13","13","C:/Users/emoore8/Desktop/m21_vsl-main/subject-4.csv","xpyriment","Lentiform Loewenfeld","3.3.11","0","None","NA","NA","NA","NA","space","None","1200","NA","NA","NA","NA","162246","1200","2","legacy","1024","2","48000","-16","AB_m21","4","even","FILL_W","SPLICE","1511","226180","223812","216748","163927","NA","NA","NA","NA","NA","224312","NA","NA","NA","223311","NA","223286","1680","226431","NA","NA","NA","224353","1511","1665","NA","NA","225553","225577","223286","224312","224333","morph21_Oliver/Morris","8","14480","14","yes","1920","22"
"400","","60","60","1013.2","1013.2","black","no","xpyriment","legacy","legacy","0","202","NA","uniform","NA","NA","NA","1","undefined","1","0","14","14","14","0","14","14","14","NA","0","14","NA","NA","0","14","NA","14","0","14","NA","NA","NA","14","0","0","NA","NA","14","14","14","14","14","15","/","Wed Jun 14 13:40:23 2023","Executes Python code","yes","m21-ba-lexicalDecision.osexp","C:\Users\emoore8\Desktop\m21_vsl-main","no","mono","no","18","no","white","no","yes","1080","legacy","14","14","C:/Users/emoore8/Desktop/m21_vsl-main/subject-4.csv","xpyriment","Lentiform Loewenfeld","3.3.11","0","/","NA","NA","NA","NA","space","/","718","NA","NA","NA","NA","162246","718","2","legacy","1024","2","48000","-16","AB_m21","4","even","CW_L","STYLISH","1511","231330","227939","229826","163927","NA","NA","NA","NA","NA","228440","NA","NA","NA","227438","NA","227412","1680","231730","NA","NA","NA","228480","1511","1665","NA","NA","229198","229222","227412","228440","228460","morph21_Oliver/Morris","9","15198","15","yes","1920","29"
"200","","56.25","56.25","1024.875","1024.875","black","no","xpyriment","legacy","legacy","0","207","NA","uniform","NA","NA","NA","0","undefined","0","0","15","15","15","0","15","15","15","NA","0","15","NA","NA","0","15","NA","15","0","15","NA","NA","NA","15","0","0","NA","NA","15","15","15","15","15","16","/","Wed Jun 14 13:40:23 2023","Executes Python code","yes","m21-ba-lexicalDecision.osexp","C:\Users\emoore8\Desktop\m21_vsl-main","no","mono","no","18","no","white","no","yes","1080","legacy","15","15","C:/Users/emoore8/Desktop/m21_vsl-main/subject-4.csv","xpyriment","Lentiform Loewenfeld","3.3.11","0","None","NA","NA","NA","NA","space","None","1200","NA","NA","NA","NA","162246","1200","2","legacy","1024","2","48000","-16","AB_m21","4","even","FILL_W","FLESH","1511","235617","233251","229826","163927","NA","NA","NA","NA","NA","233751","NA","NA","NA","232751","NA","232721","1680","235817","NA","NA","NA","233791","1511","1665","NA","NA","234991","235014","232721","233751","233771","morph21_Oliver/Morris","9","16398","16","yes","1920","32"
"300","","58.8235294117647","58.8235294117647","1015.1176470588235","1015.1176470588235","black","no","xpyriment","legacy","legacy","0","201","NA","uniform","NA","NA","NA","1","undefined","1","0","16","16","16","0","16","16","16","NA","0","16","NA","NA","0","16","NA","16","0","16","NA","NA","NA","16","0","0","NA","NA","16","16","16","16","16","17","/","Wed Jun 14 13:40:23 2023","Executes Python code","yes","m21-ba-lexicalDecision.osexp","C:\Users\emoore8\Desktop\m21_vsl-main","no","mono","no","18","no","white","no","yes","1080","legacy","16","16","C:/Users/emoore8/Desktop/m21_vsl-main/subject-4.csv","xpyriment","Lentiform Loewenfeld","3.3.11","0","/","NA","NA","NA","NA","space","/","859","NA","NA","NA","NA","162246","859","2","legacy","1024","2","48000","-16","AB_m21","4","even","CW_S","BUYER","1511","239354","237327","229826","163927","NA","NA","NA","NA","NA","237827","NA","NA","NA","236827","NA","236804","1680","239654","NA","NA","NA","237867","1511","1665","NA","NA","238727","238751","236804","237827","237847","morph21_Oliver/Morris","10","17257","17","yes","1920","21"
"400","","61.111111111111114","61.111111111111114","1021.0555555555555","1021.0555555555555","black","no","xpyriment","legacy","legacy","0","202","NA","uniform","NA","NA","NA","1","undefined","1","0","17","17","17","0","17","17","17","NA","0","17","NA","NA","0","17","NA","17","0","17","NA","NA","NA","17","0","0","NA","NA","17","17","17","17","17","18","/","Wed Jun 14 13:40:23 2023","Executes Python code","yes","m21-ba-lexicalDecision.osexp","C:\Users\emoore8\Desktop\m21_vsl-main","no","mono","no","18","no","white","no","yes","1080","legacy","17","17","C:/Users/emoore8/Desktop/m21_vsl-main/subject-4.csv","xpyriment","Lentiform Loewenfeld","3.3.11","0","/","NA","NA","NA","NA","space","/","1122","NA","NA","NA","NA","162246","1122","2","legacy","1024","2","48000","-16","AB_m21","4","even","CW_L","BLINDNESS","1511","244954","241159","243449","163927","NA","NA","NA","NA","NA","241659","NA","NA","NA","240658","NA","240634","1680","245354","NA","NA","NA","241700","1511","1665","NA","NA","242822","242846","240634","241659","241680","morph21_Oliver/Morris","11","18379","18","yes","1920","40"
"300","","63.1578947368421","63.1578947368421","1006.8421052631579","1006.8421052631579","black","no","xpyriment","legacy","legacy","0","201","NA","uniform","NA","NA","NA","1","undefined","1","0","18","18","18","0","18","18","18","NA","0","18","NA","NA","0","18","NA","18","0","18","NA","NA","NA","18","0","0","NA","NA","18","18","18","18","18","19","/","Wed Jun 14 13:40:23 2023","Executes Python code","yes","m21-ba-lexicalDecision.osexp","C:\Users\emoore8\Desktop\m21_vsl-main","no","mono","no","18","no","white","no","yes","1080","legacy","18","18","C:/Users/emoore8/Desktop/m21_vsl-main/subject-4.csv","xpyriment","Lentiform Loewenfeld","3.3.11","0","/","NA","NA","NA","NA","space","/","751","NA","NA","NA","NA","162246","751","2","legacy","1024","2","48000","-16","AB_m21","4","even","CW_S","DESTROYER","1511","248793","246873","243449","163927","NA","NA","NA","NA","NA","247374","NA","NA","NA","246373","NA","246347","1680","249093","NA","NA","NA","247415","1511","1665","NA","NA","248167","248190","246347","247374","247395","morph21_Oliver/Morris","12","19130","19","yes","1920","14"
"350","","65","65","983.6","983.6","black","no","xpyriment","legacy","legacy","0","207","NA","uniform","NA","NA","NA","1","undefined","1","0","19","19","19","0","19","19","19","NA","0","19","NA","NA","0","19","NA","19","0","19","NA","NA","NA","19","0","0","NA","NA","19","19","19","19","19","20","/","Wed Jun 14 13:40:23 2023","Executes Python code","yes","m21-ba-lexicalDecision.osexp","C:\Users\emoore8\Desktop\m21_vsl-main","no","mono","no","18","no","white","no","yes","1080","legacy","19","19","C:/Users/emoore8/Desktop/m21_vsl-main/subject-4.csv","xpyriment","Lentiform Loewenfeld","3.3.11","0","/","NA","NA","NA","NA","space","/","542","NA","NA","NA","NA","162246","542","2","legacy","1024","2","48000","-16","AB_m21","4","even","FILL_W","FOLLOW","1511","252300","250588","243449","163927","NA","NA","NA","NA","NA","251088","NA","NA","NA","250088","NA","250060","1680","252650","NA","NA","NA","251128","1511","1665","NA","NA","251670","251695","250060","251088","251108","morph21_Oliver/Morris","13","19672","20","yes","1920","17"
"300","","66.66666666666667","66.66666666666667","991.1904761904761","991.1904761904761","black","no","xpyriment","legacy","legacy","0","202","NA","uniform","NA","NA","NA","1","undefined","1","0","20","20","20","0","20","20","20","NA","0","20","NA","NA","0","20","NA","20","0","20","NA","NA","NA","20","0","0","NA","NA","20","20","20","20","20","21","/","Wed Jun 14 13:40:23 2023","Executes Python code","yes","m21-ba-lexicalDecision.osexp","C:\Users\emoore8\Desktop\m21_vsl-main","no","mono","no","18","no","white","no","yes","1080","legacy","20","20","C:/Users/emoore8/Desktop/m21_vsl-main/subject-4.csv","xpyriment","Lentiform Loewenfeld","3.3.11","0","/","NA","NA","NA","NA","space","/","1143","NA","NA","NA","NA","162246","1143","2","legacy","1024","2","48000","-16","AB_m21","4","even","CW_L","KNOCKER","1511","257995","254178","256490","163927","NA","NA","NA","NA","NA","254678","NA","NA","NA","253677","NA","253651","1680","258295","NA","NA","NA","254719","1511","1665","NA","NA","255863","255887","253651","254678","254699","morph21_Oliver/Morris","14","20815","21","yes","1920","4"
"400","","68.18181818181819","68.18181818181819","993.3636363636364","993.3636363636364","black","no","xpyriment","legacy","legacy","0","201","NA","uniform","NA","NA","NA","1","undefined","1","0","21","21","21","0","21","21","21","NA","0","21","NA","NA","0","21","NA","21","0","21","NA","NA","NA","21","0","0","NA","NA","21","21","21","21","21","22","/","Wed Jun 14 13:40:23 2023","Executes Python code","yes","m21-ba-lexicalDecision.osexp","C:\Users\emoore8\Desktop\m21_vsl-main","no","mono","no","18","no","white","no","yes","1080","legacy","21","21","C:/Users/emoore8/Desktop/m21_vsl-main/subject-4.csv","xpyriment","Lentiform Loewenfeld","3.3.11","0","/","NA","NA","NA","NA","space","/","1039","NA","NA","NA","NA","162246","1039","2","legacy","1024","2","48000","-16","AB_m21","4","even","CW_S","ALLOWANCE","1511","262025","259819","256490","163927","NA","NA","NA","NA","NA","260319","NA","NA","NA","259317","NA","259288","1680","262425","NA","NA","NA","260359","1511","1665","NA","NA","261399","261422","259288","260319","260339","morph21_Oliver/Morris","15","21854","22","yes","1920","5"
"300","","69.56521739130434","69.56521739130434","981.4782608695652","981.4782608695652","black","no","xpyriment","legacy","legacy","0","201","NA","uniform","NA","NA","NA","1","undefined","1","0","22","22","22","0","22","22","22","NA","0","22","NA","NA","0","22","NA","22","0","22","NA","NA","NA","22","0","0","NA","NA","22","22","22","22","22","23","/","Wed Jun 14 13:40:23 2023","Executes Python code","yes","m21-ba-lexicalDecision.osexp","C:\Users\emoore8\Desktop\m21_vsl-main","no","mono","no","18","no","white","no","yes","1080","legacy","22","22","C:/Users/emoore8/Desktop/m21_vsl-main/subject-4.csv","xpyriment","Lentiform Loewenfeld","3.3.11","0","/","NA","NA","NA","NA","space","/","720","NA","NA","NA","NA","162246","720","2","legacy","1024","2","48000","-16","AB_m21","4","even","CW_S","MAGICAL","1511","265811","263922","256490","163927","NA","NA","NA","NA","NA","264422","NA","NA","NA","263421","NA","263398","1680","266111","NA","NA","NA","264462","1511","1665","NA","NA","265182","265207","263398","264422","264442","morph21_Oliver/Morris","16","22574","23","yes","1920","4"
"400","","70.83333333333333","70.83333333333333","967.1666666666666","967.1666666666666","black","no","xpyriment","legacy","legacy","0","202","NA","uniform","NA","NA","NA","1","undefined","1","0","23","23","23","0","23","23","23","NA","0","23","NA","NA","0","23","NA","23","0","23","NA","NA","NA","23","0","0","NA","NA","23","23","23","23","23","24","/","Wed Jun 14 13:40:23 2023","Executes Python code","yes","m21-ba-lexicalDecision.osexp","C:\Users\emoore8\Desktop\m21_vsl-main","no","mono","no","18","no","white","no","yes","1080","legacy","23","23","C:/Users/emoore8/Desktop/m21_vsl-main/subject-4.csv","xpyriment","Lentiform Loewenfeld","3.3.11","0","/","NA","NA","NA","NA","space","/","638","NA","NA","NA","NA","162246","638","2","legacy","1024","2","48000","-16","AB_m21","4","even","CW_L","SPELLER","1511","270961","267651","269457","163927","NA","NA","NA","NA","NA","268152","NA","NA","NA","267151","NA","267124","1680","271361","NA","NA","NA","268192","1511","1665","NA","NA","268831","268854","267124","268152","268172","morph21_Oliver/Morris","17","23212","24","yes","1920","3"
"400","","72","72","956.08","956.08","black","no","xpyriment","legacy","legacy","0","202","NA","uniform","NA","NA","NA","1","undefined","1","0","24","24","24","0","24","24","24","NA","0","24","NA","NA","0","24","NA","24","0","24","NA","NA","NA","24","0","0","NA","NA","24","24","24","24","24","25","/","Wed Jun 14 13:40:23 2023","Executes Python code","yes","m21-ba-lexicalDecision.osexp","C:\Users\emoore8\Desktop\m21_vsl-main","no","mono","no","18","no","white","no","yes","1080","legacy","24","24","C:/Users/emoore8/Desktop/m21_vsl-main/subject-4.csv","xpyriment","Lentiform Loewenfeld","3.3.11","0","/","NA","NA","NA","NA","space","/","690","NA","NA","NA","NA","162246","690","2","legacy","1024","2","48000","-16","AB_m21","4","even","CW_L","LOCKER","1511","274731","272870","269457","163927","NA","NA","NA","NA","NA","273372","NA","NA","NA","272368","NA","272341","1680","275131","NA","NA","NA","273412","1511","1665","NA","NA","274103","274126","272341","273372","273392","morph21_Oliver/Morris","18","23902","25","yes","1920","8"
"400","","69.23076923076923","69.23076923076923","965.4615384615385","965.4615384615385","black","no","xpyriment","legacy","legacy","0","207","NA","uniform","NA","NA","NA","0","undefined","0","0","25","25","25","0","25","25","25","NA","0","25","NA","NA","0","25","NA","25","0","25","NA","NA","NA","25","0","0","NA","NA","25","25","25","25","25","26","/","Wed Jun 14 13:40:23 2023","Executes Python code","yes","m21-ba-lexicalDecision.osexp","C:\Users\emoore8\Desktop\m21_vsl-main","no","mono","no","18","no","white","no","yes","1080","legacy","25","25","C:/Users/emoore8/Desktop/m21_vsl-main/subject-4.csv","xpyriment","Lentiform Loewenfeld","3.3.11","0","None","NA","NA","NA","NA","space","None","1200","NA","NA","NA","NA","162246","1200","2","legacy","1024","2","48000","-16","AB_m21","4","even","FILL_W","CRUNCH","1511","279016","276648","269457","163927","NA","NA","NA","NA","NA","277148","NA","NA","NA","276148","NA","276121","1680","279416","NA","NA","NA","277189","1511","1665","NA","NA","278389","278412","276121","277148","277169","morph21_Oliver/Morris","18","25102","26","yes","1920","20"
"350","","70.37037037037037","70.37037037037037","973.3333333333334","973.3333333333334","black","no","xpyriment","legacy","legacy","0","201","NA","uniform","NA","NA","NA","1","undefined","1","0","26","26","26","0","26","26","26","NA","0","26","NA","NA","0","26","NA","26","0","26","NA","NA","NA","26","0","0","NA","NA","26","26","26","26","26","27","/","Wed Jun 14 13:40:23 2023","Executes Python code","yes","m21-ba-lexicalDecision.osexp","C:\Users\emoore8\Desktop\m21_vsl-main","no","mono","no","18","no","white","no","yes","1080","legacy","26","26","C:/Users/emoore8/Desktop/m21_vsl-main/subject-4.csv","xpyriment","Lentiform Loewenfeld","3.3.11","0","/","NA","NA","NA","NA","space","/","1178","NA","NA","NA","NA","162246","1178","2","legacy","1024","2","48000","-16","AB_m21","4","even","CW_S","STRANGENESS","1511","284771","280918","283265","163927","NA","NA","NA","NA","NA","281419","NA","NA","NA","280417","NA","280389","1680","285121","NA","NA","NA","281460","1511","1665","NA","NA","282639","282662","280389","281419","281440","morph21_Oliver/Morris","19","26280","27","yes","1920","46"
"300","","67.85714285714286","67.85714285714286","981.4285714285714","981.4285714285714","black","no","xpyriment","legacy","legacy","0","206","NA","uniform","NA","NA","NA","0","undefined","0","0","27","27","27","0","27","27","27","NA","0","27","NA","NA","0","27","NA","27","0","27","NA","NA","NA","27","0","0","NA","NA","27","27","27","27","27","28","z","Wed Jun 14 13:40:23 2023","Executes Python code","yes","m21-ba-lexicalDecision.osexp","C:\Users\emoore8\Desktop\m21_vsl-main","no","mono","no","18","no","white","no","yes","1080","legacy","27","27","C:/Users/emoore8/Desktop/m21_vsl-main/subject-4.csv","xpyriment","Lentiform Loewenfeld","3.3.11","0","None","NA","NA","NA","NA","space","None","1200","NA","NA","NA","NA","162246","1200","2","legacy","1024","2","48000","-16","AB_m21","4","even","NW_L_SIMP","LONGNESS","1511","289014","286648","283265","163927","NA","NA","NA","NA","NA","287148","NA","NA","NA","286148","NA","286120","1680","289314","NA","NA","NA","287188","1511","1665","NA","NA","288388","288411","286120","287147","287168","morph21_Oliver/Morris","19","27480","28","yes","1920","17"
"200","","65.51724137931035","65.51724137931035","988.9655172413793","988.9655172413793","black","no","xpyriment","legacy","legacy","0","205","NA","uniform","NA","NA","NA","0","undefined","0","0","28","28","28","0","28","28","28","NA","0","28","NA","NA","0","28","NA","28","0","28","NA","NA","NA","28","0","0","NA","NA","28","28","28","28","28","29","z","Wed Jun 14 13:40:23 2023","Executes Python code","yes","m21-ba-lexicalDecision.osexp","C:\Users\emoore8\Desktop\m21_vsl-main","no","mono","no","18","no","white","no","yes","1080","legacy","28","28","C:/Users/emoore8/Desktop/m21_vsl-main/subject-4.csv","xpyriment","Lentiform Loewenfeld","3.3.11","0","None","NA","NA","NA","NA","space","None","1200","NA","NA","NA","NA","162246","1200","2","legacy","1024","2","48000","-16","AB_m21","4","even","NW_S_SIMP","NULLISH","1511","293190","290824","283265","163927","NA","NA","NA","NA","NA","291324","NA","NA","NA","290324","NA","290296","1680","293390","NA","NA","NA","291364","1511","1665","NA","NA","292564","292587","290296","291324","291344","morph21_Oliver/Morris","19","28680","29","yes","1920","23"
"250","","66.66666666666667","66.66666666666667","995.4333333333333","995.4333333333333","black","no","xpyriment","legacy","legacy","0","202","NA","uniform","NA","NA","NA","1","undefined","1","0","29","29","29","0","29","29","29","NA","0","29","NA","NA","0","29","NA","29","0","29","NA","NA","NA","29","0","0","NA","NA","29","29","29","29","29","30","/","Wed Jun 14 13:40:23 2023","Executes Python code","yes","m21-ba-lexicalDecision.osexp","C:\Users\emoore8\Desktop\m21_vsl-main","no","mono","no","18","no","white","no","yes","1080","legacy","29","29","C:/Users/emoore8/Desktop/m21_vsl-main/subject-4.csv","xpyriment","Lentiform Loewenfeld","3.3.11","0","/","NA","NA","NA","NA","space","/","1183","NA","NA","NA","NA","162246","1183","2","legacy","1024","2","48000","-16","AB_m21","4","even","CW_L","FLEXIBLE","1511","298756","294897","297251","163927","NA","NA","NA","NA","NA","295399","NA","NA","NA","294396","NA","294372","1680","299006","NA","NA","NA","295439","1511","1665","NA","NA","296623","296647","294372","295399","295419","morph21_Oliver/Morris","20","29863","30","yes","1920","22"
"400","","67.74193548387096","67.74193548387096","986.3870967741935","986.3870967741935","black","no","xpyriment","legacy","legacy","0","208","NA","uniform","NA","NA","NA","1","undefined","1","0","30","30","30","0","30","30","30","NA","0","30","NA","NA","0","30","NA","30","0","30","NA","NA","NA","30","0","0","NA","NA","30","30","30","30","30","31","z","Wed Jun 14 13:40:23 2023","Executes Python code","yes","m21-ba-lexicalDecision.osexp","C:\Users\emoore8\Desktop\m21_vsl-main","no","mono","no","18","no","white","no","yes","1080","legacy","30","30","C:/Users/emoore8/Desktop/m21_vsl-main/subject-4.csv","xpyriment","Lentiform Loewenfeld","3.3.11","0","z","NA","NA","NA","NA","space","z","715","NA","NA","NA","NA","162246","715","2","legacy","1024","2","48000","-16","AB_m21","4","even","FILL_NW","GIKE","1511","302417","300533","297251","163927","NA","NA","NA","NA","NA","301034","NA","NA","NA","300032","NA","300006","1680","302817","NA","NA","NA","301075","1511","1665","NA","NA","301791","301814","300006","301034","301055","morph21_Oliver/Morris","21","30578","31","yes","1920","24"
"250","","68.75","68.75","983","983","black","no","xpyriment","legacy","legacy","0","204","NA","uniform","NA","NA","NA","1","undefined","1","0","31","31","31","0","31","31","31","NA","0","31","NA","NA","0","31","NA","31","0","31","NA","NA","NA","31","0","0","NA","NA","31","31","31","31","31","32","z","Wed Jun 14 13:40:23 2023","Executes Python code","yes","m21-ba-lexicalDecision.osexp","C:\Users\emoore8\Desktop\m21_vsl-main","no","mono","no","18","no","white","no","yes","1080","legacy","31","31","C:/Users/emoore8/Desktop/m21_vsl-main/subject-4.csv","xpyriment","Lentiform Loewenfeld","3.3.11","0","z","NA","NA","NA","NA","space","z","878","NA","NA","NA","NA","162246","878","2","legacy","1024","2","48000","-16","AB_m21","4","even","NW_L_COMP","FREENELS","1511","306394","304346","297251","163927","NA","NA","NA","NA","NA","304847","NA","NA","NA","303846","NA","303819","1680","306644","NA","NA","NA","304888","1511","1665","NA","NA","305766","305790","303819","304847","304868","morph21_Oliver/Morris","22","31456","32","yes","1920","15"
"350","","69.6969696969697","69.6969696969697","971.2424242424242","971.2424242424242","black","no","xpyriment","legacy","legacy","0","207","NA","uniform","NA","NA","NA","1","undefined","1","0","32","32","32","0","32","32","32","NA","0","32","NA","NA","0","32","NA","32","0","32","NA","NA","NA","32","0","0","NA","NA","32","32","32","32","32","33","/","Wed Jun 14 13:40:23 2023","Executes Python code","yes","m21-ba-lexicalDecision.osexp","C:\Users\emoore8\Desktop\m21_vsl-main","no","mono","no","18","no","white","no","yes","1080","legacy","32","32","C:/Users/emoore8/Desktop/m21_vsl-main/subject-4.csv","xpyriment","Lentiform Loewenfeld","3.3.11","0","/","NA","NA","NA","NA","space","/","595","NA","NA","NA","NA","162246","595","2","legacy","1024","2","48000","-16","AB_m21","4","even","FILL_W","LIFT","1511","311417","308151","309914","163927","NA","NA","NA","NA","NA","308651","NA","NA","NA","307651","NA","307623","1680","311767","NA","NA","NA","308691","1511","1665","NA","NA","309287","309310","307623","308651","308671","morph21_Oliver/Morris","23","32051","33","yes","1920","39"
"400","","70.58823529411765","70.58823529411765","975.8235294117648","975.8235294117648","black","no","xpyriment","legacy","legacy","0","206","NA","uniform","NA","NA","NA","1","undefined","1","0","33","33","33","0","33","33","33","NA","0","33","NA","NA","0","33","NA","33","0","33","NA","NA","NA","33","0","0","NA","NA","33","33","33","33","33","34","z","Wed Jun 14 13:40:23 2023","Executes Python code","yes","m21-ba-lexicalDecision.osexp","C:\Users\emoore8\Desktop\m21_vsl-main","no","mono","no","18","no","white","no","yes","1080","legacy","33","33","C:/Users/emoore8/Desktop/m21_vsl-main/subject-4.csv","xpyriment","Lentiform Loewenfeld","3.3.11","0","z","NA","NA","NA","NA","space","z","1127","NA","NA","NA","NA","162246","1127","2","legacy","1024","2","48000","-16","AB_m21","4","even","NW_L_SIMP","CLASSOUS","1511","315586","313290","309914","163927","NA","NA","NA","NA","NA","313790","NA","NA","NA","312790","NA","312760","1680","315986","NA","NA","NA","313831","1511","1665","NA","NA","314958","314983","312760","313790","313811","morph21_Oliver/Morris","24","33178","34","yes","1920","18"
"400","","71.42857142857143","71.42857142857143","977.7714285714286","977.7714285714286","black","no","xpyriment","legacy","legacy","0","205","NA","uniform","NA","NA","NA","1","undefined","1","0","34","34","34","0","34","34","34","NA","0","34","NA","NA","0","34","NA","34","0","34","NA","NA","NA","34","0","0","NA","NA","34","34","34","34","34","35","z","Wed Jun 14 13:40:23 2023","Executes Python code","yes","m21-ba-lexicalDecision.osexp","C:\Users\emoore8\Desktop\m21_vsl-main","no","mono","no","18","no","white","no","yes","1080","legacy","34","34","C:/Users/emoore8/Desktop/m21_vsl-main/subject-4.csv","xpyriment","Lentiform Loewenfeld","3.3.11","0","z","NA","NA","NA","NA","space","z","1044","NA","NA","NA","NA","162246","1044","2","legacy","1024","2","48000","-16","AB_m21","4","even","NW_S_SIMP","URNIST","1511","319698","317486","309914","163927","NA","NA","NA","NA","NA","317986","NA","NA","NA","316986","NA","316960","1680","320098","NA","NA","NA","318026","1511","1665","NA","NA","319071","319094","316960","317986","318006","morph21_Oliver/Morris","25","34222","35","yes","1920","5"
"250","","72.22222222222223","72.22222222222223","971.9722222222222","971.9722222222222","black","no","xpyriment","legacy","legacy","0","203","NA","uniform","NA","NA","NA","1","undefined","1","0","35","35","35","0","35","35","35","NA","0","35","NA","NA","0","35","NA","35","0","35","NA","NA","NA","35","0","0","NA","NA","35","35","35","35","35","36","z","Wed Jun 14 13:40:23 2023","Executes Python code","yes","m21-ba-lexicalDecision.osexp","C:\Users\emoore8\Desktop\m21_vsl-main","no","mono","no","18","no","white","no","yes","1080","legacy","35","35","C:/Users/emoore8/Desktop/m21_vsl-main/subject-4.csv","xpyriment","Lentiform Loewenfeld","3.3.11","0","z","NA","NA","NA","NA","space","z","769","NA","NA","NA","NA","162246","769","2","legacy","1024","2","48000","-16","AB_m21","4","even","NW_S_COMP","BEEREL","1511","325043","321599","323540","163927","NA","NA","NA","NA","NA","322100","NA","NA","NA","321097","NA","321074","1680","325293","NA","NA","NA","322141","1511","1665","NA","NA","322911","322935","321074","322100","322121","morph21_Oliver/Morris","26","34991","36","yes","1920","5"
"350","","70.27027027027027","70.27027027027027","978.1351351351351","978.1351351351351","black","no","xpyriment","legacy","legacy","0","202","NA","uniform","NA","NA","NA","0","undefined","0","0","36","36","36","0","36","36","36","NA","0","36","NA","NA","0","36","NA","36","0","36","NA","NA","NA","36","0","0","NA","NA","36","36","36","36","36","37","/","Wed Jun 14 13:40:23 2023","Executes Python code","yes","m21-ba-lexicalDecision.osexp","C:\Users\emoore8\Desktop\m21_vsl-main","no","mono","no","18","no","white","no","yes","1080","legacy","36","36","C:/Users/emoore8/Desktop/m21_vsl-main/subject-4.csv","xpyriment","Lentiform Loewenfeld","3.3.11","0","None","NA","NA","NA","NA","space","None","1200","NA","NA","NA","NA","162246","1200","2","legacy","1024","2","48000","-16","AB_m21","4","even","CW_L","SWIMMER","1511","329168","326798","323540","163927","NA","NA","NA","NA","NA","327299","NA","NA","NA","326296","NA","326273","1680","329518","NA","NA","NA","327340","1511","1665","NA","NA","328540","328564","326273","327299","327320","morph21_Oliver/Morris","26","36191","37","yes","1920","5"
"300","","68.42105263157895","68.42105263157895","983.9736842105264","983.9736842105264","black","no","xpyriment","legacy","legacy","0","201","NA","uniform","NA","NA","NA","0","undefined","0","0","37","37","37","0","37","37","37","NA","0","37","NA","NA","0","37","NA","37","0","37","NA","NA","NA","37","0","0","NA","NA","37","37","37","37","37","38","/","Wed Jun 14 13:40:23 2023","Executes Python code","yes","m21-ba-lexicalDecision.osexp","C:\Users\emoore8\Desktop\m21_vsl-main","no","mono","no","18","no","white","no","yes","1080","legacy","37","37","C:/Users/emoore8/Desktop/m21_vsl-main/subject-4.csv","xpyriment","Lentiform Loewenfeld","3.3.11","0","None","NA","NA","NA","NA","space","None","1200","NA","NA","NA","NA","162246","1200","2","legacy","1024","2","48000","-16","AB_m21","4","even","CW_S","INSISTENT","1511","333385","331019","323540","163927","NA","NA","NA","NA","NA","331519","NA","NA","NA","330519","NA","330491","1680","333685","NA","NA","NA","331559","1511","1665","NA","NA","332759","332782","330490","331519","331539","morph21_Oliver/Morris","26","37391","38","yes","1920","9"
"200","","69.23076923076923","69.23076923076923","979.1025641025641","979.1025641025641","black","no","xpyriment","legacy","legacy","0","203","NA","uniform","NA","NA","NA","1","undefined","1","0","38","38","38","0","38","38","38","NA","0","38","NA","NA","0","38","NA","38","0","38","NA","NA","NA","38","0","0","NA","NA","38","38","38","38","38","39","z","Wed Jun 14 13:40:23 2023","Executes Python code","yes","m21-ba-lexicalDecision.osexp","C:\Users\emoore8\Desktop\m21_vsl-main","no","mono","no","18","no","white","no","yes","1080","legacy","38","38","C:/Users/emoore8/Desktop/m21_vsl-main/subject-4.csv","xpyriment","Lentiform Loewenfeld","3.3.11","0","z","NA","NA","NA","NA","space","z","794","NA","NA","NA","NA","162246","794","2","legacy","1024","2","48000","-16","AB_m21","4","even","NW_S_COMP","ELMILT","1511","338656","335192","337153","163927","NA","NA","NA","NA","NA","335692","NA","NA","NA","334692","NA","334666","1680","338856","NA","NA","NA","335732","1511","1665","NA","NA","336527","336550","334666","335692","335712","morph21_Oliver/Morris","27","38185","39","yes","1920","10"
"350","","70","70","973.8","973.8","black","no","xpyriment","legacy","legacy","0","201","NA","uniform","NA","NA","NA","1","undefined","1","0","39","39","39","0","39","39","39","NA","0","39","NA","NA","0","39","NA","39","0","39","NA","NA","NA","39","0","0","NA","NA","39","39","39","39","39","40","/","Wed Jun 14 13:40:23 2023","Executes Python code","yes","m21-ba-lexicalDecision.osexp","C:\Users\emoore8\Desktop\m21_vsl-main","no","mono","no","18","no","white","no","yes","1080","legacy","39","39","C:/Users/emoore8/Desktop/m21_vsl-main/subject-4.csv","xpyriment","Lentiform Loewenfeld","3.3.11","0","/","NA","NA","NA","NA","space","/","767","NA","NA","NA","NA","162246","767","2","legacy","1024","2","48000","-16","AB_m21","4","even","CW_S","DENSELY","1511","342289","340354","337153","163927","NA","NA","NA","NA","NA","340854","NA","NA","NA","339854","NA","339827","1680","342639","NA","NA","NA","340895","1511","1665","NA","NA","341662","341686","339827","340854","340875","morph21_Oliver/Morris","28","38952","40","yes","1920","32"
"350","","70.73170731707317","70.73170731707317","973.8536585365854","973.8536585365854","black","no","xpyriment","legacy","legacy","0","203","NA","uniform","NA","NA","NA","1","undefined","1","0","40","40","40","0","40","40","40","NA","0","40","NA","NA","0","40","NA","40","0","40","NA","NA","NA","40","0","0","NA","NA","40","40","40","40","40","41","z","Wed Jun 14 13:40:23 2023","Executes Python code","yes","m21-ba-lexicalDecision.osexp","C:\Users\emoore8\Desktop\m21_vsl-main","no","mono","no","18","no","white","no","yes","1080","legacy","40","40","C:/Users/emoore8/Desktop/m21_vsl-main/subject-4.csv","xpyriment","Lentiform Loewenfeld","3.3.11","0","z","NA","NA","NA","NA","space","z","976","NA","NA","NA","NA","162246","976","2","legacy","1024","2","48000","-16","AB_m21","4","even","NW_S_COMP","PRINCEMANT","1511","346289","344145","337153","163927","NA","NA","NA","NA","NA","344645","NA","NA","NA","343644","NA","343618","1680","346639","NA","NA","NA","344686","1511","1665","NA","NA","345663","345686","343618","344645","344666","morph21_Oliver/Morris","29","39928","41","yes","1920","17"
"400","","69.04761904761905","69.04761904761905","979.2380952380952","979.2380952380952","black","no","xpyriment","legacy","legacy","0","207","NA","uniform","NA","NA","NA","0","undefined","0","0","41","41","41","0","41","41","41","NA","0","41","NA","NA","0","41","NA","41","0","41","NA","NA","NA","41","0","0","NA","NA","41","41","41","41","41","42","/","Wed Jun 14 13:40:23 2023","Executes Python code","yes","m21-ba-lexicalDecision.osexp","C:\Users\emoore8\Desktop\m21_vsl-main","no","mono","no","18","no","white","no","yes","1080","legacy","41","41","C:/Users/emoore8/Desktop/m21_vsl-main/subject-4.csv","xpyriment","Lentiform Loewenfeld","3.3.11","0","None","NA","NA","NA","NA","space","None","1200","NA","NA","NA","NA","162246","1200","2","legacy","1024","2","48000","-16","AB_m21","4","even","FILL_W","STEEP","1511","352012","348141","350507","163927","NA","NA","NA","NA","NA","348641","NA","NA","NA","347639","NA","347614","1680","352412","NA","NA","NA","348681","1511","1665","NA","NA","349881","349904","347614","348641","348661","morph21_Oliver/Morris","29","41128","42","yes","1920","16"
"300","","69.76744186046511","69.76744186046511","980.8604651162791","980.8604651162791","black","no","xpyriment","legacy","legacy","0","205","NA","uniform","NA","NA","NA","1","undefined","1","0","42","42","42","0","42","42","42","NA","0","42","NA","NA","0","42","NA","42","0","42","NA","NA","NA","42","0","0","NA","NA","42","42","42","42","42","43","z","Wed Jun 14 13:40:23 2023","Executes Python code","yes","m21-ba-lexicalDecision.osexp","C:\Users\emoore8\Desktop\m21_vsl-main","no","mono","no","18","no","white","no","yes","1080","legacy","42","42","C:/Users/emoore8/Desktop/m21_vsl-main/subject-4.csv","xpyriment","Lentiform Loewenfeld","3.3.11","0","z","NA","NA","NA","NA","space","z","1049","NA","NA","NA","NA","162246","1049","2","legacy","1024","2","48000","-16","AB_m21","4","even","NW_S_SIMP","SOCKETER","1511","356146","353929","350507","163927","NA","NA","NA","NA","NA","354429","NA","NA","NA","353428","NA","353404","1680","356446","NA","NA","NA","354469","1511","1665","NA","NA","355518","355543","353404","354429","354449","morph21_Oliver/Morris","30","42177","43","yes","1920","1"
"350","","68.18181818181819","68.18181818181819","985.8409090909091","985.8409090909091","black","no","xpyriment","legacy","legacy","0","201","NA","uniform","NA","NA","NA","0","undefined","0","0","43","43","43","0","43","43","43","NA","0","43","NA","NA","0","43","NA","43","0","43","NA","NA","NA","43","0","0","NA","NA","43","43","43","43","43","44","/","Wed Jun 14 13:40:23 2023","Executes Python code","yes","m21-ba-lexicalDecision.osexp","C:\Users\emoore8\Desktop\m21_vsl-main","no","mono","no","18","no","white","no","yes","1080","legacy","43","43","C:/Users/emoore8/Desktop/m21_vsl-main/subject-4.csv","xpyriment","Lentiform Loewenfeld","3.3.11","0","None","NA","NA","NA","NA","space","None","1200","NA","NA","NA","NA","162246","1200","2","legacy","1024","2","48000","-16","AB_m21","4","even","CW_S","RICHNESS","1511","360320","357953","350507","163927","NA","NA","NA","NA","NA","358453","NA","NA","NA","357453","NA","357426","1680","360671","NA","NA","NA","358494","1511","1665","NA","NA","359694","359717","357426","358453","358474","morph21_Oliver/Morris","30","43377","44","yes","1920","45"
"200","","66.66666666666667","66.66666666666667","990.6","990.6","black","no","xpyriment","legacy","legacy","0","208","NA","uniform","NA","NA","NA","0","undefined","0","0","44","44","44","0","44","44","44","NA","0","44","NA","NA","0","44","NA","44","0","44","NA","NA","NA","44","0","0","NA","NA","44","44","44","44","44","45","z","Wed Jun 14 13:40:23 2023","Executes Python code","yes","m21-ba-lexicalDecision.osexp","C:\Users\emoore8\Desktop\m21_vsl-main","no","mono","no","18","no","white","no","yes","1080","legacy","44","44","C:/Users/emoore8/Desktop/m21_vsl-main/subject-4.csv","xpyriment","Lentiform Loewenfeld","3.3.11","0","None","NA","NA","NA","NA","space","None","1200","NA","NA","NA","NA","162246","1200","2","legacy","1024","2","48000","-16","AB_m21","4","even","FILL_NW","SMADE","1511","366048","362175","364544","163927","NA","NA","NA","NA","NA","362677","NA","NA","NA","361674","NA","361647","1680","366248","NA","NA","NA","362717","1511","1665","NA","NA","363917","363941","361647","362676","362697","morph21_Oliver/Morris","30","44577","45","yes","1920","42"
"300","","67.3913043478261","67.3913043478261","990.6086956521739","990.6086956521739","black","no","xpyriment","legacy","legacy","0","204","NA","uniform","NA","NA","NA","1","undefined","1","0","45","45","45","0","45","45","45","NA","0","45","NA","NA","0","45","NA","45","0","45","NA","NA","NA","45","0","0","NA","NA","45","45","45","45","45","46","z","Wed Jun 14 13:40:23 2023","Executes Python code","yes","m21-ba-lexicalDecision.osexp","C:\Users\emoore8\Desktop\m21_vsl-main","no","mono","no","18","no","white","no","yes","1080","legacy","45","45","C:/Users/emoore8/Desktop/m21_vsl-main/subject-4.csv","xpyriment","Lentiform Loewenfeld","3.3.11","0","z","NA","NA","NA","NA","space","z","991","NA","NA","NA","NA","162246","991","2","legacy","1024","2","48000","-16","AB_m21","4","even","NW_L_COMP","ADDMANT","1511","369913","367755","364544","163927","NA","NA","NA","NA","NA","368255","NA","NA","NA","367255","NA","367231","1680","370213","NA","NA","NA","368295","1511","1665","NA","NA","369287","369310","367231","368255","368275","morph21_Oliver/Morris","31","45568","46","yes","1920","13"
"350","","68.08510638297872","68.08510638297872","986.3617021276596","986.3617021276596","black","no","xpyriment","legacy","legacy","0","202","NA","uniform","NA","NA","NA","1","undefined","1","0","46","46","46","0","46","46","46","NA","0","46","NA","NA","0","46","NA","46","0","46","NA","NA","NA","46","0","0","NA","NA","46","46","46","46","46","47","/","Wed Jun 14 13:40:23 2023","Executes Python code","yes","m21-ba-lexicalDecision.osexp","C:\Users\emoore8\Desktop\m21_vsl-main","no","mono","no","18","no","white","no","yes","1080","legacy","46","46","C:/Users/emoore8/Desktop/m21_vsl-main/subject-4.csv","xpyriment","Lentiform Loewenfeld","3.3.11","0","/","NA","NA","NA","NA","space","/","791","NA","NA","NA","NA","162246","791","2","legacy","1024","2","48000","-16","AB_m21","4","even","CW_L","BOMBER","1511","373689","371730","364544","163927","NA","NA","NA","NA","NA","372231","NA","NA","NA","371230","NA","371206","1680","374039","NA","NA","NA","372271","1511","1665","NA","NA","373063","373086","371206","372230","372251","morph21_Oliver/Morris","32","46359","47","yes","1920","7"
"350","","68.75","68.75","981.7083333333334","981.7083333333334","black","no","xpyriment","legacy","legacy","0","202","NA","uniform","NA","NA","NA","1","undefined","1","0","47","47","47","0","47","47","47","NA","0","47","NA","NA","0","47","NA","47","0","47","NA","NA","NA","47","0","0","NA","NA","47","47","47","47","47","48","/","Wed Jun 14 13:40:23 2023","Executes Python code","yes","m21-ba-lexicalDecision.osexp","C:\Users\emoore8\Desktop\m21_vsl-main","no","mono","no","18","no","white","no","yes","1080","legacy","47","47","C:/Users/emoore8/Desktop/m21_vsl-main/subject-4.csv","xpyriment","Lentiform Loewenfeld","3.3.11","0","/","NA","NA","NA","NA","space","/","763","NA","NA","NA","NA","162246","763","2","legacy","1024","2","48000","-16","AB_m21","4","even","CW_L","PUNCHER","1511","378984","375549","377481","163927","NA","NA","NA","NA","NA","376050","NA","NA","NA","375048","NA","375021","1680","379334","NA","NA","NA","376091","1511","1665","NA","NA","376855","376878","375021","376050","376071","morph21_Oliver/Morris","33","47122","48","yes","1920","1"
"200","","67.34693877551021","67.34693877551021","986.1632653061224","986.1632653061224","black","no","xpyriment","legacy","legacy","0","205","NA","uniform","NA","NA","NA","0","undefined","0","0","48","48","48","0","48","48","48","NA","0","48","NA","NA","0","48","NA","48","0","48","NA","NA","NA","48","0","0","NA","NA","48","48","48","48","48","49","z","Wed Jun 14 13:40:23 2023","Executes Python code","yes","m21-ba-lexicalDecision.osexp","C:\Users\emoore8\Desktop\m21_vsl-main","no","mono","no","18","no","white","no","yes","1080","legacy","48","48","C:/Users/emoore8/Desktop/m21_vsl-main/subject-4.csv","xpyriment","Lentiform Loewenfeld","3.3.11","0","None","NA","NA","NA","NA","space","None","1200","NA","NA","NA","NA","162246","1200","2","legacy","1024","2","48000","-16","AB_m21","4","even","NW_S_SIMP","GUMFUL","1511","383211","380845","377481","163927","NA","NA","NA","NA","NA","381345","NA","NA","NA","380345","NA","380319","1680","383411","NA","NA","NA","381385","1511","1665","NA","NA","382585","382608","380319","381345","381365","morph21_Oliver/Morris","33","48322","49","yes","1920","2"
"350","","66","66","990.44","990.44","black","no","xpyriment","legacy","legacy","0","206","NA","uniform","NA","NA","NA","0","undefined","0","0","49","49","49","0","49","49","49","NA","0","49","NA","NA","0","49","NA","49","0","49","NA","NA","NA","49","0","0","NA","NA","49","49","49","49","49","50","z","Wed Jun 14 13:40:23 2023","Executes Python code","yes","m21-ba-lexicalDecision.osexp","C:\Users\emoore8\Desktop\m21_vsl-main","no","mono","no","18","no","white","no","yes","1080","legacy","49","49","C:/Users/emoore8/Desktop/m21_vsl-main/subject-4.csv","xpyriment","Lentiform Loewenfeld","3.3.11","0","None","NA","NA","NA","NA","space","None","1200","NA","NA","NA","NA","162246","1200","2","legacy","1024","2","48000","-16","AB_m21","4","even","NW_L_SIMP","WITCHISH","1511","387282","384914","377481","163927","NA","NA","NA","NA","NA","385414","NA","NA","NA","384414","NA","384387","1680","387632","NA","NA","NA","385455","1511","1665","NA","NA","386655","386679","384387","385414","385435","morph21_Oliver/Morris","33","49522","50","yes","1920","11"
"400","","66.66666666666667","66.66666666666667","992.5098039215686","992.5098039215686","black","no","xpyriment","legacy","legacy","0","205","NA","uniform","NA","NA","NA","1","undefined","1","0","50","50","50","0","50","50","50","NA","0","50","NA","NA","0","50","NA","50","0","50","NA","NA","NA","50","0","0","NA","NA","50","50","50","50","50","51","z","Wed Jun 14 13:40:23 2023","Executes Python code","yes","m21-ba-lexicalDecision.osexp","C:\Users\emoore8\Desktop\m21_vsl-main","no","mono","no","18","no","white","no","yes","1080","legacy","50","50","C:/Users/emoore8/Desktop/m21_vsl-main/subject-4.csv","xpyriment","Lentiform Loewenfeld","3.3.11","0","z","NA","NA","NA","NA","space","z","1096","NA","NA","NA","NA","162246","1096","2","legacy","1024","2","48000","-16","AB_m21","4","even","NW_S_SIMP","MEDICALARY","1511","392916","389144","391411","163927","NA","NA","NA","NA","NA","389646","NA","NA","NA","388643","NA","388616","1680","393316","NA","NA","NA","389686","1511","1665","NA","NA","390783","390807","388616","389645","389666","morph21_Oliver/Morris","34","50618","51","yes","1920","18"
"400","","67.3076923076923","67.3076923076923","994.9230769230769","994.9230769230769","black","no","xpyriment","legacy","legacy","0","208","NA","uniform","NA","NA","NA","1","undefined","1","0","51","51","51","0","51","51","51","NA","0","51","NA","NA","0","51","NA","51","0","51","NA","NA","NA","51","0","0","NA","NA","51","51","51","51","51","52","z","Wed Jun 14 13:40:23 2023","Executes Python code","yes","m21-ba-lexicalDecision.osexp","C:\Users\emoore8\Desktop\m21_vsl-main","no","mono","no","18","no","white","no","yes","1080","legacy","51","51","C:/Users/emoore8/Desktop/m21_vsl-main/subject-4.csv","xpyriment","Lentiform Loewenfeld","3.3.11","0","z","NA","NA","NA","NA","space","z","1118","NA","NA","NA","NA","162246","1118","2","legacy","1024","2","48000","-16","AB_m21","4","even","FILL_NW","FROES","1511","397123","394835","391411","163927","NA","NA","NA","NA","NA","395337","NA","NA","NA","394334","NA","394309","1680","397523","NA","NA","NA","395377","1511","1665","NA","NA","396495","396520","394309","395337","395357","morph21_Oliver/Morris","35","51736","52","yes","1920","21"
"400","","67.9245283018868","67.9245283018868","990.0377358490566","990.0377358490566","black","no","xpyriment","legacy","legacy","0","208","NA","uniform","NA","NA","NA","1","undefined","1","0","52","52","52","0","52","52","52","NA","0","52","NA","NA","0","52","NA","52","0","52","NA","NA","NA","52","0","0","NA","NA","52","52","52","52","52","53","z","Wed Jun 14 13:40:23 2023","Executes Python code","yes","m21-ba-lexicalDecision.osexp","C:\Users\emoore8\Desktop\m21_vsl-main","no","mono","no","18","no","white","no","yes","1080","legacy","52","52","C:/Users/emoore8/Desktop/m21_vsl-main/subject-4.csv","xpyriment","Lentiform Loewenfeld","3.3.11","0","z","NA","NA","NA","NA","space","z","736","NA","NA","NA","NA","162246","736","2","legacy","1024","2","48000","-16","AB_m21","4","even","FILL_NW","CORG","1511","400930","399025","391411","163927","NA","NA","NA","NA","NA","399525","NA","NA","NA","398525","NA","398502","1680","401330","NA","NA","NA","399566","1511","1665","NA","NA","400303","400326","398502","399525","399546","morph21_Oliver/Morris","36","52472","53","yes","1920","7"
"250","","68.51851851851852","68.51851851851852","992.4814814814815","992.4814814814815","black","no","xpyriment","legacy","legacy","0","202","NA","uniform","NA","NA","NA","1","undefined","1","0","53","53","53","0","53","53","53","NA","0","53","NA","NA","0","53","NA","53","0","53","NA","NA","NA","53","0","0","NA","NA","53","53","53","53","53","54","/","Wed Jun 14 13:40:23 2023","Executes Python code","yes","m21-ba-lexicalDecision.osexp","C:\Users\emoore8\Desktop\m21_vsl-main","no","mono","no","18","no","white","no","yes","1080","legacy","53","53","C:/Users/emoore8/Desktop/m21_vsl-main/subject-4.csv","xpyriment","Lentiform Loewenfeld","3.3.11","0","/","NA","NA","NA","NA","space","/","1122","NA","NA","NA","NA","162246","1122","2","legacy","1024","2","48000","-16","AB_m21","4","even","CW_L","STRIKER","1511","406660","402862","405155","163927","NA","NA","NA","NA","NA","403363","NA","NA","NA","402360","NA","402335","1680","406910","NA","NA","NA","403404","1511","1665","NA","NA","404527","404551","402335","403363","403384","morph21_Oliver/Morris","37","53594","54","yes","1920","17"
"400","","69.0909090909091","69.0909090909091","989.2545454545455","989.2545454545455","black","no","xpyriment","legacy","legacy","0","201","NA","uniform","NA","NA","NA","1","undefined","1","0","54","54","54","0","54","54","54","NA","0","54","NA","NA","0","54","NA","54","0","54","NA","NA","NA","54","0","0","NA","NA","54","54","54","54","54","55","/","Wed Jun 14 13:40:23 2023","Executes Python code","yes","m21-ba-lexicalDecision.osexp","C:\Users\emoore8\Desktop\m21_vsl-main","no","mono","no","18","no","white","no","yes","1080","legacy","54","54","C:/Users/emoore8/Desktop/m21_vsl-main/subject-4.csv","xpyriment","Lentiform Loewenfeld","3.3.11","0","/","NA","NA","NA","NA","space","/","815","NA","NA","NA","NA","162246","815","2","legacy","1024","2","48000","-16","AB_m21","4","even","CW_S","AVOIDABLE","1511","410410","408426","405155","163927","NA","NA","NA","NA","NA","408926","NA","NA","NA","407926","NA","407899","1680","410810","NA","NA","NA","408967","1511","1665","NA","NA","409783","409807","407899","408926","408947","morph21_Oliver/Morris","38","54409","55","yes","1920","2"
"400","","67.85714285714286","67.85714285714286","993.0178571428571","993.0178571428571","black","no","xpyriment","legacy","legacy","0","208","NA","uniform","NA","NA","NA","0","undefined","0","0","55","55","55","0","55","55","55","NA","0","55","NA","NA","0","55","NA","55","0","55","NA","NA","NA","55","0","0","NA","NA","55","55","55","55","55","56","z","Wed Jun 14 13:40:23 2023","Executes Python code","yes","m21-ba-lexicalDecision.osexp","C:\Users\emoore8\Desktop\m21_vsl-main","no","mono","no","18","no","white","no","yes","1080","legacy","55","55","C:/Users/emoore8/Desktop/m21_vsl-main/subject-4.csv","xpyriment","Lentiform Loewenfeld","3.3.11","0","None","NA","NA","NA","NA","space","None","1200","NA","NA","NA","NA","162246","1200","2","legacy","1024","2","48000","-16","AB_m21","4","even","FILL_NW","BUTE","1511","414679","412311","405155","163927","NA","NA","NA","NA","NA","412812","NA","NA","NA","411811","NA","411785","1680","415080","NA","NA","NA","412853","1511","1665","NA","NA","414053","414076","411785","412812","412833","morph21_Oliver/Morris","38","55609","56","yes","1920","5"
"200","","68.42105263157895","68.42105263157895","996.1929824561404","996.1929824561404","black","no","xpyriment","legacy","legacy","0","208","NA","uniform","NA","NA","NA","1","undefined","1","0","56","56","56","0","56","56","56","NA","0","56","NA","NA","0","56","NA","56","0","56","NA","NA","NA","56","0","0","NA","NA","56","56","56","56","56","57","z","Wed Jun 14 13:40:23 2023","Executes Python code","yes","m21-ba-lexicalDecision.osexp","C:\Users\emoore8\Desktop\m21_vsl-main","no","mono","no","18","no","white","no","yes","1080","legacy","56","56","C:/Users/emoore8/Desktop/m21_vsl-main/subject-4.csv","xpyriment","Lentiform Loewenfeld","3.3.11","0","z","NA","NA","NA","NA","space","z","1174","NA","NA","NA","NA","162246","1174","2","legacy","1024","2","48000","-16","AB_m21","4","even","FILL_NW","PORDS","1511","420428","416579","418923","163927","NA","NA","NA","NA","NA","417080","NA","NA","NA","416079","NA","416052","1680","420628","NA","NA","NA","417120","1511","1665","NA","NA","418295","418319","416052","417080","417100","morph21_Oliver/Morris","39","56783","57","yes","1920","39"
"200","","68.96551724137932","68.96551724137932","998.7068965517242","998.7068965517242","black","no","xpyriment","legacy","legacy","0","203","NA","uniform","NA","NA","NA","1","undefined","1","0","57","57","57","0","57","57","57","NA","0","57","NA","NA","0","57","NA","57","0","57","NA","NA","NA","57","0","0","NA","NA","57","57","57","57","57","58","z","Wed Jun 14 13:40:23 2023","Executes Python code","yes","m21-ba-lexicalDecision.osexp","C:\Users\emoore8\Desktop\m21_vsl-main","no","mono","no","18","no","white","no","yes","1080","legacy","57","57","C:/Users/emoore8/Desktop/m21_vsl-main/subject-4.csv","xpyriment","Lentiform Loewenfeld","3.3.11","0","z","NA","NA","NA","NA","space","z","1142","NA","NA","NA","NA","162246","1142","2","legacy","1024","2","48000","-16","AB_m21","4","even","NW_S_COMP","ADOPTISH","1511","424467","422155","418923","163927","NA","NA","NA","NA","NA","422656","NA","NA","NA","421655","NA","421627","1680","424668","NA","NA","NA","422696","1511","1665","NA","NA","423838","423863","421627","422656","422676","morph21_Oliver/Morris","40","57925","58","yes","1920","19"
"400","","69.49152542372882","69.49152542372882","992.9661016949152","992.9661016949152","black","no","xpyriment","legacy","legacy","0","207","NA","uniform","NA","NA","NA","1","undefined","1","0","58","58","58","0","58","58","58","NA","0","58","NA","NA","0","58","NA","58","0","58","NA","NA","NA","58","0","0","NA","NA","58","58","58","58","58","59","/","Wed Jun 14 13:40:23 2023","Executes Python code","yes","m21-ba-lexicalDecision.osexp","C:\Users\emoore8\Desktop\m21_vsl-main","no","mono","no","18","no","white","no","yes","1080","legacy","58","58","C:/Users/emoore8/Desktop/m21_vsl-main/subject-4.csv","xpyriment","Lentiform Loewenfeld","3.3.11","0","/","NA","NA","NA","NA","space","/","660","NA","NA","NA","NA","162246","660","2","legacy","1024","2","48000","-16","AB_m21","4","even","FILL_W","FLIRT","1511","428009","426181","418923","163927","NA","NA","NA","NA","NA","426681","NA","NA","NA","425681","NA","425654","1680","428409","NA","NA","NA","426722","1511","1665","NA","NA","427383","427406","425654","426681","426702","morph21_Oliver/Morris","41","58585","59","yes","1920","1"
"400","","70","70","989.8833333333333","989.8833333333333","black","no","xpyriment","legacy","legacy","0","206","NA","uniform","NA","NA","NA","1","undefined","1","0","59","59","59","0","59","59","59","NA","0","59","NA","NA","0","59","NA","59","0","59","NA","NA","NA","59","0","0","NA","NA","59","59","59","59","59","60","z","Wed Jun 14 13:40:23 2023","Executes Python code","yes","m21-ba-lexicalDecision.osexp","C:\Users\emoore8\Desktop\m21_vsl-main","no","mono","no","18","no","white","no","yes","1080","legacy","59","59","C:/Users/emoore8/Desktop/m21_vsl-main/subject-4.csv","xpyriment","Lentiform Loewenfeld","3.3.11","0","z","NA","NA","NA","NA","space","z","808","NA","NA","NA","NA","162246","808","2","legacy","1024","2","48000","-16","AB_m21","4","even","NW_L_SIMP","POORITY","1511","433398","429913","431892","163927","NA","NA","NA","NA","NA","430414","NA","NA","NA","429413","NA","429386","1680","433798","NA","NA","NA","430455","1511","1665","NA","NA","431264","431288","429386","430414","430435","morph21_Oliver/Morris","42","59393","60","yes","1920","13"
"200","","70.49180327868852","70.49180327868852","986.3770491803278","986.3770491803278","black","no","xpyriment","legacy","legacy","0","204","NA","uniform","NA","NA","NA","1","undefined","1","0","60","60","60","0","60","60","60","NA","0","60","NA","NA","0","60","NA","60","0","60","NA","NA","NA","60","0","0","NA","NA","60","60","60","60","60","61","z","Wed Jun 14 13:40:23 2023","Executes Python code","yes","m21-ba-lexicalDecision.osexp","C:\Users\emoore8\Desktop\m21_vsl-main","no","mono","no","18","no","white","no","yes","1080","legacy","60","60","C:/Users/emoore8/Desktop/m21_vsl-main/subject-4.csv","xpyriment","Lentiform Loewenfeld","3.3.11","0","z","NA","NA","NA","NA","space","z","776","NA","NA","NA","NA","162246","776","2","legacy","1024","2","48000","-16","AB_m21","4","even","NW_L_COMP","PITCHODY","1511","437259","435315","431892","163927","NA","NA","NA","NA","NA","435815","NA","NA","NA","434814","NA","434787","1680","437459","NA","NA","NA","435855","1511","1665","NA","NA","436632","436655","434787","435815","435835","morph21_Oliver/Morris","43","60169","61","yes","1920","25"
"300","","69.35483870967742","69.35483870967742","989.8225806451613","989.8225806451613","black","no","xpyriment","legacy","legacy","0","208","NA","uniform","NA","NA","NA","0","undefined","0","0","61","61","61","0","61","61","61","NA","0","61","NA","NA","0","61","NA","61","0","61","NA","NA","NA","61","0","0","NA","NA","61","61","61","61","61","62","z","Wed Jun 14 13:40:23 2023","Executes Python code","yes","m21-ba-lexicalDecision.osexp","C:\Users\emoore8\Desktop\m21_vsl-main","no","mono","no","18","no","white","no","yes","1080","legacy","61","61","C:/Users/emoore8/Desktop/m21_vsl-main/subject-4.csv","xpyriment","Lentiform Loewenfeld","3.3.11","0","None","NA","NA","NA","NA","space","None","1200","NA","NA","NA","NA","162246","1200","2","legacy","1024","2","48000","-16","AB_m21","4","even","FILL_NW","KEMT","1511","441356","438989","431892","163927","NA","NA","NA","NA","NA","439489","NA","NA","NA","438488","NA","438464","1680","441656","NA","NA","NA","439530","1511","1665","NA","NA","440730","440753","438464","439489","439510","morph21_Oliver/Morris","43","61369","62","yes","1920","32"
"350","","68.25396825396825","68.25396825396825","993.1587301587301","993.1587301587301","black","no","xpyriment","legacy","legacy","0","202","NA","uniform","NA","NA","NA","0","undefined","0","0","62","62","62","0","62","62","62","NA","0","62","NA","NA","0","62","NA","62","0","62","NA","NA","NA","62","0","0","NA","NA","62","62","62","62","62","63","/","Wed Jun 14 13:40:23 2023","Executes Python code","yes","m21-ba-lexicalDecision.osexp","C:\Users\emoore8\Desktop\m21_vsl-main","no","mono","no","18","no","white","no","yes","1080","legacy","62","62","C:/Users/emoore8/Desktop/m21_vsl-main/subject-4.csv","xpyriment","Lentiform Loewenfeld","3.3.11","0","None","NA","NA","NA","NA","space","None","1200","NA","NA","NA","NA","162246","1200","2","legacy","1024","2","48000","-16","AB_m21","4","even","CW_L","GUILELESS","1511","447036","443162","445530","163927","NA","NA","NA","NA","NA","443662","NA","NA","NA","442662","NA","442638","1680","447386","NA","NA","NA","443703","1511","1665","NA","NA","444903","444926","442638","443662","443683","morph21_Oliver/Morris","43","62569","63","yes","1920","31"
"350","","68.75","68.75","988.765625","988.765625","black","no","xpyriment","legacy","legacy","0","202","NA","uniform","NA","NA","NA","1","undefined","1","0","63","63","63","0","63","63","63","NA","0","63","NA","NA","0","63","NA","63","0","63","NA","NA","NA","63","0","0","NA","NA","63","63","63","63","63","64","/","Wed Jun 14 13:40:23 2023","Executes Python code","yes","m21-ba-lexicalDecision.osexp","C:\Users\emoore8\Desktop\m21_vsl-main","no","mono","no","18","no","white","no","yes","1080","legacy","63","63","C:/Users/emoore8/Desktop/m21_vsl-main/subject-4.csv","xpyriment","Lentiform Loewenfeld","3.3.11","0","/","NA","NA","NA","NA","space","/","712","NA","NA","NA","NA","162246","712","2","legacy","1024","2","48000","-16","AB_m21","4","even","CW_L","BARKER","1511","450785","448905","445530","163927","NA","NA","NA","NA","NA","449406","NA","NA","NA","448405","NA","448376","1680","451135","NA","NA","NA","449446","1511","1665","NA","NA","450159","450182","448376","449406","449426","morph21_Oliver/Morris","44","63281","64","yes","1920","2"
"200","","69.23076923076923","69.23076923076923","982.1538461538462","982.1538461538462","black","no","xpyriment","legacy","legacy","0","201","NA","uniform","NA","NA","NA","1","undefined","1","0","64","64","64","0","64","64","64","NA","0","64","NA","NA","0","64","NA","64","0","64","NA","NA","NA","64","0","0","NA","NA","64","64","64","64","64","65","/","Wed Jun 14 13:40:23 2023","Executes Python code","yes","m21-ba-lexicalDecision.osexp","C:\Users\emoore8\Desktop\m21_vsl-main","no","mono","no","18","no","white","no","yes","1080","legacy","64","64","C:/Users/emoore8/Desktop/m21_vsl-main/subject-4.csv","xpyriment","Lentiform Loewenfeld","3.3.11","0","/","NA","NA","NA","NA","space","/","559","NA","NA","NA","NA","162246","559","2","legacy","1024","2","48000","-16","AB_m21","4","even","CW_S","BOLDNESS","1511","454386","452658","445530","163927","NA","NA","NA","NA","NA","453158","NA","NA","NA","452158","NA","452130","1680","454586","NA","NA","NA","453199","1511","1665","NA","NA","453759","453782","452130","453158","453179","morph21_Oliver/Morris","45","63840","65","yes","1920","41"
"350","","69.6969696969697","69.6969696969697","981.1363636363636","981.1363636363636","black","no","xpyriment","legacy","legacy","0","206","NA","uniform","NA","NA","NA","1","undefined","1","0","65","65","65","0","65","65","65","NA","0","65","NA","NA","0","65","NA","65","0","65","NA","NA","NA","65","0","0","NA","NA","65","65","65","65","65","66","z","Wed Jun 14 13:40:23 2023","Executes Python code","yes","m21-ba-lexicalDecision.osexp","C:\Users\emoore8\Desktop\m21_vsl-main","no","mono","no","18","no","white","no","yes","1080","legacy","65","65","C:/Users/emoore8/Desktop/m21_vsl-main/subject-4.csv","xpyriment","Lentiform Loewenfeld","3.3.11","0","z","NA","NA","NA","NA","space","z","915","NA","NA","NA","NA","162246","915","2","legacy","1024","2","48000","-16","AB_m21","4","even","NW_L_SIMP","CRITICANCE","1511","459699","456110","458193","163927","NA","NA","NA","NA","NA","456610","NA","NA","NA","455609","NA","455581","1680","460049","NA","NA","NA","456651","1511","1665","NA","NA","457567","457590","455581","456610","456631","morph21_Oliver/Morris","46","64755","66","yes","1920","22"
"400","","70.14925373134328","70.14925373134328","977.3283582089553","977.3283582089553","black","no","xpyriment","legacy","legacy","0","205","NA","uniform","NA","NA","NA","1","undefined","1","0","66","66","66","0","66","66","66","NA","0","66","NA","NA","0","66","NA","66","0","66","NA","NA","NA","66","0","0","NA","NA","66","66","66","66","66","67","z","Wed Jun 14 13:40:23 2023","Executes Python code","yes","m21-ba-lexicalDecision.osexp","C:\Users\emoore8\Desktop\m21_vsl-main","no","mono","no","18","no","white","no","yes","1080","legacy","66","66","C:/Users/emoore8/Desktop/m21_vsl-main/subject-4.csv","xpyriment","Lentiform Loewenfeld","3.3.11","0","z","NA","NA","NA","NA","space","z","726","NA","NA","NA","NA","162246","726","2","legacy","1024","2","48000","-16","AB_m21","4","even","NW_S_SIMP","SCHEMENESS","1511","463474","461580","458193","163927","NA","NA","NA","NA","NA","462080","NA","NA","NA","461079","NA","461053","1680","463874","NA","NA","NA","462120","1511","1665","NA","NA","462846","462871","461053","462080","462100","morph21_Oliver/Morris","47","65481","67","yes","1920","15"
"350","","70.58823529411765","70.58823529411765","979.1029411764706","979.1029411764706","black","no","xpyriment","legacy","legacy","0","207","NA","uniform","NA","NA","NA","1","undefined","1","0","67","67","67","0","67","67","67","NA","0","67","NA","NA","0","67","NA","67","0","67","NA","NA","NA","67","0","0","NA","NA","67","67","67","67","67","68","/","Wed Jun 14 13:40:23 2023","Executes Python code","yes","m21-ba-lexicalDecision.osexp","C:\Users\emoore8\Desktop\m21_vsl-main","no","mono","no","18","no","white","no","yes","1080","legacy","67","67","C:/Users/emoore8/Desktop/m21_vsl-main/subject-4.csv","xpyriment","Lentiform Loewenfeld","3.3.11","0","/","NA","NA","NA","NA","space","/","1098","NA","NA","NA","NA","162246","1098","2","legacy","1024","2","48000","-16","AB_m21","4","even","FILL_W","BRISK","1511","467641","465375","458193","163927","NA","NA","NA","NA","NA","465875","NA","NA","NA","464873","NA","464845","1680","467991","NA","NA","NA","465916","1511","1665","NA","NA","467015","467038","464844","465875","465896","morph21_Oliver/Morris","48","66579","68","yes","1920","8"
"200","","71.01449275362319","71.01449275362319","979.6086956521739","979.6086956521739","black","no","xpyriment","legacy","legacy","0","203","NA","uniform","NA","NA","NA","1","undefined","1","0","68","68","68","0","68","68","68","NA","0","68","NA","NA","0","68","NA","68","0","68","NA","NA","NA","68","0","0","NA","NA","68","68","68","68","68","69","z","Wed Jun 14 13:40:23 2023","Executes Python code","yes","m21-ba-lexicalDecision.osexp","C:\Users\emoore8\Desktop\m21_vsl-main","no","mono","no","18","no","white","no","yes","1080","legacy","68","68","C:/Users/emoore8/Desktop/m21_vsl-main/subject-4.csv","xpyriment","Lentiform Loewenfeld","3.3.11","0","z","NA","NA","NA","NA","space","z","1014","NA","NA","NA","NA","162246","1014","2","legacy","1024","2","48000","-16","AB_m21","4","even","NW_S_COMP","DUMBIDY","1511","473178","469491","471674","163927","NA","NA","NA","NA","NA","469991","NA","NA","NA","468989","NA","468960","1680","473378","NA","NA","NA","470032","1511","1665","NA","NA","471047","471070","468960","469991","470012","morph21_Oliver/Morris","49","67593","69","yes","1920","12"
"300","","70","70","980.5857142857143","980.5857142857143","black","no","xpyriment","legacy","legacy","0","202","NA","uniform","NA","NA","NA","0","undefined","0","0","69","69","69","0","69","69","69","NA","0","69","NA","NA","0","69","NA","69","0","69","NA","NA","NA","69","0","0","NA","NA","69","69","69","69","69","70","/","Wed Jun 14 13:40:23 2023","Executes Python code","yes","m21-ba-lexicalDecision.osexp","C:\Users\emoore8\Desktop\m21_vsl-main","no","mono","no","18","no","white","no","yes","1080","legacy","69","69","C:/Users/emoore8/Desktop/m21_vsl-main/subject-4.csv","xpyriment","Lentiform Loewenfeld","3.3.11","0","z","NA","NA","NA","NA","space","z","1048","NA","NA","NA","NA","162246","1048","2","legacy","1024","2","48000","-16","AB_m21","4","even","CW_L","DAMPISH","1511","477121","474904","471674","163927","NA","NA","NA","NA","NA","475405","NA","NA","NA","474401","NA","474377","1680","477421","NA","NA","NA","475446","1511","1665","NA","NA","476495","476518","474377","475405","475426","morph21_Oliver/Morris","49","68641","70","yes","1920","28"
"250","","69.01408450704226","69.01408450704226","983.6760563380282","983.6760563380282","black","no","xpyriment","legacy","legacy","0","207","NA","uniform","NA","NA","NA","0","undefined","0","0","70","70","70","0","70","70","70","NA","0","70","NA","NA","0","70","NA","70","0","70","NA","NA","NA","70","0","0","NA","NA","70","70","70","70","70","71","/","Wed Jun 14 13:40:23 2023","Executes Python code","yes","m21-ba-lexicalDecision.osexp","C:\Users\emoore8\Desktop\m21_vsl-main","no","mono","no","18","no","white","no","yes","1080","legacy","70","70","C:/Users/emoore8/Desktop/m21_vsl-main/subject-4.csv","xpyriment","Lentiform Loewenfeld","3.3.11","0","None","NA","NA","NA","NA","space","None","1200","NA","NA","NA","NA","162246","1200","2","legacy","1024","2","48000","-16","AB_m21","4","even","FILL_W","PREACH","1511","481314","478948","471674","163927","NA","NA","NA","NA","NA","479448","NA","NA","NA","478448","NA","478422","1680","481564","NA","NA","NA","479488","1511","1665","NA","NA","480688","480711","478422","479448","479468","morph21_Oliver/Morris","49","69841","71","yes","1920","7"
"300","","69.44444444444444","69.44444444444444","982.6527777777778","982.6527777777778","black","no","xpyriment","legacy","legacy","0","204","NA","uniform","NA","NA","NA","1","undefined","1","0","71","71","71","0","71","71","71","NA","0","71","NA","NA","0","71","NA","71","0","71","NA","NA","NA","71","0","0","NA","NA","71","71","71","71","71","72","z","Wed Jun 14 13:40:23 2023","Executes Python code","yes","m21-ba-lexicalDecision.osexp","C:\Users\emoore8\Desktop\m21_vsl-main","no","mono","no","18","no","white","no","yes","1080","legacy","71","71","C:/Users/emoore8/Desktop/m21_vsl-main/subject-4.csv","xpyriment","Lentiform Loewenfeld","3.3.11","0","z","NA","NA","NA","NA","space","z","910","NA","NA","NA","NA","162246","910","2","legacy","1024","2","48000","-16","AB_m21","4","even","NW_L_COMP","ILLILT","1511","486645","483058","485139","163927","NA","NA","NA","NA","NA","483559","NA","NA","NA","482558","NA","482536","1680","486945","NA","NA","NA","483600","1511","1665","NA","NA","484511","484536","482535","483559","483580","morph21_Oliver/Morris","50","70751","72","yes","1920","9"
"200","","69.86301369863014","69.86301369863014","985.5068493150685","985.5068493150685","black","no","xpyriment","legacy","legacy","0","202","NA","uniform","NA","NA","NA","1","undefined","1","0","72","72","72","0","72","72","72","NA","0","72","NA","NA","0","72","NA","72","0","72","NA","NA","NA","72","0","0","NA","NA","72","72","72","72","72","73","/","Wed Jun 14 13:40:23 2023","Executes Python code","yes","m21-ba-lexicalDecision.osexp","C:\Users\emoore8\Desktop\m21_vsl-main","no","mono","no","18","no","white","no","yes","1080","legacy","72","72","C:/Users/emoore8/Desktop/m21_vsl-main/subject-4.csv","xpyriment","Lentiform Loewenfeld","3.3.11","0","/","NA","NA","NA","NA","space","/","1191","NA","NA","NA","NA","162246","1191","2","legacy","1024","2","48000","-16","AB_m21","4","even","CW_L","COLLECTOR","1511","490817","488458","485139","163927","NA","NA","NA","NA","NA","488958","NA","NA","NA","487957","NA","487927","1680","491017","NA","NA","NA","488999","1511","1665","NA","NA","490191","490214","487926","488958","488979","morph21_Oliver/Morris","51","71942","73","yes","1920","46"
"200","","70.27027027027027","70.27027027027027","980.3108108108108","980.3108108108108","black","no","xpyriment","legacy","legacy","0","207","NA","uniform","NA","NA","NA","1","undefined","1","0","73","73","73","0","73","73","73","NA","0","73","NA","NA","0","73","NA","73","0","73","NA","NA","NA","73","0","0","NA","NA","73","73","73","73","73","74","/","Wed Jun 14 13:40:23 2023","Executes Python code","yes","m21-ba-lexicalDecision.osexp","C:\Users\emoore8\Desktop\m21_vsl-main","no","mono","no","18","no","white","no","yes","1080","legacy","73","73","C:/Users/emoore8/Desktop/m21_vsl-main/subject-4.csv","xpyriment","Lentiform Loewenfeld","3.3.11","0","/","NA","NA","NA","NA","space","/","601","NA","NA","NA","NA","162246","601","2","legacy","1024","2","48000","-16","AB_m21","4","even","FILL_W","WRECK","1511","494281","492511","485139","163927","NA","NA","NA","NA","NA","493012","NA","NA","NA","492011","NA","491985","1680","494482","NA","NA","NA","493053","1511","1665","NA","NA","493654","493678","491985","493012","493033","morph21_Oliver/Morris","52","72543","74","yes","1920","13"
"400","","70.66666666666667","70.66666666666667","976.6933333333334","976.6933333333334","black","no","xpyriment","legacy","legacy","0","205","NA","uniform","NA","NA","NA","undefined","undefined","1","0","74","74","74","0","74","74","74","NA","0","74","NA","NA","0","74","NA","74","0","74","NA","NA","NA","74","0","0","NA","NA","74","74","74","74","74","75","z","Wed Jun 14 13:40:23 2023","Executes Python code","yes","m21-ba-lexicalDecision.osexp","C:\Users\emoore8\Desktop\m21_vsl-main","no","mono","no","18","no","white","no","yes","1080","legacy","74","74","C:/Users/emoore8/Desktop/m21_vsl-main/subject-4.csv","xpyriment","Lentiform Loewenfeld","3.3.11","0","space","space","NA","NA","NA","space","z","15590","15590","NA","NA","NA","162246","709","2","legacy","1024","2","48000","-16","AB_m21","4","even","NW_S_SIMP","RAMPIZE","1511","499361","495981","497857","163927","499768","NA","NA","NA","NA","496481","NA","NA","NA","495481","NA","495454","1680","515359","NA","NA","NA","496521","1511","1665","NA","NA","497231","497254","495454","496481","496501","morph21_Oliver/Morris","53","73252","75","yes","1920","6"
"200","","69.73684210526316","69.73684210526316","979.6315789473684","979.6315789473684","black","no","xpyriment","legacy","legacy","0","203","NA","uniform","NA","NA","NA","0","undefined","0","0","75","75","75","0","75","75","75","NA","0","75","NA","NA","0","75","NA","75","0","75","NA","NA","NA","75","0","0","NA","NA","75","75","75","75","75","76","z","Wed Jun 14 13:40:23 2023","Executes Python code","yes","m21-ba-lexicalDecision.osexp","C:\Users\emoore8\Desktop\m21_vsl-main","no","mono","no","18","no","white","no","yes","1080","legacy","75","75","C:/Users/emoore8/Desktop/m21_vsl-main/subject-4.csv","xpyriment","Lentiform Loewenfeld","3.3.11","0","None","space","NA","NA","NA","space","None","1200","15590","NA","NA","NA","162246","1200","2","legacy","1024","2","48000","-16","AB_m21","4","even","NW_S_COMP","PILLIME","1511","519306","516937","497857","163927","499768","NA","NA","NA","NA","517439","NA","NA","NA","516435","NA","516407","1680","519506","NA","NA","NA","517479","1511","1665","NA","NA","518679","518703","516407","517439","517459","morph21_Oliver/Morris","53","74452","76","yes","1920","13"
"250","","70.12987012987013","70.12987012987013","974.6103896103896","974.6103896103896","black","no","xpyriment","legacy","legacy","0","207","NA","uniform","NA","NA","NA","1","undefined","1","0","76","76","76","0","76","76","76","NA","0","76","NA","NA","0","76","NA","76","0","76","NA","NA","NA","76","0","0","NA","NA","76","76","76","76","76","77","/","Wed Jun 14 13:40:23 2023","Executes Python code","yes","m21-ba-lexicalDecision.osexp","C:\Users\emoore8\Desktop\m21_vsl-main","no","mono","no","18","no","white","no","yes","1080","legacy","76","76","C:/Users/emoore8/Desktop/m21_vsl-main/subject-4.csv","xpyriment","Lentiform Loewenfeld","3.3.11","0","/","space","NA","NA","NA","space","/","593","15590","NA","NA","NA","162246","593","2","legacy","1024","2","48000","-16","AB_m21","4","even","FILL_W","TASTE","1511","522804","521040","497857","163927","499768","NA","NA","NA","NA","521540","NA","NA","NA","520538","NA","520513","1680","523054","NA","NA","NA","521581","1511","1665","NA","NA","522175","522200","520512","521540","521561","morph21_Oliver/Morris","54","75045","77","yes","1920","34"
"250","","70.51282051282051","70.51282051282051","971.6153846153846","971.6153846153846","black","no","xpyriment","legacy","legacy","0","201","NA","uniform","NA","NA","NA","1","undefined","1","0","77","77","77","0","77","77","77","NA","0","77","NA","NA","0","77","NA","77","0","77","NA","NA","NA","77","0","0","NA","NA","77","77","77","77","77","78","/","Wed Jun 14 13:40:23 2023","Executes Python code","yes","m21-ba-lexicalDecision.osexp","C:\Users\emoore8\Desktop\m21_vsl-main","no","mono","no","18","no","white","no","yes","1080","legacy","77","77","C:/Users/emoore8/Desktop/m21_vsl-main/subject-4.csv","xpyriment","Lentiform Loewenfeld","3.3.11","0","/","space","NA","NA","NA","space","/","741","15590","NA","NA","NA","162246","741","2","legacy","1024","2","48000","-16","AB_m21","4","even","CW_S","NOTICEABLE","1511","527971","524556","526467","163927","499768","NA","NA","NA","NA","525056","NA","NA","NA","524056","NA","524033","1680","528221","NA","NA","NA","525097","1511","1665","NA","NA","525839","525863","524033","525056","525077","morph21_Oliver/Morris","55","75786","78","yes","1920","3"
"300","","70.88607594936708","70.88607594936708","968.9873417721519","968.9873417721519","black","no","xpyriment","legacy","legacy","0","205","NA","uniform","NA","NA","NA","1","undefined","1","0","78","78","78","0","78","78","78","NA","0","78","NA","NA","0","78","NA","78","0","78","NA","NA","NA","78","0","0","NA","NA","78","78","78","78","78","79","z","Wed Jun 14 13:40:23 2023","Executes Python code","yes","m21-ba-lexicalDecision.osexp","C:\Users\emoore8\Desktop\m21_vsl-main","no","mono","no","18","no","white","no","yes","1080","legacy","78","78","C:/Users/emoore8/Desktop/m21_vsl-main/subject-4.csv","xpyriment","Lentiform Loewenfeld","3.3.11","0","z","space","NA","NA","NA","space","z","764","15590","NA","NA","NA","162246","764","2","legacy","1024","2","48000","-16","AB_m21","4","even","NW_S_SIMP","TILTARY","1511","531649","529718","526467","163927","499768","NA","NA","NA","NA","530218","NA","NA","NA","529218","NA","529191","1680","531949","NA","NA","NA","530258","1511","1665","NA","NA","531023","531046","529191","530218","530238","morph21_Oliver/Morris","56","76550","79","yes","1920","17"
"200","","71.25","71.25","966.5375","966.5375","black","no","xpyriment","legacy","legacy","0","206","NA","uniform","NA","NA","NA","1","undefined","1","0","79","79","79","0","79","79","79","NA","0","79","NA","NA","0","79","NA","79","0","79","NA","NA","NA","79","0","0","NA","NA","79","79","79","79","79","80","z","Wed Jun 14 13:40:23 2023","Executes Python code","yes","m21-ba-lexicalDecision.osexp","C:\Users\emoore8\Desktop\m21_vsl-main","no","mono","no","18","no","white","no","yes","1080","legacy","79","79","C:/Users/emoore8/Desktop/m21_vsl-main/subject-4.csv","xpyriment","Lentiform Loewenfeld","3.3.11","0","z","space","NA","NA","NA","space","z","773","15590","NA","NA","NA","162246","773","2","legacy","1024","2","48000","-16","AB_m21","4","even","NW_L_SIMP","GROWIST","1511","535393","533452","526467","163927","499768","NA","NA","NA","NA","533952","NA","NA","NA","532952","NA","532925","1680","535593","NA","NA","NA","533993","1511","1665","NA","NA","534767","534789","532925","533952","533973","morph21_Oliver/Morris","57","77323","80","yes","1920","20"
"300","","71.60493827160494","71.60493827160494","964.4938271604939","964.4938271604939","black","no","xpyriment","legacy","legacy","0","205","NA","uniform","NA","NA","NA","1","undefined","1","0","80","80","80","0","80","80","80","NA","0","80","NA","NA","0","80","NA","80","0","80","NA","NA","NA","80","0","0","NA","NA","80","80","80","80","80","81","z","Wed Jun 14 13:40:23 2023","Executes Python code","yes","m21-ba-lexicalDecision.osexp","C:\Users\emoore8\Desktop\m21_vsl-main","no","mono","no","18","no","white","no","yes","1080","legacy","80","80","C:/Users/emoore8/Desktop/m21_vsl-main/subject-4.csv","xpyriment","Lentiform Loewenfeld","3.3.11","0","z","space","NA","NA","NA","space","z","801","15590","NA","NA","NA","162246","801","2","legacy","1024","2","48000","-16","AB_m21","4","even","NW_S_SIMP","BOLTOUS","1511","540585","537112","539082","163927","499768","NA","NA","NA","NA","537612","NA","NA","NA","536612","NA","536585","1680","540885","NA","NA","NA","537653","1511","1665","NA","NA","538455","538479","536585","537612","537633","morph21_Oliver/Morris","58","78124","81","yes","1920","13"
"300","","70.73170731707317","70.73170731707317","962.6219512195122","962.6219512195122","black","no","xpyriment","legacy","legacy","0","208","NA","uniform","NA","NA","NA","0","undefined","0","0","81","81","81","0","81","81","81","NA","0","81","NA","NA","0","81","NA","81","0","81","NA","NA","NA","81","0","0","NA","NA","81","81","81","81","81","82","z","Wed Jun 14 13:40:23 2023","Executes Python code","yes","m21-ba-lexicalDecision.osexp","C:\Users\emoore8\Desktop\m21_vsl-main","no","mono","no","18","no","white","no","yes","1080","legacy","81","81","C:/Users/emoore8/Desktop/m21_vsl-main/subject-4.csv","xpyriment","Lentiform Loewenfeld","3.3.11","0","/","space","NA","NA","NA","space","/","811","15590","NA","NA","NA","162246","811","2","legacy","1024","2","48000","-16","AB_m21","4","even","FILL_NW","VOOFS","1511","544378","542398","539082","163927","499768","NA","NA","NA","NA","542898","NA","NA","NA","541897","NA","541873","1680","544678","NA","NA","NA","542939","1511","1665","NA","NA","543751","543775","541873","542898","542919","morph21_Oliver/Morris","58","78935","82","yes","1920","48"
"250","","71.08433734939759","71.08433734939759","961.0240963855422","961.0240963855422","black","no","xpyriment","legacy","legacy","0","202","NA","uniform","NA","NA","NA","1","undefined","1","0","82","82","82","0","82","82","82","NA","0","82","NA","NA","0","82","NA","82","0","82","NA","NA","NA","82","0","0","NA","NA","82","82","82","82","82","83","/","Wed Jun 14 13:40:23 2023","Executes Python code","yes","m21-ba-lexicalDecision.osexp","C:\Users\emoore8\Desktop\m21_vsl-main","no","mono","no","18","no","white","no","yes","1080","legacy","82","82","C:/Users/emoore8/Desktop/m21_vsl-main/subject-4.csv","xpyriment","Lentiform Loewenfeld","3.3.11","0","/","space","NA","NA","NA","space","/","830","15590","NA","NA","NA","162246","830","2","legacy","1024","2","48000","-16","AB_m21","4","even","CW_L","DEAFNESS","1511","548194","546196","539082","163927","499768","NA","NA","NA","NA","546697","NA","NA","NA","545695","NA","545671","1680","548444","NA","NA","NA","546737","1511","1665","NA","NA","547567","547591","545671","546696","546717","morph21_Oliver/Morris","59","79765","83","yes","1920","39"
"350","","70.23809523809524","70.23809523809524","963.8690476190476","963.8690476190476","black","no","xpyriment","legacy","legacy","0","206","NA","uniform","NA","NA","NA","0","undefined","0","0","83","83","83","0","83","83","83","NA","0","83","NA","NA","0","83","NA","83","0","83","NA","NA","NA","83","0","0","NA","NA","83","83","83","83","83","84","z","Wed Jun 14 13:40:23 2023","Executes Python code","yes","m21-ba-lexicalDecision.osexp","C:\Users\emoore8\Desktop\m21_vsl-main","no","mono","no","18","no","white","no","yes","1080","legacy","83","83","C:/Users/emoore8/Desktop/m21_vsl-main/subject-4.csv","xpyriment","Lentiform Loewenfeld","3.3.11","0","None","space","NA","NA","NA","space","None","1200","15590","NA","NA","NA","162246","1200","2","legacy","1024","2","48000","-16","AB_m21","4","even","NW_L_SIMP","WIGISH","1511","553831","549957","552325","163927","499768","NA","NA","NA","NA","550457","NA","NA","NA","549457","NA","549428","1680","554181","NA","NA","NA","550497","1511","1665","NA","NA","551697","551722","549428","550457","550477","morph21_Oliver/Morris","59","80965","84","yes","1920","9"
"400","","70.58823529411765","70.58823529411765","965.635294117647","965.635294117647","black","no","xpyriment","legacy","legacy","0","202","NA","uniform","NA","NA","NA","1","undefined","1","0","84","84","84","0","84","84","84","NA","0","84","NA","NA","0","84","NA","84","0","84","NA","NA","NA","84","0","0","NA","NA","84","84","84","84","84","85","/","Wed Jun 14 13:40:23 2023","Executes Python code","yes","m21-ba-lexicalDecision.osexp","C:\Users\emoore8\Desktop\m21_vsl-main","no","mono","no","18","no","white","no","yes","1080","legacy","84","84","C:/Users/emoore8/Desktop/m21_vsl-main/subject-4.csv","xpyriment","Lentiform Loewenfeld","3.3.11","0","/","space","NA","NA","NA","space","/","1114","15590","NA","NA","NA","162246","1114","2","legacy","1024","2","48000","-16","AB_m21","4","even","CW_L","FAITHFUL","1511","558003","555720","552325","163927","499768","NA","NA","NA","NA","556220","NA","NA","NA","555220","NA","555191","1680","558403","NA","NA","NA","556260","1511","1665","NA","NA","557375","557399","555191","556220","556240","morph21_Oliver/Morris","60","82079","85","yes","1920","20"
"300","","70.93023255813954","70.93023255813954","964.9418604651163","964.9418604651163","black","no","xpyriment","legacy","legacy","0","204","NA","uniform","NA","NA","NA","1","undefined","1","0","85","85","85","0","85","85","85","NA","0","85","NA","NA","0","85","NA","85","0","85","NA","NA","NA","85","0","0","NA","NA","85","85","85","85","85","86","z","Wed Jun 14 13:40:23 2023","Executes Python code","yes","m21-ba-lexicalDecision.osexp","C:\Users\emoore8\Desktop\m21_vsl-main","no","mono","no","18","no","white","no","yes","1080","legacy","85","85","C:/Users/emoore8/Desktop/m21_vsl-main/subject-4.csv","xpyriment","Lentiform Loewenfeld","3.3.11","0","z","space","NA","NA","NA","space","z","906","15590","NA","NA","NA","162246","906","2","legacy","1024","2","48000","-16","AB_m21","4","even","NW_L_COMP","IME","1511","561994","559920","552325","163927","499768","NA","NA","NA","NA","560420","NA","NA","NA","559418","NA","559393","1680","562294","NA","NA","NA","560460","1511","1665","NA","NA","561367","561391","559393","560420","560440","morph21_Oliver/Morris","61","82985","86","yes","1920","20"
"200","","70.11494252873563","70.11494252873563","967.6436781609195","967.6436781609195","black","no","xpyriment","legacy","legacy","0","207","NA","uniform","NA","NA","NA","0","undefined","0","0","86","86","86","0","86","86","86","NA","0","86","NA","NA","0","86","NA","86","0","86","NA","NA","NA","86","0","0","NA","NA","86","86","86","86","86","87","/","Wed Jun 14 13:40:23 2023","Executes Python code","yes","m21-ba-lexicalDecision.osexp","C:\Users\emoore8\Desktop\m21_vsl-main","no","mono","no","18","no","white","no","yes","1080","legacy","86","86","C:/Users/emoore8/Desktop/m21_vsl-main/subject-4.csv","xpyriment","Lentiform Loewenfeld","3.3.11","0","None","space","NA","NA","NA","space","None","1200","15590","NA","NA","NA","162246","1200","2","legacy","1024","2","48000","-16","AB_m21","4","even","FILL_W","BLEAK","1511","567681","563806","566176","163927","499768","NA","NA","NA","NA","564306","NA","NA","NA","563305","NA","563280","1680","567881","NA","NA","NA","564347","1511","1665","NA","NA","565547","565572","563280","564306","564327","morph21_Oliver/Morris","61","84185","87","yes","1920","5"
"350","","69.31818181818181","69.31818181818181","970.2840909090909","970.2840909090909","black","no","xpyriment","legacy","legacy","0","202","NA","uniform","NA","NA","NA","0","undefined","0","0","87","87","87","0","87","87","87","NA","0","87","NA","NA","0","87","NA","87","0","87","NA","NA","NA","87","0","0","NA","NA","87","87","87","87","87","88","/","Wed Jun 14 13:40:23 2023","Executes Python code","yes","m21-ba-lexicalDecision.osexp","C:\Users\emoore8\Desktop\m21_vsl-main","no","mono","no","18","no","white","no","yes","1080","legacy","87","87","C:/Users/emoore8/Desktop/m21_vsl-main/subject-4.csv","xpyriment","Lentiform Loewenfeld","3.3.11","0","None","space","NA","NA","NA","space","None","1200","15590","NA","NA","NA","162246","1200","2","legacy","1024","2","48000","-16","AB_m21","4","even","CW_L","FEEDER","1511","571757","569389","566176","163927","499768","NA","NA","NA","NA","569889","NA","NA","NA","568889","NA","568861","1680","572107","NA","NA","NA","569929","1511","1665","NA","NA","571129","571153","568861","569888","569909","morph21_Oliver/Morris","61","85385","88","yes","1920","14"
"200","","69.66292134831461","69.66292134831461","966.0786516853933","966.0786516853933","black","no","xpyriment","legacy","legacy","0","205","NA","uniform","NA","NA","NA","1","undefined","1","0","88","88","88","0","88","88","88","NA","0","88","NA","NA","0","88","NA","88","0","88","NA","NA","NA","88","0","0","NA","NA","88","88","88","88","88","89","z","Wed Jun 14 13:40:23 2023","Executes Python code","yes","m21-ba-lexicalDecision.osexp","C:\Users\emoore8\Desktop\m21_vsl-main","no","mono","no","18","no","white","no","yes","1080","legacy","88","88","C:/Users/emoore8/Desktop/m21_vsl-main/subject-4.csv","xpyriment","Lentiform Loewenfeld","3.3.11","0","z","space","NA","NA","NA","space","z","596","15590","NA","NA","NA","162246","596","2","legacy","1024","2","48000","-16","AB_m21","4","even","NW_S_SIMP","JAWLY","1511","575377","573613","566176","163927","499768","NA","NA","NA","NA","574113","NA","NA","NA","573113","NA","573082","1680","575577","NA","NA","NA","574154","1511","1665","NA","NA","574751","574774","573082","574113","574133","morph21_Oliver/Morris","62","85981","89","yes","1920","7"
