"ITI","acc","accuracy","average_response_time","avg_rt","background","bidi","canvas_backend","clock_backend","color_backend","compensation","cond_trig","condtrigtime","coordinates","coroutines_cycles","coroutines_duration","coroutines_mean_cycle_duration","correct","correct_instructions_1","correct_new_keyboard_response_1","count_AB_m21","count_ITI","count_blank_screen","count_blink_screen","count_block1","count_break1","count_break2","count_break3_1","count_canvas","count_close_port","count_cond_trigger","count_correct_trigger","count_def_chain","count_end_screen","count_fixation_1","count_getting_started","count_inc_counter","count_instructions_1","count_logger","count_logscript","count_new_inline_script","count_new_inline_script_2","count_new_keyboard_response_1","count_open_port","count_reset_counter_prep","count_reset_counter_run","count_response_trigger_trial","count_responsescreen","count_sequence","count_target_present","count_word_trigger","counter","cresp","datetime","description","disable_garbage_collection","experiment_file","experiment_path","font_bold","font_family","font_italic","font_size","font_underline","foreground","form_clicks","fullscreen","height","keyboard_backend","live_row","live_row_block1","logfile","mouse_backend","opensesame_codename","opensesame_version","repeat_cycle","response","response_break1","response_break2","response_break3_1","response_end_screen","response_instructions_1","response_new_keyboard_response_1","response_time","response_time_break1","response_time_break2","response_time_break3_1","response_time_end_screen","response_time_instructions_1","response_time_new_keyboard_response_1","round_decimals","sampler_backend","sound_buf_size","sound_channels","sound_freq","sound_sample_size","start","subject_nr","subject_parity","targ_type","target","time_AB_m21","time_ITI","time_blank_screen","time_blink_screen","time_block1","time_break1","time_break2","time_break3_1","time_canvas","time_close_port","time_cond_trigger","time_correct_trigger","time_def_chain","time_end_screen","time_fixation_1","time_getting_started","time_inc_counter","time_instructions_1","time_logger","time_logscript","time_new_inline_script","time_new_inline_script_2","time_new_keyboard_response_1","time_open_port","time_reset_counter_prep","time_reset_counter_run","time_response_trigger_trial","time_responsescreen","time_sequence","time_target_present","time_word_trigger","title","total_correct","total_response_time","total_responses","uniform_coordinates","width","word_trig"
"200","0","0","1200","1200","black","no","xpyriment","legacy","legacy","0","201","NA","uniform","NA","NA","NA","0","undefined","0","0","0","0","0","0","0","0","0","NA","0","0","NA","NA","0","0","NA","0","0","0","NA","NA","NA","0","0","0","NA","0","0","0","0","0","1","/","Tue Jul 11 18:01:24 2023","The main experiment item","yes","m21-ab-lexicalDecision.osexp","C:\Users\emoore8\Desktop\m21_vsl-main","no","mono","no","18","no","white","no","yes","1080","legacy","0","0","C:/Users/emoore8/Desktop/m21_vsl-main/subject-217.csv","xpyriment","Lentiform Loewenfeld","3.3.11","0","None","NA","NA","NA","NA","space","None","1200","NA","NA","NA","NA","71073","1200","2","legacy","1024","2","48000","-16","AB_m21","217","odd","CW_S","AMUSEMENT","2273","77573","75205","NA","73359","NA","NA","NA","NA","NA","75705","NA","NA","NA","74704","NA","74617","2285","77773","NA","NA","NA","75746","2273","2273","NA","76946","76970","74614","75705","75726","morph21_Oliver/Morris","0","1200","1","yes","1920","38"
"250","0","0","1200","1200","black","no","xpyriment","legacy","legacy","0","203","NA","uniform","NA","NA","NA","0","undefined","0","0","1","1","1","0","1","1","1","NA","0","1","NA","NA","0","1","NA","1","0","1","NA","NA","NA","1","0","0","NA","1","1","1","1","1","2","z","Tue Jul 11 18:01:24 2023","The main experiment item","yes","m21-ab-lexicalDecision.osexp","C:\Users\emoore8\Desktop\m21_vsl-main","no","mono","no","18","no","white","no","yes","1080","legacy","1","1","C:/Users/emoore8/Desktop/m21_vsl-main/subject-217.csv","xpyriment","Lentiform Loewenfeld","3.3.11","0","None","NA","NA","NA","NA","space","None","1200","NA","NA","NA","NA","71073","1200","2","legacy","1024","2","48000","-16","AB_m21","217","odd","NW_S_COMP","LIDARY","2273","81761","79389","NA","73359","NA","NA","NA","NA","NA","79891","NA","NA","NA","78887","NA","78852","2285","82011","NA","NA","NA","79932","2273","2273","NA","81132","81157","78852","79891","79912","morph21_Oliver/Morris","0","2400","2","yes","1920","3"
"350","33.333333333333336","33.333333333333336","1074","1074","black","no","xpyriment","legacy","legacy","0","207","NA","uniform","NA","NA","NA","1","undefined","1","0","2","2","2","0","2","2","2","NA","0","2","NA","NA","0","2","NA","2","0","2","NA","NA","NA","2","0","0","NA","2","2","2","2","2","3","/","Tue Jul 11 18:01:24 2023","The main experiment item","yes","m21-ab-lexicalDecision.osexp","C:\Users\emoore8\Desktop\m21_vsl-main","no","mono","no","18","no","white","no","yes","1080","legacy","2","2","C:/Users/emoore8/Desktop/m21_vsl-main/subject-217.csv","xpyriment","Lentiform Loewenfeld","3.3.11","0","/","NA","NA","NA","NA","space","/","822","NA","NA","NA","NA","71073","822","2","legacy","1024","2","48000","-16","AB_m21","217","odd","FILL_W","FAINT","2273","87132","83634","85627","73359","NA","NA","NA","NA","NA","84134","NA","NA","NA","83133","NA","83106","2285","87482","NA","NA","NA","84176","2273","2273","NA","84998","85023","83106","84134","84155","morph21_Oliver/Morris","1","3222","3","yes","1920","31"
"250","25","25","1105.5","1105.5","black","no","xpyriment","legacy","legacy","0","207","NA","uniform","NA","NA","NA","0","undefined","0","0","3","3","3","0","3","3","3","NA","0","3","NA","NA","0","3","NA","3","0","3","NA","NA","NA","3","0","0","NA","3","3","3","3","3","4","/","Tue Jul 11 18:01:24 2023","The main experiment item","yes","m21-ab-lexicalDecision.osexp","C:\Users\emoore8\Desktop\m21_vsl-main","no","mono","no","18","no","white","no","yes","1080","legacy","3","3","C:/Users/emoore8/Desktop/m21_vsl-main/subject-217.csv","xpyriment","Lentiform Loewenfeld","3.3.11","0","None","NA","NA","NA","NA","space","None","1200","NA","NA","NA","NA","71073","1200","2","legacy","1024","2","48000","-16","AB_m21","217","odd","FILL_W","SPLICE","2273","91391","89022","85627","73359","NA","NA","NA","NA","NA","89523","NA","NA","NA","88520","NA","88495","2285","91641","NA","NA","NA","89563","2273","2273","NA","90763","90787","88495","89523","89543","morph21_Oliver/Morris","1","4422","4","yes","1920","22"
"400","40","40","1065.2","1065.2","black","no","xpyriment","legacy","legacy","0","205","NA","uniform","NA","NA","NA","1","undefined","1","0","4","4","4","0","4","4","4","NA","0","4","NA","NA","0","4","NA","4","0","4","NA","NA","NA","4","0","0","NA","4","4","4","4","4","5","z","Tue Jul 11 18:01:24 2023","The main experiment item","yes","m21-ab-lexicalDecision.osexp","C:\Users\emoore8\Desktop\m21_vsl-main","no","mono","no","18","no","white","no","yes","1080","legacy","4","4","C:/Users/emoore8/Desktop/m21_vsl-main/subject-217.csv","xpyriment","Lentiform Loewenfeld","3.3.11","0","z","NA","NA","NA","NA","space","z","904","NA","NA","NA","NA","71073","904","2","legacy","1024","2","48000","-16","AB_m21","217","odd","NW_S_SIMP","MEDICALADY","2273","95219","93146","85627","73359","NA","NA","NA","NA","NA","93646","NA","NA","NA","92646","NA","92622","2285","95619","NA","NA","NA","93686","2273","2273","NA","94591","94615","92622","93646","93666","morph21_Oliver/Morris","2","5326","5","yes","1920","18"
"300","33.333333333333336","33.333333333333336","1087.6666666666667","1087.6666666666667","black","no","xpyriment","legacy","legacy","0","201","NA","uniform","NA","NA","NA","0","undefined","0","0","5","5","5","0","5","5","5","NA","0","5","NA","NA","0","5","NA","5","0","5","NA","NA","NA","5","0","0","NA","5","5","5","5","5","6","/","Tue Jul 11 18:01:24 2023","The main experiment item","yes","m21-ab-lexicalDecision.osexp","C:\Users\emoore8\Desktop\m21_vsl-main","no","mono","no","18","no","white","no","yes","1080","legacy","5","5","C:/Users/emoore8/Desktop/m21_vsl-main/subject-217.csv","xpyriment","Lentiform Loewenfeld","3.3.11","0","None","NA","NA","NA","NA","space","None","1200","NA","NA","NA","NA","71073","1200","2","legacy","1024","2","48000","-16","AB_m21","217","odd","CW_S","INSISTENT","2273","101005","97133","99500","73359","NA","NA","NA","NA","NA","97633","NA","NA","NA","96633","NA","96607","2285","101305","NA","NA","NA","97674","2273","2273","NA","98874","98897","96607","97633","97654","morph21_Oliver/Morris","2","6526","6","yes","1920","9"
"350","28.571428571428573","28.571428571428573","1103.7142857142858","1103.7142857142858","black","no","xpyriment","legacy","legacy","0","203","NA","uniform","NA","NA","NA","0","undefined","0","0","6","6","6","0","6","6","6","NA","0","6","NA","NA","0","6","NA","6","0","6","NA","NA","NA","6","0","0","NA","6","6","6","6","6","7","z","Tue Jul 11 18:01:24 2023","The main experiment item","yes","m21-ab-lexicalDecision.osexp","C:\Users\emoore8\Desktop\m21_vsl-main","no","mono","no","18","no","white","no","yes","1080","legacy","6","6","C:/Users/emoore8/Desktop/m21_vsl-main/subject-217.csv","xpyriment","Lentiform Loewenfeld","3.3.11","0","None","NA","NA","NA","NA","space","None","1200","NA","NA","NA","NA","71073","1200","2","legacy","1024","2","48000","-16","AB_m21","217","odd","NW_S_COMP","DEBTISH","2273","105186","102817","99500","73359","NA","NA","NA","NA","NA","103318","NA","NA","NA","102316","NA","102291","2285","105536","NA","NA","NA","103358","2273","2273","NA","104558","104581","102291","103318","103338","morph21_Oliver/Morris","2","7726","7","yes","1920","22"
"400","25","25","1115.75","1115.75","black","no","xpyriment","legacy","legacy","0","202","NA","uniform","NA","NA","NA","0","undefined","0","0","7","7","7","0","7","7","7","NA","0","7","NA","NA","0","7","NA","7","0","7","NA","NA","NA","7","0","0","NA","7","7","7","7","7","8","/","Tue Jul 11 18:01:24 2023","The main experiment item","yes","m21-ab-lexicalDecision.osexp","C:\Users\emoore8\Desktop\m21_vsl-main","no","mono","no","18","no","white","no","yes","1080","legacy","7","7","C:/Users/emoore8/Desktop/m21_vsl-main/subject-217.csv","xpyriment","Lentiform Loewenfeld","3.3.11","0","None","NA","NA","NA","NA","space","None","1200","NA","NA","NA","NA","71073","1200","2","legacy","1024","2","48000","-16","AB_m21","217","odd","CW_L","SPELLER","2273","109426","107055","99500","73359","NA","NA","NA","NA","NA","107557","NA","NA","NA","106553","NA","106526","2285","109826","NA","NA","NA","107597","2273","2273","NA","108797","108822","106526","107557","107577","morph21_Oliver/Morris","2","8926","8","yes","1920","3"
"300","33.333333333333336","33.333333333333336","1093.5555555555557","1093.5555555555557","black","no","xpyriment","legacy","legacy","0","207","NA","uniform","NA","NA","NA","1","undefined","1","0","8","8","8","0","8","8","8","NA","0","8","NA","NA","0","8","NA","8","0","8","NA","NA","NA","8","0","0","NA","8","8","8","8","8","9","/","Tue Jul 11 18:01:24 2023","The main experiment item","yes","m21-ab-lexicalDecision.osexp","C:\Users\emoore8\Desktop\m21_vsl-main","no","mono","no","18","no","white","no","yes","1080","legacy","8","8","C:/Users/emoore8/Desktop/m21_vsl-main/subject-217.csv","xpyriment","Lentiform Loewenfeld","3.3.11","0","/","NA","NA","NA","NA","space","/","916","NA","NA","NA","NA","71073","916","2","legacy","1024","2","48000","-16","AB_m21","217","odd","FILL_W","IRON","2273","114930","111340","113426","73359","NA","NA","NA","NA","NA","111841","NA","NA","NA","110840","NA","110812","2285","115230","NA","NA","NA","111882","2273","2273","NA","112799","112822","110811","111841","111862","morph21_Oliver/Morris","3","9842","9","yes","1920","33"
"400","40","40","1085.9","1085.9","black","no","xpyriment","legacy","legacy","0","202","NA","uniform","NA","NA","NA","1","undefined","1","0","9","9","9","0","9","9","9","NA","0","9","NA","NA","0","9","NA","9","0","9","NA","NA","NA","9","0","0","NA","9","9","9","9","9","10","/","Tue Jul 11 18:01:24 2023","The main experiment item","yes","m21-ab-lexicalDecision.osexp","C:\Users\emoore8\Desktop\m21_vsl-main","no","mono","no","18","no","white","no","yes","1080","legacy","9","9","C:/Users/emoore8/Desktop/m21_vsl-main/subject-217.csv","xpyriment","Lentiform Loewenfeld","3.3.11","0","/","NA","NA","NA","NA","space","/","1017","NA","NA","NA","NA","71073","1017","2","legacy","1024","2","48000","-16","AB_m21","217","odd","CW_L","DRYNESS","2273","118936","116750","113426","73359","NA","NA","NA","NA","NA","117252","NA","NA","NA","116250","NA","116226","2285","119336","NA","NA","NA","117292","2273","2273","NA","118310","118333","116226","117251","117272","morph21_Oliver/Morris","4","10859","10","yes","1920","42"
"250","36.36363636363637","36.36363636363637","1096.2727272727273","1096.2727272727273","black","no","xpyriment","legacy","legacy","0","201","NA","uniform","NA","NA","NA","0","undefined","0","0","10","10","10","0","10","10","10","NA","0","10","NA","NA","0","10","NA","10","0","10","NA","NA","NA","10","0","0","NA","10","10","10","10","10","11","/","Tue Jul 11 18:01:24 2023","The main experiment item","yes","m21-ab-lexicalDecision.osexp","C:\Users\emoore8\Desktop\m21_vsl-main","no","mono","no","18","no","white","no","yes","1080","legacy","10","10","C:/Users/emoore8/Desktop/m21_vsl-main/subject-217.csv","xpyriment","Lentiform Loewenfeld","3.3.11","0","None","NA","NA","NA","NA","space","None","1200","NA","NA","NA","NA","71073","1200","2","legacy","1024","2","48000","-16","AB_m21","217","odd","CW_S","NOTICEABLE","2273","123204","120838","113426","73359","NA","NA","NA","NA","NA","121338","NA","NA","NA","120337","NA","120310","2285","123454","NA","NA","NA","121378","2273","2273","NA","122578","122601","120310","121338","121358","morph21_Oliver/Morris","4","12059","11","yes","1920","3"
"350","41.666666666666664","41.666666666666664","1091.5833333333333","1091.5833333333333","black","no","xpyriment","legacy","legacy","0","204","NA","uniform","NA","NA","NA","1","undefined","1","0","11","11","11","0","11","11","11","NA","0","11","NA","NA","0","11","NA","11","0","11","NA","NA","NA","11","0","0","NA","11","11","11","11","11","12","z","Tue Jul 11 18:01:24 2023","The main experiment item","yes","m21-ab-lexicalDecision.osexp","C:\Users\emoore8\Desktop\m21_vsl-main","no","mono","no","18","no","white","no","yes","1080","legacy","11","11","C:/Users/emoore8/Desktop/m21_vsl-main/subject-217.csv","xpyriment","Lentiform Loewenfeld","3.3.11","0","z","NA","NA","NA","NA","space","z","1040","NA","NA","NA","NA","71073","1040","2","legacy","1024","2","48000","-16","AB_m21","217","odd","NW_L_COMP","INKISM","2273","128692","124978","127186","73359","NA","NA","NA","NA","NA","125478","NA","NA","NA","124478","NA","124451","2285","129042","NA","NA","NA","125518","2273","2273","NA","126558","126582","124451","125478","125498","morph21_Oliver/Morris","5","13099","12","yes","1920","8"
"200","46.15384615384615","46.15384615384615","1099.5384615384614","1099.5384615384614","black","no","xpyriment","legacy","legacy","0","201","NA","uniform","NA","NA","NA","1","undefined","1","0","12","12","12","0","12","12","12","NA","0","12","NA","NA","0","12","NA","12","0","12","NA","NA","NA","12","0","0","NA","12","12","12","12","12","13","/","Tue Jul 11 18:01:24 2023","The main experiment item","yes","m21-ab-lexicalDecision.osexp","C:\Users\emoore8\Desktop\m21_vsl-main","no","mono","no","18","no","white","no","yes","1080","legacy","12","12","C:/Users/emoore8/Desktop/m21_vsl-main/subject-217.csv","xpyriment","Lentiform Loewenfeld","3.3.11","0","/","NA","NA","NA","NA","space","/","1195","NA","NA","NA","NA","71073","1195","2","legacy","1024","2","48000","-16","AB_m21","217","odd","CW_S","THRUSTER","2273","133009","130646","127186","73359","NA","NA","NA","NA","NA","131146","NA","NA","NA","130144","NA","130113","2285","133210","NA","NA","NA","131187","2273","2273","NA","132383","132406","130113","131146","131167","morph21_Oliver/Morris","6","14294","13","yes","1920","24"
"400","42.857142857142854","42.857142857142854","1106.7142857142858","1106.7142857142858","black","no","xpyriment","legacy","legacy","0","203","NA","uniform","NA","NA","NA","0","undefined","0","0","13","13","13","0","13","13","13","NA","0","13","NA","NA","0","13","NA","13","0","13","NA","NA","NA","13","0","0","NA","13","13","13","13","13","14","z","Tue Jul 11 18:01:24 2023","The main experiment item","yes","m21-ab-lexicalDecision.osexp","C:\Users\emoore8\Desktop\m21_vsl-main","no","mono","no","18","no","white","no","yes","1080","legacy","13","13","C:/Users/emoore8/Desktop/m21_vsl-main/subject-217.csv","xpyriment","Lentiform Loewenfeld","3.3.11","0","None","NA","NA","NA","NA","space","None","1200","NA","NA","NA","NA","71073","1200","2","legacy","1024","2","48000","-16","AB_m21","217","odd","NW_S_COMP","ARIDISM","2273","137107","134741","127186","73359","NA","NA","NA","NA","NA","135241","NA","NA","NA","134240","NA","134213","2285","137507","NA","NA","NA","135281","2273","2273","NA","136481","136504","134213","135241","135261","morph21_Oliver/Morris","6","15494","14","yes","1920","9"
"300","40","40","1112.9333333333334","1112.9333333333334","black","no","xpyriment","legacy","legacy","0","204","NA","uniform","NA","NA","NA","0","undefined","0","0","14","14","14","0","14","14","14","NA","0","14","NA","NA","0","14","NA","14","0","14","NA","NA","NA","14","0","0","NA","14","14","14","14","14","15","z","Tue Jul 11 18:01:24 2023","The main experiment item","yes","m21-ab-lexicalDecision.osexp","C:\Users\emoore8\Desktop\m21_vsl-main","no","mono","no","18","no","white","no","yes","1080","legacy","14","14","C:/Users/emoore8/Desktop/m21_vsl-main/subject-217.csv","xpyriment","Lentiform Loewenfeld","3.3.11","0","None","NA","NA","NA","NA","space","None","1200","NA","NA","NA","NA","71073","1200","2","legacy","1024","2","48000","-16","AB_m21","217","odd","NW_L_COMP","BINDIC","2273","142914","139039","141408","73359","NA","NA","NA","NA","NA","139539","NA","NA","NA","138538","NA","138506","2285","143214","NA","NA","NA","139580","2273","2273","NA","140780","140804","138505","139539","139560","morph21_Oliver/Morris","6","16694","15","yes","1920","22"
"200","43.75","43.75","1094","1094","black","no","xpyriment","legacy","legacy","0","208","NA","uniform","NA","NA","NA","1","undefined","1","0","15","15","15","0","15","15","15","NA","0","15","NA","NA","0","15","NA","15","0","15","NA","NA","NA","15","0","0","NA","15","15","15","15","15","16","z","Tue Jul 11 18:01:24 2023","The main experiment item","yes","m21-ab-lexicalDecision.osexp","C:\Users\emoore8\Desktop\m21_vsl-main","no","mono","no","18","no","white","no","yes","1080","legacy","15","15","C:/Users/emoore8/Desktop/m21_vsl-main/subject-217.csv","xpyriment","Lentiform Loewenfeld","3.3.11","0","z","NA","NA","NA","NA","space","z","810","NA","NA","NA","NA","71073","810","2","legacy","1024","2","48000","-16","AB_m21","217","odd","FILL_NW","VUNKS","2273","146723","144744","141408","73359","NA","NA","NA","NA","NA","145244","NA","NA","NA","144244","NA","144218","2285","146923","NA","NA","NA","145284","2273","2273","NA","146094","146120","144218","145244","145264","morph21_Oliver/Morris","7","17504","16","yes","1920","49"
"350","47.05882352941177","47.05882352941177","1082.6470588235295","1082.6470588235295","black","no","xpyriment","legacy","legacy","0","208","NA","uniform","NA","NA","NA","1","undefined","1","0","16","16","16","0","16","16","16","NA","0","16","NA","NA","0","16","NA","16","0","16","NA","NA","NA","16","0","0","NA","16","16","16","16","16","17","z","Tue Jul 11 18:01:24 2023","The main experiment item","yes","m21-ab-lexicalDecision.osexp","C:\Users\emoore8\Desktop\m21_vsl-main","no","mono","no","18","no","white","no","yes","1080","legacy","16","16","C:/Users/emoore8/Desktop/m21_vsl-main/subject-217.csv","xpyriment","Lentiform Loewenfeld","3.3.11","0","z","NA","NA","NA","NA","space","z","901","NA","NA","NA","NA","71073","901","2","legacy","1024","2","48000","-16","AB_m21","217","odd","FILL_NW","HEAS","2273","150529","148460","141408","73359","NA","NA","NA","NA","NA","148961","NA","NA","NA","147959","NA","147932","2285","150879","NA","NA","NA","149001","2273","2273","NA","149903","149926","147931","148960","148981","morph21_Oliver/Morris","8","18405","17","yes","1920","26"
"350","50","50","1051.9444444444443","1051.9444444444443","black","no","xpyriment","legacy","legacy","0","207","NA","uniform","NA","NA","NA","1","undefined","1","0","17","17","17","0","17","17","17","NA","0","17","NA","NA","0","17","NA","17","0","17","NA","NA","NA","17","0","0","NA","17","17","17","17","17","18","/","Tue Jul 11 18:01:24 2023","The main experiment item","yes","m21-ab-lexicalDecision.osexp","C:\Users\emoore8\Desktop\m21_vsl-main","no","mono","no","18","no","white","no","yes","1080","legacy","17","17","C:/Users/emoore8/Desktop/m21_vsl-main/subject-217.csv","xpyriment","Lentiform Loewenfeld","3.3.11","0","/","NA","NA","NA","NA","space","/","530","NA","NA","NA","NA","71073","530","2","legacy","1024","2","48000","-16","AB_m21","217","odd","FILL_W","GLOOM","2273","155600","152399","154097","73359","NA","NA","NA","NA","NA","152900","NA","NA","NA","151899","NA","151872","2285","155950","NA","NA","NA","152940","2273","2273","NA","153470","153494","151872","152899","152920","morph21_Oliver/Morris","9","18935","18","yes","1920","14"
"250","47.36842105263158","47.36842105263158","1059.7368421052631","1059.7368421052631","black","no","xpyriment","legacy","legacy","0","201","NA","uniform","NA","NA","NA","0","undefined","0","0","18","18","18","0","18","18","18","NA","0","18","NA","NA","0","18","NA","18","0","18","NA","NA","NA","18","0","0","NA","18","18","18","18","18","19","/","Tue Jul 11 18:01:24 2023","The main experiment item","yes","m21-ab-lexicalDecision.osexp","C:\Users\emoore8\Desktop\m21_vsl-main","no","mono","no","18","no","white","no","yes","1080","legacy","18","18","C:/Users/emoore8/Desktop/m21_vsl-main/subject-217.csv","xpyriment","Lentiform Loewenfeld","3.3.11","0","None","NA","NA","NA","NA","space","None","1200","NA","NA","NA","NA","71073","1200","2","legacy","1024","2","48000","-16","AB_m21","217","odd","CW_S","GRIMLY","2273","159818","157449","154097","73359","NA","NA","NA","NA","NA","157949","NA","NA","NA","156948","NA","156924","2285","160068","NA","NA","NA","157990","2273","2273","NA","159190","159213","156924","157949","157970","morph21_Oliver/Morris","9","20135","19","yes","1920","31"
"300","50","50","1041.85","1041.85","black","no","xpyriment","legacy","legacy","0","201","NA","uniform","NA","NA","NA","1","undefined","1","0","19","19","19","0","19","19","19","NA","0","19","NA","NA","0","19","NA","19","0","19","NA","NA","NA","19","0","0","NA","19","19","19","19","19","20","/","Tue Jul 11 18:01:24 2023","The main experiment item","yes","m21-ab-lexicalDecision.osexp","C:\Users\emoore8\Desktop\m21_vsl-main","no","mono","no","18","no","white","no","yes","1080","legacy","19","19","C:/Users/emoore8/Desktop/m21_vsl-main/subject-217.csv","xpyriment","Lentiform Loewenfeld","3.3.11","0","/","NA","NA","NA","NA","space","/","702","NA","NA","NA","NA","71073","702","2","legacy","1024","2","48000","-16","AB_m21","217","odd","CW_S","GUILTY","2273","163442","161571","154097","73359","NA","NA","NA","NA","NA","162071","NA","NA","NA","161071","NA","161044","2285","163742","NA","NA","NA","162112","2273","2273","NA","162815","162838","161044","162071","162091","morph21_Oliver/Morris","10","20837","20","yes","1920","34"
"200","52.38095238095238","52.38095238095238","1020","1020","black","no","xpyriment","legacy","legacy","0","202","NA","uniform","NA","NA","NA","1","undefined","1","0","20","20","20","0","20","20","20","NA","0","20","NA","NA","0","20","NA","20","0","20","NA","NA","NA","20","0","0","NA","20","20","20","20","20","21","/","Tue Jul 11 18:01:24 2023","The main experiment item","yes","m21-ab-lexicalDecision.osexp","C:\Users\emoore8\Desktop\m21_vsl-main","no","mono","no","18","no","white","no","yes","1080","legacy","20","20","C:/Users/emoore8/Desktop/m21_vsl-main/subject-217.csv","xpyriment","Lentiform Loewenfeld","3.3.11","0","/","NA","NA","NA","NA","space","/","583","NA","NA","NA","NA","71073","583","2","legacy","1024","2","48000","-16","AB_m21","217","odd","CW_L","SHAMEFUL","2273","168504","165249","167001","73359","NA","NA","NA","NA","NA","165750","NA","NA","NA","164748","NA","164724","2285","168704","NA","NA","NA","165791","2273","2273","NA","166374","166398","164724","165750","165771","morph21_Oliver/Morris","11","21420","21","yes","1920","19"
"350","54.54545454545455","54.54545454545455","1020.6818181818181","1020.6818181818181","black","no","xpyriment","legacy","legacy","0","201","NA","uniform","NA","NA","NA","1","undefined","1","0","21","21","21","0","21","21","21","NA","0","21","NA","NA","0","21","NA","21","0","21","NA","NA","NA","21","0","0","NA","21","21","21","21","21","22","/","Tue Jul 11 18:01:24 2023","The main experiment item","yes","m21-ab-lexicalDecision.osexp","C:\Users\emoore8\Desktop\m21_vsl-main","no","mono","no","18","no","white","no","yes","1080","legacy","21","21","C:/Users/emoore8/Desktop/m21_vsl-main/subject-217.csv","xpyriment","Lentiform Loewenfeld","3.3.11","0","/","NA","NA","NA","NA","space","/","1035","NA","NA","NA","NA","71073","1035","2","legacy","1024","2","48000","-16","AB_m21","217","odd","CW_S","AMAZEMENT","2273","172433","170230","167001","73359","NA","NA","NA","NA","NA","170731","NA","NA","NA","169728","NA","169701","2285","172783","NA","NA","NA","170771","2273","2273","NA","171806","171830","169700","170730","170751","morph21_Oliver/Morris","12","22455","22","yes","1920","39"
"250","52.17391304347826","52.17391304347826","1028.4782608695652","1028.4782608695652","black","no","xpyriment","legacy","legacy","0","204","NA","uniform","NA","NA","NA","0","undefined","0","0","22","22","22","0","22","22","22","NA","0","22","NA","NA","0","22","NA","22","0","22","NA","NA","NA","22","0","0","NA","22","22","22","22","22","23","z","Tue Jul 11 18:01:24 2023","The main experiment item","yes","m21-ab-lexicalDecision.osexp","C:\Users\emoore8\Desktop\m21_vsl-main","no","mono","no","18","no","white","no","yes","1080","legacy","22","22","C:/Users/emoore8/Desktop/m21_vsl-main/subject-217.csv","xpyriment","Lentiform Loewenfeld","3.3.11","0","None","NA","NA","NA","NA","space","None","1200","NA","NA","NA","NA","71073","1200","2","legacy","1024","2","48000","-16","AB_m21","217","odd","NW_L_COMP","STIRANCE","2273","176681","174314","167001","73359","NA","NA","NA","NA","NA","174815","NA","NA","NA","173813","NA","173785","2285","176931","NA","NA","NA","174855","2273","2273","NA","176055","176078","173785","174815","174835","morph21_Oliver/Morris","12","23655","23","yes","1920","1"
"250","54.166666666666664","54.166666666666664","1021.9583333333334","1021.9583333333334","black","no","xpyriment","legacy","legacy","0","208","NA","uniform","NA","NA","NA","1","undefined","1","0","23","23","23","0","23","23","23","NA","0","23","NA","NA","0","23","NA","23","0","23","NA","NA","NA","23","0","0","NA","23","23","23","23","23","24","z","Tue Jul 11 18:01:24 2023","The main experiment item","yes","m21-ab-lexicalDecision.osexp","C:\Users\emoore8\Desktop\m21_vsl-main","no","mono","no","18","no","white","no","yes","1080","legacy","23","23","C:/Users/emoore8/Desktop/m21_vsl-main/subject-217.csv","xpyriment","Lentiform Loewenfeld","3.3.11","0","z","NA","NA","NA","NA","space","z","872","NA","NA","NA","NA","71073","872","2","legacy","1024","2","48000","-16","AB_m21","217","odd","FILL_NW","LOLDS","2273","181978","178434","180474","73359","NA","NA","NA","NA","NA","178934","NA","NA","NA","177934","NA","177907","2285","182229","NA","NA","NA","178974","2273","2273","NA","179846","179871","177907","178934","178954","morph21_Oliver/Morris","13","24527","24","yes","1920","34"
"250","52","52","1029.08","1029.08","black","no","xpyriment","legacy","legacy","0","202","NA","uniform","NA","NA","NA","0","undefined","0","0","24","24","24","0","24","24","24","NA","0","24","NA","NA","0","24","NA","24","0","24","NA","NA","NA","24","0","0","NA","24","24","24","24","24","25","/","Tue Jul 11 18:01:24 2023","The main experiment item","yes","m21-ab-lexicalDecision.osexp","C:\Users\emoore8\Desktop\m21_vsl-main","no","mono","no","18","no","white","no","yes","1080","legacy","24","24","C:/Users/emoore8/Desktop/m21_vsl-main/subject-217.csv","xpyriment","Lentiform Loewenfeld","3.3.11","0","None","NA","NA","NA","NA","space","None","1200","NA","NA","NA","NA","71073","1200","2","legacy","1024","2","48000","-16","AB_m21","217","odd","CW_L","DANCER","2273","186118","183748","180474","73359","NA","NA","NA","NA","NA","184250","NA","NA","NA","183246","NA","183222","2285","186368","NA","NA","NA","184290","2273","2273","NA","185490","185513","183222","184250","184270","morph21_Oliver/Morris","13","25727","25","yes","1920","11"
"300","53.84615384615385","53.84615384615385","1015.4230769230769","1015.4230769230769","black","no","xpyriment","legacy","legacy","0","206","NA","uniform","NA","NA","NA","1","undefined","1","0","25","25","25","0","25","25","25","NA","0","25","NA","NA","0","25","NA","25","0","25","NA","NA","NA","25","0","0","NA","25","25","25","25","25","26","z","Tue Jul 11 18:01:24 2023","The main experiment item","yes","m21-ab-lexicalDecision.osexp","C:\Users\emoore8\Desktop\m21_vsl-main","no","mono","no","18","no","white","no","yes","1080","legacy","25","25","C:/Users/emoore8/Desktop/m21_vsl-main/subject-217.csv","xpyriment","Lentiform Loewenfeld","3.3.11","0","z","NA","NA","NA","NA","space","z","674","NA","NA","NA","NA","71073","674","2","legacy","1024","2","48000","-16","AB_m21","217","odd","NW_L_SIMP","TAXFIL","2273","189738","187894","180474","73359","NA","NA","NA","NA","NA","188395","NA","NA","NA","187393","NA","187366","2285","190038","NA","NA","NA","188436","2273","2273","NA","189111","189135","187366","188395","188416","morph21_Oliver/Morris","14","26401","26","yes","1920","6"
"250","51.851851851851855","51.851851851851855","1001.2592592592592","1001.2592592592592","black","no","xpyriment","legacy","legacy","0","201","NA","uniform","NA","NA","NA","0","undefined","0","0","26","26","26","0","26","26","26","NA","0","26","NA","NA","0","26","NA","26","0","26","NA","NA","NA","26","0","0","NA","26","26","26","26","26","27","/","Tue Jul 11 18:01:24 2023","The main experiment item","yes","m21-ab-lexicalDecision.osexp","C:\Users\emoore8\Desktop\m21_vsl-main","no","mono","no","18","no","white","no","yes","1080","legacy","26","26","C:/Users/emoore8/Desktop/m21_vsl-main/subject-217.csv","xpyriment","Lentiform Loewenfeld","3.3.11","0","z","NA","NA","NA","NA","space","z","633","NA","NA","NA","NA","71073","633","2","legacy","1024","2","48000","-16","AB_m21","217","odd","CW_S","MILDNESS","2273","194865","191560","193362","73359","NA","NA","NA","NA","NA","192061","NA","NA","NA","191059","NA","191025","2285","195115","NA","NA","NA","192101","2273","2273","NA","192735","192759","191025","192061","192081","morph21_Oliver/Morris","14","27034","27","yes","1920","42"
"300","53.57142857142857","53.57142857142857","998.8928571428571","998.8928571428571","black","no","xpyriment","legacy","legacy","0","203","NA","uniform","NA","NA","NA","1","undefined","1","0","27","27","27","0","27","27","27","NA","0","27","NA","NA","0","27","NA","27","0","27","NA","NA","NA","27","0","0","NA","27","27","27","27","27","28","z","Tue Jul 11 18:01:24 2023","The main experiment item","yes","m21-ab-lexicalDecision.osexp","C:\Users\emoore8\Desktop\m21_vsl-main","no","mono","no","18","no","white","no","yes","1080","legacy","27","27","C:/Users/emoore8/Desktop/m21_vsl-main/subject-217.csv","xpyriment","Lentiform Loewenfeld","3.3.11","0","z","NA","NA","NA","NA","space","z","935","NA","NA","NA","NA","71073","935","2","legacy","1024","2","48000","-16","AB_m21","217","odd","NW_S_COMP","FIGER","2273","198737","196634","193362","73359","NA","NA","NA","NA","NA","197134","NA","NA","NA","196134","NA","196106","2285","199037","NA","NA","NA","197175","2273","2273","NA","198111","198134","196106","197134","197155","morph21_Oliver/Morris","15","27969","28","yes","1920","4"
"400","55.172413793103445","55.172413793103445","986.9655172413793","986.9655172413793","black","no","xpyriment","legacy","legacy","0","202","NA","uniform","NA","NA","NA","1","undefined","1","0","28","28","28","0","28","28","28","NA","0","28","NA","NA","0","28","NA","28","0","28","NA","NA","NA","28","0","0","NA","28","28","28","28","28","29","/","Tue Jul 11 18:01:24 2023","The main experiment item","yes","m21-ab-lexicalDecision.osexp","C:\Users\emoore8\Desktop\m21_vsl-main","no","mono","no","18","no","white","no","yes","1080","legacy","28","28","C:/Users/emoore8/Desktop/m21_vsl-main/subject-217.csv","xpyriment","Lentiform Loewenfeld","3.3.11","0","/","NA","NA","NA","NA","space","/","653","NA","NA","NA","NA","71073","653","2","legacy","1024","2","48000","-16","AB_m21","217","odd","CW_L","WRONGLY","2273","202379","200555","193362","73359","NA","NA","NA","NA","NA","201057","NA","NA","NA","200054","NA","200029","2285","202779","NA","NA","NA","201097","2273","2273","NA","201751","201775","200029","201057","201077","morph21_Oliver/Morris","16","28622","29","yes","1920","37"
"400","56.666666666666664","56.666666666666664","984.6333333333333","984.6333333333333","black","no","xpyriment","legacy","legacy","0","206","NA","uniform","NA","NA","NA","1","undefined","1","0","29","29","29","0","29","29","29","NA","0","29","NA","NA","0","29","NA","29","0","29","NA","NA","NA","29","0","0","NA","29","29","29","29","29","30","z","Tue Jul 11 18:01:24 2023","The main experiment item","yes","m21-ab-lexicalDecision.osexp","C:\Users\emoore8\Desktop\m21_vsl-main","no","mono","no","18","no","white","no","yes","1080","legacy","29","29","C:/Users/emoore8/Desktop/m21_vsl-main/subject-217.csv","xpyriment","Lentiform Loewenfeld","3.3.11","0","z","NA","NA","NA","NA","space","z","917","NA","NA","NA","NA","71073","917","2","legacy","1024","2","48000","-16","AB_m21","217","odd","NW_L_SIMP","POORIDY","2273","207939","204340","206428","73359","NA","NA","NA","NA","NA","204840","NA","NA","NA","203840","NA","203811","2285","208339","NA","NA","NA","204881","2273","2273","NA","205798","205824","203811","204840","204861","morph21_Oliver/Morris","17","29539","30","yes","1920","13"
"350","54.83870967741935","54.83870967741935","991.5806451612904","991.5806451612904","black","no","xpyriment","legacy","legacy","0","201","NA","uniform","NA","NA","NA","0","undefined","0","0","30","30","30","0","30","30","30","NA","0","30","NA","NA","0","30","NA","30","0","30","NA","NA","NA","30","0","0","NA","30","30","30","30","30","31","/","Tue Jul 11 18:01:24 2023","The main experiment item","yes","m21-ab-lexicalDecision.osexp","C:\Users\emoore8\Desktop\m21_vsl-main","no","mono","no","18","no","white","no","yes","1080","legacy","30","30","C:/Users/emoore8/Desktop/m21_vsl-main/subject-217.csv","xpyriment","Lentiform Loewenfeld","3.3.11","0","None","NA","NA","NA","NA","space","None","1200","NA","NA","NA","NA","71073","1200","2","legacy","1024","2","48000","-16","AB_m21","217","odd","CW_S","DULLNESS","2273","212238","209870","206428","73359","NA","NA","NA","NA","NA","210370","NA","NA","NA","209370","NA","209344","2285","212588","NA","NA","NA","210411","2273","2273","NA","211611","211635","209344","210370","210391","morph21_Oliver/Morris","17","30739","31","yes","1920","43"
"200","56.25","56.25","980.375","980.375","black","no","xpyriment","legacy","legacy","0","208","NA","uniform","NA","NA","NA","1","undefined","1","0","31","31","31","0","31","31","31","NA","0","31","NA","NA","0","31","NA","31","0","31","NA","NA","NA","31","0","0","NA","31","31","31","31","31","32","z","Tue Jul 11 18:01:24 2023","The main experiment item","yes","m21-ab-lexicalDecision.osexp","C:\Users\emoore8\Desktop\m21_vsl-main","no","mono","no","18","no","white","no","yes","1080","legacy","31","31","C:/Users/emoore8/Desktop/m21_vsl-main/subject-217.csv","xpyriment","Lentiform Loewenfeld","3.3.11","0","z","NA","NA","NA","NA","space","z","633","NA","NA","NA","NA","71073","633","2","legacy","1024","2","48000","-16","AB_m21","217","odd","FILL_NW","BROUPS","2273","215970","214168","206428","73359","NA","NA","NA","NA","NA","214668","NA","NA","NA","213667","NA","213638","2285","216170","NA","NA","NA","214709","2273","2273","NA","215343","215366","213638","214668","214689","morph21_Oliver/Morris","18","31372","32","yes","1920","4"
"250","57.57575757575758","57.57575757575758","966.3636363636364","966.3636363636364","black","no","xpyriment","legacy","legacy","0","207","NA","uniform","NA","NA","NA","1","undefined","1","0","32","32","32","0","32","32","32","NA","0","32","NA","NA","0","32","NA","32","0","32","NA","NA","NA","32","0","0","NA","32","32","32","32","32","33","/","Tue Jul 11 18:01:24 2023","The main experiment item","yes","m21-ab-lexicalDecision.osexp","C:\Users\emoore8\Desktop\m21_vsl-main","no","mono","no","18","no","white","no","yes","1080","legacy","32","32","C:/Users/emoore8/Desktop/m21_vsl-main/subject-217.csv","xpyriment","Lentiform Loewenfeld","3.3.11","0","/","NA","NA","NA","NA","space","/","518","NA","NA","NA","NA","71073","518","2","legacy","1024","2","48000","-16","AB_m21","217","odd","FILL_W","SMOKE","2273","220913","217722","219409","73359","NA","NA","NA","NA","NA","218224","NA","NA","NA","217221","NA","217196","2285","221163","NA","NA","NA","218264","2273","2273","NA","218783","218806","217196","218224","218244","morph21_Oliver/Morris","19","31890","33","yes","1920","50"
"400","58.8235294117647","58.8235294117647","964.3529411764706","964.3529411764706","black","no","xpyriment","legacy","legacy","0","202","NA","uniform","NA","NA","NA","1","undefined","1","0","33","33","33","0","33","33","33","NA","0","33","NA","NA","0","33","NA","33","0","33","NA","NA","NA","33","0","0","NA","33","33","33","33","33","34","/","Tue Jul 11 18:01:24 2023","The main experiment item","yes","m21-ab-lexicalDecision.osexp","C:\Users\emoore8\Desktop\m21_vsl-main","no","mono","no","18","no","white","no","yes","1080","legacy","33","33","C:/Users/emoore8/Desktop/m21_vsl-main/subject-217.csv","xpyriment","Lentiform Loewenfeld","3.3.11","0","/","NA","NA","NA","NA","space","/","898","NA","NA","NA","NA","71073","898","2","legacy","1024","2","48000","-16","AB_m21","217","odd","CW_L","QUIETLY","2273","224737","222672","219409","73359","NA","NA","NA","NA","NA","223172","NA","NA","NA","222172","NA","222145","2285","225137","NA","NA","NA","223212","2273","2273","NA","224110","224134","222145","223172","223192","morph21_Oliver/Morris","20","32788","34","yes","1920","36"
"250","60","60","954.6","954.6","black","no","xpyriment","legacy","legacy","0","207","NA","uniform","NA","NA","NA","1","undefined","1","0","34","34","34","0","34","34","34","NA","0","34","NA","NA","0","34","NA","34","0","34","NA","NA","NA","34","0","0","NA","34","34","34","34","34","35","/","Tue Jul 11 18:01:24 2023","The main experiment item","yes","m21-ab-lexicalDecision.osexp","C:\Users\emoore8\Desktop\m21_vsl-main","no","mono","no","18","no","white","no","yes","1080","legacy","34","34","C:/Users/emoore8/Desktop/m21_vsl-main/subject-217.csv","xpyriment","Lentiform Loewenfeld","3.3.11","0","/","NA","NA","NA","NA","space","/","623","NA","NA","NA","NA","71073","623","2","legacy","1024","2","48000","-16","AB_m21","217","odd","FILL_W","SUIT","2273","228428","226635","219409","73359","NA","NA","NA","NA","NA","227135","NA","NA","NA","226134","NA","226108","2285","228678","NA","NA","NA","227175","2273","2273","NA","227798","227824","226108","227135","227155","morph21_Oliver/Morris","21","33411","35","yes","1920","49"
"400","61.111111111111114","61.111111111111114","942.6388888888889","942.6388888888889","black","no","xpyriment","legacy","legacy","0","202","NA","uniform","NA","NA","NA","1","undefined","1","0","35","35","35","0","35","35","35","NA","0","35","NA","NA","0","35","NA","35","0","35","NA","NA","NA","35","0","0","NA","35","35","35","35","35","36","/","Tue Jul 11 18:01:24 2023","The main experiment item","yes","m21-ab-lexicalDecision.osexp","C:\Users\emoore8\Desktop\m21_vsl-main","no","mono","no","18","no","white","no","yes","1080","legacy","35","35","C:/Users/emoore8/Desktop/m21_vsl-main/subject-217.csv","xpyriment","Lentiform Loewenfeld","3.3.11","0","/","NA","NA","NA","NA","space","/","524","NA","NA","NA","NA","71073","524","2","legacy","1024","2","48000","-16","AB_m21","217","odd","CW_L","LOCKER","2273","233395","230198","231892","73359","NA","NA","NA","NA","NA","230698","NA","NA","NA","229698","NA","229671","2285","233795","NA","NA","NA","230738","2273","2273","NA","231263","231288","229671","230698","230718","morph21_Oliver/Morris","22","33935","36","yes","1920","8"
"250","62.16216216216216","62.16216216216216","947.3513513513514","947.3513513513514","black","no","xpyriment","legacy","legacy","0","208","NA","uniform","NA","NA","NA","1","undefined","1","0","36","36","36","0","36","36","36","NA","0","36","NA","NA","0","36","NA","36","0","36","NA","NA","NA","36","0","0","NA","36","36","36","36","36","37","z","Tue Jul 11 18:01:24 2023","The main experiment item","yes","m21-ab-lexicalDecision.osexp","C:\Users\emoore8\Desktop\m21_vsl-main","no","mono","no","18","no","white","no","yes","1080","legacy","36","36","C:/Users/emoore8/Desktop/m21_vsl-main/subject-217.csv","xpyriment","Lentiform Loewenfeld","3.3.11","0","z","NA","NA","NA","NA","space","z","1117","NA","NA","NA","NA","71073","1117","2","legacy","1024","2","48000","-16","AB_m21","217","odd","FILL_NW","PHEEKS","2273","237588","235301","231892","73359","NA","NA","NA","NA","NA","235801","NA","NA","NA","234801","NA","234775","2285","237838","NA","NA","NA","235841","2273","2273","NA","236959","236983","234775","235801","235821","morph21_Oliver/Morris","23","35052","37","yes","1920","35"
"300","63.1578947368421","63.1578947368421","951.5526315789474","951.5526315789474","black","no","xpyriment","legacy","legacy","0","208","NA","uniform","NA","NA","NA","1","undefined","1","0","37","37","37","0","37","37","37","NA","0","37","NA","NA","0","37","NA","37","0","37","NA","NA","NA","37","0","0","NA","37","37","37","37","37","38","z","Tue Jul 11 18:01:24 2023","The main experiment item","yes","m21-ab-lexicalDecision.osexp","C:\Users\emoore8\Desktop\m21_vsl-main","no","mono","no","18","no","white","no","yes","1080","legacy","37","37","C:/Users/emoore8/Desktop/m21_vsl-main/subject-217.csv","xpyriment","Lentiform Loewenfeld","3.3.11","0","z","NA","NA","NA","NA","space","z","1107","NA","NA","NA","NA","71073","1107","2","legacy","1024","2","48000","-16","AB_m21","217","odd","FILL_NW","HEEM","2273","241628","239350","231892","73359","NA","NA","NA","NA","NA","239850","NA","NA","NA","238849","NA","238825","2285","241928","NA","NA","NA","239891","2273","2273","NA","240999","241024","238825","239850","239871","morph21_Oliver/Morris","24","36159","38","yes","1920","27"
"400","64.1025641025641","64.1025641025641","939.6666666666666","939.6666666666666","black","no","xpyriment","legacy","legacy","0","201","NA","uniform","NA","NA","NA","1","undefined","1","0","38","38","38","0","38","38","38","NA","0","38","NA","NA","0","38","NA","38","0","38","NA","NA","NA","38","0","0","NA","38","38","38","38","38","39","/","Tue Jul 11 18:01:24 2023","The main experiment item","yes","m21-ab-lexicalDecision.osexp","C:\Users\emoore8\Desktop\m21_vsl-main","no","mono","no","18","no","white","no","yes","1080","legacy","38","38","C:/Users/emoore8/Desktop/m21_vsl-main/subject-217.csv","xpyriment","Lentiform Loewenfeld","3.3.11","0","/","NA","NA","NA","NA","space","/","488","NA","NA","NA","NA","71073","488","2","legacy","1024","2","48000","-16","AB_m21","217","odd","CW_S","ALLOWANCE","2273","246626","243465","245123","73359","NA","NA","NA","NA","NA","243966","NA","NA","NA","242965","NA","242936","2285","247026","NA","NA","NA","244006","2273","2273","NA","244495","244518","242936","243965","243986","morph21_Oliver/Morris","25","36647","39","yes","1920","5"
"250","62.5","62.5","946.175","946.175","black","no","xpyriment","legacy","legacy","0","208","NA","uniform","NA","NA","NA","0","undefined","0","0","39","39","39","0","39","39","39","NA","0","39","NA","NA","0","39","NA","39","0","39","NA","NA","NA","39","0","0","NA","39","39","39","39","39","40","z","Tue Jul 11 18:01:24 2023","The main experiment item","yes","m21-ab-lexicalDecision.osexp","C:\Users\emoore8\Desktop\m21_vsl-main","no","mono","no","18","no","white","no","yes","1080","legacy","39","39","C:/Users/emoore8/Desktop/m21_vsl-main/subject-217.csv","xpyriment","Lentiform Loewenfeld","3.3.11","0","None","NA","NA","NA","NA","space","None","1200","NA","NA","NA","NA","71073","1200","2","legacy","1024","2","48000","-16","AB_m21","217","odd","FILL_NW","DOWED","2273","250899","248532","245123","73359","NA","NA","NA","NA","NA","249032","NA","NA","NA","248032","NA","248005","2285","251149","NA","NA","NA","249073","2273","2273","NA","250273","250296","248005","249032","249053","morph21_Oliver/Morris","25","37847","40","yes","1920","16"
"200","60.97560975609756","60.97560975609756","947.8536585365854","947.8536585365854","black","no","xpyriment","legacy","legacy","0","203","NA","uniform","NA","NA","NA","0","undefined","0","0","40","40","40","0","40","40","40","NA","0","40","NA","NA","0","40","NA","40","0","40","NA","NA","NA","40","0","0","NA","40","40","40","40","40","41","z","Tue Jul 11 18:01:24 2023","The main experiment item","yes","m21-ab-lexicalDecision.osexp","C:\Users\emoore8\Desktop\m21_vsl-main","no","mono","no","18","no","white","no","yes","1080","legacy","40","40","C:/Users/emoore8/Desktop/m21_vsl-main/subject-217.csv","xpyriment","Lentiform Loewenfeld","3.3.11","0","/","NA","NA","NA","NA","space","/","1015","NA","NA","NA","NA","71073","1015","2","legacy","1024","2","48000","-16","AB_m21","217","odd","NW_S_COMP","FANFUL","2273","254861","252675","245123","73359","NA","NA","NA","NA","NA","253175","NA","NA","NA","252175","NA","252147","2285","255061","NA","NA","NA","253215","2273","2273","NA","254230","254256","252147","253175","253195","morph21_Oliver/Morris","25","38862","41","yes","1920","6"
"250","61.904761904761905","61.904761904761905","938.2142857142857","938.2142857142857","black","no","xpyriment","legacy","legacy","0","201","NA","uniform","NA","NA","NA","1","undefined","1","0","41","41","41","0","41","41","41","NA","0","41","NA","NA","0","41","NA","41","0","41","NA","NA","NA","41","0","0","NA","41","41","41","41","41","42","/","Tue Jul 11 18:01:24 2023","The main experiment item","yes","m21-ab-lexicalDecision.osexp","C:\Users\emoore8\Desktop\m21_vsl-main","no","mono","no","18","no","white","no","yes","1080","legacy","41","41","C:/Users/emoore8/Desktop/m21_vsl-main/subject-217.csv","xpyriment","Lentiform Loewenfeld","3.3.11","0","/","NA","NA","NA","NA","space","/","543","NA","NA","NA","NA","71073","543","2","legacy","1024","2","48000","-16","AB_m21","217","odd","CW_S","JAILER","2273","259787","256570","258283","73359","NA","NA","NA","NA","NA","257070","NA","NA","NA","256069","NA","256043","2285","260037","NA","NA","NA","257111","2273","2273","NA","257655","257679","256043","257070","257091","morph21_Oliver/Morris","26","39405","42","yes","1920","13"
"350","62.7906976744186","62.7906976744186","934.953488372093","934.953488372093","black","no","xpyriment","legacy","legacy","0","208","NA","uniform","NA","NA","NA","1","undefined","1","0","42","42","42","0","42","42","42","NA","0","42","NA","NA","0","42","NA","42","0","42","NA","NA","NA","42","0","0","NA","42","42","42","42","42","43","z","Tue Jul 11 18:01:24 2023","The main experiment item","yes","m21-ab-lexicalDecision.osexp","C:\Users\emoore8\Desktop\m21_vsl-main","no","mono","no","18","no","white","no","yes","1080","legacy","42","42","C:/Users/emoore8/Desktop/m21_vsl-main/subject-217.csv","xpyriment","Lentiform Loewenfeld","3.3.11","0","z","NA","NA","NA","NA","space","z","798","NA","NA","NA","NA","71073","798","2","legacy","1024","2","48000","-16","AB_m21","217","odd","FILL_NW","DELP","2273","263513","261548","258283","73359","NA","NA","NA","NA","NA","262048","NA","NA","NA","261047","NA","261022","2285","263863","NA","NA","NA","262088","2273","2273","NA","262887","262910","261022","262048","262068","morph21_Oliver/Morris","27","40203","43","yes","1920","14"
"400","63.63636363636363","63.63636363636363","929.6590909090909","929.6590909090909","black","no","xpyriment","legacy","legacy","0","201","NA","uniform","NA","NA","NA","1","undefined","1","0","43","43","43","0","43","43","43","NA","0","43","NA","NA","0","43","NA","43","0","43","NA","NA","NA","43","0","0","NA","43","43","43","43","43","44","/","Tue Jul 11 18:01:24 2023","The main experiment item","yes","m21-ab-lexicalDecision.osexp","C:\Users\emoore8\Desktop\m21_vsl-main","no","mono","no","18","no","white","no","yes","1080","legacy","43","43","C:/Users/emoore8/Desktop/m21_vsl-main/subject-217.csv","xpyriment","Lentiform Loewenfeld","3.3.11","0","/","NA","NA","NA","NA","space","/","702","NA","NA","NA","NA","71073","702","2","legacy","1024","2","48000","-16","AB_m21","217","odd","CW_S","WIDOWED","2273","267241","265372","258283","73359","NA","NA","NA","NA","NA","265872","NA","NA","NA","264872","NA","264845","2285","267641","NA","NA","NA","265912","2273","2273","NA","266615","266638","264845","265872","265892","morph21_Oliver/Morris","28","40905","44","yes","1920","7"
"350","64.44444444444444","64.44444444444444","929.6666666666666","929.6666666666666","black","no","xpyriment","legacy","legacy","0","203","NA","uniform","NA","NA","NA","1","undefined","1","0","44","44","44","0","44","44","44","NA","0","44","NA","NA","0","44","NA","44","0","44","NA","NA","NA","44","0","0","NA","44","44","44","44","44","45","z","Tue Jul 11 18:01:24 2023","The main experiment item","yes","m21-ab-lexicalDecision.osexp","C:\Users\emoore8\Desktop\m21_vsl-main","no","mono","no","18","no","white","no","yes","1080","legacy","44","44","C:/Users/emoore8/Desktop/m21_vsl-main/subject-217.csv","xpyriment","Lentiform Loewenfeld","3.3.11","0","z","NA","NA","NA","NA","space","z","930","NA","NA","NA","NA","71073","930","2","legacy","1024","2","48000","-16","AB_m21","217","odd","NW_S_COMP","PRINCEMENT","2273","272856","269247","271349","73359","NA","NA","NA","NA","NA","269747","NA","NA","NA","268746","NA","268717","2285","273206","NA","NA","NA","269788","2273","2273","NA","270719","270743","268717","269747","269768","morph21_Oliver/Morris","29","41835","45","yes","1920","17"
"350","65.21739130434783","65.21739130434783","928.2608695652174","928.2608695652174","black","no","xpyriment","legacy","legacy","0","202","NA","uniform","NA","NA","NA","1","undefined","1","0","45","45","45","0","45","45","45","NA","0","45","NA","NA","0","45","NA","45","0","45","NA","NA","NA","45","0","0","NA","45","45","45","45","45","46","/","Tue Jul 11 18:01:24 2023","The main experiment item","yes","m21-ab-lexicalDecision.osexp","C:\Users\emoore8\Desktop\m21_vsl-main","no","mono","no","18","no","white","no","yes","1080","legacy","45","45","C:/Users/emoore8/Desktop/m21_vsl-main/subject-217.csv","xpyriment","Lentiform Loewenfeld","3.3.11","0","/","NA","NA","NA","NA","space","/","865","NA","NA","NA","NA","71073","865","2","legacy","1024","2","48000","-16","AB_m21","217","odd","CW_L","GUARDING","2273","276770","274735","271349","73359","NA","NA","NA","NA","NA","275235","NA","NA","NA","274234","NA","274205","2285","277120","NA","NA","NA","275277","2273","2273","NA","276143","276166","274205","275235","275256","morph21_Oliver/Morris","30","42700","46","yes","1920","26"
"300","65.95744680851064","65.95744680851064","920.063829787234","920.063829787234","black","no","xpyriment","legacy","legacy","0","202","NA","uniform","NA","NA","NA","1","undefined","1","0","46","46","46","0","46","46","46","NA","0","46","NA","NA","0","46","NA","46","0","46","NA","NA","NA","46","0","0","NA","46","46","46","46","46","47","/","Tue Jul 11 18:01:24 2023","The main experiment item","yes","m21-ab-lexicalDecision.osexp","C:\Users\emoore8\Desktop\m21_vsl-main","no","mono","no","18","no","white","no","yes","1080","legacy","46","46","C:/Users/emoore8/Desktop/m21_vsl-main/subject-217.csv","xpyriment","Lentiform Loewenfeld","3.3.11","0","/","NA","NA","NA","NA","space","/","543","NA","NA","NA","NA","71073","543","2","legacy","1024","2","48000","-16","AB_m21","217","odd","CW_L","DOUBTFUL","2273","280355","278642","271349","73359","NA","NA","NA","NA","NA","279142","NA","NA","NA","278141","NA","278114","2285","280655","NA","NA","NA","279183","2273","2273","NA","279726","279751","278114","279142","279163","morph21_Oliver/Morris","31","43243","47","yes","1920","21"
"300","66.66666666666667","66.66666666666667","918.6041666666666","918.6041666666666","black","no","xpyriment","legacy","legacy","0","208","NA","uniform","NA","NA","NA","1","undefined","1","0","47","47","47","0","47","47","47","NA","0","47","NA","NA","0","47","NA","47","0","47","NA","NA","NA","47","0","0","NA","47","47","47","47","47","48","z","Tue Jul 11 18:01:24 2023","The main experiment item","yes","m21-ab-lexicalDecision.osexp","C:\Users\emoore8\Desktop\m21_vsl-main","no","mono","no","18","no","white","no","yes","1080","legacy","47","47","C:/Users/emoore8/Desktop/m21_vsl-main/subject-217.csv","xpyriment","Lentiform Loewenfeld","3.3.11","0","z","NA","NA","NA","NA","space","z","850","NA","NA","NA","NA","71073","850","2","legacy","1024","2","48000","-16","AB_m21","217","odd","FILL_NW","DASK","2273","285718","282189","284209","73359","NA","NA","NA","NA","NA","282691","NA","NA","NA","281688","NA","281663","2285","286018","NA","NA","NA","282732","2273","2273","NA","283583","283606","281663","282691","282712","morph21_Oliver/Morris","32","44093","48","yes","1920","12"
"300","65.3061224489796","65.3061224489796","924.3469387755102","924.3469387755102","black","no","xpyriment","legacy","legacy","0","206","NA","uniform","NA","NA","NA","0","undefined","0","0","48","48","48","0","48","48","48","NA","0","48","NA","NA","0","48","NA","48","0","48","NA","NA","NA","48","0","0","NA","48","48","48","48","48","49","z","Tue Jul 11 18:01:24 2023","The main experiment item","yes","m21-ab-lexicalDecision.osexp","C:\Users\emoore8\Desktop\m21_vsl-main","no","mono","no","18","no","white","no","yes","1080","legacy","48","48","C:/Users/emoore8/Desktop/m21_vsl-main/subject-217.csv","xpyriment","Lentiform Loewenfeld","3.3.11","0","None","NA","NA","NA","NA","space","None","1200","NA","NA","NA","NA","71073","1200","2","legacy","1024","2","48000","-16","AB_m21","217","odd","NW_L_SIMP","BEGENGE","2273","289900","287532","284209","73359","NA","NA","NA","NA","NA","288032","NA","NA","NA","287031","NA","287005","2285","290200","NA","NA","NA","288073","2273","2273","NA","289273","289297","287005","288032","288053","morph21_Oliver/Morris","32","45293","49","yes","1920","4"
"250","66","66","919.6","919.6","black","no","xpyriment","legacy","legacy","0","208","NA","uniform","NA","NA","NA","1","undefined","1","0","49","49","49","0","49","49","49","NA","0","49","NA","NA","0","49","NA","49","0","49","NA","NA","NA","49","0","0","NA","49","49","49","49","49","50","z","Tue Jul 11 18:01:24 2023","The main experiment item","yes","m21-ab-lexicalDecision.osexp","C:\Users\emoore8\Desktop\m21_vsl-main","no","mono","no","18","no","white","no","yes","1080","legacy","49","49","C:/Users/emoore8/Desktop/m21_vsl-main/subject-217.csv","xpyriment","Lentiform Loewenfeld","3.3.11","0","z","NA","NA","NA","NA","space","z","687","NA","NA","NA","NA","71073","687","2","legacy","1024","2","48000","-16","AB_m21","217","odd","FILL_NW","PIFTH","2273","293587","291729","284209","73359","NA","NA","NA","NA","NA","292230","NA","NA","NA","291228","NA","291200","2285","293837","NA","NA","NA","292271","2273","2273","NA","292958","292983","291200","292230","292251","morph21_Oliver/Morris","33","45980","50","yes","1920","36"
"200","66.66666666666667","66.66666666666667","917.8039215686274","917.8039215686274","black","no","xpyriment","legacy","legacy","0","203","NA","uniform","NA","NA","NA","1","undefined","1","0","50","50","50","0","50","50","50","NA","0","50","NA","NA","0","50","NA","50","0","50","NA","NA","NA","50","0","0","NA","50","50","50","50","50","51","z","Tue Jul 11 18:01:24 2023","The main experiment item","yes","m21-ab-lexicalDecision.osexp","C:\Users\emoore8\Desktop\m21_vsl-main","no","mono","no","18","no","white","no","yes","1080","legacy","50","50","C:/Users/emoore8/Desktop/m21_vsl-main/subject-217.csv","xpyriment","Lentiform Loewenfeld","3.3.11","0","z","NA","NA","NA","NA","space","z","828","NA","NA","NA","NA","71073","828","2","legacy","1024","2","48000","-16","AB_m21","217","odd","NW_S_COMP","DUMBITY","2273","298843","295341","297337","73359","NA","NA","NA","NA","NA","295842","NA","NA","NA","294841","NA","294812","2285","299043","NA","NA","NA","295882","2273","2273","NA","296711","296734","294812","295842","295862","morph21_Oliver/Morris","34","46808","51","yes","1920","12"
"350","65.38461538461539","65.38461538461539","923.2307692307693","923.2307692307693","black","no","xpyriment","legacy","legacy","0","207","NA","uniform","NA","NA","NA","0","undefined","0","0","51","51","51","0","51","51","51","NA","0","51","NA","NA","0","51","NA","51","0","51","NA","NA","NA","51","0","0","NA","51","51","51","51","51","52","/","Tue Jul 11 18:01:24 2023","The main experiment item","yes","m21-ab-lexicalDecision.osexp","C:\Users\emoore8\Desktop\m21_vsl-main","no","mono","no","18","no","white","no","yes","1080","legacy","51","51","C:/Users/emoore8/Desktop/m21_vsl-main/subject-217.csv","xpyriment","Lentiform Loewenfeld","3.3.11","0","None","NA","NA","NA","NA","space","None","1200","NA","NA","NA","NA","71073","1200","2","legacy","1024","2","48000","-16","AB_m21","217","odd","FILL_W","BRISK","2273","302978","300611","297337","73359","NA","NA","NA","NA","NA","301111","NA","NA","NA","300110","NA","300080","2285","303328","NA","NA","NA","301152","2273","2273","NA","302352","302375","300080","301111","301132","morph21_Oliver/Morris","34","48008","52","yes","1920","8"
"350","66.0377358490566","66.0377358490566","925.6981132075472","925.6981132075472","black","no","xpyriment","legacy","legacy","0","203","NA","uniform","NA","NA","NA","1","undefined","1","0","52","52","52","0","52","52","52","NA","0","52","NA","NA","0","52","NA","52","0","52","NA","NA","NA","52","0","0","NA","52","52","52","52","52","53","z","Tue Jul 11 18:01:24 2023","The main experiment item","yes","m21-ab-lexicalDecision.osexp","C:\Users\emoore8\Desktop\m21_vsl-main","no","mono","no","18","no","white","no","yes","1080","legacy","52","52","C:/Users/emoore8/Desktop/m21_vsl-main/subject-217.csv","xpyriment","Lentiform Loewenfeld","3.3.11","0","z","NA","NA","NA","NA","space","z","1054","NA","NA","NA","NA","71073","1054","2","legacy","1024","2","48000","-16","AB_m21","217","odd","NW_S_COMP","EJECTENCE","2273","307058","304836","297337","73359","NA","NA","NA","NA","NA","305336","NA","NA","NA","304336","NA","304309","2285","307408","NA","NA","NA","305376","2273","2273","NA","306431","306454","304309","305336","305356","morph21_Oliver/Morris","35","49062","53","yes","1920","20"
"300","66.66666666666667","66.66666666666667","920.925925925926","920.925925925926","black","no","xpyriment","legacy","legacy","0","207","NA","uniform","NA","NA","NA","1","undefined","1","0","53","53","53","0","53","53","53","NA","0","53","NA","NA","0","53","NA","53","0","53","NA","NA","NA","53","0","0","NA","53","53","53","53","53","54","/","Tue Jul 11 18:01:24 2023","The main experiment item","yes","m21-ab-lexicalDecision.osexp","C:\Users\emoore8\Desktop\m21_vsl-main","no","mono","no","18","no","white","no","yes","1080","legacy","53","53","C:/Users/emoore8/Desktop/m21_vsl-main/subject-217.csv","xpyriment","Lentiform Loewenfeld","3.3.11","0","/","NA","NA","NA","NA","space","/","668","NA","NA","NA","NA","71073","668","2","legacy","1024","2","48000","-16","AB_m21","217","odd","FILL_W","MOURN","2273","312268","308925","310764","73359","NA","NA","NA","NA","NA","309425","NA","NA","NA","308425","NA","308399","2285","312568","NA","NA","NA","309466","2273","2273","NA","310134","310160","308399","309425","309446","morph21_Oliver/Morris","36","49730","54","yes","1920","26"
"200","65.45454545454545","65.45454545454545","921.0727272727273","921.0727272727273","black","no","xpyriment","legacy","legacy","0","201","NA","uniform","NA","NA","NA","0","undefined","0","0","54","54","54","0","54","54","54","NA","0","54","NA","NA","0","54","NA","54","0","54","NA","NA","NA","54","0","0","NA","54","54","54","54","54","55","/","Tue Jul 11 18:01:24 2023","The main experiment item","yes","m21-ab-lexicalDecision.osexp","C:\Users\emoore8\Desktop\m21_vsl-main","no","mono","no","18","no","white","no","yes","1080","legacy","54","54","C:/Users/emoore8/Desktop/m21_vsl-main/subject-217.csv","xpyriment","Lentiform Loewenfeld","3.3.11","0","z","NA","NA","NA","NA","space","z","929","NA","NA","NA","NA","71073","929","2","legacy","1024","2","48000","-16","AB_m21","217","odd","CW_S","ENJOYMENT","2273","316212","314113","310764","73359","NA","NA","NA","NA","NA","314613","NA","NA","NA","313612","NA","313587","2285","316412","NA","NA","NA","314653","2273","2273","NA","315583","315608","313587","314613","314633","morph21_Oliver/Morris","36","50659","55","yes","1920","40"
"350","66.07142857142857","66.07142857142857","915.9464285714286","915.9464285714286","black","no","xpyriment","legacy","legacy","0","201","NA","uniform","NA","NA","NA","1","undefined","1","0","55","55","55","0","55","55","55","NA","0","55","NA","NA","0","55","NA","55","0","55","NA","NA","NA","55","0","0","NA","55","55","55","55","55","56","/","Tue Jul 11 18:01:24 2023","The main experiment item","yes","m21-ab-lexicalDecision.osexp","C:\Users\emoore8\Desktop\m21_vsl-main","no","mono","no","18","no","white","no","yes","1080","legacy","55","55","C:/Users/emoore8/Desktop/m21_vsl-main/subject-217.csv","xpyriment","Lentiform Loewenfeld","3.3.11","0","/","NA","NA","NA","NA","space","/","634","NA","NA","NA","NA","71073","634","2","legacy","1024","2","48000","-16","AB_m21","217","odd","CW_S","SINGER","2273","319724","317919","310764","73359","NA","NA","NA","NA","NA","318420","NA","NA","NA","317418","NA","317395","2285","320074","NA","NA","NA","318460","2273","2273","NA","319095","319120","317395","318420","318440","morph21_Oliver/Morris","37","51293","56","yes","1920","17"
"400","66.66666666666667","66.66666666666667","912.1929824561404","912.1929824561404","black","no","xpyriment","legacy","legacy","0","206","NA","uniform","NA","NA","NA","1","undefined","1","0","56","56","56","0","56","56","56","NA","0","56","NA","NA","0","56","NA","56","0","56","NA","NA","NA","56","0","0","NA","56","56","56","56","56","57","z","Tue Jul 11 18:01:24 2023","The main experiment item","yes","m21-ab-lexicalDecision.osexp","C:\Users\emoore8\Desktop\m21_vsl-main","no","mono","no","18","no","white","no","yes","1080","legacy","56","56","C:/Users/emoore8/Desktop/m21_vsl-main/subject-217.csv","xpyriment","Lentiform Loewenfeld","3.3.11","0","z","NA","NA","NA","NA","space","z","702","NA","NA","NA","NA","71073","702","2","legacy","1024","2","48000","-16","AB_m21","217","odd","NW_L_SIMP","VALIDEL","2273","324963","321585","323460","73359","NA","NA","NA","NA","NA","322087","NA","NA","NA","321082","NA","321059","2285","325363","NA","NA","NA","322128","2273","2273","NA","322831","322856","321059","322087","322107","morph21_Oliver/Morris","38","51995","57","yes","1920","23"
"250","67.24137931034483","67.24137931034483","907.2931034482758","907.2931034482758","black","no","xpyriment","legacy","legacy","0","202","NA","uniform","NA","NA","NA","1","undefined","1","0","57","57","57","0","57","57","57","NA","0","57","NA","NA","0","57","NA","57","0","57","NA","NA","NA","57","0","0","NA","57","57","57","57","57","58","/","Tue Jul 11 18:01:24 2023","The main experiment item","yes","m21-ab-lexicalDecision.osexp","C:\Users\emoore8\Desktop\m21_vsl-main","no","mono","no","18","no","white","no","yes","1080","legacy","57","57","C:/Users/emoore8/Desktop/m21_vsl-main/subject-217.csv","xpyriment","Lentiform Loewenfeld","3.3.11","0","/","NA","NA","NA","NA","space","/","628","NA","NA","NA","NA","71073","628","2","legacy","1024","2","48000","-16","AB_m21","217","odd","CW_L","FLEXIBLE","2273","328666","326869","323460","73359","NA","NA","NA","NA","NA","327370","NA","NA","NA","326368","NA","326341","2285","328916","NA","NA","NA","327410","2273","2273","NA","328039","328063","326341","327370","327390","morph21_Oliver/Morris","39","52623","58","yes","1920","22"
"350","67.79661016949153","67.79661016949153","903.8983050847457","903.8983050847457","black","no","xpyriment","legacy","legacy","0","201","NA","uniform","NA","NA","NA","1","undefined","1","0","58","58","58","0","58","58","58","NA","0","58","NA","NA","0","58","NA","58","0","58","NA","NA","NA","58","0","0","NA","58","58","58","58","58","59","/","Tue Jul 11 18:01:24 2023","The main experiment item","yes","m21-ab-lexicalDecision.osexp","C:\Users\emoore8\Desktop\m21_vsl-main","no","mono","no","18","no","white","no","yes","1080","legacy","58","58","C:/Users/emoore8/Desktop/m21_vsl-main/subject-217.csv","xpyriment","Lentiform Loewenfeld","3.3.11","0","/","NA","NA","NA","NA","space","/","707","NA","NA","NA","NA","71073","707","2","legacy","1024","2","48000","-16","AB_m21","217","odd","CW_S","NEATLY","2273","332298","330420","323460","73359","NA","NA","NA","NA","NA","330922","NA","NA","NA","329919","NA","329894","2285","332648","NA","NA","NA","330963","2273","2273","NA","331671","331694","329894","330922","330943","morph21_Oliver/Morris","40","53330","59","yes","1920","33"
"250","68.33333333333333","68.33333333333333","903.2","903.2","black","no","xpyriment","legacy","legacy","0","205","NA","uniform","NA","NA","NA","1","undefined","1","0","59","59","59","0","59","59","59","NA","0","59","NA","NA","0","59","NA","59","0","59","NA","NA","NA","59","0","0","NA","59","59","59","59","59","60","z","Tue Jul 11 18:01:24 2023","The main experiment item","yes","m21-ab-lexicalDecision.osexp","C:\Users\emoore8\Desktop\m21_vsl-main","no","mono","no","18","no","white","no","yes","1080","legacy","59","59","C:/Users/emoore8/Desktop/m21_vsl-main/subject-217.csv","xpyriment","Lentiform Loewenfeld","3.3.11","0","z","NA","NA","NA","NA","space","z","862","NA","NA","NA","NA","71073","862","2","legacy","1024","2","48000","-16","AB_m21","217","odd","NW_S_SIMP","ZOOMFIL","2273","337831","334291","336323","73359","NA","NA","NA","NA","NA","334792","NA","NA","NA","333790","NA","333762","2285","338081","NA","NA","NA","334832","2273","2273","NA","335695","335719","333762","334792","334812","morph21_Oliver/Morris","41","54192","60","yes","1920","19"
"350","68.85245901639344","68.85245901639344","905.0327868852459","905.0327868852459","black","no","xpyriment","legacy","legacy","0","208","NA","uniform","NA","NA","NA","1","undefined","1","0","60","60","60","0","60","60","60","NA","0","60","NA","NA","0","60","NA","60","0","60","NA","NA","NA","60","0","0","NA","60","60","60","60","60","61","z","Tue Jul 11 18:01:24 2023","The main experiment item","yes","m21-ab-lexicalDecision.osexp","C:\Users\emoore8\Desktop\m21_vsl-main","no","mono","no","18","no","white","no","yes","1080","legacy","60","60","C:/Users/emoore8/Desktop/m21_vsl-main/subject-217.csv","xpyriment","Lentiform Loewenfeld","3.3.11","0","z","NA","NA","NA","NA","space","z","1015","NA","NA","NA","NA","71073","1015","2","legacy","1024","2","48000","-16","AB_m21","217","odd","FILL_NW","DASP","2273","341907","339719","336323","73359","NA","NA","NA","NA","NA","340222","NA","NA","NA","339217","NA","339186","2285","342257","NA","NA","NA","340263","2273","2273","NA","341279","341304","339186","340222","340243","morph21_Oliver/Morris","42","55207","61","yes","1920","13"
"400","69.35483870967742","69.35483870967742","901.6935483870968","901.6935483870968","black","no","xpyriment","legacy","legacy","0","202","NA","uniform","NA","NA","NA","1","undefined","1","0","61","61","61","0","61","61","61","NA","0","61","NA","NA","0","61","NA","61","0","61","NA","NA","NA","61","0","0","NA","61","61","61","61","61","62","/","Tue Jul 11 18:01:24 2023","The main experiment item","yes","m21-ab-lexicalDecision.osexp","C:\Users\emoore8\Desktop\m21_vsl-main","no","mono","no","18","no","white","no","yes","1080","legacy","61","61","C:/Users/emoore8/Desktop/m21_vsl-main/subject-217.csv","xpyriment","Lentiform Loewenfeld","3.3.11","0","/","NA","NA","NA","NA","space","/","698","NA","NA","NA","NA","71073","698","2","legacy","1024","2","48000","-16","AB_m21","217","odd","CW_L","FAITHFUL","2273","345713","343847","336323","73359","NA","NA","NA","NA","NA","344347","NA","NA","NA","343346","NA","343319","2285","346113","NA","NA","NA","344388","2273","2273","NA","345087","345110","343319","344347","344368","morph21_Oliver/Morris","43","55905","62","yes","1920","20"
"300","69.84126984126983","69.84126984126983","904.4761904761905","904.4761904761905","black","no","xpyriment","legacy","legacy","0","204","NA","uniform","NA","NA","NA","1","undefined","1","0","62","62","62","0","62","62","62","NA","0","62","NA","NA","0","62","NA","62","0","62","NA","NA","NA","62","0","0","NA","62","62","62","62","62","63","z","Tue Jul 11 18:01:24 2023","The main experiment item","yes","m21-ab-lexicalDecision.osexp","C:\Users\emoore8\Desktop\m21_vsl-main","no","mono","no","18","no","white","no","yes","1080","legacy","62","62","C:/Users/emoore8/Desktop/m21_vsl-main/subject-217.csv","xpyriment","Lentiform Loewenfeld","3.3.11","0","z","NA","NA","NA","NA","space","z","1077","NA","NA","NA","NA","71073","1077","2","legacy","1024","2","48000","-16","AB_m21","217","odd","NW_L_COMP","SHEETER","2273","351495","347732","349978","73359","NA","NA","NA","NA","NA","348232","NA","NA","NA","347232","NA","347204","2285","351796","NA","NA","NA","348273","2273","2273","NA","349351","349375","347204","348232","348253","morph21_Oliver/Morris","44","56982","63","yes","1920","5"
"250","70.3125","70.3125","901.921875","901.921875","black","no","xpyriment","legacy","legacy","0","201","NA","uniform","NA","NA","NA","1","undefined","1","0","63","63","63","0","63","63","63","NA","0","63","NA","NA","0","63","NA","63","0","63","NA","NA","NA","63","0","0","NA","63","63","63","63","63","64","/","Tue Jul 11 18:01:24 2023","The main experiment item","yes","m21-ab-lexicalDecision.osexp","C:\Users\emoore8\Desktop\m21_vsl-main","no","mono","no","18","no","white","no","yes","1080","legacy","63","63","C:/Users/emoore8/Desktop/m21_vsl-main/subject-217.csv","xpyriment","Lentiform Loewenfeld","3.3.11","0","/","NA","NA","NA","NA","space","/","741","NA","NA","NA","NA","71073","741","2","legacy","1024","2","48000","-16","AB_m21","217","odd","CW_S","SEEKER","2273","355326","353412","349978","73359","NA","NA","NA","NA","NA","353912","NA","NA","NA","352912","NA","352883","2285","355576","NA","NA","NA","353953","2273","2273","NA","354695","354721","352883","353912","353933","morph21_Oliver/Morris","45","57723","64","yes","1920","16"
"250","69.23076923076923","69.23076923076923","897.6615384615385","897.6615384615385","black","no","xpyriment","legacy","legacy","0","208","NA","uniform","NA","NA","NA","0","undefined","0","0","64","64","64","0","64","64","64","NA","0","64","NA","NA","0","64","NA","64","0","64","NA","NA","NA","64","0","0","NA","64","64","64","64","64","65","z","Tue Jul 11 18:01:24 2023","The main experiment item","yes","m21-ab-lexicalDecision.osexp","C:\Users\emoore8\Desktop\m21_vsl-main","no","mono","no","18","no","white","no","yes","1080","legacy","64","64","C:/Users/emoore8/Desktop/m21_vsl-main/subject-217.csv","xpyriment","Lentiform Loewenfeld","3.3.11","0","/","NA","NA","NA","NA","space","/","625","NA","NA","NA","NA","71073","625","2","legacy","1024","2","48000","-16","AB_m21","217","odd","FILL_NW","BUWL","2273","359020","357222","349978","73359","NA","NA","NA","NA","NA","357724","NA","NA","NA","356722","NA","356697","2285","359270","NA","NA","NA","357765","2273","2273","NA","358391","358416","356697","357724","357745","morph21_Oliver/Morris","45","58348","65","yes","1920","9"
"400","69.6969696969697","69.6969696969697","895.8484848484849","895.8484848484849","black","no","xpyriment","legacy","legacy","0","208","NA","uniform","NA","NA","NA","1","undefined","1","0","65","65","65","0","65","65","65","NA","0","65","NA","NA","0","65","NA","65","0","65","NA","NA","NA","65","0","0","NA","65","65","65","65","65","66","z","Tue Jul 11 18:01:24 2023","The main experiment item","yes","m21-ab-lexicalDecision.osexp","C:\Users\emoore8\Desktop\m21_vsl-main","no","mono","no","18","no","white","no","yes","1080","legacy","65","65","C:/Users/emoore8/Desktop/m21_vsl-main/subject-217.csv","xpyriment","Lentiform Loewenfeld","3.3.11","0","z","NA","NA","NA","NA","space","z","778","NA","NA","NA","NA","71073","778","2","legacy","1024","2","48000","-16","AB_m21","217","odd","FILL_NW","SOISE","2273","364274","360823","362771","73359","NA","NA","NA","NA","NA","361324","NA","NA","NA","360321","NA","360297","2285","364674","NA","NA","NA","361364","2273","2273","NA","362142","362168","360297","361324","361344","morph21_Oliver/Morris","46","59126","66","yes","1920","43"
"300","70.14925373134328","70.14925373134328","893.6865671641791","893.6865671641791","black","no","xpyriment","legacy","legacy","0","208","NA","uniform","NA","NA","NA","1","undefined","1","0","66","66","66","0","66","66","66","NA","0","66","NA","NA","0","66","NA","66","0","66","NA","NA","NA","66","0","0","NA","66","66","66","66","66","67","z","Tue Jul 11 18:01:24 2023","The main experiment item","yes","m21-ab-lexicalDecision.osexp","C:\Users\emoore8\Desktop\m21_vsl-main","no","mono","no","18","no","white","no","yes","1080","legacy","66","66","C:/Users/emoore8/Desktop/m21_vsl-main/subject-217.csv","xpyriment","Lentiform Loewenfeld","3.3.11","0","z","NA","NA","NA","NA","space","z","751","NA","NA","NA","NA","71073","751","2","legacy","1024","2","48000","-16","AB_m21","217","odd","FILL_NW","VOOFS","2273","368221","366297","362771","73359","NA","NA","NA","NA","NA","366798","NA","NA","NA","365796","NA","365769","2285","368521","NA","NA","NA","366839","2273","2273","NA","367591","367616","365769","366798","366819","morph21_Oliver/Morris","47","59877","67","yes","1920","48"
"200","70.58823529411765","70.58823529411765","897.5882352941177","897.5882352941177","black","no","xpyriment","legacy","legacy","0","208","NA","uniform","NA","NA","NA","1","undefined","1","0","67","67","67","0","67","67","67","NA","0","67","NA","NA","0","67","NA","67","0","67","NA","NA","NA","67","0","0","NA","67","67","67","67","67","68","z","Tue Jul 11 18:01:24 2023","The main experiment item","yes","m21-ab-lexicalDecision.osexp","C:\Users\emoore8\Desktop\m21_vsl-main","no","mono","no","18","no","white","no","yes","1080","legacy","67","67","C:/Users/emoore8/Desktop/m21_vsl-main/subject-217.csv","xpyriment","Lentiform Loewenfeld","3.3.11","0","z","NA","NA","NA","NA","space","z","1159","NA","NA","NA","NA","71073","1159","2","legacy","1024","2","48000","-16","AB_m21","217","odd","FILL_NW","CINDS","2273","372460","370132","362771","73359","NA","NA","NA","NA","NA","370632","NA","NA","NA","369630","NA","369604","2285","372660","NA","NA","NA","370672","2273","2273","NA","371831","371856","369604","370632","370652","morph21_Oliver/Morris","48","61036","68","yes","1920","6"
"250","71.01449275362319","71.01449275362319","895.5072463768116","895.5072463768116","black","no","xpyriment","legacy","legacy","0","207","NA","uniform","NA","NA","NA","1","undefined","1","0","68","68","68","0","68","68","68","NA","0","68","NA","NA","0","68","NA","68","0","68","NA","NA","NA","68","0","0","NA","68","68","68","68","68","69","/","Tue Jul 11 18:01:24 2023","The main experiment item","yes","m21-ab-lexicalDecision.osexp","C:\Users\emoore8\Desktop\m21_vsl-main","no","mono","no","18","no","white","no","yes","1080","legacy","68","68","C:/Users/emoore8/Desktop/m21_vsl-main/subject-217.csv","xpyriment","Lentiform Loewenfeld","3.3.11","0","/","NA","NA","NA","NA","space","/","754","NA","NA","NA","NA","71073","754","2","legacy","1024","2","48000","-16","AB_m21","217","odd","FILL_W","COOK","2273","377725","374296","376222","73359","NA","NA","NA","NA","NA","374796","NA","NA","NA","373795","NA","373768","2285","377975","NA","NA","NA","374837","2273","2273","NA","375591","375617","373768","374796","374817","morph21_Oliver/Morris","49","61790","69","yes","1920","38"
"350","70","70","899.8571428571429","899.8571428571429","black","no","xpyriment","legacy","legacy","0","204","NA","uniform","NA","NA","NA","0","undefined","0","0","69","69","69","0","69","69","69","NA","0","69","NA","NA","0","69","NA","69","0","69","NA","NA","NA","69","0","0","NA","69","69","69","69","69","70","z","Tue Jul 11 18:01:24 2023","The main experiment item","yes","m21-ab-lexicalDecision.osexp","C:\Users\emoore8\Desktop\m21_vsl-main","no","mono","no","18","no","white","no","yes","1080","legacy","69","69","C:/Users/emoore8/Desktop/m21_vsl-main/subject-217.csv","xpyriment","Lentiform Loewenfeld","3.3.11","0","None","NA","NA","NA","NA","space","None","1200","NA","NA","NA","NA","71073","1200","2","legacy","1024","2","48000","-16","AB_m21","217","odd","NW_L_COMP","MOUTHIZE","2273","381939","379570","376222","73359","NA","NA","NA","NA","NA","380070","NA","NA","NA","379069","NA","379035","2285","382289","NA","NA","NA","380111","2273","2273","NA","381311","381335","379035","380070","380091","morph21_Oliver/Morris","49","62990","70","yes","1920","11"
"200","70.4225352112676","70.4225352112676","895.5633802816901","895.5633802816901","black","no","xpyriment","legacy","legacy","0","203","NA","uniform","NA","NA","NA","1","undefined","1","0","70","70","70","0","70","70","70","NA","0","70","NA","NA","0","70","NA","70","0","70","NA","NA","NA","70","0","0","NA","70","70","70","70","70","71","z","Tue Jul 11 18:01:24 2023","The main experiment item","yes","m21-ab-lexicalDecision.osexp","C:\Users\emoore8\Desktop\m21_vsl-main","no","mono","no","18","no","white","no","yes","1080","legacy","70","70","C:/Users/emoore8/Desktop/m21_vsl-main/subject-217.csv","xpyriment","Lentiform Loewenfeld","3.3.11","0","z","NA","NA","NA","NA","space","z","595","NA","NA","NA","NA","71073","595","2","legacy","1024","2","48000","-16","AB_m21","217","odd","NW_S_COMP","ADOPTILP","2273","385758","383989","376222","73359","NA","NA","NA","NA","NA","384491","NA","NA","NA","383487","NA","383459","2285","385959","NA","NA","NA","384531","2273","2273","NA","385127","385153","383459","384490","384511","morph21_Oliver/Morris","50","63585","71","yes","1920","19"
"300","70.83333333333333","70.83333333333333","893.5277777777778","893.5277777777778","black","no","xpyriment","legacy","legacy","0","206","NA","uniform","NA","NA","NA","1","undefined","1","0","71","71","71","0","71","71","71","NA","0","71","NA","NA","0","71","NA","71","0","71","NA","NA","NA","71","0","0","NA","71","71","71","71","71","72","z","Tue Jul 11 18:01:24 2023","The main experiment item","yes","m21-ab-lexicalDecision.osexp","C:\Users\emoore8\Desktop\m21_vsl-main","no","mono","no","18","no","white","no","yes","1080","legacy","71","71","C:/Users/emoore8/Desktop/m21_vsl-main/subject-217.csv","xpyriment","Lentiform Loewenfeld","3.3.11","0","z","NA","NA","NA","NA","space","z","749","NA","NA","NA","NA","71073","749","2","legacy","1024","2","48000","-16","AB_m21","217","odd","NW_L_SIMP","PRAYANGE","2273","391093","387668","389589","73359","NA","NA","NA","NA","NA","388169","NA","NA","NA","387167","NA","387139","2285","391393","NA","NA","NA","388209","2273","2273","NA","388959","388983","387139","388169","388189","morph21_Oliver/Morris","51","64334","72","yes","1920","1"
"250","71.23287671232876","71.23287671232876","891.4520547945206","891.4520547945206","black","no","xpyriment","legacy","legacy","0","208","NA","uniform","NA","NA","NA","1","undefined","1","0","72","72","72","0","72","72","72","NA","0","72","NA","NA","0","72","NA","72","0","72","NA","NA","NA","72","0","0","NA","72","72","72","72","72","73","z","Tue Jul 11 18:01:24 2023","The main experiment item","yes","m21-ab-lexicalDecision.osexp","C:\Users\emoore8\Desktop\m21_vsl-main","no","mono","no","18","no","white","no","yes","1080","legacy","72","72","C:/Users/emoore8/Desktop/m21_vsl-main/subject-217.csv","xpyriment","Lentiform Loewenfeld","3.3.11","0","z","NA","NA","NA","NA","space","z","742","NA","NA","NA","NA","71073","742","2","legacy","1024","2","48000","-16","AB_m21","217","odd","FILL_NW","POLT","2273","395123","393211","389589","73359","NA","NA","NA","NA","NA","393711","NA","NA","NA","392711","NA","392679","2285","395373","NA","NA","NA","393752","2273","2273","NA","394495","394520","392679","393711","393732","morph21_Oliver/Morris","52","65076","73","yes","1920","38"
"200","71.62162162162163","71.62162162162163","888.3378378378378","888.3378378378378","black","no","xpyriment","legacy","legacy","0","207","NA","uniform","NA","NA","NA","1","undefined","1","0","73","73","73","0","73","73","73","NA","0","73","NA","NA","0","73","NA","73","0","73","NA","NA","NA","73","0","0","NA","73","73","73","73","73","74","/","Tue Jul 11 18:01:24 2023","The main experiment item","yes","m21-ab-lexicalDecision.osexp","C:\Users\emoore8\Desktop\m21_vsl-main","no","mono","no","18","no","white","no","yes","1080","legacy","73","73","C:/Users/emoore8/Desktop/m21_vsl-main/subject-217.csv","xpyriment","Lentiform Loewenfeld","3.3.11","0","/","NA","NA","NA","NA","space","/","661","NA","NA","NA","NA","71073","661","2","legacy","1024","2","48000","-16","AB_m21","217","odd","FILL_W","BRASS","2273","398763","396931","389589","73359","NA","NA","NA","NA","NA","397432","NA","NA","NA","396431","NA","396405","2285","398963","NA","NA","NA","397473","2273","2273","NA","398135","398160","396405","397432","397453","morph21_Oliver/Morris","53","65737","74","yes","1920","10"
"200","70.66666666666667","70.66666666666667","892.4933333333333","892.4933333333333","black","no","xpyriment","legacy","legacy","0","203","NA","uniform","NA","NA","NA","undefined","undefined","0","0","74","74","74","0","74","74","74","NA","0","74","NA","NA","0","74","NA","74","0","74","NA","NA","NA","74","0","0","NA","74","74","74","74","74","75","z","Tue Jul 11 18:01:24 2023","The main experiment item","yes","m21-ab-lexicalDecision.osexp","C:\Users\emoore8\Desktop\m21_vsl-main","no","mono","no","18","no","white","no","yes","1080","legacy","74","74","C:/Users/emoore8/Desktop/m21_vsl-main/subject-217.csv","xpyriment","Lentiform Loewenfeld","3.3.11","0","space","space","NA","NA","NA","space","None","14569","14569","NA","NA","NA","71073","1200","2","legacy","1024","2","48000","-16","AB_m21","217","odd","NW_S_COMP","PILLIZE","2273","404361","400481","402848","73359","404565","NA","NA","NA","NA","400981","NA","NA","NA","399980","NA","399954","2285","419135","NA","NA","NA","401021","2273","2273","NA","402221","402245","399953","400981","401001","morph21_Oliver/Morris","53","66937","75","yes","1920","13"
"250","69.73684210526316","69.73684210526316","896.5394736842105","896.5394736842105","black","no","xpyriment","legacy","legacy","0","201","NA","uniform","NA","NA","NA","0","undefined","0","0","75","75","75","0","75","75","75","NA","0","75","NA","NA","0","75","NA","75","0","75","NA","NA","NA","75","0","0","NA","75","75","75","75","75","76","/","Tue Jul 11 18:01:24 2023","The main experiment item","yes","m21-ab-lexicalDecision.osexp","C:\Users\emoore8\Desktop\m21_vsl-main","no","mono","no","18","no","white","no","yes","1080","legacy","75","75","C:/Users/emoore8/Desktop/m21_vsl-main/subject-217.csv","xpyriment","Lentiform Loewenfeld","3.3.11","0","None","space","NA","NA","NA","space","None","1200","14569","NA","NA","NA","71073","1200","2","legacy","1024","2","48000","-16","AB_m21","217","odd","CW_S","COSTLY","2273","423075","420708","402848","73359","404565","NA","NA","NA","NA","421208","NA","NA","NA","420208","NA","420179","2285","423325","NA","NA","NA","421248","2273","2273","NA","422448","422472","420179","421208","421228","morph21_Oliver/Morris","53","68137","76","yes","1920","36"
"250","70.12987012987013","70.12987012987013","893.8961038961039","893.8961038961039","black","no","xpyriment","legacy","legacy","0","202","NA","uniform","NA","NA","NA","1","undefined","1","0","76","76","76","0","76","76","76","NA","0","76","NA","NA","0","76","NA","76","0","76","NA","NA","NA","76","0","0","NA","76","76","76","76","76","77","/","Tue Jul 11 18:01:24 2023","The main experiment item","yes","m21-ab-lexicalDecision.osexp","C:\Users\emoore8\Desktop\m21_vsl-main","no","mono","no","18","no","white","no","yes","1080","legacy","76","76","C:/Users/emoore8/Desktop/m21_vsl-main/subject-217.csv","xpyriment","Lentiform Loewenfeld","3.3.11","0","/","space","NA","NA","NA","space","/","693","14569","NA","NA","NA","71073","693","2","legacy","1024","2","48000","-16","AB_m21","217","odd","CW_L","PUSHER","2273","426705","424845","402848","73359","404565","NA","NA","NA","NA","425345","NA","NA","NA","424344","NA","424317","2285","426955","NA","NA","NA","425385","2273","2273","NA","426079","426102","424317","425345","425365","morph21_Oliver/Morris","54","68830","77","yes","1920","13"
"250","70.51282051282051","70.51282051282051","889.5641025641025","889.5641025641025","black","no","xpyriment","legacy","legacy","0","207","NA","uniform","NA","NA","NA","1","undefined","1","0","77","77","77","0","77","77","77","NA","0","77","NA","NA","0","77","NA","77","0","77","NA","NA","NA","77","0","0","NA","77","77","77","77","77","78","/","Tue Jul 11 18:01:24 2023","The main experiment item","yes","m21-ab-lexicalDecision.osexp","C:\Users\emoore8\Desktop\m21_vsl-main","no","mono","no","18","no","white","no","yes","1080","legacy","77","77","C:/Users/emoore8/Desktop/m21_vsl-main/subject-217.csv","xpyriment","Lentiform Loewenfeld","3.3.11","0","/","space","NA","NA","NA","space","/","556","14569","NA","NA","NA","71073","556","2","legacy","1024","2","48000","-16","AB_m21","217","odd","FILL_W","SOFT","2273","431696","428470","430193","73359","404565","NA","NA","NA","NA","428970","NA","NA","NA","427969","NA","427942","2285","431947","NA","NA","NA","429010","2273","2273","NA","429567","429590","427942","428970","428990","morph21_Oliver/Morris","55","69386","78","yes","1920","43"
"350","70.88607594936708","70.88607594936708","886.1518987341772","886.1518987341772","black","no","xpyriment","legacy","legacy","0","207","NA","uniform","NA","NA","NA","1","undefined","1","0","78","78","78","0","78","78","78","NA","0","78","NA","NA","0","78","NA","78","0","78","NA","NA","NA","78","0","0","NA","78","78","78","78","78","79","/","Tue Jul 11 18:01:24 2023","The main experiment item","yes","m21-ab-lexicalDecision.osexp","C:\Users\emoore8\Desktop\m21_vsl-main","no","mono","no","18","no","white","no","yes","1080","legacy","78","78","C:/Users/emoore8/Desktop/m21_vsl-main/subject-217.csv","xpyriment","Lentiform Loewenfeld","3.3.11","0","/","space","NA","NA","NA","space","/","620","14569","NA","NA","NA","71073","620","2","legacy","1024","2","48000","-16","AB_m21","217","odd","FILL_W","WEIRD","2273","435282","433493","430193","73359","404565","NA","NA","NA","NA","433994","NA","NA","NA","432992","NA","432966","2285","435632","NA","NA","NA","434034","2273","2273","NA","434655","434679","432966","433994","434014","morph21_Oliver/Morris","56","70006","79","yes","1920","2"
"200","71.25","71.25","881.4875","881.4875","black","no","xpyriment","legacy","legacy","0","207","NA","uniform","NA","NA","NA","1","undefined","1","0","79","79","79","0","79","79","79","NA","0","79","NA","NA","0","79","NA","79","0","79","NA","NA","NA","79","0","0","NA","79","79","79","79","79","80","/","Tue Jul 11 18:01:24 2023","The main experiment item","yes","m21-ab-lexicalDecision.osexp","C:\Users\emoore8\Desktop\m21_vsl-main","no","mono","no","18","no","white","no","yes","1080","legacy","79","79","C:/Users/emoore8/Desktop/m21_vsl-main/subject-217.csv","xpyriment","Lentiform Loewenfeld","3.3.11","0","/","space","NA","NA","NA","space","/","513","14569","NA","NA","NA","71073","513","2","legacy","1024","2","48000","-16","AB_m21","217","odd","FILL_W","WRECK","2273","438820","437137","430193","73359","404565","NA","NA","NA","NA","437637","NA","NA","NA","436637","NA","436608","2285","439020","NA","NA","NA","437677","2273","2273","NA","438190","438215","436608","437637","437657","morph21_Oliver/Morris","57","70519","80","yes","1920","13"
"350","71.60493827160494","71.60493827160494","876.5061728395061","876.5061728395061","black","no","xpyriment","legacy","legacy","0","207","NA","uniform","NA","NA","NA","1","undefined","1","0","80","80","80","0","80","80","80","NA","0","80","NA","NA","0","80","NA","80","0","80","NA","NA","NA","80","0","0","NA","80","80","80","80","80","81","/","Tue Jul 11 18:01:24 2023","The main experiment item","yes","m21-ab-lexicalDecision.osexp","C:\Users\emoore8\Desktop\m21_vsl-main","no","mono","no","18","no","white","no","yes","1080","legacy","80","80","C:/Users/emoore8/Desktop/m21_vsl-main/subject-217.csv","xpyriment","Lentiform Loewenfeld","3.3.11","0","/","space","NA","NA","NA","space","/","478","14569","NA","NA","NA","71073","478","2","legacy","1024","2","48000","-16","AB_m21","217","odd","FILL_W","LIFT","2273","443698","440548","442194","73359","404565","NA","NA","NA","NA","441048","NA","NA","NA","440047","NA","440016","2285","444048","NA","NA","NA","441089","2273","2273","NA","441568","441591","440016","441048","441069","morph21_Oliver/Morris","58","70997","81","yes","1920","39"
"400","71.95121951219512","71.95121951219512","874.3414634146342","874.3414634146342","black","no","xpyriment","legacy","legacy","0","202","NA","uniform","NA","NA","NA","1","undefined","1","0","81","81","81","0","81","81","81","NA","0","81","NA","NA","0","81","NA","81","0","81","NA","NA","NA","81","0","0","NA","81","81","81","81","81","82","/","Tue Jul 11 18:01:24 2023","The main experiment item","yes","m21-ab-lexicalDecision.osexp","C:\Users\emoore8\Desktop\m21_vsl-main","no","mono","no","18","no","white","no","yes","1080","legacy","81","81","C:/Users/emoore8/Desktop/m21_vsl-main/subject-217.csv","xpyriment","Lentiform Loewenfeld","3.3.11","0","/","space","NA","NA","NA","space","/","699","14569","NA","NA","NA","71073","699","2","legacy","1024","2","48000","-16","AB_m21","217","odd","CW_L","COOLING","2273","447442","445574","442194","73359","404565","NA","NA","NA","NA","446074","NA","NA","NA","445074","NA","445044","2285","447842","NA","NA","NA","446115","2273","2273","NA","446815","446839","445044","446074","446095","morph21_Oliver/Morris","59","71696","82","yes","1920","24"
"400","72.28915662650603","72.28915662650603","871.4578313253012","871.4578313253012","black","no","xpyriment","legacy","legacy","0","208","NA","uniform","NA","NA","NA","1","undefined","1","0","82","82","82","0","82","82","82","NA","0","82","NA","NA","0","82","NA","82","0","82","NA","NA","NA","82","0","0","NA","82","82","82","82","82","83","z","Tue Jul 11 18:01:24 2023","The main experiment item","yes","m21-ab-lexicalDecision.osexp","C:\Users\emoore8\Desktop\m21_vsl-main","no","mono","no","18","no","white","no","yes","1080","legacy","82","82","C:/Users/emoore8/Desktop/m21_vsl-main/subject-217.csv","xpyriment","Lentiform Loewenfeld","3.3.11","0","z","space","NA","NA","NA","space","z","635","14569","NA","NA","NA","71073","635","2","legacy","1024","2","48000","-16","AB_m21","217","odd","FILL_NW","GIKE","2273","451171","449365","442194","73359","404565","NA","NA","NA","NA","449866","NA","NA","NA","448864","NA","448837","2285","451571","NA","NA","NA","449907","2273","2273","NA","450543","450568","448837","449866","449887","morph21_Oliver/Morris","60","72331","83","yes","1920","24"
"300","72.61904761904762","72.61904761904762","870.0595238095239","870.0595238095239","black","no","xpyriment","legacy","legacy","0","201","NA","uniform","NA","NA","NA","1","undefined","1","0","83","83","83","0","83","83","83","NA","0","83","NA","NA","0","83","NA","83","0","83","NA","NA","NA","83","0","0","NA","83","83","83","83","83","84","/","Tue Jul 11 18:01:24 2023","The main experiment item","yes","m21-ab-lexicalDecision.osexp","C:\Users\emoore8\Desktop\m21_vsl-main","no","mono","no","18","no","white","no","yes","1080","legacy","83","83","C:/Users/emoore8/Desktop/m21_vsl-main/subject-217.csv","xpyriment","Lentiform Loewenfeld","3.3.11","0","/","space","NA","NA","NA","space","/","754","14569","NA","NA","NA","71073","754","2","legacy","1024","2","48000","-16","AB_m21","217","odd","CW_S","MAGICAL","2273","456505","453081","455002","73359","404565","NA","NA","NA","NA","453581","NA","NA","NA","452575","NA","452552","2285","456805","NA","NA","NA","453621","2273","2273","NA","454375","454399","452552","453581","453601","morph21_Oliver/Morris","61","73085","84","yes","1920","4"
"200","72.94117647058823","72.94117647058823","871.7647058823529","871.7647058823529","black","no","xpyriment","legacy","legacy","0","203","NA","uniform","NA","NA","NA","1","undefined","1","0","84","84","84","0","84","84","84","NA","0","84","NA","NA","0","84","NA","84","0","84","NA","NA","NA","84","0","0","NA","84","84","84","84","84","85","z","Tue Jul 11 18:01:24 2023","The main experiment item","yes","m21-ab-lexicalDecision.osexp","C:\Users\emoore8\Desktop\m21_vsl-main","no","mono","no","18","no","white","no","yes","1080","legacy","84","84","C:/Users/emoore8/Desktop/m21_vsl-main/subject-217.csv","xpyriment","Lentiform Loewenfeld","3.3.11","0","z","space","NA","NA","NA","space","z","1015","14569","NA","NA","NA","71073","1015","2","legacy","1024","2","48000","-16","AB_m21","217","odd","NW_S_COMP","YANKORY","2273","460529","458347","455002","73359","404565","NA","NA","NA","NA","458847","NA","NA","NA","457847","NA","457824","2285","460729","NA","NA","NA","458887","2273","2273","NA","459903","459926","457824","458847","458867","morph21_Oliver/Morris","62","74100","85","yes","1920","23"
"400","73.25581395348837","73.25581395348837","870.0813953488372","870.0813953488372","black","no","xpyriment","legacy","legacy","0","208","NA","uniform","NA","NA","NA","1","undefined","1","0","85","85","85","0","85","85","85","NA","0","85","NA","NA","0","85","NA","85","0","85","NA","NA","NA","85","0","0","NA","85","85","85","85","85","86","z","Tue Jul 11 18:01:24 2023","The main experiment item","yes","m21-ab-lexicalDecision.osexp","C:\Users\emoore8\Desktop\m21_vsl-main","no","mono","no","18","no","white","no","yes","1080","legacy","85","85","C:/Users/emoore8/Desktop/m21_vsl-main/subject-217.csv","xpyriment","Lentiform Loewenfeld","3.3.11","0","z","space","NA","NA","NA","space","z","727","14569","NA","NA","NA","71073","727","2","legacy","1024","2","48000","-16","AB_m21","217","odd","FILL_NW","BORMS","2273","464145","462250","455002","73359","404565","NA","NA","NA","NA","462751","NA","NA","NA","461749","NA","461724","2285","464545","NA","NA","NA","462791","2273","2273","NA","463519","463542","461724","462751","462771","morph21_Oliver/Morris","63","74827","86","yes","1920","50"
"200","73.5632183908046","73.5632183908046","865.3333333333334","865.3333333333334","black","no","xpyriment","legacy","legacy","0","201","NA","uniform","NA","NA","NA","1","undefined","1","0","86","86","86","0","86","86","86","NA","0","86","NA","NA","0","86","NA","86","0","86","NA","NA","NA","86","0","0","NA","86","86","86","86","86","87","/","Tue Jul 11 18:01:24 2023","The main experiment item","yes","m21-ab-lexicalDecision.osexp","C:\Users\emoore8\Desktop\m21_vsl-main","no","mono","no","18","no","white","no","yes","1080","legacy","86","86","C:/Users/emoore8/Desktop/m21_vsl-main/subject-217.csv","xpyriment","Lentiform Loewenfeld","3.3.11","0","/","space","NA","NA","NA","space","/","457","14569","NA","NA","NA","71073","457","2","legacy","1024","2","48000","-16","AB_m21","217","odd","CW_S","LISTENER","2273","469178","466046","467674","73359","404565","NA","NA","NA","NA","466549","NA","NA","NA","465546","NA","465523","2285","469378","NA","NA","NA","466589","2273","2273","NA","467047","467070","465523","466548","466569","morph21_Oliver/Morris","64","75284","87","yes","1920","18"
"400","72.72727272727273","72.72727272727273","869.1363636363636","869.1363636363636","black","no","xpyriment","legacy","legacy","0","207","NA","uniform","NA","NA","NA","0","undefined","0","0","87","87","87","0","87","87","87","NA","0","87","NA","NA","0","87","NA","87","0","87","NA","NA","NA","87","0","0","NA","87","87","87","87","87","88","/","Tue Jul 11 18:01:24 2023","The main experiment item","yes","m21-ab-lexicalDecision.osexp","C:\Users\emoore8\Desktop\m21_vsl-main","no","mono","no","18","no","white","no","yes","1080","legacy","87","87","C:/Users/emoore8/Desktop/m21_vsl-main/subject-217.csv","xpyriment","Lentiform Loewenfeld","3.3.11","0","None","space","NA","NA","NA","space","None","1200","14569","NA","NA","NA","71073","1200","2","legacy","1024","2","48000","-16","AB_m21","217","odd","FILL_W","LITHE","2273","473263","470893","467674","73359","404565","NA","NA","NA","NA","471393","NA","NA","NA","470392","NA","470367","2285","473663","NA","NA","NA","471434","2273","2273","NA","472634","472659","470367","471393","471414","morph21_Oliver/Morris","64","76484","88","yes","1920","23"
"300","73.03370786516854","73.03370786516854","869.4494382022472","869.4494382022472","black","no","xpyriment","legacy","legacy","0","205","NA","uniform","NA","NA","NA","1","undefined","1","0","88","88","88","0","88","88","88","NA","0","88","NA","NA","0","88","NA","88","0","88","NA","NA","NA","88","0","0","NA","88","88","88","88","88","89","z","Tue Jul 11 18:01:24 2023","The main experiment item","yes","m21-ab-lexicalDecision.osexp","C:\Users\emoore8\Desktop\m21_vsl-main","no","mono","no","18","no","white","no","yes","1080","legacy","88","88","C:/Users/emoore8/Desktop/m21_vsl-main/subject-217.csv","xpyriment","Lentiform Loewenfeld","3.3.11","0","z","space","NA","NA","NA","space","z","897","14569","NA","NA","NA","71073","897","2","legacy","1024","2","48000","-16","AB_m21","217","odd","NW_S_SIMP","NEXTNELS","2273","477346","475280","467674","73359","404565","NA","NA","NA","NA","475781","NA","NA","NA","474780","NA","474752","2285","477647","NA","NA","NA","475822","2273","2273","NA","476720","476743","474752","475781","475802","morph21_Oliver/Morris","65","77381","89","yes","1920","9"
"200","73.33333333333333","73.33333333333333","868.1","868.1","black","no","xpyriment","legacy","legacy","0","207","NA","uniform","NA","NA","NA","1","undefined","1","0","89","89","89","0","89","89","89","NA","0","89","NA","NA","0","89","NA","89","0","89","NA","NA","NA","89","0","0","NA","89","89","89","89","89","90","/","Tue Jul 11 18:01:24 2023","The main experiment item","yes","m21-ab-lexicalDecision.osexp","C:\Users\emoore8\Desktop\m21_vsl-main","no","mono","no","18","no","white","no","yes","1080","legacy","89","89","C:/Users/emoore8/Desktop/m21_vsl-main/subject-217.csv","xpyriment","Lentiform Loewenfeld","3.3.11","0","/","space","NA","NA","NA","space","/","748","14569","NA","NA","NA","71073","748","2","legacy","1024","2","48000","-16","AB_m21","217","odd","FILL_W","LEGAL","2273","482697","479277","481194","73359","404565","NA","NA","NA","NA","479777","NA","NA","NA","478776","NA","478750","2285","482898","NA","NA","NA","479818","2273","2273","NA","480567","480591","478750","479777","479798","morph21_Oliver/Morris","66","78129","90","yes","1920","35"
