"ITI","acc","accuracy","average_response_time","avg_rt","background","bidi","canvas_backend","clock_backend","color_backend","compensation","cond_trig","condtrigtime","coordinates","coroutines_cycles","coroutines_duration","coroutines_mean_cycle_duration","correct","correct_instructions_1","correct_new_keyboard_response_1","count_AB_m21","count_ITI","count_blank_screen","count_blink_screen","count_block1","count_break1","count_break2","count_break3_1","count_canvas","count_close_port","count_cond_trigger","count_correct_trigger","count_def_chain","count_end_screen","count_fixation_1","count_getting_started","count_inc_counter","count_instructions_1","count_logger","count_logscript","count_new_inline_script","count_new_inline_script_2","count_new_keyboard_response_1","count_open_port","count_reset_counter_prep","count_reset_counter_run","count_response_trigger_trial","count_responsescreen","count_sequence","count_target_present","count_word_trigger","counter","cresp","datetime","description","disable_garbage_collection","experiment_file","experiment_path","font_bold","font_family","font_italic","font_size","font_underline","foreground","form_clicks","fullscreen","height","keyboard_backend","live_row","live_row_block1","logfile","mouse_backend","opensesame_codename","opensesame_version","repeat_cycle","response","response_break1","response_break2","response_break3_1","response_end_screen","response_instructions_1","response_new_keyboard_response_1","response_time","response_time_break1","response_time_break2","response_time_break3_1","response_time_end_screen","response_time_instructions_1","response_time_new_keyboard_response_1","round_decimals","sampler_backend","sound_buf_size","sound_channels","sound_freq","sound_sample_size","start","subject_nr","subject_parity","targ_type","target","time_AB_m21","time_ITI","time_blank_screen","time_blink_screen","time_block1","time_break1","time_break2","time_break3_1","time_canvas","time_close_port","time_cond_trigger","time_correct_trigger","time_def_chain","time_end_screen","time_fixation_1","time_getting_started","time_inc_counter","time_instructions_1","time_logger","time_logscript","time_new_inline_script","time_new_inline_script_2","time_new_keyboard_response_1","time_open_port","time_reset_counter_prep","time_reset_counter_run","time_response_trigger_trial","time_responsescreen","time_sequence","time_target_present","time_word_trigger","title","total_correct","total_response_time","total_responses","uniform_coordinates","width","word_trig"
"300","100","100","962","962","black","no","xpyriment","legacy","legacy","0","207","NA","uniform","NA","NA","NA","1","undefined","1","0","0","0","0","0","0","0","0","NA","0","0","NA","NA","0","0","NA","0","0","0","NA","NA","NA","0","0","0","NA","0","0","0","0","0","1","/","Fri Oct 13 15:23:18 2023","The main experiment item","yes","m21-ab-lexicalDecision.osexp","C:\Users\ekealey\Desktop","no","mono","no","18","no","white","no","yes","1080","legacy","0","0","C:/Users/ekealey/Desktop/subject-221.csv","xpyriment","Lentiform Loewenfeld","3.3.11","0","/","NA","NA","NA","NA","space","/","962","NA","NA","NA","NA","66047","962","2","legacy","1024","2","48000","-16","AB_m21","221","odd","FILL_W","BLUNT","1835","71943","69813","NA","67893","NA","NA","NA","NA","NA","70313","NA","NA","NA","69312","NA","69280","1845","72243","NA","NA","NA","70354","1836","1836","NA","71316","71340","69280","70313","70334","morph21_Oliver/Morris","1","962","1","yes","1920","4"
"200","50","50","1036","1036","black","no","xpyriment","legacy","legacy","0","204","NA","uniform","NA","NA","NA","0","undefined","0","0","1","1","1","0","1","1","1","NA","0","1","NA","NA","0","1","NA","1","0","1","NA","NA","NA","1","0","0","NA","1","1","1","1","1","2","z","Fri Oct 13 15:23:18 2023","The main experiment item","yes","m21-ab-lexicalDecision.osexp","C:\Users\ekealey\Desktop","no","mono","no","18","no","white","no","yes","1080","legacy","1","1","C:/Users/ekealey/Desktop/subject-221.csv","xpyriment","Lentiform Loewenfeld","3.3.11","0","/","NA","NA","NA","NA","space","/","1110","NA","NA","NA","NA","66047","1110","2","legacy","1024","2","48000","-16","AB_m21","221","odd","NW_L_COMP","PITCHORY","1835","76073","73792","NA","67893","NA","NA","NA","NA","NA","74293","NA","NA","NA","73290","NA","73256","1845","76273","NA","NA","NA","74334","1836","1836","NA","75444","75469","73256","74293","74314","morph21_Oliver/Morris","1","2072","2","yes","1920","25"
"250","33.333333333333336","33.333333333333336","1090.6666666666667","1090.6666666666667","black","no","xpyriment","legacy","legacy","0","208","NA","uniform","NA","NA","NA","0","undefined","0","0","2","2","2","0","2","2","2","NA","0","2","NA","NA","0","2","NA","2","0","2","NA","NA","NA","2","0","0","NA","2","2","2","2","2","3","z","Fri Oct 13 15:23:18 2023","The main experiment item","yes","m21-ab-lexicalDecision.osexp","C:\Users\ekealey\Desktop","no","mono","no","18","no","white","no","yes","1080","legacy","2","2","C:/Users/ekealey/Desktop/subject-221.csv","xpyriment","Lentiform Loewenfeld","3.3.11","0","None","NA","NA","NA","NA","space","None","1200","NA","NA","NA","NA","66047","1200","2","legacy","1024","2","48000","-16","AB_m21","221","odd","FILL_NW","DOWED","1835","81686","77815","80181","67893","NA","NA","NA","NA","NA","78315","NA","NA","NA","77315","NA","77286","1845","81936","NA","NA","NA","78355","1836","1836","NA","79555","79578","77286","78315","78335","morph21_Oliver/Morris","1","3272","3","yes","1920","16"
"200","25","25","1118","1118","black","no","xpyriment","legacy","legacy","0","204","NA","uniform","NA","NA","NA","0","undefined","0","0","3","3","3","0","3","3","3","NA","0","3","NA","NA","0","3","NA","3","0","3","NA","NA","NA","3","0","0","NA","3","3","3","3","3","4","z","Fri Oct 13 15:23:18 2023","The main experiment item","yes","m21-ab-lexicalDecision.osexp","C:\Users\ekealey\Desktop","no","mono","no","18","no","white","no","yes","1080","legacy","3","3","C:/Users/ekealey/Desktop/subject-221.csv","xpyriment","Lentiform Loewenfeld","3.3.11","0","None","NA","NA","NA","NA","space","None","1200","NA","NA","NA","NA","66047","1200","2","legacy","1024","2","48000","-16","AB_m21","221","odd","NW_L_COMP","FLIPORY","1835","85916","83549","80181","67893","NA","NA","NA","NA","NA","84049","NA","NA","NA","83049","NA","83020","1845","86116","NA","NA","NA","84090","1836","1836","NA","85290","85313","83020","84049","84070","morph21_Oliver/Morris","1","4472","4","yes","1920","16"
"400","20","20","1134.4","1134.4","black","no","xpyriment","legacy","legacy","0","206","NA","uniform","NA","NA","NA","0","undefined","0","0","4","4","4","0","4","4","4","NA","0","4","NA","NA","0","4","NA","4","0","4","NA","NA","NA","4","0","0","NA","4","4","4","4","4","5","z","Fri Oct 13 15:23:18 2023","The main experiment item","yes","m21-ab-lexicalDecision.osexp","C:\Users\ekealey\Desktop","no","mono","no","18","no","white","no","yes","1080","legacy","4","4","C:/Users/ekealey/Desktop/subject-221.csv","xpyriment","Lentiform Loewenfeld","3.3.11","0","None","NA","NA","NA","NA","space","None","1200","NA","NA","NA","NA","66047","1200","2","legacy","1024","2","48000","-16","AB_m21","221","odd","NW_L_SIMP","BLOODEL","1835","90024","87654","80181","67893","NA","NA","NA","NA","NA","88155","NA","NA","NA","87153","NA","87124","1845","90424","NA","NA","NA","88196","1836","1836","NA","89396","89420","87124","88155","88176","morph21_Oliver/Morris","1","5672","5","yes","1920","24"
"400","33.333333333333336","33.333333333333336","1067.8333333333333","1067.8333333333333","black","no","xpyriment","legacy","legacy","0","208","NA","uniform","NA","NA","NA","1","undefined","1","0","5","5","5","0","5","5","5","NA","0","5","NA","NA","0","5","NA","5","0","5","NA","NA","NA","5","0","0","NA","5","5","5","5","5","6","z","Fri Oct 13 15:23:18 2023","The main experiment item","yes","m21-ab-lexicalDecision.osexp","C:\Users\ekealey\Desktop","no","mono","no","18","no","white","no","yes","1080","legacy","5","5","C:/Users/ekealey/Desktop/subject-221.csv","xpyriment","Lentiform Loewenfeld","3.3.11","0","z","NA","NA","NA","NA","space","z","735","NA","NA","NA","NA","66047","735","2","legacy","1024","2","48000","-16","AB_m21","221","odd","FILL_NW","GIKE","1835","95406","92000","93903","67893","NA","NA","NA","NA","NA","92501","NA","NA","NA","91499","NA","91473","1845","95806","NA","NA","NA","92541","1836","1836","NA","93276","93300","91473","92500","92521","morph21_Oliver/Morris","2","6407","6","yes","1920","24"
"200","42.857142857142854","42.857142857142854","1046.857142857143","1046.857142857143","black","no","xpyriment","legacy","legacy","0","205","NA","uniform","NA","NA","NA","1","undefined","1","0","6","6","6","0","6","6","6","NA","0","6","NA","NA","0","6","NA","6","0","6","NA","NA","NA","6","0","0","NA","6","6","6","6","6","7","z","Fri Oct 13 15:23:18 2023","The main experiment item","yes","m21-ab-lexicalDecision.osexp","C:\Users\ekealey\Desktop","no","mono","no","18","no","white","no","yes","1080","legacy","6","6","C:/Users/ekealey/Desktop/subject-221.csv","xpyriment","Lentiform Loewenfeld","3.3.11","0","z","NA","NA","NA","NA","space","z","921","NA","NA","NA","NA","66047","921","2","legacy","1024","2","48000","-16","AB_m21","221","odd","NW_S_SIMP","NULLITH","1835","99465","97372","93903","67893","NA","NA","NA","NA","NA","97873","NA","NA","NA","96871","NA","96839","1845","99665","NA","NA","NA","97914","1836","1836","NA","98836","98861","96839","97873","97894","morph21_Oliver/Morris","3","7328","7","yes","1920","23"
"200","37.5","37.5","1011.75","1011.75","black","no","xpyriment","legacy","legacy","0","208","NA","uniform","NA","NA","NA","0","undefined","0","0","7","7","7","0","7","7","7","NA","0","7","NA","NA","0","7","NA","7","0","7","NA","NA","NA","7","0","0","NA","7","7","7","7","7","8","z","Fri Oct 13 15:23:18 2023","The main experiment item","yes","m21-ab-lexicalDecision.osexp","C:\Users\ekealey\Desktop","no","mono","no","18","no","white","no","yes","1080","legacy","7","7","C:/Users/ekealey/Desktop/subject-221.csv","xpyriment","Lentiform Loewenfeld","3.3.11","0","/","NA","NA","NA","NA","space","/","766","NA","NA","NA","NA","66047","766","2","legacy","1024","2","48000","-16","AB_m21","221","odd","FILL_NW","FALONS","1835","103144","101208","93903","67893","NA","NA","NA","NA","NA","101708","NA","NA","NA","100708","NA","100678","1845","103344","NA","NA","NA","101749","1836","1836","NA","102516","102540","100678","101708","101729","morph21_Oliver/Morris","3","8094","8","yes","1920","19"
"350","44.44444444444444","44.44444444444444","1000.2222222222222","1000.2222222222222","black","no","xpyriment","legacy","legacy","0","201","NA","uniform","NA","NA","NA","1","undefined","1","0","8","8","8","0","8","8","8","NA","0","8","NA","NA","0","8","NA","8","0","8","NA","NA","NA","8","0","0","NA","8","8","8","8","8","9","/","Fri Oct 13 15:23:18 2023","The main experiment item","yes","m21-ab-lexicalDecision.osexp","C:\Users\ekealey\Desktop","no","mono","no","18","no","white","no","yes","1080","legacy","8","8","C:/Users/ekealey/Desktop/subject-221.csv","xpyriment","Lentiform Loewenfeld","3.3.11","0","/","NA","NA","NA","NA","space","/","908","NA","NA","NA","NA","66047","908","2","legacy","1024","2","48000","-16","AB_m21","221","odd","CW_S","NEATLY","1835","108501","104915","106993","67893","NA","NA","NA","NA","NA","105415","NA","NA","NA","104415","NA","104391","1845","108851","NA","NA","NA","105456","1836","1836","NA","106364","106389","104391","105415","105436","morph21_Oliver/Morris","4","9002","9","yes","1920","33"
"250","50","50","989.5","989.5","black","no","xpyriment","legacy","legacy","0","205","NA","uniform","NA","NA","NA","1","undefined","1","0","9","9","9","0","9","9","9","NA","0","9","NA","NA","0","9","NA","9","0","9","NA","NA","NA","9","0","0","NA","9","9","9","9","9","10","z","Fri Oct 13 15:23:18 2023","The main experiment item","yes","m21-ab-lexicalDecision.osexp","C:\Users\ekealey\Desktop","no","mono","no","18","no","white","no","yes","1080","legacy","9","9","C:/Users/ekealey/Desktop/subject-221.csv","xpyriment","Lentiform Loewenfeld","3.3.11","0","z","NA","NA","NA","NA","space","z","893","NA","NA","NA","NA","66047","893","2","legacy","1024","2","48000","-16","AB_m21","221","odd","NW_S_SIMP","ZOOMFIL","1835","112472","110410","106993","67893","NA","NA","NA","NA","NA","110910","NA","NA","NA","109909","NA","109877","1845","112722","NA","NA","NA","110951","1836","1836","NA","111844","111869","109877","110910","110931","morph21_Oliver/Morris","5","9895","10","yes","1920","19"
"300","54.54545454545455","54.54545454545455","955.7272727272727","955.7272727272727","black","no","xpyriment","legacy","legacy","0","201","NA","uniform","NA","NA","NA","1","undefined","1","0","10","10","10","0","10","10","10","NA","0","10","NA","NA","0","10","NA","10","0","10","NA","NA","NA","10","0","0","NA","10","10","10","10","10","11","/","Fri Oct 13 15:23:18 2023","The main experiment item","yes","m21-ab-lexicalDecision.osexp","C:\Users\ekealey\Desktop","no","mono","no","18","no","white","no","yes","1080","legacy","10","10","C:/Users/ekealey/Desktop/subject-221.csv","xpyriment","Lentiform Loewenfeld","3.3.11","0","/","NA","NA","NA","NA","space","/","618","NA","NA","NA","NA","66047","618","2","legacy","1024","2","48000","-16","AB_m21","221","odd","CW_S","RISKY","1835","116046","114258","106993","67893","NA","NA","NA","NA","NA","114760","NA","NA","NA","113756","NA","113727","1845","116346","NA","NA","NA","114801","1836","1836","NA","115420","115443","113727","114760","114781","morph21_Oliver/Morris","6","10513","11","yes","1920","50"
"250","50","50","976.0833333333334","976.0833333333334","black","no","xpyriment","legacy","legacy","0","203","NA","uniform","NA","NA","NA","0","undefined","0","0","11","11","11","0","11","11","11","NA","0","11","NA","NA","0","11","NA","11","0","11","NA","NA","NA","11","0","0","NA","11","11","11","11","11","12","z","Fri Oct 13 15:23:18 2023","The main experiment item","yes","m21-ab-lexicalDecision.osexp","C:\Users\ekealey\Desktop","no","mono","no","18","no","white","no","yes","1080","legacy","11","11","C:/Users/ekealey/Desktop/subject-221.csv","xpyriment","Lentiform Loewenfeld","3.3.11","0","None","NA","NA","NA","NA","space","None","1200","NA","NA","NA","NA","66047","1200","2","legacy","1024","2","48000","-16","AB_m21","221","odd","NW_S_COMP","BEERER","1835","121757","117883","120250","67893","NA","NA","NA","NA","NA","118383","NA","NA","NA","117382","NA","117354","1845","122008","NA","NA","NA","118424","1836","1836","NA","119624","119647","117354","118383","118404","morph21_Oliver/Morris","6","11713","12","yes","1920","5"
"400","53.84615384615385","53.84615384615385","949.2307692307693","949.2307692307693","black","no","xpyriment","legacy","legacy","0","202","NA","uniform","NA","NA","NA","1","undefined","1","0","12","12","12","0","12","12","12","NA","0","12","NA","NA","0","12","NA","12","0","12","NA","NA","NA","12","0","0","NA","12","12","12","12","12","13","/","Fri Oct 13 15:23:18 2023","The main experiment item","yes","m21-ab-lexicalDecision.osexp","C:\Users\ekealey\Desktop","no","mono","no","18","no","white","no","yes","1080","legacy","12","12","C:/Users/ekealey/Desktop/subject-221.csv","xpyriment","Lentiform Loewenfeld","3.3.11","0","/","NA","NA","NA","NA","space","/","627","NA","NA","NA","NA","66047","627","2","legacy","1024","2","48000","-16","AB_m21","221","odd","CW_L","STYLISH","1835","125375","123579","120250","67893","NA","NA","NA","NA","NA","124079","NA","NA","NA","123079","NA","123050","1845","125775","NA","NA","NA","124120","1836","1836","NA","124747","124772","123050","124079","124100","morph21_Oliver/Morris","7","12340","13","yes","1920","29"
"350","57.142857142857146","57.142857142857146","928.7857142857143","928.7857142857143","black","no","xpyriment","legacy","legacy","0","202","NA","uniform","NA","NA","NA","1","undefined","1","0","13","13","13","0","13","13","13","NA","0","13","NA","NA","0","13","NA","13","0","13","NA","NA","NA","13","0","0","NA","13","13","13","13","13","14","/","Fri Oct 13 15:23:18 2023","The main experiment item","yes","m21-ab-lexicalDecision.osexp","C:\Users\ekealey\Desktop","no","mono","no","18","no","white","no","yes","1080","legacy","13","13","C:/Users/ekealey/Desktop/subject-221.csv","xpyriment","Lentiform Loewenfeld","3.3.11","0","/","NA","NA","NA","NA","space","/","663","NA","NA","NA","NA","66047","663","2","legacy","1024","2","48000","-16","AB_m21","221","odd","CW_L","RENTER","1835","129151","127319","120250","67893","NA","NA","NA","NA","NA","127819","NA","NA","NA","126818","NA","126783","1845","129501","NA","NA","NA","127860","1836","1836","NA","128524","128548","126783","127819","127840","morph21_Oliver/Morris","8","13003","14","yes","1920","9"
"200","60","60","896.9333333333333","896.9333333333333","black","no","xpyriment","legacy","legacy","0","207","NA","uniform","NA","NA","NA","1","undefined","1","0","14","14","14","0","14","14","14","NA","0","14","NA","NA","0","14","NA","14","0","14","NA","NA","NA","14","0","0","NA","14","14","14","14","14","15","/","Fri Oct 13 15:23:18 2023","The main experiment item","yes","m21-ab-lexicalDecision.osexp","C:\Users\ekealey\Desktop","no","mono","no","18","no","white","no","yes","1080","legacy","14","14","C:/Users/ekealey/Desktop/subject-221.csv","xpyriment","Lentiform Loewenfeld","3.3.11","0","/","NA","NA","NA","NA","space","/","451","NA","NA","NA","NA","66047","451","2","legacy","1024","2","48000","-16","AB_m21","221","odd","FILL_W","LEGAL","1835","134174","131051","132671","67893","NA","NA","NA","NA","NA","131551","NA","NA","NA","130551","NA","130525","1845","134374","NA","NA","NA","131592","1836","1836","NA","132044","132067","130525","131551","131572","morph21_Oliver/Morris","9","13454","15","yes","1920","35"
"400","62.5","62.5","899.5625","899.5625","black","no","xpyriment","legacy","legacy","0","206","NA","uniform","NA","NA","NA","1","undefined","1","0","15","15","15","0","15","15","15","NA","0","15","NA","NA","0","15","NA","15","0","15","NA","NA","NA","15","0","0","NA","15","15","15","15","15","16","z","Fri Oct 13 15:23:18 2023","The main experiment item","yes","m21-ab-lexicalDecision.osexp","C:\Users\ekealey\Desktop","no","mono","no","18","no","white","no","yes","1080","legacy","15","15","C:/Users/ekealey/Desktop/subject-221.csv","xpyriment","Lentiform Loewenfeld","3.3.11","0","z","NA","NA","NA","NA","space","z","939","NA","NA","NA","NA","66047","939","2","legacy","1024","2","48000","-16","AB_m21","221","odd","NW_L_SIMP","VALIDEL","1835","138026","135916","132671","67893","NA","NA","NA","NA","NA","136416","NA","NA","NA","135416","NA","135386","1845","138426","NA","NA","NA","136457","1836","1836","NA","137396","137421","135386","136416","136437","morph21_Oliver/Morris","10","14393","16","yes","1920","23"
"400","64.70588235294117","64.70588235294117","906.5882352941177","906.5882352941177","black","no","xpyriment","legacy","legacy","0","208","NA","uniform","NA","NA","NA","1","undefined","1","0","16","16","16","0","16","16","16","NA","0","16","NA","NA","0","16","NA","16","0","16","NA","NA","NA","16","0","0","NA","16","16","16","16","16","17","z","Fri Oct 13 15:23:18 2023","The main experiment item","yes","m21-ab-lexicalDecision.osexp","C:\Users\ekealey\Desktop","no","mono","no","18","no","white","no","yes","1080","legacy","16","16","C:/Users/ekealey/Desktop/subject-221.csv","xpyriment","Lentiform Loewenfeld","3.3.11","0","z","NA","NA","NA","NA","space","z","1019","NA","NA","NA","NA","66047","1019","2","legacy","1024","2","48000","-16","AB_m21","221","odd","FILL_NW","BORMS","1835","142151","139965","132671","67893","NA","NA","NA","NA","NA","140465","NA","NA","NA","139465","NA","139436","1845","142551","NA","NA","NA","140505","1836","1836","NA","141524","141548","139436","140465","140485","morph21_Oliver/Morris","11","15412","17","yes","1920","50"
"400","66.66666666666667","66.66666666666667","886.6666666666666","886.6666666666666","black","no","xpyriment","legacy","legacy","0","202","NA","uniform","NA","NA","NA","1","undefined","1","0","17","17","17","0","17","17","17","NA","0","17","NA","NA","0","17","NA","17","0","17","NA","NA","NA","17","0","0","NA","17","17","17","17","17","18","/","Fri Oct 13 15:23:18 2023","The main experiment item","yes","m21-ab-lexicalDecision.osexp","C:\Users\ekealey\Desktop","no","mono","no","18","no","white","no","yes","1080","legacy","17","17","C:/Users/ekealey/Desktop/subject-221.csv","xpyriment","Lentiform Loewenfeld","3.3.11","0","/","NA","NA","NA","NA","space","/","548","NA","NA","NA","NA","66047","548","2","legacy","1024","2","48000","-16","AB_m21","221","odd","CW_L","DRYNESS","1835","147311","144090","145807","67893","NA","NA","NA","NA","NA","144591","NA","NA","NA","143588","NA","143558","1845","147711","NA","NA","NA","144631","1836","1836","NA","145179","145204","143558","144591","144611","morph21_Oliver/Morris","12","15960","18","yes","1920","42"
"400","68.42105263157895","68.42105263157895","896","896","black","no","xpyriment","legacy","legacy","0","201","NA","uniform","NA","NA","NA","1","undefined","1","0","18","18","18","0","18","18","18","NA","0","18","NA","NA","0","18","NA","18","0","18","NA","NA","NA","18","0","0","NA","18","18","18","18","18","19","/","Fri Oct 13 15:23:18 2023","The main experiment item","yes","m21-ab-lexicalDecision.osexp","C:\Users\ekealey\Desktop","no","mono","no","18","no","white","no","yes","1080","legacy","18","18","C:/Users/ekealey/Desktop/subject-221.csv","xpyriment","Lentiform Loewenfeld","3.3.11","0","/","NA","NA","NA","NA","space","/","1064","NA","NA","NA","NA","66047","1064","2","legacy","1024","2","48000","-16","AB_m21","221","odd","CW_S","DIETARY","1835","151510","149278","145807","67893","NA","NA","NA","NA","NA","149778","NA","NA","NA","148777","NA","148742","1845","151910","NA","NA","NA","149819","1836","1836","NA","150884","150907","148742","149778","149799","morph21_Oliver/Morris","13","17024","19","yes","1920","6"
"200","70","70","885","885","black","no","xpyriment","legacy","legacy","0","201","NA","uniform","NA","NA","NA","1","undefined","1","0","19","19","19","0","19","19","19","NA","0","19","NA","NA","0","19","NA","19","0","19","NA","NA","NA","19","0","0","NA","19","19","19","19","19","20","/","Fri Oct 13 15:23:18 2023","The main experiment item","yes","m21-ab-lexicalDecision.osexp","C:\Users\ekealey\Desktop","no","mono","no","18","no","white","no","yes","1080","legacy","19","19","C:/Users/ekealey/Desktop/subject-221.csv","xpyriment","Lentiform Loewenfeld","3.3.11","0","/","NA","NA","NA","NA","space","/","676","NA","NA","NA","NA","66047","676","2","legacy","1024","2","48000","-16","AB_m21","221","odd","CW_S","AMUSEMENT","1835","155304","153457","145807","67893","NA","NA","NA","NA","NA","153959","NA","NA","NA","152956","NA","152926","1845","155504","NA","NA","NA","153999","1836","1836","NA","154675","154701","152925","153959","153979","morph21_Oliver/Morris","14","17700","20","yes","1920","38"
"200","71.42857142857143","71.42857142857143","871.1428571428571","871.1428571428571","black","no","xpyriment","legacy","legacy","0","202","NA","uniform","NA","NA","NA","1","undefined","1","0","20","20","20","0","20","20","20","NA","0","20","NA","NA","0","20","NA","20","0","20","NA","NA","NA","20","0","0","NA","20","20","20","20","20","21","/","Fri Oct 13 15:23:18 2023","The main experiment item","yes","m21-ab-lexicalDecision.osexp","C:\Users\ekealey\Desktop","no","mono","no","18","no","white","no","yes","1080","legacy","20","20","C:/Users/ekealey/Desktop/subject-221.csv","xpyriment","Lentiform Loewenfeld","3.3.11","0","/","NA","NA","NA","NA","space","/","594","NA","NA","NA","NA","66047","594","2","legacy","1024","2","48000","-16","AB_m21","221","odd","CW_L","SHAMEFUL","1835","160329","157060","158825","67893","NA","NA","NA","NA","NA","157560","NA","NA","NA","156557","NA","156531","1845","160529","NA","NA","NA","157601","1836","1836","NA","158195","158220","156531","157560","157581","morph21_Oliver/Morris","15","18294","21","yes","1920","19"
"350","72.72727272727273","72.72727272727273","856.9090909090909","856.9090909090909","black","no","xpyriment","legacy","legacy","0","201","NA","uniform","NA","NA","NA","1","undefined","1","0","21","21","21","0","21","21","21","NA","0","21","NA","NA","0","21","NA","21","0","21","NA","NA","NA","21","0","0","NA","21","21","21","21","21","22","/","Fri Oct 13 15:23:18 2023","The main experiment item","yes","m21-ab-lexicalDecision.osexp","C:\Users\ekealey\Desktop","no","mono","no","18","no","white","no","yes","1080","legacy","21","21","C:/Users/ekealey/Desktop/subject-221.csv","xpyriment","Lentiform Loewenfeld","3.3.11","0","/","NA","NA","NA","NA","space","/","558","NA","NA","NA","NA","66047","558","2","legacy","1024","2","48000","-16","AB_m21","221","odd","CW_S","BEARDED","1835","163791","162064","158825","67893","NA","NA","NA","NA","NA","162565","NA","NA","NA","161562","NA","161531","1845","164141","NA","NA","NA","162606","1836","1836","NA","163164","163187","161531","162565","162586","morph21_Oliver/Morris","16","18852","22","yes","1920","8"
"350","73.91304347826087","73.91304347826087","848.2608695652174","848.2608695652174","black","no","xpyriment","legacy","legacy","0","202","NA","uniform","NA","NA","NA","1","undefined","1","0","22","22","22","0","22","22","22","NA","0","22","NA","NA","0","22","NA","22","0","22","NA","NA","NA","22","0","0","NA","22","22","22","22","22","23","/","Fri Oct 13 15:23:18 2023","The main experiment item","yes","m21-ab-lexicalDecision.osexp","C:\Users\ekealey\Desktop","no","mono","no","18","no","white","no","yes","1080","legacy","22","22","C:/Users/ekealey/Desktop/subject-221.csv","xpyriment","Lentiform Loewenfeld","3.3.11","0","/","NA","NA","NA","NA","space","/","658","NA","NA","NA","NA","66047","658","2","legacy","1024","2","48000","-16","AB_m21","221","odd","CW_L","FEEDER","1835","167518","165691","158825","67893","NA","NA","NA","NA","NA","166192","NA","NA","NA","165190","NA","165162","1845","167868","NA","NA","NA","166233","1836","1836","NA","166892","166915","165162","166192","166213","morph21_Oliver/Morris","17","19510","23","yes","1920","14"
"200","75","75","847.5833333333334","847.5833333333334","black","no","xpyriment","legacy","legacy","0","208","NA","uniform","NA","NA","NA","1","undefined","1","0","23","23","23","0","23","23","23","NA","0","23","NA","NA","0","23","NA","23","0","23","NA","NA","NA","23","0","0","NA","23","23","23","23","23","24","z","Fri Oct 13 15:23:18 2023","The main experiment item","yes","m21-ab-lexicalDecision.osexp","C:\Users\ekealey\Desktop","no","mono","no","18","no","white","no","yes","1080","legacy","23","23","C:/Users/ekealey/Desktop/subject-221.csv","xpyriment","Lentiform Loewenfeld","3.3.11","0","z","NA","NA","NA","NA","space","z","832","NA","NA","NA","NA","66047","832","2","legacy","1024","2","48000","-16","AB_m21","221","odd","FILL_NW","CINDS","1835","172904","169398","171399","67893","NA","NA","NA","NA","NA","169899","NA","NA","NA","168897","NA","168871","1845","173104","NA","NA","NA","169939","1836","1836","NA","170771","170796","168871","169899","169919","morph21_Oliver/Morris","18","20342","24","yes","1920","6"
"250","76","76","850.72","850.72","black","no","xpyriment","legacy","legacy","0","204","NA","uniform","NA","NA","NA","1","undefined","1","0","24","24","24","0","24","24","24","NA","0","24","NA","NA","0","24","NA","24","0","24","NA","NA","NA","24","0","0","NA","24","24","24","24","24","25","z","Fri Oct 13 15:23:18 2023","The main experiment item","yes","m21-ab-lexicalDecision.osexp","C:\Users\ekealey\Desktop","no","mono","no","18","no","white","no","yes","1080","legacy","24","24","C:/Users/ekealey/Desktop/subject-221.csv","xpyriment","Lentiform Loewenfeld","3.3.11","0","z","NA","NA","NA","NA","space","z","926","NA","NA","NA","NA","66047","926","2","legacy","1024","2","48000","-16","AB_m21","221","odd","NW_L_COMP","STIRANCE","1835","176761","174665","171399","67893","NA","NA","NA","NA","NA","175165","NA","NA","NA","174165","NA","174136","1845","177011","NA","NA","NA","175205","1836","1836","NA","176132","176157","174136","175165","175185","morph21_Oliver/Morris","19","21268","25","yes","1920","1"
"250","76.92307692307692","76.92307692307692","843.0769230769231","843.0769230769231","black","no","xpyriment","legacy","legacy","0","207","NA","uniform","NA","NA","NA","1","undefined","1","0","25","25","25","0","25","25","25","NA","0","25","NA","NA","0","25","NA","25","0","25","NA","NA","NA","25","0","0","NA","25","25","25","25","25","26","/","Fri Oct 13 15:23:18 2023","The main experiment item","yes","m21-ab-lexicalDecision.osexp","C:\Users\ekealey\Desktop","no","mono","no","18","no","white","no","yes","1080","legacy","25","25","C:/Users/ekealey/Desktop/subject-221.csv","xpyriment","Lentiform Loewenfeld","3.3.11","0","/","NA","NA","NA","NA","space","/","652","NA","NA","NA","NA","66047","652","2","legacy","1024","2","48000","-16","AB_m21","221","odd","FILL_W","PREACH","1835","180369","178546","171399","67893","NA","NA","NA","NA","NA","179046","NA","NA","NA","178045","NA","178013","1845","180619","NA","NA","NA","179087","1836","1836","NA","179740","179765","178013","179046","179067","morph21_Oliver/Morris","20","21920","26","yes","1920","7"
"200","77.77777777777777","77.77777777777777","836","836","black","no","xpyriment","legacy","legacy","0","208","NA","uniform","NA","NA","NA","1","undefined","1","0","26","26","26","0","26","26","26","NA","0","26","NA","NA","0","26","NA","26","0","26","NA","NA","NA","26","0","0","NA","26","26","26","26","26","27","z","Fri Oct 13 15:23:18 2023","The main experiment item","yes","m21-ab-lexicalDecision.osexp","C:\Users\ekealey\Desktop","no","mono","no","18","no","white","no","yes","1080","legacy","26","26","C:/Users/ekealey/Desktop/subject-221.csv","xpyriment","Lentiform Loewenfeld","3.3.11","0","z","NA","NA","NA","NA","space","z","652","NA","NA","NA","NA","66047","652","2","legacy","1024","2","48000","-16","AB_m21","221","odd","FILL_NW","FROT","1835","185478","182154","183975","67893","NA","NA","NA","NA","NA","182654","NA","NA","NA","181653","NA","181620","1845","185678","NA","NA","NA","182695","1836","1836","NA","183348","183372","181620","182654","182675","morph21_Oliver/Morris","21","22572","27","yes","1920","22"
"350","78.57142857142857","78.57142857142857","827.8928571428571","827.8928571428571","black","no","xpyriment","legacy","legacy","0","206","NA","uniform","NA","NA","NA","1","undefined","1","0","27","27","27","0","27","27","27","NA","0","27","NA","NA","0","27","NA","27","0","27","NA","NA","NA","27","0","0","NA","27","27","27","27","27","28","z","Fri Oct 13 15:23:18 2023","The main experiment item","yes","m21-ab-lexicalDecision.osexp","C:\Users\ekealey\Desktop","no","mono","no","18","no","white","no","yes","1080","legacy","27","27","C:/Users/ekealey/Desktop/subject-221.csv","xpyriment","Lentiform Loewenfeld","3.3.11","0","z","NA","NA","NA","NA","space","z","609","NA","NA","NA","NA","66047","609","2","legacy","1024","2","48000","-16","AB_m21","221","odd","NW_L_SIMP","NUTLA","1835","189040","187260","183975","67893","NA","NA","NA","NA","NA","187762","NA","NA","NA","186758","NA","186733","1845","189390","NA","NA","NA","187802","1836","1836","NA","188412","188436","186733","187762","187782","morph21_Oliver/Morris","22","23181","28","yes","1920","14"
"250","79.3103448275862","79.3103448275862","820.3103448275862","820.3103448275862","black","no","xpyriment","legacy","legacy","0","202","NA","uniform","NA","NA","NA","1","undefined","1","0","28","28","28","0","28","28","28","NA","0","28","NA","NA","0","28","NA","28","0","28","NA","NA","NA","28","0","0","NA","28","28","28","28","28","29","/","Fri Oct 13 15:23:18 2023","The main experiment item","yes","m21-ab-lexicalDecision.osexp","C:\Users\ekealey\Desktop","no","mono","no","18","no","white","no","yes","1080","legacy","28","28","C:/Users/ekealey/Desktop/subject-221.csv","xpyriment","Lentiform Loewenfeld","3.3.11","0","/","NA","NA","NA","NA","space","/","608","NA","NA","NA","NA","66047","608","2","legacy","1024","2","48000","-16","AB_m21","221","odd","CW_L","DEAFNESS","1835","192703","190925","183975","67893","NA","NA","NA","NA","NA","191426","NA","NA","NA","190422","NA","190396","1845","192953","NA","NA","NA","191467","1836","1836","NA","192076","192100","190396","191426","191447","morph21_Oliver/Morris","23","23789","29","yes","1920","39"
"200","80","80","810.6","810.6","black","no","xpyriment","legacy","legacy","0","202","NA","uniform","NA","NA","NA","1","undefined","1","0","29","29","29","0","29","29","29","NA","0","29","NA","NA","0","29","NA","29","0","29","NA","NA","NA","29","0","0","NA","29","29","29","29","29","30","/","Fri Oct 13 15:23:18 2023","The main experiment item","yes","m21-ab-lexicalDecision.osexp","C:\Users\ekealey\Desktop","no","mono","no","18","no","white","no","yes","1080","legacy","29","29","C:/Users/ekealey/Desktop/subject-221.csv","xpyriment","Lentiform Loewenfeld","3.3.11","0","/","NA","NA","NA","NA","space","/","529","NA","NA","NA","NA","66047","529","2","legacy","1024","2","48000","-16","AB_m21","221","odd","CW_L","BONELESS","1835","197696","194492","196191","67893","NA","NA","NA","NA","NA","194993","NA","NA","NA","193990","NA","193960","1845","197896","NA","NA","NA","195034","1836","1836","NA","195563","195587","193960","194993","195014","morph21_Oliver/Morris","24","24318","30","yes","1920","34"
"250","80.64516129032258","80.64516129032258","803.4193548387096","803.4193548387096","black","no","xpyriment","legacy","legacy","0","203","NA","uniform","NA","NA","NA","1","undefined","1","0","30","30","30","0","30","30","30","NA","0","30","NA","NA","0","30","NA","30","0","30","NA","NA","NA","30","0","0","NA","30","30","30","30","30","31","z","Fri Oct 13 15:23:18 2023","The main experiment item","yes","m21-ab-lexicalDecision.osexp","C:\Users\ekealey\Desktop","no","mono","no","18","no","white","no","yes","1080","legacy","30","30","C:/Users/ekealey/Desktop/subject-221.csv","xpyriment","Lentiform Loewenfeld","3.3.11","0","z","NA","NA","NA","NA","space","z","588","NA","NA","NA","NA","66047","588","2","legacy","1024","2","48000","-16","AB_m21","221","odd","NW_S_COMP","TREASONIZE","1835","201192","199434","196191","67893","NA","NA","NA","NA","NA","199935","NA","NA","NA","198931","NA","198903","1845","201442","NA","NA","NA","199975","1836","1836","NA","200563","200587","198903","199935","199955","morph21_Oliver/Morris","25","24906","31","yes","1920","14"
"400","81.25","81.25","793.625","793.625","black","no","xpyriment","legacy","legacy","0","202","NA","uniform","NA","NA","NA","1","undefined","1","0","31","31","31","0","31","31","31","NA","0","31","NA","NA","0","31","NA","31","0","31","NA","NA","NA","31","0","0","NA","31","31","31","31","31","32","/","Fri Oct 13 15:23:18 2023","The main experiment item","yes","m21-ab-lexicalDecision.osexp","C:\Users\ekealey\Desktop","no","mono","no","18","no","white","no","yes","1080","legacy","31","31","C:/Users/ekealey/Desktop/subject-221.csv","xpyriment","Lentiform Loewenfeld","3.3.11","0","/","NA","NA","NA","NA","space","/","490","NA","NA","NA","NA","66047","490","2","legacy","1024","2","48000","-16","AB_m21","221","odd","CW_L","SPELLER","1835","204655","202994","196191","67893","NA","NA","NA","NA","NA","203497","NA","NA","NA","202493","NA","202467","1845","205055","NA","NA","NA","203537","1836","1836","NA","204028","204051","202467","203497","203517","morph21_Oliver/Morris","26","25396","32","yes","1920","3"
"350","81.81818181818181","81.81818181818181","786.2424242424242","786.2424242424242","black","no","xpyriment","legacy","legacy","0","204","NA","uniform","NA","NA","NA","1","undefined","1","0","32","32","32","0","32","32","32","NA","0","32","NA","NA","0","32","NA","32","0","32","NA","NA","NA","32","0","0","NA","32","32","32","32","32","33","z","Fri Oct 13 15:23:18 2023","The main experiment item","yes","m21-ab-lexicalDecision.osexp","C:\Users\ekealey\Desktop","no","mono","no","18","no","white","no","yes","1080","legacy","32","32","C:/Users/ekealey/Desktop/subject-221.csv","xpyriment","Lentiform Loewenfeld","3.3.11","0","z","NA","NA","NA","NA","space","z","550","NA","NA","NA","NA","66047","550","2","legacy","1024","2","48000","-16","AB_m21","221","odd","NW_L_COMP","INKISM","1835","209791","206567","208287","67893","NA","NA","NA","NA","NA","207067","NA","NA","NA","206067","NA","206040","1845","210142","NA","NA","NA","207109","1836","1836","NA","207659","207683","206040","207067","207088","morph21_Oliver/Morris","27","25946","33","yes","1920","8"
"350","82.3529411764706","82.3529411764706","788.0588235294117","788.0588235294117","black","no","xpyriment","legacy","legacy","0","203","NA","uniform","NA","NA","NA","1","undefined","1","0","33","33","33","0","33","33","33","NA","0","33","NA","NA","0","33","NA","33","0","33","NA","NA","NA","33","0","0","NA","33","33","33","33","33","34","z","Fri Oct 13 15:23:18 2023","The main experiment item","yes","m21-ab-lexicalDecision.osexp","C:\Users\ekealey\Desktop","no","mono","no","18","no","white","no","yes","1080","legacy","33","33","C:/Users/ekealey/Desktop/subject-221.csv","xpyriment","Lentiform Loewenfeld","3.3.11","0","z","NA","NA","NA","NA","space","z","848","NA","NA","NA","NA","66047","848","2","legacy","1024","2","48000","-16","AB_m21","221","odd","NW_S_COMP","DEBTISH","1835","213696","211678","208287","67893","NA","NA","NA","NA","NA","212179","NA","NA","NA","211178","NA","211147","1845","214046","NA","NA","NA","212219","1836","1836","NA","213067","213091","211147","212179","212199","morph21_Oliver/Morris","28","26794","34","yes","1920","22"
"250","82.85714285714286","82.85714285714286","782.4285714285714","782.4285714285714","black","no","xpyriment","legacy","legacy","0","206","NA","uniform","NA","NA","NA","1","undefined","1","0","34","34","34","0","34","34","34","NA","0","34","NA","NA","0","34","NA","34","0","34","NA","NA","NA","34","0","0","NA","34","34","34","34","34","35","z","Fri Oct 13 15:23:18 2023","The main experiment item","yes","m21-ab-lexicalDecision.osexp","C:\Users\ekealey\Desktop","no","mono","no","18","no","white","no","yes","1080","legacy","34","34","C:/Users/ekealey/Desktop/subject-221.csv","xpyriment","Lentiform Loewenfeld","3.3.11","0","z","NA","NA","NA","NA","space","z","591","NA","NA","NA","NA","66047","591","2","legacy","1024","2","48000","-16","AB_m21","221","odd","NW_L_SIMP","SHOOTMANT","1835","217351","215591","208287","67893","NA","NA","NA","NA","NA","216092","NA","NA","NA","215090","NA","215057","1845","217601","NA","NA","NA","216132","1836","1836","NA","216724","216748","215057","216092","216112","morph21_Oliver/Morris","29","27385","35","yes","1920","16"
"400","83.33333333333333","83.33333333333333","779.9444444444445","779.9444444444445","black","no","xpyriment","legacy","legacy","0","208","NA","uniform","NA","NA","NA","1","undefined","1","0","35","35","35","0","35","35","35","NA","0","35","NA","NA","0","35","NA","35","0","35","NA","NA","NA","35","0","0","NA","35","35","35","35","35","36","z","Fri Oct 13 15:23:18 2023","The main experiment item","yes","m21-ab-lexicalDecision.osexp","C:\Users\ekealey\Desktop","no","mono","no","18","no","white","no","yes","1080","legacy","35","35","C:/Users/ekealey/Desktop/subject-221.csv","xpyriment","Lentiform Loewenfeld","3.3.11","0","z","NA","NA","NA","NA","space","z","693","NA","NA","NA","NA","66047","693","2","legacy","1024","2","48000","-16","AB_m21","221","odd","FILL_NW","BUTE","1835","222503","219137","221000","67893","NA","NA","NA","NA","NA","219638","NA","NA","NA","218637","NA","218610","1845","222903","NA","NA","NA","219678","1836","1836","NA","220371","220397","218610","219638","219658","morph21_Oliver/Morris","30","28078","36","yes","1920","5"
"400","81.08108108108108","81.08108108108108","774.5945945945946","774.5945945945946","black","no","xpyriment","legacy","legacy","0","208","NA","uniform","NA","NA","NA","0","undefined","0","0","36","36","36","0","36","36","36","NA","0","36","NA","NA","0","36","NA","36","0","36","NA","NA","NA","36","0","0","NA","36","36","36","36","36","37","z","Fri Oct 13 15:23:18 2023","The main experiment item","yes","m21-ab-lexicalDecision.osexp","C:\Users\ekealey\Desktop","no","mono","no","18","no","white","no","yes","1080","legacy","36","36","C:/Users/ekealey/Desktop/subject-221.csv","xpyriment","Lentiform Loewenfeld","3.3.11","0","/","NA","NA","NA","NA","space","/","582","NA","NA","NA","NA","66047","582","2","legacy","1024","2","48000","-16","AB_m21","221","odd","FILL_NW","HEND","1835","226199","224449","221000","67893","NA","NA","NA","NA","NA","224949","NA","NA","NA","223949","NA","223915","1845","226599","NA","NA","NA","224989","1836","1836","NA","225571","225596","223915","224949","224969","morph21_Oliver/Morris","30","28660","37","yes","1920","28"
"200","81.57894736842105","81.57894736842105","768.8684210526316","768.8684210526316","black","no","xpyriment","legacy","legacy","0","201","NA","uniform","NA","NA","NA","1","undefined","1","0","37","37","37","0","37","37","37","NA","0","37","NA","NA","0","37","NA","37","0","37","NA","NA","NA","37","0","0","NA","37","37","37","37","37","38","/","Fri Oct 13 15:23:18 2023","The main experiment item","yes","m21-ab-lexicalDecision.osexp","C:\Users\ekealey\Desktop","no","mono","no","18","no","white","no","yes","1080","legacy","37","37","C:/Users/ekealey/Desktop/subject-221.csv","xpyriment","Lentiform Loewenfeld","3.3.11","0","/","NA","NA","NA","NA","space","/","557","NA","NA","NA","NA","66047","557","2","legacy","1024","2","48000","-16","AB_m21","221","odd","CW_S","THRUSTER","1835","229846","228121","221000","67893","NA","NA","NA","NA","NA","228622","NA","NA","NA","227621","NA","227596","1845","230046","NA","NA","NA","228662","1836","1836","NA","229220","229243","227596","228621","228642","morph21_Oliver/Morris","31","29217","38","yes","1920","24"
"250","82.05128205128206","82.05128205128206","766.2564102564103","766.2564102564103","black","no","xpyriment","legacy","legacy","0","201","NA","uniform","NA","NA","NA","1","undefined","1","0","38","38","38","0","38","38","38","NA","0","38","NA","NA","0","38","NA","38","0","38","NA","NA","NA","38","0","0","NA","38","38","38","38","38","39","/","Fri Oct 13 15:23:18 2023","The main experiment item","yes","m21-ab-lexicalDecision.osexp","C:\Users\ekealey\Desktop","no","mono","no","18","no","white","no","yes","1080","legacy","38","38","C:/Users/ekealey/Desktop/subject-221.csv","xpyriment","Lentiform Loewenfeld","3.3.11","0","/","NA","NA","NA","NA","space","/","667","NA","NA","NA","NA","66047","667","2","legacy","1024","2","48000","-16","AB_m21","221","odd","CW_S","SEEKER","1835","234918","231579","233415","67893","NA","NA","NA","NA","NA","232079","NA","NA","NA","231079","NA","231047","1845","235168","NA","NA","NA","232120","1836","1836","NA","232787","232812","231047","232079","232100","morph21_Oliver/Morris","32","29884","39","yes","1920","16"
"400","82.5","82.5","760.575","760.575","black","no","xpyriment","legacy","legacy","0","202","NA","uniform","NA","NA","NA","1","undefined","1","0","39","39","39","0","39","39","39","NA","0","39","NA","NA","0","39","NA","39","0","39","NA","NA","NA","39","0","0","NA","39","39","39","39","39","40","/","Fri Oct 13 15:23:18 2023","The main experiment item","yes","m21-ab-lexicalDecision.osexp","C:\Users\ekealey\Desktop","no","mono","no","18","no","white","no","yes","1080","legacy","39","39","C:/Users/ekealey/Desktop/subject-221.csv","xpyriment","Lentiform Loewenfeld","3.3.11","0","/","NA","NA","NA","NA","space","/","539","NA","NA","NA","NA","66047","539","2","legacy","1024","2","48000","-16","AB_m21","221","odd","CW_L","SHAPELY","1835","238406","236697","233415","67893","NA","NA","NA","NA","NA","237199","NA","NA","NA","236196","NA","236166","1845","238806","NA","NA","NA","237240","1836","1836","NA","237780","237803","236166","237199","237220","morph21_Oliver/Morris","33","30423","40","yes","1920","35"
"350","82.92682926829268","82.92682926829268","755.5365853658536","755.5365853658536","black","no","xpyriment","legacy","legacy","0","202","NA","uniform","NA","NA","NA","1","undefined","1","0","40","40","40","0","40","40","40","NA","0","40","NA","NA","0","40","NA","40","0","40","NA","NA","NA","40","0","0","NA","40","40","40","40","40","41","/","Fri Oct 13 15:23:18 2023","The main experiment item","yes","m21-ab-lexicalDecision.osexp","C:\Users\ekealey\Desktop","no","mono","no","18","no","white","no","yes","1080","legacy","40","40","C:/Users/ekealey/Desktop/subject-221.csv","xpyriment","Lentiform Loewenfeld","3.3.11","0","/","NA","NA","NA","NA","space","/","554","NA","NA","NA","NA","66047","554","2","legacy","1024","2","48000","-16","AB_m21","221","odd","CW_L","SWIMMER","1835","242064","240341","233415","67893","NA","NA","NA","NA","NA","240841","NA","NA","NA","239840","NA","239812","1845","242414","NA","NA","NA","240881","1836","1836","NA","241436","241461","239811","240841","240861","morph21_Oliver/Morris","34","30977","41","yes","1920","5"
"250","83.33333333333333","83.33333333333333","747.3571428571429","747.3571428571429","black","no","xpyriment","legacy","legacy","0","202","NA","uniform","NA","NA","NA","1","undefined","1","0","41","41","41","0","41","41","41","NA","0","41","NA","NA","0","41","NA","41","0","41","NA","NA","NA","41","0","0","NA","41","41","41","41","41","42","/","Fri Oct 13 15:23:18 2023","The main experiment item","yes","m21-ab-lexicalDecision.osexp","C:\Users\ekealey\Desktop","no","mono","no","18","no","white","no","yes","1080","legacy","41","41","C:/Users/ekealey/Desktop/subject-221.csv","xpyriment","Lentiform Loewenfeld","3.3.11","0","/","NA","NA","NA","NA","space","/","412","NA","NA","NA","NA","66047","412","2","legacy","1024","2","48000","-16","AB_m21","221","odd","CW_L","DREAMER","1835","247046","243962","245543","67893","NA","NA","NA","NA","NA","244463","NA","NA","NA","243461","NA","243434","1845","247296","NA","NA","NA","244503","1836","1836","NA","244915","244940","243434","244463","244483","morph21_Oliver/Morris","35","31389","42","yes","1920","12"
"200","83.72093023255815","83.72093023255815","743.3023255813954","743.3023255813954","black","no","xpyriment","legacy","legacy","0","208","NA","uniform","NA","NA","NA","1","undefined","1","0","42","42","42","0","42","42","42","NA","0","42","NA","NA","0","42","NA","42","0","42","NA","NA","NA","42","0","0","NA","42","42","42","42","42","43","z","Fri Oct 13 15:23:18 2023","The main experiment item","yes","m21-ab-lexicalDecision.osexp","C:\Users\ekealey\Desktop","no","mono","no","18","no","white","no","yes","1080","legacy","42","42","C:/Users/ekealey/Desktop/subject-221.csv","xpyriment","Lentiform Loewenfeld","3.3.11","0","z","NA","NA","NA","NA","space","z","573","NA","NA","NA","NA","66047","573","2","legacy","1024","2","48000","-16","AB_m21","221","odd","FILL_NW","GILN","1835","250559","248817","245543","67893","NA","NA","NA","NA","NA","249317","NA","NA","NA","248317","NA","248288","1845","250759","NA","NA","NA","249358","1836","1836","NA","249932","249955","248288","249317","249338","morph21_Oliver/Morris","36","31962","43","yes","1920","25"
"350","81.81818181818181","81.81818181818181","736.9545454545455","736.9545454545455","black","no","xpyriment","legacy","legacy","0","204","NA","uniform","NA","NA","NA","0","undefined","0","0","43","43","43","0","43","43","43","NA","0","43","NA","NA","0","43","NA","43","0","43","NA","NA","NA","43","0","0","NA","43","43","43","43","43","44","z","Fri Oct 13 15:23:18 2023","The main experiment item","yes","m21-ab-lexicalDecision.osexp","C:\Users\ekealey\Desktop","no","mono","no","18","no","white","no","yes","1080","legacy","43","43","C:/Users/ekealey/Desktop/subject-221.csv","xpyriment","Lentiform Loewenfeld","3.3.11","0","/","NA","NA","NA","NA","space","/","464","NA","NA","NA","NA","66047","464","2","legacy","1024","2","48000","-16","AB_m21","221","odd","NW_L_COMP","AGREELY","1835","253935","252301","245543","67893","NA","NA","NA","NA","NA","252802","NA","NA","NA","251799","NA","251773","1845","254285","NA","NA","NA","252843","1836","1836","NA","253307","253332","251773","252802","252822","morph21_Oliver/Morris","36","32426","44","yes","1920","24"
"350","82.22222222222223","82.22222222222223","731.4222222222222","731.4222222222222","black","no","xpyriment","legacy","legacy","0","207","NA","uniform","NA","NA","NA","1","undefined","1","0","44","44","44","0","44","44","44","NA","0","44","NA","NA","0","44","NA","44","0","44","NA","NA","NA","44","0","0","NA","44","44","44","44","44","45","/","Fri Oct 13 15:23:18 2023","The main experiment item","yes","m21-ab-lexicalDecision.osexp","C:\Users\ekealey\Desktop","no","mono","no","18","no","white","no","yes","1080","legacy","44","44","C:/Users/ekealey/Desktop/subject-221.csv","xpyriment","Lentiform Loewenfeld","3.3.11","0","/","NA","NA","NA","NA","space","/","488","NA","NA","NA","NA","66047","488","2","legacy","1024","2","48000","-16","AB_m21","221","odd","FILL_W","LIFT","1835","258999","255838","257496","67893","NA","NA","NA","NA","NA","256339","NA","NA","NA","255338","NA","255311","1845","259349","NA","NA","NA","256379","1836","1836","NA","256867","256892","255311","256339","256359","morph21_Oliver/Morris","37","32914","45","yes","1920","39"
"250","82.6086956521739","82.6086956521739","729.8695652173913","729.8695652173913","black","no","xpyriment","legacy","legacy","0","201","NA","uniform","NA","NA","NA","1","undefined","1","0","45","45","45","0","45","45","45","NA","0","45","NA","NA","0","45","NA","45","0","45","NA","NA","NA","45","0","0","NA","45","45","45","45","45","46","/","Fri Oct 13 15:23:18 2023","The main experiment item","yes","m21-ab-lexicalDecision.osexp","C:\Users\ekealey\Desktop","no","mono","no","18","no","white","no","yes","1080","legacy","45","45","C:/Users/ekealey/Desktop/subject-221.csv","xpyriment","Lentiform Loewenfeld","3.3.11","0","/","NA","NA","NA","NA","space","/","660","NA","NA","NA","NA","66047","660","2","legacy","1024","2","48000","-16","AB_m21","221","odd","CW_S","PEAKING","1835","262721","260888","257496","67893","NA","NA","NA","NA","NA","261390","NA","NA","NA","260387","NA","260358","1845","262971","NA","NA","NA","261431","1836","1836","NA","262091","262116","260358","261390","261411","morph21_Oliver/Morris","38","33574","46","yes","1920","28"
"400","82.97872340425532","82.97872340425532","724.4255319148937","724.4255319148937","black","no","xpyriment","legacy","legacy","0","207","NA","uniform","NA","NA","NA","1","undefined","1","0","46","46","46","0","46","46","46","NA","0","46","NA","NA","0","46","NA","46","0","46","NA","NA","NA","46","0","0","NA","46","46","46","46","46","47","/","Fri Oct 13 15:23:18 2023","The main experiment item","yes","m21-ab-lexicalDecision.osexp","C:\Users\ekealey\Desktop","no","mono","no","18","no","white","no","yes","1080","legacy","46","46","C:/Users/ekealey/Desktop/subject-221.csv","xpyriment","Lentiform Loewenfeld","3.3.11","0","/","NA","NA","NA","NA","space","/","474","NA","NA","NA","NA","66047","474","2","legacy","1024","2","48000","-16","AB_m21","221","odd","FILL_W","FLIRT","1835","266162","264517","257496","67893","NA","NA","NA","NA","NA","265017","NA","NA","NA","264017","NA","263990","1845","266562","NA","NA","NA","265057","1836","1836","NA","265532","265556","263990","265017","265037","morph21_Oliver/Morris","39","34048","47","yes","1920","1"
"200","83.33333333333333","83.33333333333333","721.3125","721.3125","black","no","xpyriment","legacy","legacy","0","205","NA","uniform","NA","NA","NA","1","undefined","1","0","47","47","47","0","47","47","47","NA","0","47","NA","NA","0","47","NA","47","0","47","NA","NA","NA","47","0","0","NA","47","47","47","47","47","48","z","Fri Oct 13 15:23:18 2023","The main experiment item","yes","m21-ab-lexicalDecision.osexp","C:\Users\ekealey\Desktop","no","mono","no","18","no","white","no","yes","1080","legacy","47","47","C:/Users/ekealey/Desktop/subject-221.csv","xpyriment","Lentiform Loewenfeld","3.3.11","0","z","NA","NA","NA","NA","space","z","575","NA","NA","NA","NA","66047","575","2","legacy","1024","2","48000","-16","AB_m21","221","odd","NW_S_SIMP","JAWLA","1835","271367","268119","269864","67893","NA","NA","NA","NA","NA","268619","NA","NA","NA","267619","NA","267590","1845","271567","NA","NA","NA","268660","1836","1836","NA","269236","269261","267590","268619","268640","morph21_Oliver/Morris","40","34623","48","yes","1920","7"
"350","83.6734693877551","83.6734693877551","717.2244897959183","717.2244897959183","black","no","xpyriment","legacy","legacy","0","207","NA","uniform","NA","NA","NA","1","undefined","1","0","48","48","48","0","48","48","48","NA","0","48","NA","NA","0","48","NA","48","0","48","NA","NA","NA","48","0","0","NA","48","48","48","48","48","49","/","Fri Oct 13 15:23:18 2023","The main experiment item","yes","m21-ab-lexicalDecision.osexp","C:\Users\ekealey\Desktop","no","mono","no","18","no","white","no","yes","1080","legacy","48","48","C:/Users/ekealey/Desktop/subject-221.csv","xpyriment","Lentiform Loewenfeld","3.3.11","0","/","NA","NA","NA","NA","space","/","521","NA","NA","NA","NA","66047","521","2","legacy","1024","2","48000","-16","AB_m21","221","odd","FILL_W","BRISK","1835","274806","273117","269864","67893","NA","NA","NA","NA","NA","273617","NA","NA","NA","272617","NA","272589","1845","275156","NA","NA","NA","273658","1836","1836","NA","274179","274203","272589","273617","273638","morph21_Oliver/Morris","41","35144","49","yes","1920","8"
"400","84","84","711.78","711.78","black","no","xpyriment","legacy","legacy","0","202","NA","uniform","NA","NA","NA","1","undefined","1","0","49","49","49","0","49","49","49","NA","0","49","NA","NA","0","49","NA","49","0","49","NA","NA","NA","49","0","0","NA","49","49","49","49","49","50","/","Fri Oct 13 15:23:18 2023","The main experiment item","yes","m21-ab-lexicalDecision.osexp","C:\Users\ekealey\Desktop","no","mono","no","18","no","white","no","yes","1080","legacy","49","49","C:/Users/ekealey/Desktop/subject-221.csv","xpyriment","Lentiform Loewenfeld","3.3.11","0","/","NA","NA","NA","NA","space","/","445","NA","NA","NA","NA","66047","445","2","legacy","1024","2","48000","-16","AB_m21","221","odd","CW_L","LOCKER","1835","278319","276706","269864","67893","NA","NA","NA","NA","NA","277206","NA","NA","NA","276205","NA","276178","1845","278719","NA","NA","NA","277246","1836","1836","NA","277691","277715","276178","277206","277226","morph21_Oliver/Morris","42","35589","50","yes","1920","8"
"400","84.31372549019608","84.31372549019608","708.5098039215686","708.5098039215686","black","no","xpyriment","legacy","legacy","0","202","NA","uniform","NA","NA","NA","1","undefined","1","0","50","50","50","0","50","50","50","NA","0","50","NA","NA","0","50","NA","50","0","50","NA","NA","NA","50","0","0","NA","50","50","50","50","50","51","/","Fri Oct 13 15:23:18 2023","The main experiment item","yes","m21-ab-lexicalDecision.osexp","C:\Users\ekealey\Desktop","no","mono","no","18","no","white","no","yes","1080","legacy","50","50","C:/Users/ekealey/Desktop/subject-221.csv","xpyriment","Lentiform Loewenfeld","3.3.11","0","/","NA","NA","NA","NA","space","/","545","NA","NA","NA","NA","66047","545","2","legacy","1024","2","48000","-16","AB_m21","221","odd","CW_L","WRONGLY","1835","283478","280260","281975","67893","NA","NA","NA","NA","NA","280761","NA","NA","NA","279758","NA","279727","1845","283878","NA","NA","NA","280802","1836","1836","NA","281347","281372","279727","280761","280782","morph21_Oliver/Morris","43","36134","51","yes","1920","37"
"400","84.61538461538461","84.61538461538461","703.3076923076923","703.3076923076923","black","no","xpyriment","legacy","legacy","0","207","NA","uniform","NA","NA","NA","1","undefined","1","0","51","51","51","0","51","51","51","NA","0","51","NA","NA","0","51","NA","51","0","51","NA","NA","NA","51","0","0","NA","51","51","51","51","51","52","/","Fri Oct 13 15:23:18 2023","The main experiment item","yes","m21-ab-lexicalDecision.osexp","C:\Users\ekealey\Desktop","no","mono","no","18","no","white","no","yes","1080","legacy","51","51","C:/Users/ekealey/Desktop/subject-221.csv","xpyriment","Lentiform Loewenfeld","3.3.11","0","/","NA","NA","NA","NA","space","/","438","NA","NA","NA","NA","66047","438","2","legacy","1024","2","48000","-16","AB_m21","221","odd","FILL_W","CHIP","1835","287033","285423","281975","67893","NA","NA","NA","NA","NA","285924","NA","NA","NA","284922","NA","284891","1845","287433","NA","NA","NA","285965","1836","1836","NA","286404","286428","284891","285924","285945","morph21_Oliver/Morris","44","36572","52","yes","1920","11"
"300","84.90566037735849","84.90566037735849","698.9056603773585","698.9056603773585","black","no","xpyriment","legacy","legacy","0","207","NA","uniform","NA","NA","NA","1","undefined","1","0","52","52","52","0","52","52","52","NA","0","52","NA","NA","0","52","NA","52","0","52","NA","NA","NA","52","0","0","NA","52","52","52","52","52","53","/","Fri Oct 13 15:23:18 2023","The main experiment item","yes","m21-ab-lexicalDecision.osexp","C:\Users\ekealey\Desktop","no","mono","no","18","no","white","no","yes","1080","legacy","52","52","C:/Users/ekealey/Desktop/subject-221.csv","xpyriment","Lentiform Loewenfeld","3.3.11","0","/","NA","NA","NA","NA","space","/","470","NA","NA","NA","NA","66047","470","2","legacy","1024","2","48000","-16","AB_m21","221","odd","FILL_W","BOX","1835","290607","288967","281975","67893","NA","NA","NA","NA","NA","289467","NA","NA","NA","288466","NA","288437","1845","290907","NA","NA","NA","289508","1836","1836","NA","289979","290003","288437","289467","289488","morph21_Oliver/Morris","45","37042","53","yes","1920","42"
"250","85.18518518518519","85.18518518518519","693.425925925926","693.425925925926","black","no","xpyriment","legacy","legacy","0","207","NA","uniform","NA","NA","NA","1","undefined","1","0","53","53","53","0","53","53","53","NA","0","53","NA","NA","0","53","NA","53","0","53","NA","NA","NA","53","0","0","NA","53","53","53","53","53","54","/","Fri Oct 13 15:23:18 2023","The main experiment item","yes","m21-ab-lexicalDecision.osexp","C:\Users\ekealey\Desktop","no","mono","no","18","no","white","no","yes","1080","legacy","53","53","C:/Users/ekealey/Desktop/subject-221.csv","xpyriment","Lentiform Loewenfeld","3.3.11","0","/","NA","NA","NA","NA","space","/","403","NA","NA","NA","NA","66047","403","2","legacy","1024","2","48000","-16","AB_m21","221","odd","FILL_W","SPLICE","1835","295503","292426","293999","67893","NA","NA","NA","NA","NA","292927","NA","NA","NA","291923","NA","291899","1845","295753","NA","NA","NA","292968","1836","1836","NA","293371","293396","291899","292927","292948","morph21_Oliver/Morris","46","37445","54","yes","1920","22"
"200","85.45454545454545","85.45454545454545","691.0545454545454","691.0545454545454","black","no","xpyriment","legacy","legacy","0","207","NA","uniform","NA","NA","NA","1","undefined","1","0","54","54","54","0","54","54","54","NA","0","54","NA","NA","0","54","NA","54","0","54","NA","NA","NA","54","0","0","NA","54","54","54","54","54","55","/","Fri Oct 13 15:23:18 2023","The main experiment item","yes","m21-ab-lexicalDecision.osexp","C:\Users\ekealey\Desktop","no","mono","no","18","no","white","no","yes","1080","legacy","54","54","C:/Users/ekealey/Desktop/subject-221.csv","xpyriment","Lentiform Loewenfeld","3.3.11","0","/","NA","NA","NA","NA","space","/","563","NA","NA","NA","NA","66047","563","2","legacy","1024","2","48000","-16","AB_m21","221","odd","FILL_W","BLEAK","1835","299023","297290","293999","67893","NA","NA","NA","NA","NA","297792","NA","NA","NA","296788","NA","296760","1845","299223","NA","NA","NA","297832","1836","1836","NA","298395","298420","296760","297791","297812","morph21_Oliver/Morris","47","38008","55","yes","1920","5"
"350","83.92857142857143","83.92857142857143","688.4464285714286","688.4464285714286","black","no","xpyriment","legacy","legacy","0","203","NA","uniform","NA","NA","NA","0","undefined","0","0","55","55","55","0","55","55","55","NA","0","55","NA","NA","0","55","NA","55","0","55","NA","NA","NA","55","0","0","NA","55","55","55","55","55","56","z","Fri Oct 13 15:23:18 2023","The main experiment item","yes","m21-ab-lexicalDecision.osexp","C:\Users\ekealey\Desktop","no","mono","no","18","no","white","no","yes","1080","legacy","55","55","C:/Users/ekealey/Desktop/subject-221.csv","xpyriment","Lentiform Loewenfeld","3.3.11","0","/","NA","NA","NA","NA","space","/","545","NA","NA","NA","NA","66047","545","2","legacy","1024","2","48000","-16","AB_m21","221","odd","NW_S_COMP","PRINCEMENT","1835","302470","300757","293999","67893","NA","NA","NA","NA","NA","301258","NA","NA","NA","300257","NA","300231","1845","302820","NA","NA","NA","301298","1836","1836","NA","301844","301867","300231","301257","301278","morph21_Oliver/Morris","47","38553","56","yes","1920","17"
"200","82.45614035087719","82.45614035087719","697.421052631579","697.421052631579","black","no","xpyriment","legacy","legacy","0","204","NA","uniform","NA","NA","NA","0","undefined","0","0","56","56","56","0","56","56","56","NA","0","56","NA","NA","0","56","NA","56","0","56","NA","NA","NA","56","0","0","NA","56","56","56","56","56","57","z","Fri Oct 13 15:23:18 2023","The main experiment item","yes","m21-ab-lexicalDecision.osexp","C:\Users\ekealey\Desktop","no","mono","no","18","no","white","no","yes","1080","legacy","56","56","C:/Users/ekealey/Desktop/subject-221.csv","xpyriment","Lentiform Loewenfeld","3.3.11","0","None","NA","NA","NA","NA","space","None","1200","NA","NA","NA","NA","66047","1200","2","legacy","1024","2","48000","-16","AB_m21","221","odd","NW_L_COMP","GASFUL","1835","308239","304366","306735","67893","NA","NA","NA","NA","NA","304867","NA","NA","NA","303865","NA","303839","1845","308439","NA","NA","NA","304907","1836","1836","NA","306107","306132","303839","304867","304887","morph21_Oliver/Morris","47","39753","57","yes","1920","6"
"250","81.03448275862068","81.03448275862068","696.551724137931","696.551724137931","black","no","xpyriment","legacy","legacy","0","203","NA","uniform","NA","NA","NA","0","undefined","0","0","57","57","57","0","57","57","57","NA","0","57","NA","NA","0","57","NA","57","0","57","NA","NA","NA","57","0","0","NA","57","57","57","57","57","58","z","Fri Oct 13 15:23:18 2023","The main experiment item","yes","m21-ab-lexicalDecision.osexp","C:\Users\ekealey\Desktop","no","mono","no","18","no","white","no","yes","1080","legacy","57","57","C:/Users/ekealey/Desktop/subject-221.csv","xpyriment","Lentiform Loewenfeld","3.3.11","0","/","NA","NA","NA","NA","space","/","647","NA","NA","NA","NA","66047","647","2","legacy","1024","2","48000","-16","AB_m21","221","odd","NW_S_COMP","BRANCHER","1835","311838","310022","306735","67893","NA","NA","NA","NA","NA","310524","NA","NA","NA","309521","NA","309496","1845","312088","NA","NA","NA","310564","1836","1836","NA","311211","311235","309496","310523","310544","morph21_Oliver/Morris","47","40400","58","yes","1920","16"
"300","81.35593220338983","81.35593220338983","692.9322033898305","692.9322033898305","black","no","xpyriment","legacy","legacy","0","207","NA","uniform","NA","NA","NA","1","undefined","1","0","58","58","58","0","58","58","58","NA","0","58","NA","NA","0","58","NA","58","0","58","NA","NA","NA","58","0","0","NA","58","58","58","58","58","59","/","Fri Oct 13 15:23:18 2023","The main experiment item","yes","m21-ab-lexicalDecision.osexp","C:\Users\ekealey\Desktop","no","mono","no","18","no","white","no","yes","1080","legacy","58","58","C:/Users/ekealey/Desktop/subject-221.csv","xpyriment","Lentiform Loewenfeld","3.3.11","0","/","NA","NA","NA","NA","space","/","483","NA","NA","NA","NA","66047","483","2","legacy","1024","2","48000","-16","AB_m21","221","odd","FILL_W","IRON","1835","315279","313627","306735","67893","NA","NA","NA","NA","NA","314127","NA","NA","NA","313127","NA","313101","1845","315579","NA","NA","NA","314168","1836","1836","NA","314652","314675","313101","314127","314148","morph21_Oliver/Morris","48","40883","59","yes","1920","33"
"250","81.66666666666667","81.66666666666667","693.3","693.3","black","no","xpyriment","legacy","legacy","0","204","NA","uniform","NA","NA","NA","1","undefined","1","0","59","59","59","0","59","59","59","NA","0","59","NA","NA","0","59","NA","59","0","59","NA","NA","NA","59","0","0","NA","59","59","59","59","59","60","z","Fri Oct 13 15:23:18 2023","The main experiment item","yes","m21-ab-lexicalDecision.osexp","C:\Users\ekealey\Desktop","no","mono","no","18","no","white","no","yes","1080","legacy","59","59","C:/Users/ekealey/Desktop/subject-221.csv","xpyriment","Lentiform Loewenfeld","3.3.11","0","z","NA","NA","NA","NA","space","z","715","NA","NA","NA","NA","66047","715","2","legacy","1024","2","48000","-16","AB_m21","221","odd","NW_L_COMP","TRIPARY","1835","320517","317130","319014","67893","NA","NA","NA","NA","NA","317632","NA","NA","NA","316628","NA","316604","1845","320767","NA","NA","NA","317672","1836","1836","NA","318387","318411","316603","317631","317652","morph21_Oliver/Morris","49","41598","60","yes","1920","2"
"250","81.9672131147541","81.9672131147541","689.8688524590164","689.8688524590164","black","no","xpyriment","legacy","legacy","0","207","NA","uniform","NA","NA","NA","1","undefined","1","0","60","60","60","0","60","60","60","NA","0","60","NA","NA","0","60","NA","60","0","60","NA","NA","NA","60","0","0","NA","60","60","60","60","60","61","/","Fri Oct 13 15:23:18 2023","The main experiment item","yes","m21-ab-lexicalDecision.osexp","C:\Users\ekealey\Desktop","no","mono","no","18","no","white","no","yes","1080","legacy","60","60","C:/Users/ekealey/Desktop/subject-221.csv","xpyriment","Lentiform Loewenfeld","3.3.11","0","/","NA","NA","NA","NA","space","/","484","NA","NA","NA","NA","66047","484","2","legacy","1024","2","48000","-16","AB_m21","221","odd","FILL_W","STARVE","1835","323983","322329","319014","67893","NA","NA","NA","NA","NA","322831","NA","NA","NA","321827","NA","321794","1845","324233","NA","NA","NA","322871","1836","1836","NA","323356","323379","321794","322831","322851","morph21_Oliver/Morris","50","42082","61","yes","1920","15"
"300","82.25806451612904","82.25806451612904","689.3870967741935","689.3870967741935","black","no","xpyriment","legacy","legacy","0","207","NA","uniform","NA","NA","NA","1","undefined","1","0","61","61","61","0","61","61","61","NA","0","61","NA","NA","0","61","NA","61","0","61","NA","NA","NA","61","0","0","NA","61","61","61","61","61","62","/","Fri Oct 13 15:23:18 2023","The main experiment item","yes","m21-ab-lexicalDecision.osexp","C:\Users\ekealey\Desktop","no","mono","no","18","no","white","no","yes","1080","legacy","61","61","C:/Users/ekealey/Desktop/subject-221.csv","xpyriment","Lentiform Loewenfeld","3.3.11","0","/","NA","NA","NA","NA","space","/","660","NA","NA","NA","NA","66047","660","2","legacy","1024","2","48000","-16","AB_m21","221","odd","FILL_W","MOURN","1835","327600","325770","319014","67893","NA","NA","NA","NA","NA","326270","NA","NA","NA","325269","NA","325241","1845","327900","NA","NA","NA","326311","1836","1836","NA","326971","326996","325241","326270","326291","morph21_Oliver/Morris","51","42742","62","yes","1920","26"
"250","80.95238095238095","80.95238095238095","685.4285714285714","685.4285714285714","black","no","xpyriment","legacy","legacy","0","208","NA","uniform","NA","NA","NA","0","undefined","0","0","62","62","62","0","62","62","62","NA","0","62","NA","NA","0","62","NA","62","0","62","NA","NA","NA","62","0","0","NA","62","62","62","62","62","63","z","Fri Oct 13 15:23:18 2023","The main experiment item","yes","m21-ab-lexicalDecision.osexp","C:\Users\ekealey\Desktop","no","mono","no","18","no","white","no","yes","1080","legacy","62","62","C:/Users/ekealey/Desktop/subject-221.csv","xpyriment","Lentiform Loewenfeld","3.3.11","0","/","NA","NA","NA","NA","space","/","440","NA","NA","NA","NA","66047","440","2","legacy","1024","2","48000","-16","AB_m21","221","odd","FILL_NW","POLT","1835","332560","329447","331056","67893","NA","NA","NA","NA","NA","329947","NA","NA","NA","328947","NA","328917","1845","332810","NA","NA","NA","329987","1836","1836","NA","330427","330451","328917","329947","329967","morph21_Oliver/Morris","51","43182","63","yes","1920","38"
"350","81.25","81.25","682.171875","682.171875","black","no","xpyriment","legacy","legacy","0","207","NA","uniform","NA","NA","NA","1","undefined","1","0","63","63","63","0","63","63","63","NA","0","63","NA","NA","0","63","NA","63","0","63","NA","NA","NA","63","0","0","NA","63","63","63","63","63","64","/","Fri Oct 13 15:23:18 2023","The main experiment item","yes","m21-ab-lexicalDecision.osexp","C:\Users\ekealey\Desktop","no","mono","no","18","no","white","no","yes","1080","legacy","63","63","C:/Users/ekealey/Desktop/subject-221.csv","xpyriment","Lentiform Loewenfeld","3.3.11","0","/","NA","NA","NA","NA","space","/","477","NA","NA","NA","NA","66047","477","2","legacy","1024","2","48000","-16","AB_m21","221","odd","FILL_W","FAINT","1835","336001","334353","331056","67893","NA","NA","NA","NA","NA","334853","NA","NA","NA","333853","NA","333829","1845","336351","NA","NA","NA","334894","1836","1836","NA","335371","335397","333829","334853","334874","morph21_Oliver/Morris","52","43659","64","yes","1920","31"
"300","81.53846153846153","81.53846153846153","683.6","683.6","black","no","xpyriment","legacy","legacy","0","206","NA","uniform","NA","NA","NA","1","undefined","1","0","64","64","64","0","64","64","64","NA","0","64","NA","NA","0","64","NA","64","0","64","NA","NA","NA","64","0","0","NA","64","64","64","64","64","65","z","Fri Oct 13 15:23:18 2023","The main experiment item","yes","m21-ab-lexicalDecision.osexp","C:\Users\ekealey\Desktop","no","mono","no","18","no","white","no","yes","1080","legacy","64","64","C:/Users/ekealey/Desktop/subject-221.csv","xpyriment","Lentiform Loewenfeld","3.3.11","0","z","NA","NA","NA","NA","space","z","775","NA","NA","NA","NA","66047","775","2","legacy","1024","2","48000","-16","AB_m21","221","odd","NW_L_SIMP","TAXFIL","1835","339838","337892","331056","67893","NA","NA","NA","NA","NA","338394","NA","NA","NA","337391","NA","337367","1845","340139","NA","NA","NA","338435","1836","1836","NA","339211","339235","337366","338394","338415","morph21_Oliver/Morris","53","44434","65","yes","1920","6"
"250","81.81818181818181","81.81818181818181","688.6969696969697","688.6969696969697","black","no","xpyriment","legacy","legacy","0","207","NA","uniform","NA","NA","NA","1","undefined","1","0","65","65","65","0","65","65","65","NA","0","65","NA","NA","0","65","NA","65","0","65","NA","NA","NA","65","0","0","NA","65","65","65","65","65","66","/","Fri Oct 13 15:23:18 2023","The main experiment item","yes","m21-ab-lexicalDecision.osexp","C:\Users\ekealey\Desktop","no","mono","no","18","no","white","no","yes","1080","legacy","65","65","C:/Users/ekealey/Desktop/subject-221.csv","xpyriment","Lentiform Loewenfeld","3.3.11","0","/","NA","NA","NA","NA","space","/","1020","NA","NA","NA","NA","66047","1020","2","legacy","1024","2","48000","-16","AB_m21","221","odd","FILL_W","SOUGHT","1835","345383","341688","343878","67893","NA","NA","NA","NA","NA","342189","NA","NA","NA","341187","NA","341155","1845","345633","NA","NA","NA","342230","1836","1836","NA","343251","343275","341155","342189","342210","morph21_Oliver/Morris","54","45454","66","yes","1920","40"
"400","82.08955223880596","82.08955223880596","688.9104477611941","688.9104477611941","black","no","xpyriment","legacy","legacy","0","203","NA","uniform","NA","NA","NA","1","undefined","1","0","66","66","66","0","66","66","66","NA","0","66","NA","NA","0","66","NA","66","0","66","NA","NA","NA","66","0","0","NA","66","66","66","66","66","67","z","Fri Oct 13 15:23:18 2023","The main experiment item","yes","m21-ab-lexicalDecision.osexp","C:\Users\ekealey\Desktop","no","mono","no","18","no","white","no","yes","1080","legacy","66","66","C:/Users/ekealey/Desktop/subject-221.csv","xpyriment","Lentiform Loewenfeld","3.3.11","0","z","NA","NA","NA","NA","space","z","703","NA","NA","NA","NA","66047","703","2","legacy","1024","2","48000","-16","AB_m21","221","odd","NW_S_COMP","ALTARIC","1835","349080","347207","343878","67893","NA","NA","NA","NA","NA","347707","NA","NA","NA","346707","NA","346674","1845","349480","NA","NA","NA","347748","1836","1836","NA","348452","348475","346674","347707","347728","morph21_Oliver/Morris","55","46157","67","yes","1920","7"
"400","82.3529411764706","82.3529411764706","695.7352941176471","695.7352941176471","black","no","xpyriment","legacy","legacy","0","205","NA","uniform","NA","NA","NA","1","undefined","1","0","67","67","67","0","67","67","67","NA","0","67","NA","NA","0","67","NA","67","0","67","NA","NA","NA","67","0","0","NA","67","67","67","67","67","68","z","Fri Oct 13 15:23:18 2023","The main experiment item","yes","m21-ab-lexicalDecision.osexp","C:\Users\ekealey\Desktop","no","mono","no","18","no","white","no","yes","1080","legacy","67","67","C:/Users/ekealey/Desktop/subject-221.csv","xpyriment","Lentiform Loewenfeld","3.3.11","0","z","NA","NA","NA","NA","space","z","1153","NA","NA","NA","NA","66047","1153","2","legacy","1024","2","48000","-16","AB_m21","221","odd","NW_S_SIMP","SCHEMENELS","1835","353350","351028","343878","67893","NA","NA","NA","NA","NA","351530","NA","NA","NA","350527","NA","350501","1845","353750","NA","NA","NA","351570","1836","1836","NA","352724","352747","350501","351530","351550","morph21_Oliver/Morris","56","47310","68","yes","1920","15"
"400","82.6086956521739","82.6086956521739","694.3768115942029","694.3768115942029","black","no","xpyriment","legacy","legacy","0","207","NA","uniform","NA","NA","NA","1","undefined","1","0","68","68","68","0","68","68","68","NA","0","68","NA","NA","0","68","NA","68","0","68","NA","NA","NA","68","0","0","NA","68","68","68","68","68","69","/","Fri Oct 13 15:23:18 2023","The main experiment item","yes","m21-ab-lexicalDecision.osexp","C:\Users\ekealey\Desktop","no","mono","no","18","no","white","no","yes","1080","legacy","68","68","C:/Users/ekealey/Desktop/subject-221.csv","xpyriment","Lentiform Loewenfeld","3.3.11","0","/","NA","NA","NA","NA","space","/","602","NA","NA","NA","NA","66047","602","2","legacy","1024","2","48000","-16","AB_m21","221","odd","FILL_W","STEEP","1835","358569","355292","357065","67893","NA","NA","NA","NA","NA","355793","NA","NA","NA","354790","NA","354757","1845","358969","NA","NA","NA","355833","1836","1836","NA","356435","356461","354757","355793","355813","morph21_Oliver/Morris","57","47912","69","yes","1920","16"
"350","82.85714285714286","82.85714285714286","691.8","691.8","black","no","xpyriment","legacy","legacy","0","207","NA","uniform","NA","NA","NA","1","undefined","1","0","69","69","69","0","69","69","69","NA","0","69","NA","NA","0","69","NA","69","0","69","NA","NA","NA","69","0","0","NA","69","69","69","69","69","70","/","Fri Oct 13 15:23:18 2023","The main experiment item","yes","m21-ab-lexicalDecision.osexp","C:\Users\ekealey\Desktop","no","mono","no","18","no","white","no","yes","1080","legacy","69","69","C:/Users/ekealey/Desktop/subject-221.csv","xpyriment","Lentiform Loewenfeld","3.3.11","0","/","NA","NA","NA","NA","space","/","514","NA","NA","NA","NA","66047","514","2","legacy","1024","2","48000","-16","AB_m21","221","odd","FILL_W","WEIRD","1835","362182","360499","357065","67893","NA","NA","NA","NA","NA","361001","NA","NA","NA","359999","NA","359971","1845","362532","NA","NA","NA","361041","1836","1836","NA","361556","361579","359971","361000","361021","morph21_Oliver/Morris","58","48426","70","yes","1920","2"
"400","83.09859154929578","83.09859154929578","689.0140845070423","689.0140845070423","black","no","xpyriment","legacy","legacy","0","202","NA","uniform","NA","NA","NA","1","undefined","1","0","70","70","70","0","70","70","70","NA","0","70","NA","NA","0","70","NA","70","0","70","NA","NA","NA","70","0","0","NA","70","70","70","70","70","71","/","Fri Oct 13 15:23:18 2023","The main experiment item","yes","m21-ab-lexicalDecision.osexp","C:\Users\ekealey\Desktop","no","mono","no","18","no","white","no","yes","1080","legacy","70","70","C:/Users/ekealey/Desktop/subject-221.csv","xpyriment","Lentiform Loewenfeld","3.3.11","0","/","NA","NA","NA","NA","space","/","494","NA","NA","NA","NA","66047","494","2","legacy","1024","2","48000","-16","AB_m21","221","odd","CW_L","CONDUCTOR","1835","365728","364064","357065","67893","NA","NA","NA","NA","NA","364565","NA","NA","NA","363562","NA","363535","1845","366128","NA","NA","NA","364605","1836","1836","NA","365099","365124","363535","364565","364585","morph21_Oliver/Morris","59","48920","71","yes","1920","44"
"350","83.33333333333333","83.33333333333333","685.2361111111111","685.2361111111111","black","no","xpyriment","legacy","legacy","0","201","NA","uniform","NA","NA","NA","1","undefined","1","0","71","71","71","0","71","71","71","NA","0","71","NA","NA","0","71","NA","71","0","71","NA","NA","NA","71","0","0","NA","71","71","71","71","71","72","/","Fri Oct 13 15:23:18 2023","The main experiment item","yes","m21-ab-lexicalDecision.osexp","C:\Users\ekealey\Desktop","no","mono","no","18","no","white","no","yes","1080","legacy","71","71","C:/Users/ekealey/Desktop/subject-221.csv","xpyriment","Lentiform Loewenfeld","3.3.11","0","/","NA","NA","NA","NA","space","/","417","NA","NA","NA","NA","66047","417","2","legacy","1024","2","48000","-16","AB_m21","221","odd","CW_S","SINGER","1835","370759","367669","369255","67893","NA","NA","NA","NA","NA","368170","NA","NA","NA","367169","NA","367140","1845","371109","NA","NA","NA","368210","1836","1836","NA","368627","368652","367139","368170","368190","morph21_Oliver/Morris","60","49337","72","yes","1920","17"
"200","83.56164383561644","83.56164383561644","682.1917808219179","682.1917808219179","black","no","xpyriment","legacy","legacy","0","201","NA","uniform","NA","NA","NA","1","undefined","1","0","72","72","72","0","72","72","72","NA","0","72","NA","NA","0","72","NA","72","0","72","NA","NA","NA","72","0","0","NA","72","72","72","72","72","73","/","Fri Oct 13 15:23:18 2023","The main experiment item","yes","m21-ab-lexicalDecision.osexp","C:\Users\ekealey\Desktop","no","mono","no","18","no","white","no","yes","1080","legacy","72","72","C:/Users/ekealey/Desktop/subject-221.csv","xpyriment","Lentiform Loewenfeld","3.3.11","0","/","NA","NA","NA","NA","space","/","463","NA","NA","NA","NA","66047","463","2","legacy","1024","2","48000","-16","AB_m21","221","odd","CW_S","ENJOYMENT","1835","374286","372655","369255","67893","NA","NA","NA","NA","NA","373155","NA","NA","NA","372154","NA","372121","1845","374486","NA","NA","NA","373196","1836","1836","NA","373660","373683","372120","373155","373176","morph21_Oliver/Morris","61","49800","73","yes","1920","40"
"200","83.78378378378379","83.78378378378379","679.2027027027027","679.2027027027027","black","no","xpyriment","legacy","legacy","0","202","NA","uniform","NA","NA","NA","1","undefined","1","0","73","73","73","0","73","73","73","NA","0","73","NA","NA","0","73","NA","73","0","73","NA","NA","NA","73","0","0","NA","73","73","73","73","73","74","/","Fri Oct 13 15:23:18 2023","The main experiment item","yes","m21-ab-lexicalDecision.osexp","C:\Users\ekealey\Desktop","no","mono","no","18","no","white","no","yes","1080","legacy","73","73","C:/Users/ekealey/Desktop/subject-221.csv","xpyriment","Lentiform Loewenfeld","3.3.11","0","/","NA","NA","NA","NA","space","/","461","NA","NA","NA","NA","66047","461","2","legacy","1024","2","48000","-16","AB_m21","221","odd","CW_L","COLLECTOR","1835","377679","376048","369255","67893","NA","NA","NA","NA","NA","376548","NA","NA","NA","375548","NA","375519","1845","377879","NA","NA","NA","376589","1836","1836","NA","377051","377075","375519","376548","376569","morph21_Oliver/Morris","62","50261","74","yes","1920","46"
"400","84","84","678.1466666666666","678.1466666666666","black","no","xpyriment","legacy","legacy","0","208","NA","uniform","NA","NA","NA","undefined","undefined","1","0","74","74","74","0","74","74","74","NA","0","74","NA","NA","0","74","NA","74","0","74","NA","NA","NA","74","0","0","NA","74","74","74","74","74","75","z","Fri Oct 13 15:23:18 2023","The main experiment item","yes","m21-ab-lexicalDecision.osexp","C:\Users\ekealey\Desktop","no","mono","no","18","no","white","no","yes","1080","legacy","74","74","C:/Users/ekealey/Desktop/subject-221.csv","xpyriment","Lentiform Loewenfeld","3.3.11","0","space","space","NA","NA","NA","space","z","8936","8936","NA","NA","NA","66047","600","2","legacy","1024","2","48000","-16","AB_m21","221","odd","FILL_NW","ULNS","1835","382670","379398","381167","67893","383074","NA","NA","NA","NA","379899","NA","NA","NA","378896","NA","378869","1845","392011","NA","NA","NA","379939","1836","1836","NA","380539","380564","378869","379899","379919","morph21_Oliver/Morris","63","50861","75","yes","1920","45"
"300","84.21052631578948","84.21052631578948","682.328947368421","682.328947368421","black","no","xpyriment","legacy","legacy","0","205","NA","uniform","NA","NA","NA","1","undefined","1","0","75","75","75","0","75","75","75","NA","0","75","NA","NA","0","75","NA","75","0","75","NA","NA","NA","75","0","0","NA","75","75","75","75","75","76","z","Fri Oct 13 15:23:18 2023","The main experiment item","yes","m21-ab-lexicalDecision.osexp","C:\Users\ekealey\Desktop","no","mono","no","18","no","white","no","yes","1080","legacy","75","75","C:/Users/ekealey/Desktop/subject-221.csv","xpyriment","Lentiform Loewenfeld","3.3.11","0","z","space","NA","NA","NA","space","z","996","8936","NA","NA","NA","66047","996","2","legacy","1024","2","48000","-16","AB_m21","221","odd","NW_S_SIMP","WINKIDY","1835","395742","393577","381167","67893","383074","NA","NA","NA","NA","394077","NA","NA","NA","393077","NA","393040","1845","396042","NA","NA","NA","394118","1836","1836","NA","395115","395139","393040","394077","394098","morph21_Oliver/Morris","64","51857","76","yes","1920","21"
"250","84.41558441558442","84.41558441558442","684.8311688311688","684.8311688311688","black","no","xpyriment","legacy","legacy","0","206","NA","uniform","NA","NA","NA","1","undefined","1","0","76","76","76","0","76","76","76","NA","0","76","NA","NA","0","76","NA","76","0","76","NA","NA","NA","76","0","0","NA","76","76","76","76","76","77","z","Fri Oct 13 15:23:18 2023","The main experiment item","yes","m21-ab-lexicalDecision.osexp","C:\Users\ekealey\Desktop","no","mono","no","18","no","white","no","yes","1080","legacy","76","76","C:/Users/ekealey/Desktop/subject-221.csv","xpyriment","Lentiform Loewenfeld","3.3.11","0","z","space","NA","NA","NA","space","z","875","8936","NA","NA","NA","66047","875","2","legacy","1024","2","48000","-16","AB_m21","221","odd","NW_L_SIMP"," DRESSODY","1835","399638","397595","381167","67893","383074","NA","NA","NA","NA","398095","NA","NA","NA","397094","NA","397068","1845","399889","NA","NA","NA","398136","1836","1836","NA","399011","399035","397068","398095","398116","morph21_Oliver/Morris","65","52732","77","yes","1920","21"
"400","84.61538461538461","84.61538461538461","683","683","black","no","xpyriment","legacy","legacy","0","201","NA","uniform","NA","NA","NA","1","undefined","1","0","77","77","77","0","77","77","77","NA","0","77","NA","NA","0","77","NA","77","0","77","NA","NA","NA","77","0","0","NA","77","77","77","77","77","78","/","Fri Oct 13 15:23:18 2023","The main experiment item","yes","m21-ab-lexicalDecision.osexp","C:\Users\ekealey\Desktop","no","mono","no","18","no","white","no","yes","1080","legacy","77","77","C:/Users/ekealey/Desktop/subject-221.csv","xpyriment","Lentiform Loewenfeld","3.3.11","0","/","space","NA","NA","NA","space","/","542","8936","NA","NA","NA","66047","542","2","legacy","1024","2","48000","-16","AB_m21","221","odd","CW_S","EFFORTLESS","1835","404633","401415","403129","67893","383074","NA","NA","NA","NA","401915","NA","NA","NA","400915","NA","400889","1845","405033","NA","NA","NA","401956","1836","1836","NA","402499","402524","400888","401915","401936","morph21_Oliver/Morris","66","53274","78","yes","1920","30"
"250","84.81012658227849","84.81012658227849","682.3164556962025","682.3164556962025","black","no","xpyriment","legacy","legacy","0","205","NA","uniform","NA","NA","NA","1","undefined","1","0","78","78","78","0","78","78","78","NA","0","78","NA","NA","0","78","NA","78","0","78","NA","NA","NA","78","0","0","NA","78","78","78","78","78","79","z","Fri Oct 13 15:23:18 2023","The main experiment item","yes","m21-ab-lexicalDecision.osexp","C:\Users\ekealey\Desktop","no","mono","no","18","no","white","no","yes","1080","legacy","78","78","C:/Users/ekealey/Desktop/subject-221.csv","xpyriment","Lentiform Loewenfeld","3.3.11","0","z","space","NA","NA","NA","space","z","629","8936","NA","NA","NA","66047","629","2","legacy","1024","2","48000","-16","AB_m21","221","odd","NW_S_SIMP","DIGODY","1835","408369","406566","403129","67893","383074","NA","NA","NA","NA","407067","NA","NA","NA","406066","NA","406038","1845","408619","NA","NA","NA","407109","1836","1836","NA","407739","407765","406038","407067","407089","morph21_Oliver/Morris","67","53903","79","yes","1920","11"
"350","85","85","679.575","679.575","black","no","xpyriment","legacy","legacy","0","202","NA","uniform","NA","NA","NA","1","undefined","1","0","79","79","79","0","79","79","79","NA","0","79","NA","NA","0","79","NA","79","0","79","NA","NA","NA","79","0","0","NA","79","79","79","79","79","80","/","Fri Oct 13 15:23:18 2023","The main experiment item","yes","m21-ab-lexicalDecision.osexp","C:\Users\ekealey\Desktop","no","mono","no","18","no","white","no","yes","1080","legacy","79","79","C:/Users/ekealey/Desktop/subject-221.csv","xpyriment","Lentiform Loewenfeld","3.3.11","0","/","space","NA","NA","NA","space","/","463","8936","NA","NA","NA","66047","463","2","legacy","1024","2","48000","-16","AB_m21","221","odd","CW_L","PUNCHER","1835","411848","410215","403129","67893","383074","NA","NA","NA","NA","410715","NA","NA","NA","409714","NA","409686","1845","412198","NA","NA","NA","410756","1836","1836","NA","411220","411243","409686","410715","410736","morph21_Oliver/Morris","68","54366","80","yes","1920","1"
"350","85.18518518518519","85.18518518518519","676.2592592592592","676.2592592592592","black","no","xpyriment","legacy","legacy","0","201","NA","uniform","NA","NA","NA","1","undefined","1","0","80","80","80","0","80","80","80","NA","0","80","NA","NA","0","80","NA","80","0","80","NA","NA","NA","80","0","0","NA","80","80","80","80","80","81","/","Fri Oct 13 15:23:18 2023","The main experiment item","yes","m21-ab-lexicalDecision.osexp","C:\Users\ekealey\Desktop","no","mono","no","18","no","white","no","yes","1080","legacy","80","80","C:/Users/ekealey/Desktop/subject-221.csv","xpyriment","Lentiform Loewenfeld","3.3.11","0","/","space","NA","NA","NA","space","/","411","8936","NA","NA","NA","66047","411","2","legacy","1024","2","48000","-16","AB_m21","221","odd","CW_S","STRANGENESS","1835","416823","413738","415317","67893","383074","NA","NA","NA","NA","414239","NA","NA","NA","413237","NA","413202","1845","417173","NA","NA","NA","414279","1836","1836","NA","414691","414714","413202","414239","414259","morph21_Oliver/Morris","69","54777","81","yes","1920","46"
"400","85.36585365853658","85.36585365853658","674.6829268292682","674.6829268292682","black","no","xpyriment","legacy","legacy","0","201","NA","uniform","NA","NA","NA","1","undefined","1","0","81","81","81","0","81","81","81","NA","0","81","NA","NA","0","81","NA","81","0","81","NA","NA","NA","81","0","0","NA","81","81","81","81","81","82","/","Fri Oct 13 15:23:18 2023","The main experiment item","yes","m21-ab-lexicalDecision.osexp","C:\Users\ekealey\Desktop","no","mono","no","18","no","white","no","yes","1080","legacy","81","81","C:/Users/ekealey/Desktop/subject-221.csv","xpyriment","Lentiform Loewenfeld","3.3.11","0","/","space","NA","NA","NA","space","/","547","8936","NA","NA","NA","66047","547","2","legacy","1024","2","48000","-16","AB_m21","221","odd","CW_S","RAIDER","1835","420439","418722","415317","67893","383074","NA","NA","NA","NA","419223","NA","NA","NA","418220","NA","418193","1845","420839","NA","NA","NA","419264","1836","1836","NA","419811","419835","418193","419223","419244","morph21_Oliver/Morris","70","55324","82","yes","1920","12"
"300","85.5421686746988","85.5421686746988","673.0120481927711","673.0120481927711","black","no","xpyriment","legacy","legacy","0","208","NA","uniform","NA","NA","NA","1","undefined","1","0","82","82","82","0","82","82","82","NA","0","82","NA","NA","0","82","NA","82","0","82","NA","NA","NA","82","0","0","NA","82","82","82","82","82","83","z","Fri Oct 13 15:23:18 2023","The main experiment item","yes","m21-ab-lexicalDecision.osexp","C:\Users\ekealey\Desktop","no","mono","no","18","no","white","no","yes","1080","legacy","82","82","C:/Users/ekealey/Desktop/subject-221.csv","xpyriment","Lentiform Loewenfeld","3.3.11","0","z","space","NA","NA","NA","space","z","536","8936","NA","NA","NA","66047","536","2","legacy","1024","2","48000","-16","AB_m21","221","odd","FILL_NW","VOOFS","1835","424069","422365","415317","67893","383074","NA","NA","NA","NA","422866","NA","NA","NA","421863","NA","421839","1845","424370","NA","NA","NA","422906","1836","1836","NA","423443","423467","421839","422866","422886","morph21_Oliver/Morris","71","55860","83","yes","1920","48"
"350","85.71428571428571","85.71428571428571","673.0833333333334","673.0833333333334","black","no","xpyriment","legacy","legacy","0","206","NA","uniform","NA","NA","NA","1","undefined","1","0","83","83","83","0","83","83","83","NA","0","83","NA","NA","0","83","NA","83","0","83","NA","NA","NA","83","0","0","NA","83","83","83","83","83","84","z","Fri Oct 13 15:23:18 2023","The main experiment item","yes","m21-ab-lexicalDecision.osexp","C:\Users\ekealey\Desktop","no","mono","no","18","no","white","no","yes","1080","legacy","83","83","C:/Users/ekealey/Desktop/subject-221.csv","xpyriment","Lentiform Loewenfeld","3.3.11","0","z","space","NA","NA","NA","space","z","679","8936","NA","NA","NA","66047","679","2","legacy","1024","2","48000","-16","AB_m21","221","odd","NW_L_SIMP","PICKENGE","1835","429278","425925","427775","67893","383074","NA","NA","NA","NA","426427","NA","NA","NA","425423","NA","425400","1845","429628","NA","NA","NA","426468","1836","1836","NA","427147","427171","425400","426427","426448","morph21_Oliver/Morris","72","56539","84","yes","1920","5"
"300","84.70588235294117","84.70588235294117","671.3294117647059","671.3294117647059","black","no","xpyriment","legacy","legacy","0","203","NA","uniform","NA","NA","NA","0","undefined","0","0","84","84","84","0","84","84","84","NA","0","84","NA","NA","0","84","NA","84","0","84","NA","NA","NA","84","0","0","NA","84","84","84","84","84","85","z","Fri Oct 13 15:23:18 2023","The main experiment item","yes","m21-ab-lexicalDecision.osexp","C:\Users\ekealey\Desktop","no","mono","no","18","no","white","no","yes","1080","legacy","84","84","C:/Users/ekealey/Desktop/subject-221.csv","xpyriment","Lentiform Loewenfeld","3.3.11","0","/","space","NA","NA","NA","space","/","524","8936","NA","NA","NA","66047","524","2","legacy","1024","2","48000","-16","AB_m21","221","odd","NW_S_COMP","FIGER","1835","432888","431192","427775","67893","383074","NA","NA","NA","NA","431693","NA","NA","NA","430691","NA","430658","1845","433188","NA","NA","NA","431734","1836","1836","NA","432259","432283","430658","431693","431714","morph21_Oliver/Morris","72","57063","85","yes","1920","4"
"250","84.88372093023256","84.88372093023256","669.6162790697674","669.6162790697674","black","no","xpyriment","legacy","legacy","0","207","NA","uniform","NA","NA","NA","1","undefined","1","0","85","85","85","0","85","85","85","NA","0","85","NA","NA","0","85","NA","85","0","85","NA","NA","NA","85","0","0","NA","85","85","85","85","85","86","/","Fri Oct 13 15:23:18 2023","The main experiment item","yes","m21-ab-lexicalDecision.osexp","C:\Users\ekealey\Desktop","no","mono","no","18","no","white","no","yes","1080","legacy","85","85","C:/Users/ekealey/Desktop/subject-221.csv","xpyriment","Lentiform Loewenfeld","3.3.11","0","/","space","NA","NA","NA","space","/","524","8936","NA","NA","NA","66047","524","2","legacy","1024","2","48000","-16","AB_m21","221","odd","FILL_W","TASTE","1835","436407","434714","427775","67893","383074","NA","NA","NA","NA","435214","NA","NA","NA","434214","NA","434185","1845","436657","NA","NA","NA","435255","1836","1836","NA","435779","435803","434185","435214","435235","morph21_Oliver/Morris","73","57587","86","yes","1920","34"
"200","85.05747126436782","85.05747126436782","670.7931034482758","670.7931034482758","black","no","xpyriment","legacy","legacy","0","203","NA","uniform","NA","NA","NA","1","undefined","1","0","86","86","86","0","86","86","86","NA","0","86","NA","NA","0","86","NA","86","0","86","NA","NA","NA","86","0","0","NA","86","86","86","86","86","87","z","Fri Oct 13 15:23:18 2023","The main experiment item","yes","m21-ab-lexicalDecision.osexp","C:\Users\ekealey\Desktop","no","mono","no","18","no","white","no","yes","1080","legacy","86","86","C:/Users/ekealey/Desktop/subject-221.csv","xpyriment","Lentiform Loewenfeld","3.3.11","0","z","space","NA","NA","NA","space","z","772","8936","NA","NA","NA","66047","772","2","legacy","1024","2","48000","-16","AB_m21","221","odd","NW_S_COMP","HAPPENANCE","1835","441639","438192","440136","67893","383074","NA","NA","NA","NA","438693","NA","NA","NA","437692","NA","437660","1845","441839","NA","NA","NA","438734","1836","1836","NA","439507","439533","437660","438693","438714","morph21_Oliver/Morris","74","58359","87","yes","1920","2"
"250","85.22727272727273","85.22727272727273","669.6590909090909","669.6590909090909","black","no","xpyriment","legacy","legacy","0","207","NA","uniform","NA","NA","NA","1","undefined","1","0","87","87","87","0","87","87","87","NA","0","87","NA","NA","0","87","NA","87","0","87","NA","NA","NA","87","0","0","NA","87","87","87","87","87","88","/","Fri Oct 13 15:23:18 2023","The main experiment item","yes","m21-ab-lexicalDecision.osexp","C:\Users\ekealey\Desktop","no","mono","no","18","no","white","no","yes","1080","legacy","87","87","C:/Users/ekealey/Desktop/subject-221.csv","xpyriment","Lentiform Loewenfeld","3.3.11","0","/","space","NA","NA","NA","space","/","571","8936","NA","NA","NA","66047","571","2","legacy","1024","2","48000","-16","AB_m21","221","odd","FILL_W","SUIT","1835","445110","443371","440136","67893","383074","NA","NA","NA","NA","443871","NA","NA","NA","442870","NA","442841","1845","445360","NA","NA","NA","443912","1836","1836","NA","444483","444507","442841","443871","443892","morph21_Oliver/Morris","75","58930","88","yes","1920","49"
"400","84.26966292134831","84.26966292134831","668.0786516853933","668.0786516853933","black","no","xpyriment","legacy","legacy","0","207","NA","uniform","NA","NA","NA","0","undefined","0","0","88","88","88","0","88","88","88","NA","0","88","NA","NA","0","88","NA","88","0","88","NA","NA","NA","88","0","0","NA","88","88","88","88","88","89","/","Fri Oct 13 15:23:18 2023","The main experiment item","yes","m21-ab-lexicalDecision.osexp","C:\Users\ekealey\Desktop","no","mono","no","18","no","white","no","yes","1080","legacy","88","88","C:/Users/ekealey/Desktop/subject-221.csv","xpyriment","Lentiform Loewenfeld","3.3.11","0","z","space","NA","NA","NA","space","z","529","8936","NA","NA","NA","66047","529","2","legacy","1024","2","48000","-16","AB_m21","221","odd","FILL_W","LITHE","1835","448590","446890","440136","67893","383074","NA","NA","NA","NA","447392","NA","NA","NA","446389","NA","446361","1845","448991","NA","NA","NA","447433","1836","1836","NA","447963","447986","446361","447392","447413","morph21_Oliver/Morris","75","59459","89","yes","1920","23"
"250","84.44444444444444","84.44444444444444","665.1888888888889","665.1888888888889","black","no","xpyriment","legacy","legacy","0","207","NA","uniform","NA","NA","NA","1","undefined","1","0","89","89","89","0","89","89","89","NA","0","89","NA","NA","0","89","NA","89","0","89","NA","NA","NA","89","0","0","NA","89","89","89","89","89","90","/","Fri Oct 13 15:23:18 2023","The main experiment item","yes","m21-ab-lexicalDecision.osexp","C:\Users\ekealey\Desktop","no","mono","no","18","no","white","no","yes","1080","legacy","89","89","C:/Users/ekealey/Desktop/subject-221.csv","xpyriment","Lentiform Loewenfeld","3.3.11","0","/","space","NA","NA","NA","space","/","408","8936","NA","NA","NA","66047","408","2","legacy","1024","2","48000","-16","AB_m21","221","odd","FILL_W","COOK","1835","453605","450524","452102","67893","383074","NA","NA","NA","NA","451026","NA","NA","NA","450023","NA","449997","1845","453855","NA","NA","NA","451066","1836","1836","NA","451475","451498","449997","451025","451046","morph21_Oliver/Morris","76","59867","90","yes","1920","38"
"250","84.61538461538461","84.61538461538461","663.065934065934","663.065934065934","black","no","xpyriment","legacy","legacy","0","207","NA","uniform","NA","NA","NA","1","undefined","1","0","90","90","90","0","90","90","90","NA","0","90","NA","NA","0","90","NA","90","0","90","NA","NA","NA","90","0","0","NA","90","90","90","90","90","91","/","Fri Oct 13 15:23:18 2023","The main experiment item","yes","m21-ab-lexicalDecision.osexp","C:\Users\ekealey\Desktop","no","mono","no","18","no","white","no","yes","1080","legacy","90","90","C:/Users/ekealey/Desktop/subject-221.csv","xpyriment","Lentiform Loewenfeld","3.3.11","0","/","space","NA","NA","NA","space","/","472","8936","NA","NA","NA","66047","472","2","legacy","1024","2","48000","-16","AB_m21","221","odd","FILL_W","WEAVE","1835","457038","455396","452102","67893","383074","NA","NA","NA","NA","455897","NA","NA","NA","454895","NA","454869","1845","457288","NA","NA","NA","455938","1836","1836","NA","456410","456435","454869","455897","455918","morph21_Oliver/Morris","77","60339","91","yes","1920","12"
"400","84.78260869565217","84.78260869565217","662.9673913043479","662.9673913043479","black","no","xpyriment","legacy","legacy","0","205","NA","uniform","NA","NA","NA","1","undefined","1","0","91","91","91","0","91","91","91","NA","0","91","NA","NA","0","91","NA","91","0","91","NA","NA","NA","91","0","0","NA","91","91","91","91","91","92","z","Fri Oct 13 15:23:18 2023","The main experiment item","yes","m21-ab-lexicalDecision.osexp","C:\Users\ekealey\Desktop","no","mono","no","18","no","white","no","yes","1080","legacy","91","91","C:/Users/ekealey/Desktop/subject-221.csv","xpyriment","Lentiform Loewenfeld","3.3.11","0","z","space","NA","NA","NA","space","z","654","8936","NA","NA","NA","66047","654","2","legacy","1024","2","48000","-16","AB_m21","221","odd","NW_S_SIMP","ADVERTISELA","1835","460670","458848","452102","67893","383074","NA","NA","NA","NA","459348","NA","NA","NA","458347","NA","458320","1845","461070","NA","NA","NA","459388","1836","1836","NA","460043","460067","458320","459348","459368","morph21_Oliver/Morris","78","60993","92","yes","1920","25"
"300","84.94623655913979","84.94623655913979","660.3225806451613","660.3225806451613","black","no","xpyriment","legacy","legacy","0","201","NA","uniform","NA","NA","NA","1","undefined","1","0","92","92","92","0","92","92","92","NA","0","92","NA","NA","0","92","NA","92","0","92","NA","NA","NA","92","0","0","NA","92","92","92","92","92","93","/","Fri Oct 13 15:23:18 2023","The main experiment item","yes","m21-ab-lexicalDecision.osexp","C:\Users\ekealey\Desktop","no","mono","no","18","no","white","no","yes","1080","legacy","92","92","C:/Users/ekealey/Desktop/subject-221.csv","xpyriment","Lentiform Loewenfeld","3.3.11","0","/","space","NA","NA","NA","space","/","417","8936","NA","NA","NA","66047","417","2","legacy","1024","2","48000","-16","AB_m21","221","odd","CW_S","GUILTY","1835","465708","462620","464205","67893","383074","NA","NA","NA","NA","463120","NA","NA","NA","462120","NA","462090","1845","466009","NA","NA","NA","463161","1836","1836","NA","463579","463602","462090","463120","463141","morph21_Oliver/Morris","79","61410","93","yes","1920","34"
