"ITI","acc","accuracy","average_response_time","avg_rt","background","bidi","canvas_backend","clock_backend","color_backend","compensation","cond_trig","condtrigtime","coordinates","coroutines_cycles","coroutines_duration","coroutines_mean_cycle_duration","correct","correct_instructions_1","correct_new_keyboard_response_1","count_AB_m21","count_ITI","count_blank_screen","count_blink_screen","count_block1","count_break1","count_break2","count_break3_1","count_canvas","count_close_port","count_cond_trigger","count_correct_trigger","count_def_chain","count_end_screen","count_fixation_1","count_getting_started","count_inc_counter","count_instructions_1","count_logger","count_logscript","count_new_inline_script","count_new_inline_script_2","count_new_keyboard_response_1","count_open_port","count_reset_counter_prep","count_reset_counter_run","count_response_trigger_trial","count_responsescreen","count_sequence","count_target_present","count_word_trigger","counter","cresp","datetime","description","disable_garbage_collection","experiment_file","experiment_path","font_bold","font_family","font_italic","font_size","font_underline","foreground","form_clicks","fullscreen","height","keyboard_backend","live_row","live_row_block1","logfile","mouse_backend","opensesame_codename","opensesame_version","repeat_cycle","response","response_break1","response_break2","response_break3_1","response_end_screen","response_instructions_1","response_new_keyboard_response_1","response_time","response_time_break1","response_time_break2","response_time_break3_1","response_time_end_screen","response_time_instructions_1","response_time_new_keyboard_response_1","round_decimals","sampler_backend","sound_buf_size","sound_channels","sound_freq","sound_sample_size","start","subject_nr","subject_parity","targ_type","target","time_AB_m21","time_ITI","time_blank_screen","time_blink_screen","time_block1","time_break1","time_break2","time_break3_1","time_canvas","time_close_port","time_cond_trigger","time_correct_trigger","time_def_chain","time_end_screen","time_fixation_1","time_getting_started","time_inc_counter","time_instructions_1","time_logger","time_logscript","time_new_inline_script","time_new_inline_script_2","time_new_keyboard_response_1","time_open_port","time_reset_counter_prep","time_reset_counter_run","time_response_trigger_trial","time_responsescreen","time_sequence","time_target_present","time_word_trigger","title","total_correct","total_response_time","total_responses","uniform_coordinates","width","word_trig"
"250","0","0","1200","1200","black","no","xpyriment","legacy","legacy","0","203","NA","uniform","NA","NA","NA","0","undefined","0","0","0","0","0","0","0","0","0","NA","0","0","NA","NA","0","0","NA","0","0","0","NA","NA","NA","0","0","0","NA","0","0","0","0","0","1","z","Tue Jun 20 13:33:03 2023","The main experiment item","yes","m21-ab-lexicalDecision.osexp","C:\Users\emoore8\Desktop\m21_vsl-main","no","mono","no","18","no","white","no","yes","1080","legacy","0","0","C:/Users/emoore8/Desktop/m21_vsl-main/subject-207.csv","xpyriment","Lentiform Loewenfeld","3.3.11","0","None","NA","NA","NA","NA","space","None","1200","NA","NA","NA","NA","33908","1200","2","legacy","1024","2","48000","-16","AB_m21","207","odd","NW_S_COMP","BRANCHER","1685","39683","37316","NA","35606","NA","NA","NA","NA","NA","37817","NA","NA","NA","36816","NA","36787","1697","39933","NA","NA","NA","37857","1685","1685","NA","39057","39080","36786","37816","37837","morph21_Oliver/Morris","0","1200","1","yes","1920","16"
"400","0","0","1200","1200","black","no","xpyriment","legacy","legacy","0","208","NA","uniform","NA","NA","NA","0","undefined","0","0","1","1","1","0","1","1","1","NA","0","1","NA","NA","0","1","NA","1","0","1","NA","NA","NA","1","0","0","NA","1","1","1","1","1","2","z","Tue Jun 20 13:33:03 2023","The main experiment item","yes","m21-ab-lexicalDecision.osexp","C:\Users\emoore8\Desktop\m21_vsl-main","no","mono","no","18","no","white","no","yes","1080","legacy","1","1","C:/Users/emoore8/Desktop/m21_vsl-main/subject-207.csv","xpyriment","Lentiform Loewenfeld","3.3.11","0","None","NA","NA","NA","NA","space","None","1200","NA","NA","NA","NA","33908","1200","2","legacy","1024","2","48000","-16","AB_m21","207","odd","FILL_NW","SOISE","1685","43819","41450","NA","35606","NA","NA","NA","NA","NA","41950","NA","NA","NA","40950","NA","40926","1697","44219","NA","NA","NA","41991","1685","1685","NA","43191","43216","40926","41950","41971","morph21_Oliver/Morris","0","2400","2","yes","1920","43"
"200","0","0","1024","1024","black","no","xpyriment","legacy","legacy","0","204","NA","uniform","NA","NA","NA","0","undefined","0","0","2","2","2","0","2","2","2","NA","0","2","NA","NA","0","2","NA","2","0","2","NA","NA","NA","2","0","0","NA","2","2","2","2","2","3","z","Tue Jun 20 13:33:03 2023","The main experiment item","yes","m21-ab-lexicalDecision.osexp","C:\Users\emoore8\Desktop\m21_vsl-main","no","mono","no","18","no","white","no","yes","1080","legacy","2","2","C:/Users/emoore8/Desktop/m21_vsl-main/subject-207.csv","xpyriment","Lentiform Loewenfeld","3.3.11","0","/","NA","NA","NA","NA","space","/","672","NA","NA","NA","NA","33908","672","2","legacy","1024","2","48000","-16","AB_m21","207","odd","NW_L_COMP","PITCHORY","1685","49106","45760","47603","35606","NA","NA","NA","NA","NA","46262","NA","NA","NA","45259","NA","45234","1697","49306","NA","NA","NA","46302","1685","1685","NA","46974","47000","45234","46261","46282","morph21_Oliver/Morris","0","3072","3","yes","1920","25"
"300","0","0","1050.25","1050.25","black","no","xpyriment","legacy","legacy","0","206","NA","uniform","NA","NA","NA","0","undefined","0","0","3","3","3","0","3","3","3","NA","0","3","NA","NA","0","3","NA","3","0","3","NA","NA","NA","3","0","0","NA","3","3","3","3","3","4","z","Tue Jun 20 13:33:03 2023","The main experiment item","yes","m21-ab-lexicalDecision.osexp","C:\Users\emoore8\Desktop\m21_vsl-main","no","mono","no","18","no","white","no","yes","1080","legacy","3","3","C:/Users/emoore8/Desktop/m21_vsl-main/subject-207.csv","xpyriment","Lentiform Loewenfeld","3.3.11","0","/","NA","NA","NA","NA","space","/","1129","NA","NA","NA","NA","33908","1129","2","legacy","1024","2","48000","-16","AB_m21","207","odd","NW_L_SIMP","TAXFIL","1685","53113","50815","47603","35606","NA","NA","NA","NA","NA","51315","NA","NA","NA","50314","NA","50284","1697","53413","NA","NA","NA","51356","1685","1685","NA","52486","52509","50284","51315","51336","morph21_Oliver/Morris","0","4201","4","yes","1920","6"
"300","20","20","961.2","961.2","black","no","xpyriment","legacy","legacy","0","206","NA","uniform","NA","NA","NA","1","undefined","1","0","4","4","4","0","4","4","4","NA","0","4","NA","NA","0","4","NA","4","0","4","NA","NA","NA","4","0","0","NA","4","4","4","4","4","5","z","Tue Jun 20 13:33:03 2023","The main experiment item","yes","m21-ab-lexicalDecision.osexp","C:\Users\emoore8\Desktop\m21_vsl-main","no","mono","no","18","no","white","no","yes","1080","legacy","4","4","C:/Users/emoore8/Desktop/m21_vsl-main/subject-207.csv","xpyriment","Lentiform Loewenfeld","3.3.11","0","z","NA","NA","NA","NA","space","z","605","NA","NA","NA","NA","33908","605","2","legacy","1024","2","48000","-16","AB_m21","207","odd","NW_L_SIMP","ELBOWILM","1685","56745","54969","47603","35606","NA","NA","NA","NA","NA","55469","NA","NA","NA","54468","NA","54439","1697","57045","NA","NA","NA","55512","1685","1685","NA","56117","56142","54439","55469","55490","morph21_Oliver/Morris","1","4806","5","yes","1920","10"
"400","33.333333333333336","33.333333333333336","894.1666666666666","894.1666666666666","black","no","xpyriment","legacy","legacy","0","202","NA","uniform","NA","NA","NA","1","undefined","1","0","5","5","5","0","5","5","5","NA","0","5","NA","NA","0","5","NA","5","0","5","NA","NA","NA","5","0","0","NA","5","5","5","5","5","6","/","Tue Jun 20 13:33:03 2023","The main experiment item","yes","m21-ab-lexicalDecision.osexp","C:\Users\emoore8\Desktop\m21_vsl-main","no","mono","no","18","no","white","no","yes","1080","legacy","5","5","C:/Users/emoore8/Desktop/m21_vsl-main/subject-207.csv","xpyriment","Lentiform Loewenfeld","3.3.11","0","/","NA","NA","NA","NA","space","/","559","NA","NA","NA","NA","33908","559","2","legacy","1024","2","48000","-16","AB_m21","207","odd","CW_L","SPELLER","1685","61800","58570","60297","35606","NA","NA","NA","NA","NA","59070","NA","NA","NA","58070","NA","58043","1697","62200","NA","NA","NA","59110","1685","1685","NA","59669","59694","58042","59070","59090","morph21_Oliver/Morris","2","5365","6","yes","1920","3"
"350","42.857142857142854","42.857142857142854","847.8571428571429","847.8571428571429","black","no","xpyriment","legacy","legacy","0","201","NA","uniform","NA","NA","NA","1","undefined","1","0","6","6","6","0","6","6","6","NA","0","6","NA","NA","0","6","NA","6","0","6","NA","NA","NA","6","0","0","NA","6","6","6","6","6","7","/","Tue Jun 20 13:33:03 2023","The main experiment item","yes","m21-ab-lexicalDecision.osexp","C:\Users\emoore8\Desktop\m21_vsl-main","no","mono","no","18","no","white","no","yes","1080","legacy","6","6","C:/Users/emoore8/Desktop/m21_vsl-main/subject-207.csv","xpyriment","Lentiform Loewenfeld","3.3.11","0","/","NA","NA","NA","NA","space","/","570","NA","NA","NA","NA","33908","570","2","legacy","1024","2","48000","-16","AB_m21","207","odd","CW_S","SINGER","1685","65449","63710","60297","35606","NA","NA","NA","NA","NA","64211","NA","NA","NA","63209","NA","63181","1697","65799","NA","NA","NA","64252","1685","1685","NA","64822","64846","63181","64211","64232","morph21_Oliver/Morris","3","5935","7","yes","1920","17"
"250","50","50","817.375","817.375","black","no","xpyriment","legacy","legacy","0","208","NA","uniform","NA","NA","NA","1","undefined","1","0","7","7","7","0","7","7","7","NA","0","7","NA","NA","0","7","NA","7","0","7","NA","NA","NA","7","0","0","NA","7","7","7","7","7","8","z","Tue Jun 20 13:33:03 2023","The main experiment item","yes","m21-ab-lexicalDecision.osexp","C:\Users\emoore8\Desktop\m21_vsl-main","no","mono","no","18","no","white","no","yes","1080","legacy","7","7","C:/Users/emoore8/Desktop/m21_vsl-main/subject-207.csv","xpyriment","Lentiform Loewenfeld","3.3.11","0","z","NA","NA","NA","NA","space","z","604","NA","NA","NA","NA","33908","604","2","legacy","1024","2","48000","-16","AB_m21","207","odd","FILL_NW","PIFTH","1685","69080","67307","60297","35606","NA","NA","NA","NA","NA","67807","NA","NA","NA","66806","NA","66780","1697","69330","NA","NA","NA","67849","1685","1685","NA","68454","68477","66780","67807","67828","morph21_Oliver/Morris","4","6539","8","yes","1920","36"
"200","55.55555555555556","55.55555555555556","794.5555555555555","794.5555555555555","black","no","xpyriment","legacy","legacy","0","208","NA","uniform","NA","NA","NA","1","undefined","1","0","8","8","8","0","8","8","8","NA","0","8","NA","NA","0","8","NA","8","0","8","NA","NA","NA","8","0","0","NA","8","8","8","8","8","9","z","Tue Jun 20 13:33:03 2023","The main experiment item","yes","m21-ab-lexicalDecision.osexp","C:\Users\emoore8\Desktop\m21_vsl-main","no","mono","no","18","no","white","no","yes","1080","legacy","8","8","C:/Users/emoore8/Desktop/m21_vsl-main/subject-207.csv","xpyriment","Lentiform Loewenfeld","3.3.11","0","z","NA","NA","NA","NA","space","z","612","NA","NA","NA","NA","33908","612","2","legacy","1024","2","48000","-16","AB_m21","207","odd","FILL_NW","CINDS","1685","74104","70820","72602","35606","NA","NA","NA","NA","NA","71321","NA","NA","NA","70319","NA","70296","1697","74305","NA","NA","NA","71362","1685","1685","NA","71974","71999","70296","71321","71342","morph21_Oliver/Morris","5","7151","9","yes","1920","6"
"300","60","60","775.7","775.7","black","no","xpyriment","legacy","legacy","0","207","NA","uniform","NA","NA","NA","1","undefined","1","0","9","9","9","0","9","9","9","NA","0","9","NA","NA","0","9","NA","9","0","9","NA","NA","NA","9","0","0","NA","9","9","9","9","9","10","/","Tue Jun 20 13:33:03 2023","The main experiment item","yes","m21-ab-lexicalDecision.osexp","C:\Users\emoore8\Desktop\m21_vsl-main","no","mono","no","18","no","white","no","yes","1080","legacy","9","9","C:/Users/emoore8/Desktop/m21_vsl-main/subject-207.csv","xpyriment","Lentiform Loewenfeld","3.3.11","0","/","NA","NA","NA","NA","space","/","606","NA","NA","NA","NA","33908","606","2","legacy","1024","2","48000","-16","AB_m21","207","odd","FILL_W","MOURN","1685","77576","75802","72602","35606","NA","NA","NA","NA","NA","76303","NA","NA","NA","75302","NA","75275","1697","77876","NA","NA","NA","76343","1685","1685","NA","76950","76973","75275","76303","76323","morph21_Oliver/Morris","6","7757","10","yes","1920","26"
"250","54.54545454545455","54.54545454545455","765.2727272727273","765.2727272727273","black","no","xpyriment","legacy","legacy","0","208","NA","uniform","NA","NA","NA","0","undefined","0","0","10","10","10","0","10","10","10","NA","0","10","NA","NA","0","10","NA","10","0","10","NA","NA","NA","10","0","0","NA","10","10","10","10","10","11","z","Tue Jun 20 13:33:03 2023","The main experiment item","yes","m21-ab-lexicalDecision.osexp","C:\Users\emoore8\Desktop\m21_vsl-main","no","mono","no","18","no","white","no","yes","1080","legacy","10","10","C:/Users/emoore8/Desktop/m21_vsl-main/subject-207.csv","xpyriment","Lentiform Loewenfeld","3.3.11","0","/","NA","NA","NA","NA","space","/","661","NA","NA","NA","NA","33908","661","2","legacy","1024","2","48000","-16","AB_m21","207","odd","FILL_NW","POLT","1685","81209","79379","72602","35606","NA","NA","NA","NA","NA","79879","NA","NA","NA","78879","NA","78852","1697","81459","NA","NA","NA","79920","1685","1685","NA","80582","80605","78851","79879","79900","morph21_Oliver/Morris","6","8418","11","yes","1920","38"
"200","58.333333333333336","58.333333333333336","744.9166666666666","744.9166666666666","black","no","xpyriment","legacy","legacy","0","202","NA","uniform","NA","NA","NA","1","undefined","1","0","11","11","11","0","11","11","11","NA","0","11","NA","NA","0","11","NA","11","0","11","NA","NA","NA","11","0","0","NA","11","11","11","11","11","12","/","Tue Jun 20 13:33:03 2023","The main experiment item","yes","m21-ab-lexicalDecision.osexp","C:\Users\emoore8\Desktop\m21_vsl-main","no","mono","no","18","no","white","no","yes","1080","legacy","11","11","C:/Users/emoore8/Desktop/m21_vsl-main/subject-207.csv","xpyriment","Lentiform Loewenfeld","3.3.11","0","/","NA","NA","NA","NA","space","/","521","NA","NA","NA","NA","33908","521","2","legacy","1024","2","48000","-16","AB_m21","207","odd","CW_L","SHAMEFUL","1685","86154","82958","84651","35606","NA","NA","NA","NA","NA","83459","NA","NA","NA","82456","NA","82433","1697","86354","NA","NA","NA","83500","1685","1685","NA","84022","84047","82433","83459","83480","morph21_Oliver/Morris","7","8939","12","yes","1920","19"
"300","61.53846153846154","61.53846153846154","725.6153846153846","725.6153846153846","black","no","xpyriment","legacy","legacy","0","201","NA","uniform","NA","NA","NA","1","undefined","1","0","12","12","12","0","12","12","12","NA","0","12","NA","NA","0","12","NA","12","0","12","NA","NA","NA","12","0","0","NA","12","12","12","12","12","13","/","Tue Jun 20 13:33:03 2023","The main experiment item","yes","m21-ab-lexicalDecision.osexp","C:\Users\emoore8\Desktop\m21_vsl-main","no","mono","no","18","no","white","no","yes","1080","legacy","12","12","C:/Users/emoore8/Desktop/m21_vsl-main/subject-207.csv","xpyriment","Lentiform Loewenfeld","3.3.11","0","/","NA","NA","NA","NA","space","/","494","NA","NA","NA","NA","33908","494","2","legacy","1024","2","48000","-16","AB_m21","207","odd","CW_S","GUILTY","1685","89543","87884","84651","35606","NA","NA","NA","NA","NA","88384","NA","NA","NA","87383","NA","87352","1697","89843","NA","NA","NA","88424","1685","1685","NA","88918","88941","87352","88384","88404","morph21_Oliver/Morris","8","9433","13","yes","1920","34"
"200","64.28571428571429","64.28571428571429","716.9285714285714","716.9285714285714","black","no","xpyriment","legacy","legacy","0","208","NA","uniform","NA","NA","NA","1","undefined","1","0","13","13","13","0","13","13","13","NA","0","13","NA","NA","0","13","NA","13","0","13","NA","NA","NA","13","0","0","NA","13","13","13","13","13","14","z","Tue Jun 20 13:33:03 2023","The main experiment item","yes","m21-ab-lexicalDecision.osexp","C:\Users\emoore8\Desktop\m21_vsl-main","no","mono","no","18","no","white","no","yes","1080","legacy","13","13","C:/Users/emoore8/Desktop/m21_vsl-main/subject-207.csv","xpyriment","Lentiform Loewenfeld","3.3.11","0","z","NA","NA","NA","NA","space","z","604","NA","NA","NA","NA","33908","604","2","legacy","1024","2","48000","-16","AB_m21","207","odd","FILL_NW","TUEER","1685","93113","91341","84651","35606","NA","NA","NA","NA","NA","91841","NA","NA","NA","90840","NA","90814","1697","93313","NA","NA","NA","91881","1685","1685","NA","92485","92509","90814","91841","91861","morph21_Oliver/Morris","9","10037","14","yes","1920","44"
"300","66.66666666666667","66.66666666666667","714.1333333333333","714.1333333333333","black","no","xpyriment","legacy","legacy","0","205","NA","uniform","NA","NA","NA","1","undefined","1","0","14","14","14","0","14","14","14","NA","0","14","NA","NA","0","14","NA","14","0","14","NA","NA","NA","14","0","0","NA","14","14","14","14","14","15","z","Tue Jun 20 13:33:03 2023","The main experiment item","yes","m21-ab-lexicalDecision.osexp","C:\Users\emoore8\Desktop\m21_vsl-main","no","mono","no","18","no","white","no","yes","1080","legacy","14","14","C:/Users/emoore8/Desktop/m21_vsl-main/subject-207.csv","xpyriment","Lentiform Loewenfeld","3.3.11","0","z","NA","NA","NA","NA","space","z","675","NA","NA","NA","NA","33908","675","2","legacy","1024","2","48000","-16","AB_m21","207","odd","NW_S_SIMP","NEXTNELS","1685","98162","94813","96659","35606","NA","NA","NA","NA","NA","95313","NA","NA","NA","94313","NA","94285","1697","98462","NA","NA","NA","95354","1685","1685","NA","96030","96055","94285","95313","95334","morph21_Oliver/Morris","10","10712","15","yes","1920","9"
"400","68.75","68.75","703.9375","703.9375","black","no","xpyriment","legacy","legacy","0","201","NA","uniform","NA","NA","NA","1","undefined","1","0","15","15","15","0","15","15","15","NA","0","15","NA","NA","0","15","NA","15","0","15","NA","NA","NA","15","0","0","NA","15","15","15","15","15","16","/","Tue Jun 20 13:33:03 2023","The main experiment item","yes","m21-ab-lexicalDecision.osexp","C:\Users\emoore8\Desktop\m21_vsl-main","no","mono","no","18","no","white","no","yes","1080","legacy","15","15","C:/Users/emoore8/Desktop/m21_vsl-main/subject-207.csv","xpyriment","Lentiform Loewenfeld","3.3.11","0","/","NA","NA","NA","NA","space","/","551","NA","NA","NA","NA","33908","551","2","legacy","1024","2","48000","-16","AB_m21","207","odd","CW_S","WIDOWED","1685","101731","100009","96659","35606","NA","NA","NA","NA","NA","100509","NA","NA","NA","99509","NA","99483","1697","102131","NA","NA","NA","100550","1685","1685","NA","101102","101126","99483","100509","100530","morph21_Oliver/Morris","11","11263","16","yes","1920","7"
"400","64.70588235294117","64.70588235294117","689.1764705882352","689.1764705882352","black","no","xpyriment","legacy","legacy","0","207","NA","uniform","NA","NA","NA","0","undefined","0","0","16","16","16","0","16","16","16","NA","0","16","NA","NA","0","16","NA","16","0","16","NA","NA","NA","16","0","0","NA","16","16","16","16","16","17","/","Tue Jun 20 13:33:03 2023","The main experiment item","yes","m21-ab-lexicalDecision.osexp","C:\Users\emoore8\Desktop\m21_vsl-main","no","mono","no","18","no","white","no","yes","1080","legacy","16","16","C:/Users/emoore8/Desktop/m21_vsl-main/subject-207.csv","xpyriment","Lentiform Loewenfeld","3.3.11","0","z","NA","NA","NA","NA","space","z","453","NA","NA","NA","NA","33908","453","2","legacy","1024","2","48000","-16","AB_m21","207","odd","FILL_W","EAT","1685","105273","103651","96659","35606","NA","NA","NA","NA","NA","104151","NA","NA","NA","103151","NA","103126","1697","105673","NA","NA","NA","104192","1685","1685","NA","104645","104669","103126","104151","104172","morph21_Oliver/Morris","11","11716","17","yes","1920","25"
"400","61.111111111111114","61.111111111111114","689.3333333333334","689.3333333333334","black","no","xpyriment","legacy","legacy","0","207","NA","uniform","NA","NA","NA","0","undefined","0","0","17","17","17","0","17","17","17","NA","0","17","NA","NA","0","17","NA","17","0","17","NA","NA","NA","17","0","0","NA","17","17","17","17","17","18","/","Tue Jun 20 13:33:03 2023","The main experiment item","yes","m21-ab-lexicalDecision.osexp","C:\Users\emoore8\Desktop\m21_vsl-main","no","mono","no","18","no","white","no","yes","1080","legacy","17","17","C:/Users/emoore8/Desktop/m21_vsl-main/subject-207.csv","xpyriment","Lentiform Loewenfeld","3.3.11","0","z","NA","NA","NA","NA","space","z","692","NA","NA","NA","NA","33908","692","2","legacy","1024","2","48000","-16","AB_m21","207","odd","FILL_W","CEASE","1685","110531","107165","109027","35606","NA","NA","NA","NA","NA","107665","NA","NA","NA","106665","NA","106639","1697","110931","NA","NA","NA","107706","1685","1685","NA","108398","108423","106639","107665","107686","morph21_Oliver/Morris","11","12408","18","yes","1920","18"
"300","63.1578947368421","63.1578947368421","694.4736842105264","694.4736842105264","black","no","xpyriment","legacy","legacy","0","208","NA","uniform","NA","NA","NA","1","undefined","1","0","18","18","18","0","18","18","18","NA","0","18","NA","NA","0","18","NA","18","0","18","NA","NA","NA","18","0","0","NA","18","18","18","18","18","19","z","Tue Jun 20 13:33:03 2023","The main experiment item","yes","m21-ab-lexicalDecision.osexp","C:\Users\emoore8\Desktop\m21_vsl-main","no","mono","no","18","no","white","no","yes","1080","legacy","18","18","C:/Users/emoore8/Desktop/m21_vsl-main/subject-207.csv","xpyriment","Lentiform Loewenfeld","3.3.11","0","z","NA","NA","NA","NA","space","z","787","NA","NA","NA","NA","33908","787","2","legacy","1024","2","48000","-16","AB_m21","207","odd","FILL_NW","BAFED","1685","114402","112445","109027","35606","NA","NA","NA","NA","NA","112945","NA","NA","NA","111944","NA","111917","1697","114702","NA","NA","NA","112986","1685","1685","NA","113773","113799","111916","112945","112966","morph21_Oliver/Morris","12","13195","19","yes","1920","1"
"300","65","65","682.45","682.45","black","no","xpyriment","legacy","legacy","0","207","NA","uniform","NA","NA","NA","1","undefined","1","0","19","19","19","0","19","19","19","NA","0","19","NA","NA","0","19","NA","19","0","19","NA","NA","NA","19","0","0","NA","19","19","19","19","19","20","/","Tue Jun 20 13:33:03 2023","The main experiment item","yes","m21-ab-lexicalDecision.osexp","C:\Users\emoore8\Desktop\m21_vsl-main","no","mono","no","18","no","white","no","yes","1080","legacy","19","19","C:/Users/emoore8/Desktop/m21_vsl-main/subject-207.csv","xpyriment","Lentiform Loewenfeld","3.3.11","0","/","NA","NA","NA","NA","space","/","454","NA","NA","NA","NA","33908","454","2","legacy","1024","2","48000","-16","AB_m21","207","odd","FILL_W","IRON","1685","117857","116234","109027","35606","NA","NA","NA","NA","NA","116735","NA","NA","NA","115733","NA","115708","1697","118157","NA","NA","NA","116775","1685","1685","NA","117230","117253","115708","116735","116755","morph21_Oliver/Morris","13","13649","20","yes","1920","33"
"400","66.66666666666667","66.66666666666667","671.8095238095239","671.8095238095239","black","no","xpyriment","legacy","legacy","0","202","NA","uniform","NA","NA","NA","1","undefined","1","0","20","20","20","0","20","20","20","NA","0","20","NA","NA","0","20","NA","20","0","20","NA","NA","NA","20","0","0","NA","20","20","20","20","20","21","/","Tue Jun 20 13:33:03 2023","The main experiment item","yes","m21-ab-lexicalDecision.osexp","C:\Users\emoore8\Desktop\m21_vsl-main","no","mono","no","18","no","white","no","yes","1080","legacy","20","20","C:/Users/emoore8/Desktop/m21_vsl-main/subject-207.csv","xpyriment","Lentiform Loewenfeld","3.3.11","0","/","NA","NA","NA","NA","space","/","459","NA","NA","NA","NA","33908","459","2","legacy","1024","2","48000","-16","AB_m21","207","odd","CW_L","DRYNESS","1685","122784","119654","121281","35606","NA","NA","NA","NA","NA","120155","NA","NA","NA","119154","NA","119131","1697","123184","NA","NA","NA","120195","1685","1685","NA","120655","120678","119131","120155","120175","morph21_Oliver/Morris","14","14108","21","yes","1920","42"
"200","68.18181818181819","68.18181818181819","670.5909090909091","670.5909090909091","black","no","xpyriment","legacy","legacy","0","205","NA","uniform","NA","NA","NA","1","undefined","1","0","21","21","21","0","21","21","21","NA","0","21","NA","NA","0","21","NA","21","0","21","NA","NA","NA","21","0","0","NA","21","21","21","21","21","22","z","Tue Jun 20 13:33:03 2023","The main experiment item","yes","m21-ab-lexicalDecision.osexp","C:\Users\emoore8\Desktop\m21_vsl-main","no","mono","no","18","no","white","no","yes","1080","legacy","21","21","C:/Users/emoore8/Desktop/m21_vsl-main/subject-207.csv","xpyriment","Lentiform Loewenfeld","3.3.11","0","z","NA","NA","NA","NA","space","z","645","NA","NA","NA","NA","33908","645","2","legacy","1024","2","48000","-16","AB_m21","207","odd","NW_S_SIMP","JAWLA","1685","126513","124699","121281","35606","NA","NA","NA","NA","NA","125200","NA","NA","NA","124199","NA","124172","1697","126713","NA","NA","NA","125241","1685","1685","NA","125886","125910","124172","125200","125221","morph21_Oliver/Morris","15","14753","22","yes","1920","7"
"350","69.56521739130434","69.56521739130434","669.7391304347826","669.7391304347826","black","no","xpyriment","legacy","legacy","0","203","NA","uniform","NA","NA","NA","1","undefined","1","0","22","22","22","0","22","22","22","NA","0","22","NA","NA","0","22","NA","22","0","22","NA","NA","NA","22","0","0","NA","22","22","22","22","22","23","z","Tue Jun 20 13:33:03 2023","The main experiment item","yes","m21-ab-lexicalDecision.osexp","C:\Users\emoore8\Desktop\m21_vsl-main","no","mono","no","18","no","white","no","yes","1080","legacy","22","22","C:/Users/emoore8/Desktop/m21_vsl-main/subject-207.csv","xpyriment","Lentiform Loewenfeld","3.3.11","0","z","NA","NA","NA","NA","space","z","651","NA","NA","NA","NA","33908","651","2","legacy","1024","2","48000","-16","AB_m21","207","odd","NW_S_COMP","DEBTISH","1685","130032","128214","121281","35606","NA","NA","NA","NA","NA","128714","NA","NA","NA","127714","NA","127687","1697","130382","NA","NA","NA","128754","1685","1685","NA","129406","129429","127687","128714","128734","morph21_Oliver/Morris","16","15404","23","yes","1920","22"
"250","70.83333333333333","70.83333333333333","669.3333333333334","669.3333333333334","black","no","xpyriment","legacy","legacy","0","202","NA","uniform","NA","NA","NA","1","undefined","1","0","23","23","23","0","23","23","23","NA","0","23","NA","NA","0","23","NA","23","0","23","NA","NA","NA","23","0","0","NA","23","23","23","23","23","24","/","Tue Jun 20 13:33:03 2023","The main experiment item","yes","m21-ab-lexicalDecision.osexp","C:\Users\emoore8\Desktop\m21_vsl-main","no","mono","no","18","no","white","no","yes","1080","legacy","23","23","C:/Users/emoore8/Desktop/m21_vsl-main/subject-207.csv","xpyriment","Lentiform Loewenfeld","3.3.11","0","/","NA","NA","NA","NA","space","/","660","NA","NA","NA","NA","33908","660","2","legacy","1024","2","48000","-16","AB_m21","207","odd","CW_L","DANCER","1685","135242","131909","133739","35606","NA","NA","NA","NA","NA","132410","NA","NA","NA","131409","NA","131381","1697","135493","NA","NA","NA","132450","1685","1685","NA","133110","133135","131381","132409","132430","morph21_Oliver/Morris","17","16064","24","yes","1920","11"
"300","72","72","660.28","660.28","black","no","xpyriment","legacy","legacy","0","201","NA","uniform","NA","NA","NA","1","undefined","1","0","24","24","24","0","24","24","24","NA","0","24","NA","NA","0","24","NA","24","0","24","NA","NA","NA","24","0","0","NA","24","24","24","24","24","25","/","Tue Jun 20 13:33:03 2023","The main experiment item","yes","m21-ab-lexicalDecision.osexp","C:\Users\emoore8\Desktop\m21_vsl-main","no","mono","no","18","no","white","no","yes","1080","legacy","24","24","C:/Users/emoore8/Desktop/m21_vsl-main/subject-207.csv","xpyriment","Lentiform Loewenfeld","3.3.11","0","/","NA","NA","NA","NA","space","/","443","NA","NA","NA","NA","33908","443","2","legacy","1024","2","48000","-16","AB_m21","207","odd","CW_S","BUYER","1685","138602","136989","133739","35606","NA","NA","NA","NA","NA","137490","NA","NA","NA","136488","NA","136465","1697","138902","NA","NA","NA","137530","1685","1685","NA","137973","137998","136465","137489","137510","morph21_Oliver/Morris","18","16507","25","yes","1920","21"
"200","69.23076923076923","69.23076923076923","654.2307692307693","654.2307692307693","black","no","xpyriment","legacy","legacy","0","203","NA","uniform","NA","NA","NA","0","undefined","0","0","25","25","25","0","25","25","25","NA","0","25","NA","NA","0","25","NA","25","0","25","NA","NA","NA","25","0","0","NA","25","25","25","25","25","26","z","Tue Jun 20 13:33:03 2023","The main experiment item","yes","m21-ab-lexicalDecision.osexp","C:\Users\emoore8\Desktop\m21_vsl-main","no","mono","no","18","no","white","no","yes","1080","legacy","25","25","C:/Users/emoore8/Desktop/m21_vsl-main/subject-207.csv","xpyriment","Lentiform Loewenfeld","3.3.11","0","/","NA","NA","NA","NA","space","/","503","NA","NA","NA","NA","33908","503","2","legacy","1024","2","48000","-16","AB_m21","207","odd","NW_S_COMP","HAPPENANCE","1685","142074","140402","133739","35606","NA","NA","NA","NA","NA","140902","NA","NA","NA","139901","NA","139874","1697","142274","NA","NA","NA","140942","1685","1685","NA","141446","141469","139874","140902","140922","morph21_Oliver/Morris","18","17010","26","yes","1920","2"
"250","70.37037037037037","70.37037037037037","647.6666666666666","647.6666666666666","black","no","xpyriment","legacy","legacy","0","207","NA","uniform","NA","NA","NA","1","undefined","1","0","26","26","26","0","26","26","26","NA","0","26","NA","NA","0","26","NA","26","0","26","NA","NA","NA","26","0","0","NA","26","26","26","26","26","27","/","Tue Jun 20 13:33:03 2023","The main experiment item","yes","m21-ab-lexicalDecision.osexp","C:\Users\emoore8\Desktop\m21_vsl-main","no","mono","no","18","no","white","no","yes","1080","legacy","26","26","C:/Users/emoore8/Desktop/m21_vsl-main/subject-207.csv","xpyriment","Lentiform Loewenfeld","3.3.11","0","/","NA","NA","NA","NA","space","/","477","NA","NA","NA","NA","33908","477","2","legacy","1024","2","48000","-16","AB_m21","207","odd","FILL_W","SUIT","1685","146919","143770","145416","35606","NA","NA","NA","NA","NA","144270","NA","NA","NA","143269","NA","143243","1697","147169","NA","NA","NA","144312","1685","1685","NA","144790","144813","143243","144270","144291","morph21_Oliver/Morris","19","17487","27","yes","1920","49"
"200","71.42857142857143","71.42857142857143","645.7857142857143","645.7857142857143","black","no","xpyriment","legacy","legacy","0","208","NA","uniform","NA","NA","NA","1","undefined","1","0","27","27","27","0","27","27","27","NA","0","27","NA","NA","0","27","NA","27","0","27","NA","NA","NA","27","0","0","NA","27","27","27","27","27","28","z","Tue Jun 20 13:33:03 2023","The main experiment item","yes","m21-ab-lexicalDecision.osexp","C:\Users\emoore8\Desktop\m21_vsl-main","no","mono","no","18","no","white","no","yes","1080","legacy","27","27","C:/Users/emoore8/Desktop/m21_vsl-main/subject-207.csv","xpyriment","Lentiform Loewenfeld","3.3.11","0","z","NA","NA","NA","NA","space","z","595","NA","NA","NA","NA","33908","595","2","legacy","1024","2","48000","-16","AB_m21","207","odd","FILL_NW","VUNKS","1685","150434","148669","145416","35606","NA","NA","NA","NA","NA","149169","NA","NA","NA","148169","NA","148141","1697","150634","NA","NA","NA","149210","1685","1685","NA","149805","149831","148141","149169","149190","morph21_Oliver/Morris","20","18082","28","yes","1920","49"
"350","72.41379310344827","72.41379310344827","647.2068965517242","647.2068965517242","black","no","xpyriment","legacy","legacy","0","208","NA","uniform","NA","NA","NA","1","undefined","1","0","28","28","28","0","28","28","28","NA","0","28","NA","NA","0","28","NA","28","0","28","NA","NA","NA","28","0","0","NA","28","28","28","28","28","29","z","Tue Jun 20 13:33:03 2023","The main experiment item","yes","m21-ab-lexicalDecision.osexp","C:\Users\emoore8\Desktop\m21_vsl-main","no","mono","no","18","no","white","no","yes","1080","legacy","28","28","C:/Users/emoore8/Desktop/m21_vsl-main/subject-207.csv","xpyriment","Lentiform Loewenfeld","3.3.11","0","z","NA","NA","NA","NA","space","z","687","NA","NA","NA","NA","33908","687","2","legacy","1024","2","48000","-16","AB_m21","207","odd","FILL_NW","KRAISE","1685","154037","152177","145416","35606","NA","NA","NA","NA","NA","152677","NA","NA","NA","151676","NA","151649","1697","154387","NA","NA","NA","152718","1685","1685","NA","153406","153433","151649","152677","152698","morph21_Oliver/Morris","21","18769","29","yes","1920","33"
"300","73.33333333333333","73.33333333333333","646.8666666666667","646.8666666666667","black","no","xpyriment","legacy","legacy","0","208","NA","uniform","NA","NA","NA","1","undefined","1","0","29","29","29","0","29","29","29","NA","0","29","NA","NA","0","29","NA","29","0","29","NA","NA","NA","29","0","0","NA","29","29","29","29","29","30","z","Tue Jun 20 13:33:03 2023","The main experiment item","yes","m21-ab-lexicalDecision.osexp","C:\Users\emoore8\Desktop\m21_vsl-main","no","mono","no","18","no","white","no","yes","1080","legacy","29","29","C:/Users/emoore8/Desktop/m21_vsl-main/subject-207.csv","xpyriment","Lentiform Loewenfeld","3.3.11","0","z","NA","NA","NA","NA","space","z","637","NA","NA","NA","NA","33908","637","2","legacy","1024","2","48000","-16","AB_m21","207","odd","FILL_NW","HEEM","1685","159194","155884","157689","35606","NA","NA","NA","NA","NA","156384","NA","NA","NA","155384","NA","155359","1697","159494","NA","NA","NA","156424","1685","1685","NA","157062","157085","155359","156384","156404","morph21_Oliver/Morris","22","19406","30","yes","1920","27"
"200","74.19354838709677","74.19354838709677","642.6451612903226","642.6451612903226","black","no","xpyriment","legacy","legacy","0","207","NA","uniform","NA","NA","NA","1","undefined","1","0","30","30","30","0","30","30","30","NA","0","30","NA","NA","0","30","NA","30","0","30","NA","NA","NA","30","0","0","NA","30","30","30","30","30","31","/","Tue Jun 20 13:33:03 2023","The main experiment item","yes","m21-ab-lexicalDecision.osexp","C:\Users\emoore8\Desktop\m21_vsl-main","no","mono","no","18","no","white","no","yes","1080","legacy","30","30","C:/Users/emoore8/Desktop/m21_vsl-main/subject-207.csv","xpyriment","Lentiform Loewenfeld","3.3.11","0","/","NA","NA","NA","NA","space","/","516","NA","NA","NA","NA","33908","516","2","legacy","1024","2","48000","-16","AB_m21","207","odd","FILL_W","BRASS","1685","162721","161035","157689","35606","NA","NA","NA","NA","NA","161535","NA","NA","NA","160534","NA","160508","1697","162922","NA","NA","NA","161577","1685","1685","NA","162094","162117","160508","161535","161556","morph21_Oliver/Morris","23","19922","31","yes","1920","10"
"350","75","75","637.9375","637.9375","black","no","xpyriment","legacy","legacy","0","202","NA","uniform","NA","NA","NA","1","undefined","1","0","31","31","31","0","31","31","31","NA","0","31","NA","NA","0","31","NA","31","0","31","NA","NA","NA","31","0","0","NA","31","31","31","31","31","32","/","Tue Jun 20 13:33:03 2023","The main experiment item","yes","m21-ab-lexicalDecision.osexp","C:\Users\emoore8\Desktop\m21_vsl-main","no","mono","no","18","no","white","no","yes","1080","legacy","31","31","C:/Users/emoore8/Desktop/m21_vsl-main/subject-207.csv","xpyriment","Lentiform Loewenfeld","3.3.11","0","/","NA","NA","NA","NA","space","/","492","NA","NA","NA","NA","33908","492","2","legacy","1024","2","48000","-16","AB_m21","207","odd","CW_L","PUNCHER","1685","166080","164419","157689","35606","NA","NA","NA","NA","NA","164920","NA","NA","NA","163917","NA","163895","1697","166430","NA","NA","NA","164961","1685","1685","NA","165454","165477","163895","164920","164941","morph21_Oliver/Morris","24","20414","32","yes","1920","1"
"400","75.75757575757575","75.75757575757575","632.8484848484849","632.8484848484849","black","no","xpyriment","legacy","legacy","0","202","NA","uniform","NA","NA","NA","1","undefined","1","0","32","32","32","0","32","32","32","NA","0","32","NA","NA","0","32","NA","32","0","32","NA","NA","NA","32","0","0","NA","32","32","32","32","32","33","/","Tue Jun 20 13:33:03 2023","The main experiment item","yes","m21-ab-lexicalDecision.osexp","C:\Users\emoore8\Desktop\m21_vsl-main","no","mono","no","18","no","white","no","yes","1080","legacy","32","32","C:/Users/emoore8/Desktop/m21_vsl-main/subject-207.csv","xpyriment","Lentiform Loewenfeld","3.3.11","0","/","NA","NA","NA","NA","space","/","470","NA","NA","NA","NA","33908","470","2","legacy","1024","2","48000","-16","AB_m21","207","odd","CW_L","FAITHFUL","1685","171080","167939","169577","35606","NA","NA","NA","NA","NA","168439","NA","NA","NA","167439","NA","167412","1697","171480","NA","NA","NA","168480","1685","1685","NA","168950","168974","167412","168439","168460","morph21_Oliver/Morris","25","20884","33","yes","1920","20"
"250","76.47058823529412","76.47058823529412","633.6470588235294","633.6470588235294","black","no","xpyriment","legacy","legacy","0","203","NA","uniform","NA","NA","NA","1","undefined","1","0","33","33","33","0","33","33","33","NA","0","33","NA","NA","0","33","NA","33","0","33","NA","NA","NA","33","0","0","NA","33","33","33","33","33","34","z","Tue Jun 20 13:33:03 2023","The main experiment item","yes","m21-ab-lexicalDecision.osexp","C:\Users\emoore8\Desktop\m21_vsl-main","no","mono","no","18","no","white","no","yes","1080","legacy","33","33","C:/Users/emoore8/Desktop/m21_vsl-main/subject-207.csv","xpyriment","Lentiform Loewenfeld","3.3.11","0","z","NA","NA","NA","NA","space","z","660","NA","NA","NA","NA","33908","660","2","legacy","1024","2","48000","-16","AB_m21","207","odd","NW_S_COMP","LIDARY","1685","174808","172981","169577","35606","NA","NA","NA","NA","NA","173481","NA","NA","NA","172481","NA","172453","1697","175058","NA","NA","NA","173521","1685","1685","NA","174182","174205","172453","173481","173501","morph21_Oliver/Morris","26","21544","34","yes","1920","3"
"200","77.14285714285714","77.14285714285714","634.4285714285714","634.4285714285714","black","no","xpyriment","legacy","legacy","0","208","NA","uniform","NA","NA","NA","1","undefined","1","0","34","34","34","0","34","34","34","NA","0","34","NA","NA","0","34","NA","34","0","34","NA","NA","NA","34","0","0","NA","34","34","34","34","34","35","z","Tue Jun 20 13:33:03 2023","The main experiment item","yes","m21-ab-lexicalDecision.osexp","C:\Users\emoore8\Desktop\m21_vsl-main","no","mono","no","18","no","white","no","yes","1080","legacy","34","34","C:/Users/emoore8/Desktop/m21_vsl-main/subject-207.csv","xpyriment","Lentiform Loewenfeld","3.3.11","0","z","NA","NA","NA","NA","space","z","661","NA","NA","NA","NA","33908","661","2","legacy","1024","2","48000","-16","AB_m21","207","odd","FILL_NW","BLAYS","1685","178403","176571","169577","35606","NA","NA","NA","NA","NA","177071","NA","NA","NA","176070","NA","176043","1697","178603","NA","NA","NA","177113","1685","1685","NA","177774","177799","176043","177071","177093","morph21_Oliver/Morris","27","22205","35","yes","1920","8"
"400","77.77777777777777","77.77777777777777","630.9166666666666","630.9166666666666","black","no","xpyriment","legacy","legacy","0","205","NA","uniform","NA","NA","NA","1","undefined","1","0","35","35","35","0","35","35","35","NA","0","35","NA","NA","0","35","NA","35","0","35","NA","NA","NA","35","0","0","NA","35","35","35","35","35","36","z","Tue Jun 20 13:33:03 2023","The main experiment item","yes","m21-ab-lexicalDecision.osexp","C:\Users\emoore8\Desktop\m21_vsl-main","no","mono","no","18","no","white","no","yes","1080","legacy","35","35","C:/Users/emoore8/Desktop/m21_vsl-main/subject-207.csv","xpyriment","Lentiform Loewenfeld","3.3.11","0","z","NA","NA","NA","NA","space","z","508","NA","NA","NA","NA","33908","508","2","legacy","1024","2","48000","-16","AB_m21","207","odd","NW_S_SIMP","AIDIG","1685","183299","180118","181796","35606","NA","NA","NA","NA","NA","180618","NA","NA","NA","179617","NA","179591","1697","183699","NA","NA","NA","180658","1685","1685","NA","181166","181192","179591","180618","180638","morph21_Oliver/Morris","28","22713","36","yes","1920","4"
"250","78.37837837837837","78.37837837837837","627.3513513513514","627.3513513513514","black","no","xpyriment","legacy","legacy","0","201","NA","uniform","NA","NA","NA","1","undefined","1","0","36","36","36","0","36","36","36","NA","0","36","NA","NA","0","36","NA","36","0","36","NA","NA","NA","36","0","0","NA","36","36","36","36","36","37","/","Tue Jun 20 13:33:03 2023","The main experiment item","yes","m21-ab-lexicalDecision.osexp","C:\Users\emoore8\Desktop\m21_vsl-main","no","mono","no","18","no","white","no","yes","1080","legacy","36","36","C:/Users/emoore8/Desktop/m21_vsl-main/subject-207.csv","xpyriment","Lentiform Loewenfeld","3.3.11","0","/","NA","NA","NA","NA","space","/","499","NA","NA","NA","NA","33908","499","2","legacy","1024","2","48000","-16","AB_m21","207","odd","CW_S","PLANNER","1685","186882","185214","181796","35606","NA","NA","NA","NA","NA","185714","NA","NA","NA","184713","NA","184687","1697","187132","NA","NA","NA","185755","1685","1685","NA","186254","186278","184687","185714","185735","morph21_Oliver/Morris","29","23212","37","yes","1920","22"
"250","78.94736842105263","78.94736842105263","622.6578947368421","622.6578947368421","black","no","xpyriment","legacy","legacy","0","207","NA","uniform","NA","NA","NA","1","undefined","1","0","37","37","37","0","37","37","37","NA","0","37","NA","NA","0","37","NA","37","0","37","NA","NA","NA","37","0","0","NA","37","37","37","37","37","38","/","Tue Jun 20 13:33:03 2023","The main experiment item","yes","m21-ab-lexicalDecision.osexp","C:\Users\emoore8\Desktop\m21_vsl-main","no","mono","no","18","no","white","no","yes","1080","legacy","37","37","C:/Users/emoore8/Desktop/m21_vsl-main/subject-207.csv","xpyriment","Lentiform Loewenfeld","3.3.11","0","/","NA","NA","NA","NA","space","/","449","NA","NA","NA","NA","33908","449","2","legacy","1024","2","48000","-16","AB_m21","207","odd","FILL_W","COOK","1685","190259","188640","181796","35606","NA","NA","NA","NA","NA","189140","NA","NA","NA","188140","NA","188113","1697","190509","NA","NA","NA","189180","1685","1685","NA","189630","189654","188113","189140","189160","morph21_Oliver/Morris","30","23661","38","yes","1920","38"
"400","79.48717948717949","79.48717948717949","619.5641025641025","619.5641025641025","black","no","xpyriment","legacy","legacy","0","207","NA","uniform","NA","NA","NA","1","undefined","1","0","38","38","38","0","38","38","38","NA","0","38","NA","NA","0","38","NA","38","0","38","NA","NA","NA","38","0","0","NA","38","38","38","38","38","39","/","Tue Jun 20 13:33:03 2023","The main experiment item","yes","m21-ab-lexicalDecision.osexp","C:\Users\emoore8\Desktop\m21_vsl-main","no","mono","no","18","no","white","no","yes","1080","legacy","38","38","C:/Users/emoore8/Desktop/m21_vsl-main/subject-207.csv","xpyriment","Lentiform Loewenfeld","3.3.11","0","/","NA","NA","NA","NA","space","/","502","NA","NA","NA","NA","33908","502","2","legacy","1024","2","48000","-16","AB_m21","207","odd","FILL_W","CHIP","1685","195177","192004","193673","35606","NA","NA","NA","NA","NA","192504","NA","NA","NA","191504","NA","191478","1697","195577","NA","NA","NA","192544","1685","1685","NA","193046","193070","191478","192504","192524","morph21_Oliver/Morris","31","24163","39","yes","1920","11"
"400","80","80","620.85","620.85","black","no","xpyriment","legacy","legacy","0","206","NA","uniform","NA","NA","NA","1","undefined","1","0","39","39","39","0","39","39","39","NA","0","39","NA","NA","0","39","NA","39","0","39","NA","NA","NA","39","0","0","NA","39","39","39","39","39","40","z","Tue Jun 20 13:33:03 2023","The main experiment item","yes","m21-ab-lexicalDecision.osexp","C:\Users\emoore8\Desktop\m21_vsl-main","no","mono","no","18","no","white","no","yes","1080","legacy","39","39","C:/Users/emoore8/Desktop/m21_vsl-main/subject-207.csv","xpyriment","Lentiform Loewenfeld","3.3.11","0","z","NA","NA","NA","NA","space","z","671","NA","NA","NA","NA","33908","671","2","legacy","1024","2","48000","-16","AB_m21","207","odd","NW_L_SIMP","BLOODEL","1685","198930","197089","193673","35606","NA","NA","NA","NA","NA","197590","NA","NA","NA","196587","NA","196560","1697","199330","NA","NA","NA","197631","1685","1685","NA","198302","198327","196559","197590","197611","morph21_Oliver/Morris","32","24834","40","yes","1920","24"
"200","80.48780487804878","80.48780487804878","621.0975609756098","621.0975609756098","black","no","xpyriment","legacy","legacy","0","208","NA","uniform","NA","NA","NA","1","undefined","1","0","40","40","40","0","40","40","40","NA","0","40","NA","NA","0","40","NA","40","0","40","NA","NA","NA","40","0","0","NA","40","40","40","40","40","41","z","Tue Jun 20 13:33:03 2023","The main experiment item","yes","m21-ab-lexicalDecision.osexp","C:\Users\emoore8\Desktop\m21_vsl-main","no","mono","no","18","no","white","no","yes","1080","legacy","40","40","C:/Users/emoore8/Desktop/m21_vsl-main/subject-207.csv","xpyriment","Lentiform Loewenfeld","3.3.11","0","z","NA","NA","NA","NA","space","z","631","NA","NA","NA","NA","33908","631","2","legacy","1024","2","48000","-16","AB_m21","207","odd","FILL_NW","PUCTS","1685","202632","200833","193673","35606","NA","NA","NA","NA","NA","201334","NA","NA","NA","200332","NA","200305","1697","202832","NA","NA","NA","201375","1685","1685","NA","202006","202029","200305","201334","201354","morph21_Oliver/Morris","33","25465","41","yes","1920","40"
"400","80.95238095238095","80.95238095238095","619.1666666666666","619.1666666666666","black","no","xpyriment","legacy","legacy","0","203","NA","uniform","NA","NA","NA","1","undefined","1","0","41","41","41","0","41","41","41","NA","0","41","NA","NA","0","41","NA","41","0","41","NA","NA","NA","41","0","0","NA","41","41","41","41","41","42","z","Tue Jun 20 13:33:03 2023","The main experiment item","yes","m21-ab-lexicalDecision.osexp","C:\Users\emoore8\Desktop\m21_vsl-main","no","mono","no","18","no","white","no","yes","1080","legacy","41","41","C:/Users/emoore8/Desktop/m21_vsl-main/subject-207.csv","xpyriment","Lentiform Loewenfeld","3.3.11","0","z","NA","NA","NA","NA","space","z","540","NA","NA","NA","NA","33908","540","2","legacy","1024","2","48000","-16","AB_m21","207","odd","NW_S_COMP","ALTARIC","1685","207571","204355","206068","35606","NA","NA","NA","NA","NA","204857","NA","NA","NA","203855","NA","203831","1697","207971","NA","NA","NA","204897","1685","1685","NA","205438","205464","203831","204856","204877","morph21_Oliver/Morris","34","26005","42","yes","1920","7"
"250","81.3953488372093","81.3953488372093","617.1627906976744","617.1627906976744","black","no","xpyriment","legacy","legacy","0","202","NA","uniform","NA","NA","NA","1","undefined","1","0","42","42","42","0","42","42","42","NA","0","42","NA","NA","0","42","NA","42","0","42","NA","NA","NA","42","0","0","NA","42","42","42","42","42","43","/","Tue Jun 20 13:33:03 2023","The main experiment item","yes","m21-ab-lexicalDecision.osexp","C:\Users\emoore8\Desktop\m21_vsl-main","no","mono","no","18","no","white","no","yes","1080","legacy","42","42","C:/Users/emoore8/Desktop/m21_vsl-main/subject-207.csv","xpyriment","Lentiform Loewenfeld","3.3.11","0","/","NA","NA","NA","NA","space","/","533","NA","NA","NA","NA","33908","533","2","legacy","1024","2","48000","-16","AB_m21","207","odd","CW_L","EXCITEMENT","1685","211185","209483","206068","35606","NA","NA","NA","NA","NA","209984","NA","NA","NA","208983","NA","208954","1697","211435","NA","NA","NA","210024","1685","1685","NA","210558","210582","208954","209984","210004","morph21_Oliver/Morris","35","26538","43","yes","1920","38"
"250","81.81818181818181","81.81818181818181","613","613","black","no","xpyriment","legacy","legacy","0","207","NA","uniform","NA","NA","NA","1","undefined","1","0","43","43","43","0","43","43","43","NA","0","43","NA","NA","0","43","NA","43","0","43","NA","NA","NA","43","0","0","NA","43","43","43","43","43","44","/","Tue Jun 20 13:33:03 2023","The main experiment item","yes","m21-ab-lexicalDecision.osexp","C:\Users\emoore8\Desktop\m21_vsl-main","no","mono","no","18","no","white","no","yes","1080","legacy","43","43","C:/Users/emoore8/Desktop/m21_vsl-main/subject-207.csv","xpyriment","Lentiform Loewenfeld","3.3.11","0","/","NA","NA","NA","NA","space","/","434","NA","NA","NA","NA","33908","434","2","legacy","1024","2","48000","-16","AB_m21","207","odd","FILL_W","SOFT","1685","214538","212934","206068","35606","NA","NA","NA","NA","NA","213434","NA","NA","NA","212434","NA","212409","1697","214788","NA","NA","NA","213475","1685","1685","NA","213910","213935","212409","213434","213455","morph21_Oliver/Morris","36","26972","44","yes","1920","43"
"300","80","80","608.0888888888888","608.0888888888888","black","no","xpyriment","legacy","legacy","0","208","NA","uniform","NA","NA","NA","0","undefined","0","0","44","44","44","0","44","44","44","NA","0","44","NA","NA","0","44","NA","44","0","44","NA","NA","NA","44","0","0","NA","44","44","44","44","44","45","z","Tue Jun 20 13:33:03 2023","The main experiment item","yes","m21-ab-lexicalDecision.osexp","C:\Users\emoore8\Desktop\m21_vsl-main","no","mono","no","18","no","white","no","yes","1080","legacy","44","44","C:/Users/emoore8/Desktop/m21_vsl-main/subject-207.csv","xpyriment","Lentiform Loewenfeld","3.3.11","0","/","NA","NA","NA","NA","space","/","392","NA","NA","NA","NA","33908","392","2","legacy","1024","2","48000","-16","AB_m21","207","odd","FILL_NW","DASK","1685","219343","216281","217840","35606","NA","NA","NA","NA","NA","216781","NA","NA","NA","215781","NA","215752","1697","219643","NA","NA","NA","216821","1685","1685","NA","217214","217237","215752","216781","216801","morph21_Oliver/Morris","36","27364","45","yes","1920","12"
"350","78.26086956521739","78.26086956521739","606.304347826087","606.304347826087","black","no","xpyriment","legacy","legacy","0","203","NA","uniform","NA","NA","NA","0","undefined","0","0","45","45","45","0","45","45","45","NA","0","45","NA","NA","0","45","NA","45","0","45","NA","NA","NA","45","0","0","NA","45","45","45","45","45","46","z","Tue Jun 20 13:33:03 2023","The main experiment item","yes","m21-ab-lexicalDecision.osexp","C:\Users\emoore8\Desktop\m21_vsl-main","no","mono","no","18","no","white","no","yes","1080","legacy","45","45","C:/Users/emoore8/Desktop/m21_vsl-main/subject-207.csv","xpyriment","Lentiform Loewenfeld","3.3.11","0","/","NA","NA","NA","NA","space","/","526","NA","NA","NA","NA","33908","526","2","legacy","1024","2","48000","-16","AB_m21","207","odd","NW_S_COMP","HUMIDOUS","1685","222847","221154","217840","35606","NA","NA","NA","NA","NA","221654","NA","NA","NA","220653","NA","220627","1697","223197","NA","NA","NA","221695","1685","1685","NA","222222","222245","220627","221654","221675","morph21_Oliver/Morris","36","27890","46","yes","1920","25"
"200","78.72340425531915","78.72340425531915","607.0851063829788","607.0851063829788","black","no","xpyriment","legacy","legacy","0","201","NA","uniform","NA","NA","NA","1","undefined","1","0","46","46","46","0","46","46","46","NA","0","46","NA","NA","0","46","NA","46","0","46","NA","NA","NA","46","0","0","NA","46","46","46","46","46","47","/","Tue Jun 20 13:33:03 2023","The main experiment item","yes","m21-ab-lexicalDecision.osexp","C:\Users\emoore8\Desktop\m21_vsl-main","no","mono","no","18","no","white","no","yes","1080","legacy","46","46","C:/Users/emoore8/Desktop/m21_vsl-main/subject-207.csv","xpyriment","Lentiform Loewenfeld","3.3.11","0","/","NA","NA","NA","NA","space","/","643","NA","NA","NA","NA","33908","643","2","legacy","1024","2","48000","-16","AB_m21","207","odd","CW_S","ANGELIC","1685","226536","224724","217840","35606","NA","NA","NA","NA","NA","225225","NA","NA","NA","224223","NA","224199","1697","226736","NA","NA","NA","225266","1685","1685","NA","225909","225933","224199","225225","225246","morph21_Oliver/Morris","37","28533","47","yes","1920","25"
"400","79.16666666666667","79.16666666666667","606.5416666666666","606.5416666666666","black","no","xpyriment","legacy","legacy","0","202","NA","uniform","NA","NA","NA","1","undefined","1","0","47","47","47","0","47","47","47","NA","0","47","NA","NA","0","47","NA","47","0","47","NA","NA","NA","47","0","0","NA","47","47","47","47","47","48","/","Tue Jun 20 13:33:03 2023","The main experiment item","yes","m21-ab-lexicalDecision.osexp","C:\Users\emoore8\Desktop\m21_vsl-main","no","mono","no","18","no","white","no","yes","1080","legacy","47","47","C:/Users/emoore8/Desktop/m21_vsl-main/subject-207.csv","xpyriment","Lentiform Loewenfeld","3.3.11","0","/","NA","NA","NA","NA","space","/","581","NA","NA","NA","NA","33908","581","2","legacy","1024","2","48000","-16","AB_m21","207","odd","CW_L","CONDUCTOR","1685","231504","228252","230001","35606","NA","NA","NA","NA","NA","228752","NA","NA","NA","227752","NA","227727","1697","231904","NA","NA","NA","228793","1685","1685","NA","229374","229398","227727","228752","228773","morph21_Oliver/Morris","38","29114","48","yes","1920","44"
"200","79.59183673469387","79.59183673469387","609.0612244897959","609.0612244897959","black","no","xpyriment","legacy","legacy","0","203","NA","uniform","NA","NA","NA","1","undefined","1","0","48","48","48","0","48","48","48","NA","0","48","NA","NA","0","48","NA","48","0","48","NA","NA","NA","48","0","0","NA","48","48","48","48","48","49","z","Tue Jun 20 13:33:03 2023","The main experiment item","yes","m21-ab-lexicalDecision.osexp","C:\Users\emoore8\Desktop\m21_vsl-main","no","mono","no","18","no","white","no","yes","1080","legacy","48","48","C:/Users/emoore8/Desktop/m21_vsl-main/subject-207.csv","xpyriment","Lentiform Loewenfeld","3.3.11","0","z","NA","NA","NA","NA","space","z","730","NA","NA","NA","NA","33908","730","2","legacy","1024","2","48000","-16","AB_m21","207","odd","NW_S_COMP","YANKORY","1685","235313","233415","230001","35606","NA","NA","NA","NA","NA","233915","NA","NA","NA","232915","NA","232891","1697","235513","NA","NA","NA","233955","1685","1685","NA","234686","234710","232891","233915","233935","morph21_Oliver/Morris","39","29844","49","yes","1920","23"
"350","80","80","608.1","608.1","black","no","xpyriment","legacy","legacy","0","201","NA","uniform","NA","NA","NA","1","undefined","1","0","49","49","49","0","49","49","49","NA","0","49","NA","NA","0","49","NA","49","0","49","NA","NA","NA","49","0","0","NA","49","49","49","49","49","50","/","Tue Jun 20 13:33:03 2023","The main experiment item","yes","m21-ab-lexicalDecision.osexp","C:\Users\emoore8\Desktop\m21_vsl-main","no","mono","no","18","no","white","no","yes","1080","legacy","49","49","C:/Users/emoore8/Desktop/m21_vsl-main/subject-207.csv","xpyriment","Lentiform Loewenfeld","3.3.11","0","/","NA","NA","NA","NA","space","/","561","NA","NA","NA","NA","33908","561","2","legacy","1024","2","48000","-16","AB_m21","207","odd","CW_S","TOASTER","1685","238746","237015","230001","35606","NA","NA","NA","NA","NA","237515","NA","NA","NA","236515","NA","236486","1697","239096","NA","NA","NA","237556","1685","1685","NA","238118","238143","236486","237515","237536","morph21_Oliver/Morris","40","30405","50","yes","1920","10"
"300","80.3921568627451","80.3921568627451","611.6274509803922","611.6274509803922","black","no","xpyriment","legacy","legacy","0","206","NA","uniform","NA","NA","NA","1","undefined","1","0","50","50","50","0","50","50","50","NA","0","50","NA","NA","0","50","NA","50","0","50","NA","NA","NA","50","0","0","NA","50","50","50","50","50","51","z","Tue Jun 20 13:33:03 2023","The main experiment item","yes","m21-ab-lexicalDecision.osexp","C:\Users\emoore8\Desktop\m21_vsl-main","no","mono","no","18","no","white","no","yes","1080","legacy","50","50","C:/Users/emoore8/Desktop/m21_vsl-main/subject-207.csv","xpyriment","Lentiform Loewenfeld","3.3.11","0","z","NA","NA","NA","NA","space","z","788","NA","NA","NA","NA","33908","788","2","legacy","1024","2","48000","-16","AB_m21","207","odd","NW_L_SIMP","BEANITH","1685","244066","240604","242563","35606","NA","NA","NA","NA","NA","241105","NA","NA","NA","240103","NA","240077","1697","244366","NA","NA","NA","241146","1685","1685","NA","241934","241959","240077","241105","241126","morph21_Oliver/Morris","41","31193","51","yes","1920","8"
"400","80.76923076923077","80.76923076923077","614.8269230769231","614.8269230769231","black","no","xpyriment","legacy","legacy","0","202","NA","uniform","NA","NA","NA","1","undefined","1","0","51","51","51","0","51","51","51","NA","0","51","NA","NA","0","51","NA","51","0","51","NA","NA","NA","51","0","0","NA","51","51","51","51","51","52","/","Tue Jun 20 13:33:03 2023","The main experiment item","yes","m21-ab-lexicalDecision.osexp","C:\Users\emoore8\Desktop\m21_vsl-main","no","mono","no","18","no","white","no","yes","1080","legacy","51","51","C:/Users/emoore8/Desktop/m21_vsl-main/subject-207.csv","xpyriment","Lentiform Loewenfeld","3.3.11","0","/","NA","NA","NA","NA","space","/","778","NA","NA","NA","NA","33908","778","2","legacy","1024","2","48000","-16","AB_m21","207","odd","CW_L","WRONGLY","1685","247833","245887","242563","35606","NA","NA","NA","NA","NA","246387","NA","NA","NA","245387","NA","245363","1697","248233","NA","NA","NA","246428","1685","1685","NA","247206","247230","245363","246387","246408","morph21_Oliver/Morris","42","31971","52","yes","1920","37"
"300","81.13207547169812","81.13207547169812","620.3207547169811","620.3207547169811","black","no","xpyriment","legacy","legacy","0","206","NA","uniform","NA","NA","NA","1","undefined","1","0","52","52","52","0","52","52","52","NA","0","52","NA","NA","0","52","NA","52","0","52","NA","NA","NA","52","0","0","NA","52","52","52","52","52","53","z","Tue Jun 20 13:33:03 2023","The main experiment item","yes","m21-ab-lexicalDecision.osexp","C:\Users\emoore8\Desktop\m21_vsl-main","no","mono","no","18","no","white","no","yes","1080","legacy","52","52","C:/Users/emoore8/Desktop/m21_vsl-main/subject-207.csv","xpyriment","Lentiform Loewenfeld","3.3.11","0","z","NA","NA","NA","NA","space","z","906","NA","NA","NA","NA","33908","906","2","legacy","1024","2","48000","-16","AB_m21","207","odd","NW_L_SIMP","BANDADY","1685","251840","249766","242563","35606","NA","NA","NA","NA","NA","250266","NA","NA","NA","249265","NA","249239","1697","252140","NA","NA","NA","250307","1685","1685","NA","251214","251237","249239","250266","250287","morph21_Oliver/Morris","43","32877","53","yes","1920","3"
"300","81.48148148148148","81.48148148148148","622.1481481481482","622.1481481481482","black","no","xpyriment","legacy","legacy","0","201","NA","uniform","NA","NA","NA","1","undefined","1","0","53","53","53","0","53","53","53","NA","0","53","NA","NA","0","53","NA","53","0","53","NA","NA","NA","53","0","0","NA","53","53","53","53","53","54","/","Tue Jun 20 13:33:03 2023","The main experiment item","yes","m21-ab-lexicalDecision.osexp","C:\Users\emoore8\Desktop\m21_vsl-main","no","mono","no","18","no","white","no","yes","1080","legacy","53","53","C:/Users/emoore8/Desktop/m21_vsl-main/subject-207.csv","xpyriment","Lentiform Loewenfeld","3.3.11","0","/","NA","NA","NA","NA","space","/","719","NA","NA","NA","NA","33908","719","2","legacy","1024","2","48000","-16","AB_m21","207","odd","CW_S","DETECTABLE","1685","257033","253642","255530","35606","NA","NA","NA","NA","NA","254142","NA","NA","NA","253140","NA","253114","1697","257333","NA","NA","NA","254182","1685","1685","NA","254902","254926","253114","254142","254162","morph21_Oliver/Morris","44","33596","54","yes","1920","1"
"300","81.81818181818181","81.81818181818181","623.3272727272728","623.3272727272728","black","no","xpyriment","legacy","legacy","0","205","NA","uniform","NA","NA","NA","1","undefined","1","0","54","54","54","0","54","54","54","NA","0","54","NA","NA","0","54","NA","54","0","54","NA","NA","NA","54","0","0","NA","54","54","54","54","54","55","z","Tue Jun 20 13:33:03 2023","The main experiment item","yes","m21-ab-lexicalDecision.osexp","C:\Users\emoore8\Desktop\m21_vsl-main","no","mono","no","18","no","white","no","yes","1080","legacy","54","54","C:/Users/emoore8/Desktop/m21_vsl-main/subject-207.csv","xpyriment","Lentiform Loewenfeld","3.3.11","0","z","NA","NA","NA","NA","space","z","687","NA","NA","NA","NA","33908","687","2","legacy","1024","2","48000","-16","AB_m21","207","odd","NW_S_SIMP","HEIRIG","1685","260698","258841","255530","35606","NA","NA","NA","NA","NA","259341","NA","NA","NA","258341","NA","258315","1697","260998","NA","NA","NA","259382","1685","1685","NA","260070","260095","258315","259341","259362","morph21_Oliver/Morris","45","34283","55","yes","1920","3"
"200","82.14285714285714","82.14285714285714","626.3571428571429","626.3571428571429","black","no","xpyriment","legacy","legacy","0","204","NA","uniform","NA","NA","NA","1","undefined","1","0","55","55","55","0","55","55","55","NA","0","55","NA","NA","0","55","NA","55","0","55","NA","NA","NA","55","0","0","NA","55","55","55","55","55","56","z","Tue Jun 20 13:33:03 2023","The main experiment item","yes","m21-ab-lexicalDecision.osexp","C:\Users\emoore8\Desktop\m21_vsl-main","no","mono","no","18","no","white","no","yes","1080","legacy","55","55","C:/Users/emoore8/Desktop/m21_vsl-main/subject-207.csv","xpyriment","Lentiform Loewenfeld","3.3.11","0","z","NA","NA","NA","NA","space","z","793","NA","NA","NA","NA","33908","793","2","legacy","1024","2","48000","-16","AB_m21","207","odd","NW_L_COMP","GASFUL","1685","264466","262504","255530","35606","NA","NA","NA","NA","NA","263004","NA","NA","NA","262003","NA","261977","1697","264666","NA","NA","NA","263044","1685","1685","NA","263838","263863","261977","263004","263024","morph21_Oliver/Morris","46","35076","56","yes","1920","6"
"350","82.45614035087719","82.45614035087719","625.0175438596491","625.0175438596491","black","no","xpyriment","legacy","legacy","0","201","NA","uniform","NA","NA","NA","1","undefined","1","0","56","56","56","0","56","56","56","NA","0","56","NA","NA","0","56","NA","56","0","56","NA","NA","NA","56","0","0","NA","56","56","56","56","56","57","/","Tue Jun 20 13:33:03 2023","The main experiment item","yes","m21-ab-lexicalDecision.osexp","C:\Users\emoore8\Desktop\m21_vsl-main","no","mono","no","18","no","white","no","yes","1080","legacy","56","56","C:/Users/emoore8/Desktop/m21_vsl-main/subject-207.csv","xpyriment","Lentiform Loewenfeld","3.3.11","0","/","NA","NA","NA","NA","space","/","550","NA","NA","NA","NA","33908","550","2","legacy","1024","2","48000","-16","AB_m21","207","odd","CW_S","RICHNESS","1685","269394","266170","267889","35606","NA","NA","NA","NA","NA","266671","NA","NA","NA","265669","NA","265643","1697","269744","NA","NA","NA","266711","1685","1685","NA","267262","267285","265643","266671","266691","morph21_Oliver/Morris","47","35626","57","yes","1920","45"
"200","82.75862068965517","82.75862068965517","628.448275862069","628.448275862069","black","no","xpyriment","legacy","legacy","0","203","NA","uniform","NA","NA","NA","1","undefined","1","0","57","57","57","0","57","57","57","NA","0","57","NA","NA","0","57","NA","57","0","57","NA","NA","NA","57","0","0","NA","57","57","57","57","57","58","z","Tue Jun 20 13:33:03 2023","The main experiment item","yes","m21-ab-lexicalDecision.osexp","C:\Users\emoore8\Desktop\m21_vsl-main","no","mono","no","18","no","white","no","yes","1080","legacy","57","57","C:/Users/emoore8/Desktop/m21_vsl-main/subject-207.csv","xpyriment","Lentiform Loewenfeld","3.3.11","0","z","NA","NA","NA","NA","space","z","824","NA","NA","NA","NA","33908","824","2","legacy","1024","2","48000","-16","AB_m21","207","odd","NW_S_COMP","DUMBITY","1685","273241","271248","267889","35606","NA","NA","NA","NA","NA","271748","NA","NA","NA","270747","NA","270720","1697","273441","NA","NA","NA","271789","1685","1685","NA","272614","272638","270720","271748","271769","morph21_Oliver/Morris","48","36450","58","yes","1920","12"
"300","81.35593220338983","81.35593220338983","632","632","black","no","xpyriment","legacy","legacy","0","204","NA","uniform","NA","NA","NA","0","undefined","0","0","58","58","58","0","58","58","58","NA","0","58","NA","NA","0","58","NA","58","0","58","NA","NA","NA","58","0","0","NA","58","58","58","58","58","59","z","Tue Jun 20 13:33:03 2023","The main experiment item","yes","m21-ab-lexicalDecision.osexp","C:\Users\emoore8\Desktop\m21_vsl-main","no","mono","no","18","no","white","no","yes","1080","legacy","58","58","C:/Users/emoore8/Desktop/m21_vsl-main/subject-207.csv","xpyriment","Lentiform Loewenfeld","3.3.11","0","/","NA","NA","NA","NA","space","/","838","NA","NA","NA","NA","33908","838","2","legacy","1024","2","48000","-16","AB_m21","207","odd","NW_L_COMP","ILLIST","1685","276946","274939","267889","35606","NA","NA","NA","NA","NA","275439","NA","NA","NA","274438","NA","274412","1697","277247","NA","NA","NA","275480","1685","1685","NA","276318","276343","274412","275439","275460","morph21_Oliver/Morris","48","37288","59","yes","1920","9"
"400","81.66666666666667","81.66666666666667","640.8","640.8","black","no","xpyriment","legacy","legacy","0","205","NA","uniform","NA","NA","NA","1","undefined","1","0","59","59","59","0","59","59","59","NA","0","59","NA","NA","0","59","NA","59","0","59","NA","NA","NA","59","0","0","NA","59","59","59","59","59","60","z","Tue Jun 20 13:33:03 2023","The main experiment item","yes","m21-ab-lexicalDecision.osexp","C:\Users\emoore8\Desktop\m21_vsl-main","no","mono","no","18","no","white","no","yes","1080","legacy","59","59","C:/Users/emoore8/Desktop/m21_vsl-main/subject-207.csv","xpyriment","Lentiform Loewenfeld","3.3.11","0","z","NA","NA","NA","NA","space","z","1160","NA","NA","NA","NA","33908","1160","2","legacy","1024","2","48000","-16","AB_m21","207","odd","NW_S_SIMP","ADVERTISELA","1685","282578","278745","281072","35606","NA","NA","NA","NA","NA","279245","NA","NA","NA","278245","NA","278218","1697","282978","NA","NA","NA","279285","1685","1685","NA","280446","280469","278218","279245","279265","morph21_Oliver/Morris","49","38448","60","yes","1920","25"
"350","81.9672131147541","81.9672131147541","644.8524590163935","644.8524590163935","black","no","xpyriment","legacy","legacy","0","206","NA","uniform","NA","NA","NA","1","undefined","1","0","60","60","60","0","60","60","60","NA","0","60","NA","NA","0","60","NA","60","0","60","NA","NA","NA","60","0","0","NA","60","60","60","60","60","61","z","Tue Jun 20 13:33:03 2023","The main experiment item","yes","m21-ab-lexicalDecision.osexp","C:\Users\emoore8\Desktop\m21_vsl-main","no","mono","no","18","no","white","no","yes","1080","legacy","60","60","C:/Users/emoore8/Desktop/m21_vsl-main/subject-207.csv","xpyriment","Lentiform Loewenfeld","3.3.11","0","z","NA","NA","NA","NA","space","z","888","NA","NA","NA","NA","33908","888","2","legacy","1024","2","48000","-16","AB_m21","207","odd","NW_L_SIMP","WITCHITH","1685","286570","284514","281072","35606","NA","NA","NA","NA","NA","285014","NA","NA","NA","284013","NA","283984","1697","286920","NA","NA","NA","285054","1685","1685","NA","285942","285967","283984","285014","285034","morph21_Oliver/Morris","50","39336","61","yes","1920","11"
"300","82.25806451612904","82.25806451612904","644.7096774193549","644.7096774193549","black","no","xpyriment","legacy","legacy","0","202","NA","uniform","NA","NA","NA","1","undefined","1","0","61","61","61","0","61","61","61","NA","0","61","NA","NA","0","61","NA","61","0","61","NA","NA","NA","61","0","0","NA","61","61","61","61","61","62","/","Tue Jun 20 13:33:03 2023","The main experiment item","yes","m21-ab-lexicalDecision.osexp","C:\Users\emoore8\Desktop\m21_vsl-main","no","mono","no","18","no","white","no","yes","1080","legacy","61","61","C:/Users/emoore8/Desktop/m21_vsl-main/subject-207.csv","xpyriment","Lentiform Loewenfeld","3.3.11","0","/","NA","NA","NA","NA","space","/","636","NA","NA","NA","NA","33908","636","2","legacy","1024","2","48000","-16","AB_m21","207","odd","CW_L","COMPOSER","1685","290272","288468","281072","35606","NA","NA","NA","NA","NA","288968","NA","NA","NA","287966","NA","287940","1697","290573","NA","NA","NA","289009","1685","1685","NA","289646","289669","287940","288968","288989","morph21_Oliver/Morris","51","39972","62","yes","1920","6"
"250","82.53968253968254","82.53968253968254","642.4444444444445","642.4444444444445","black","no","xpyriment","legacy","legacy","0","207","NA","uniform","NA","NA","NA","1","undefined","1","0","62","62","62","0","62","62","62","NA","0","62","NA","NA","0","62","NA","62","0","62","NA","NA","NA","62","0","0","NA","62","62","62","62","62","63","/","Tue Jun 20 13:33:03 2023","The main experiment item","yes","m21-ab-lexicalDecision.osexp","C:\Users\emoore8\Desktop\m21_vsl-main","no","mono","no","18","no","white","no","yes","1080","legacy","62","62","C:/Users/emoore8/Desktop/m21_vsl-main/subject-207.csv","xpyriment","Lentiform Loewenfeld","3.3.11","0","/","NA","NA","NA","NA","space","/","502","NA","NA","NA","NA","33908","502","2","legacy","1024","2","48000","-16","AB_m21","207","odd","FILL_W","PACK","1685","295298","292122","293795","35606","NA","NA","NA","NA","NA","292622","NA","NA","NA","291622","NA","291600","1697","295548","NA","NA","NA","292663","1685","1685","NA","293166","293189","291600","292622","292643","morph21_Oliver/Morris","52","40474","63","yes","1920","41"
"350","81.25","81.25","645.375","645.375","black","no","xpyriment","legacy","legacy","0","208","NA","uniform","NA","NA","NA","0","undefined","0","0","63","63","63","0","63","63","63","NA","0","63","NA","NA","0","63","NA","63","0","63","NA","NA","NA","63","0","0","NA","63","63","63","63","63","64","z","Tue Jun 20 13:33:03 2023","The main experiment item","yes","m21-ab-lexicalDecision.osexp","C:\Users\emoore8\Desktop\m21_vsl-main","no","mono","no","18","no","white","no","yes","1080","legacy","63","63","C:/Users/emoore8/Desktop/m21_vsl-main/subject-207.csv","xpyriment","Lentiform Loewenfeld","3.3.11","0","/","NA","NA","NA","NA","space","/","830","NA","NA","NA","NA","33908","830","2","legacy","1024","2","48000","-16","AB_m21","207","odd","FILL_NW","BLANTH","1685","299049","297052","293795","35606","NA","NA","NA","NA","NA","297552","NA","NA","NA","296552","NA","296524","1697","299400","NA","NA","NA","297592","1685","1685","NA","298423","298446","296524","297552","297572","morph21_Oliver/Morris","52","41304","64","yes","1920","3"
"300","81.53846153846153","81.53846153846153","646.2615384615384","646.2615384615384","black","no","xpyriment","legacy","legacy","0","207","NA","uniform","NA","NA","NA","1","undefined","1","0","64","64","64","0","64","64","64","NA","0","64","NA","NA","0","64","NA","64","0","64","NA","NA","NA","64","0","0","NA","64","64","64","64","64","65","/","Tue Jun 20 13:33:03 2023","The main experiment item","yes","m21-ab-lexicalDecision.osexp","C:\Users\emoore8\Desktop\m21_vsl-main","no","mono","no","18","no","white","no","yes","1080","legacy","64","64","C:/Users/emoore8/Desktop/m21_vsl-main/subject-207.csv","xpyriment","Lentiform Loewenfeld","3.3.11","0","/","NA","NA","NA","NA","space","/","703","NA","NA","NA","NA","33908","703","2","legacy","1024","2","48000","-16","AB_m21","207","odd","FILL_W","BOX","1685","302777","300905","293795","35606","NA","NA","NA","NA","NA","301405","NA","NA","NA","300404","NA","300376","1697","303078","NA","NA","NA","301446","1685","1685","NA","302150","302174","300376","301405","301426","morph21_Oliver/Morris","53","42007","65","yes","1920","42"
"350","81.81818181818181","81.81818181818181","644.939393939394","644.939393939394","black","no","xpyriment","legacy","legacy","0","204","NA","uniform","NA","NA","NA","1","undefined","1","0","65","65","65","0","65","65","65","NA","0","65","NA","NA","0","65","NA","65","0","65","NA","NA","NA","65","0","0","NA","65","65","65","65","65","66","z","Tue Jun 20 13:33:03 2023","The main experiment item","yes","m21-ab-lexicalDecision.osexp","C:\Users\emoore8\Desktop\m21_vsl-main","no","mono","no","18","no","white","no","yes","1080","legacy","65","65","C:/Users/emoore8/Desktop/m21_vsl-main/subject-207.csv","xpyriment","Lentiform Loewenfeld","3.3.11","0","z","NA","NA","NA","NA","space","z","559","NA","NA","NA","NA","33908","559","2","legacy","1024","2","48000","-16","AB_m21","207","odd","NW_L_COMP","INKISM","1685","307847","304617","306344","35606","NA","NA","NA","NA","NA","305118","NA","NA","NA","304117","NA","304091","1697","308197","NA","NA","NA","305158","1685","1685","NA","305718","305741","304091","305118","305138","morph21_Oliver/Morris","54","42566","66","yes","1920","8"
"300","82.08955223880596","82.08955223880596","644.2835820895523","644.2835820895523","black","no","xpyriment","legacy","legacy","0","207","NA","uniform","NA","NA","NA","1","undefined","1","0","66","66","66","0","66","66","66","NA","0","66","NA","NA","0","66","NA","66","0","66","NA","NA","NA","66","0","0","NA","66","66","66","66","66","67","/","Tue Jun 20 13:33:03 2023","The main experiment item","yes","m21-ab-lexicalDecision.osexp","C:\Users\emoore8\Desktop\m21_vsl-main","no","mono","no","18","no","white","no","yes","1080","legacy","66","66","C:/Users/emoore8/Desktop/m21_vsl-main/subject-207.csv","xpyriment","Lentiform Loewenfeld","3.3.11","0","/","NA","NA","NA","NA","space","/","601","NA","NA","NA","NA","33908","601","2","legacy","1024","2","48000","-16","AB_m21","207","odd","FILL_W","BALD","1685","311497","309725","306344","35606","NA","NA","NA","NA","NA","310228","NA","NA","NA","309224","NA","309195","1697","311797","NA","NA","NA","310268","1685","1685","NA","310870","310894","309195","310227","310248","morph21_Oliver/Morris","55","43167","67","yes","1920","3"
"350","82.3529411764706","82.3529411764706","646.6911764705883","646.6911764705883","black","no","xpyriment","legacy","legacy","0","202","NA","uniform","NA","NA","NA","1","undefined","1","0","67","67","67","0","67","67","67","NA","0","67","NA","NA","0","67","NA","67","0","67","NA","NA","NA","67","0","0","NA","67","67","67","67","67","68","/","Tue Jun 20 13:33:03 2023","The main experiment item","yes","m21-ab-lexicalDecision.osexp","C:\Users\emoore8\Desktop\m21_vsl-main","no","mono","no","18","no","white","no","yes","1080","legacy","67","67","C:/Users/emoore8/Desktop/m21_vsl-main/subject-207.csv","xpyriment","Lentiform Loewenfeld","3.3.11","0","/","NA","NA","NA","NA","space","/","808","NA","NA","NA","NA","33908","808","2","legacy","1024","2","48000","-16","AB_m21","207","odd","CW_L","BARKER","1685","315281","313304","306344","35606","NA","NA","NA","NA","NA","313806","NA","NA","NA","312804","NA","312776","1697","315631","NA","NA","NA","313846","1685","1685","NA","314655","314678","312776","313805","313826","morph21_Oliver/Morris","56","43975","68","yes","1920","2"
"300","82.6086956521739","82.6086956521739","646.8115942028985","646.8115942028985","black","no","xpyriment","legacy","legacy","0","205","NA","uniform","NA","NA","NA","1","undefined","1","0","68","68","68","0","68","68","68","NA","0","68","NA","NA","0","68","NA","68","0","68","NA","NA","NA","68","0","0","NA","68","68","68","68","68","69","z","Tue Jun 20 13:33:03 2023","The main experiment item","yes","m21-ab-lexicalDecision.osexp","C:\Users\emoore8\Desktop\m21_vsl-main","no","mono","no","18","no","white","no","yes","1080","legacy","68","68","C:/Users/emoore8/Desktop/m21_vsl-main/subject-207.csv","xpyriment","Lentiform Loewenfeld","3.3.11","0","z","NA","NA","NA","NA","space","z","655","NA","NA","NA","NA","33908","655","2","legacy","1024","2","48000","-16","AB_m21","207","odd","NW_S_SIMP","WARNODY","1685","320460","317130","318956","35606","NA","NA","NA","NA","NA","317631","NA","NA","NA","316630","NA","316605","1697","320760","NA","NA","NA","317671","1685","1685","NA","318326","318351","316605","317631","317651","morph21_Oliver/Morris","57","44630","69","yes","1920","12"
"250","82.85714285714286","82.85714285714286","648.0285714285715","648.0285714285715","black","no","xpyriment","legacy","legacy","0","202","NA","uniform","NA","NA","NA","1","undefined","1","0","69","69","69","0","69","69","69","NA","0","69","NA","NA","0","69","NA","69","0","69","NA","NA","NA","69","0","0","NA","69","69","69","69","69","70","/","Tue Jun 20 13:33:03 2023","The main experiment item","yes","m21-ab-lexicalDecision.osexp","C:\Users\emoore8\Desktop\m21_vsl-main","no","mono","no","18","no","white","no","yes","1080","legacy","69","69","C:/Users/emoore8/Desktop/m21_vsl-main/subject-207.csv","xpyriment","Lentiform Loewenfeld","3.3.11","0","/","NA","NA","NA","NA","space","/","732","NA","NA","NA","NA","33908","732","2","legacy","1024","2","48000","-16","AB_m21","207","odd","CW_L","DREAMER","1685","324177","322277","318956","35606","NA","NA","NA","NA","NA","322777","NA","NA","NA","321777","NA","321748","1697","324428","NA","NA","NA","322818","1685","1685","NA","323550","323574","321748","322777","322798","morph21_Oliver/Morris","58","45362","70","yes","1920","12"
"300","83.09859154929578","83.09859154929578","647.5492957746479","647.5492957746479","black","no","xpyriment","legacy","legacy","0","202","NA","uniform","NA","NA","NA","1","undefined","1","0","70","70","70","0","70","70","70","NA","0","70","NA","NA","0","70","NA","70","0","70","NA","NA","NA","70","0","0","NA","70","70","70","70","70","71","/","Tue Jun 20 13:33:03 2023","The main experiment item","yes","m21-ab-lexicalDecision.osexp","C:\Users\emoore8\Desktop\m21_vsl-main","no","mono","no","18","no","white","no","yes","1080","legacy","70","70","C:/Users/emoore8/Desktop/m21_vsl-main/subject-207.csv","xpyriment","Lentiform Loewenfeld","3.3.11","0","/","NA","NA","NA","NA","space","/","614","NA","NA","NA","NA","33908","614","2","legacy","1024","2","48000","-16","AB_m21","207","odd","CW_L","MADNESS","1685","327732","325946","318956","35606","NA","NA","NA","NA","NA","326447","NA","NA","NA","325446","NA","325420","1697","328032","NA","NA","NA","326487","1685","1685","NA","327102","327126","325420","326447","326467","morph21_Oliver/Morris","59","45976","71","yes","1920","41"
"350","83.33333333333333","83.33333333333333","646.6527777777778","646.6527777777778","black","no","xpyriment","legacy","legacy","0","201","NA","uniform","NA","NA","NA","1","undefined","1","0","71","71","71","0","71","71","71","NA","0","71","NA","NA","0","71","NA","71","0","71","NA","NA","NA","71","0","0","NA","71","71","71","71","71","72","/","Tue Jun 20 13:33:03 2023","The main experiment item","yes","m21-ab-lexicalDecision.osexp","C:\Users\emoore8\Desktop\m21_vsl-main","no","mono","no","18","no","white","no","yes","1080","legacy","71","71","C:/Users/emoore8/Desktop/m21_vsl-main/subject-207.csv","xpyriment","Lentiform Loewenfeld","3.3.11","0","/","NA","NA","NA","NA","space","/","583","NA","NA","NA","NA","33908","583","2","legacy","1024","2","48000","-16","AB_m21","207","odd","CW_S","DENSELY","1685","332793","329538","331289","35606","NA","NA","NA","NA","NA","330038","NA","NA","NA","329037","NA","329011","1697","333143","NA","NA","NA","330079","1685","1685","NA","330662","330685","329011","330038","330059","morph21_Oliver/Morris","60","46559","72","yes","1920","32"
"350","83.56164383561644","83.56164383561644","646.6438356164383","646.6438356164383","black","no","xpyriment","legacy","legacy","0","202","NA","uniform","NA","NA","NA","1","undefined","1","0","72","72","72","0","72","72","72","NA","0","72","NA","NA","0","72","NA","72","0","72","NA","NA","NA","72","0","0","NA","72","72","72","72","72","73","/","Tue Jun 20 13:33:03 2023","The main experiment item","yes","m21-ab-lexicalDecision.osexp","C:\Users\emoore8\Desktop\m21_vsl-main","no","mono","no","18","no","white","no","yes","1080","legacy","72","72","C:/Users/emoore8/Desktop/m21_vsl-main/subject-207.csv","xpyriment","Lentiform Loewenfeld","3.3.11","0","/","NA","NA","NA","NA","space","/","646","NA","NA","NA","NA","33908","646","2","legacy","1024","2","48000","-16","AB_m21","207","odd","CW_L","EDITOR","1685","336467","334651","331289","35606","NA","NA","NA","NA","NA","335151","NA","NA","NA","334150","NA","334127","1697","336817","NA","NA","NA","335192","1685","1685","NA","335838","335863","334127","335151","335172","morph21_Oliver/Morris","61","47205","73","yes","1920","45"
"400","83.78378378378379","83.78378378378379","646.081081081081","646.081081081081","black","no","xpyriment","legacy","legacy","0","201","NA","uniform","NA","NA","NA","1","undefined","1","0","73","73","73","0","73","73","73","NA","0","73","NA","NA","0","73","NA","73","0","73","NA","NA","NA","73","0","0","NA","73","73","73","73","73","74","/","Tue Jun 20 13:33:03 2023","The main experiment item","yes","m21-ab-lexicalDecision.osexp","C:\Users\emoore8\Desktop\m21_vsl-main","no","mono","no","18","no","white","no","yes","1080","legacy","73","73","C:/Users/emoore8/Desktop/m21_vsl-main/subject-207.csv","xpyriment","Lentiform Loewenfeld","3.3.11","0","/","NA","NA","NA","NA","space","/","605","NA","NA","NA","NA","33908","605","2","legacy","1024","2","48000","-16","AB_m21","207","odd","CW_S","DIETARY","1685","340092","338316","331289","35606","NA","NA","NA","NA","NA","338816","NA","NA","NA","337815","NA","337792","1697","340492","NA","NA","NA","338857","1685","1685","NA","339462","339487","337792","338816","338837","morph21_Oliver/Morris","62","47810","74","yes","1920","6"
"300","84","84","646.04","646.04","black","no","xpyriment","legacy","legacy","0","208","NA","uniform","NA","NA","NA","undefined","undefined","1","0","74","74","74","0","74","74","74","NA","0","74","NA","NA","0","74","NA","74","0","74","NA","NA","NA","74","0","0","NA","74","74","74","74","74","75","z","Tue Jun 20 13:33:03 2023","The main experiment item","yes","m21-ab-lexicalDecision.osexp","C:\Users\emoore8\Desktop\m21_vsl-main","no","mono","no","18","no","white","no","yes","1080","legacy","74","74","C:/Users/emoore8/Desktop/m21_vsl-main/subject-207.csv","xpyriment","Lentiform Loewenfeld","3.3.11","0","space","space","NA","NA","NA","space","z","30576","30576","NA","NA","NA","33908","643","2","legacy","1024","2","48000","-16","AB_m21","207","odd","FILL_NW","DULKS","1685","345298","341982","343794","35606","345605","NA","NA","NA","NA","342482","NA","NA","NA","341481","NA","341457","1697","376182","NA","NA","NA","342522","1685","1685","NA","343166","343189","341457","342482","342502","morph21_Oliver/Morris","63","48453","75","yes","1920","18"
"250","84.21052631578948","84.21052631578948","648.5657894736842","648.5657894736842","black","no","xpyriment","legacy","legacy","0","207","NA","uniform","NA","NA","NA","1","undefined","1","0","75","75","75","0","75","75","75","NA","0","75","NA","NA","0","75","NA","75","0","75","NA","NA","NA","75","0","0","NA","75","75","75","75","75","76","/","Tue Jun 20 13:33:03 2023","The main experiment item","yes","m21-ab-lexicalDecision.osexp","C:\Users\emoore8\Desktop\m21_vsl-main","no","mono","no","18","no","white","no","yes","1080","legacy","75","75","C:/Users/emoore8/Desktop/m21_vsl-main/subject-207.csv","xpyriment","Lentiform Loewenfeld","3.3.11","0","/","space","NA","NA","NA","space","/","838","30576","NA","NA","NA","33908","838","2","legacy","1024","2","48000","-16","AB_m21","207","odd","FILL_W","SMOKE","1685","379699","377690","343794","35606","345605","NA","NA","NA","NA","378191","NA","NA","NA","377190","NA","377167","1697","379949","NA","NA","NA","378231","1685","1685","NA","379070","379094","377167","378191","378211","morph21_Oliver/Morris","64","49291","76","yes","1920","50"
"200","84.41558441558442","84.41558441558442","647.2857142857143","647.2857142857143","black","no","xpyriment","legacy","legacy","0","201","NA","uniform","NA","NA","NA","1","undefined","1","0","76","76","76","0","76","76","76","NA","0","76","NA","NA","0","76","NA","76","0","76","NA","NA","NA","76","0","0","NA","76","76","76","76","76","77","/","Tue Jun 20 13:33:03 2023","The main experiment item","yes","m21-ab-lexicalDecision.osexp","C:\Users\emoore8\Desktop\m21_vsl-main","no","mono","no","18","no","white","no","yes","1080","legacy","76","76","C:/Users/emoore8/Desktop/m21_vsl-main/subject-207.csv","xpyriment","Lentiform Loewenfeld","3.3.11","0","/","space","NA","NA","NA","space","/","550","30576","NA","NA","NA","33908","550","2","legacy","1024","2","48000","-16","AB_m21","207","odd","CW_S","LISTENER","1685","383171","381451","343794","35606","345605","NA","NA","NA","NA","381952","NA","NA","NA","380951","NA","380924","1697","383371","NA","NA","NA","381992","1685","1685","NA","382543","382568","380924","381952","381972","morph21_Oliver/Morris","65","49841","77","yes","1920","18"
"200","84.61538461538461","84.61538461538461","646.2307692307693","646.2307692307693","black","no","xpyriment","legacy","legacy","0","207","NA","uniform","NA","NA","NA","1","undefined","1","0","77","77","77","0","77","77","77","NA","0","77","NA","NA","0","77","NA","77","0","77","NA","NA","NA","77","0","0","NA","77","77","77","77","77","78","/","Tue Jun 20 13:33:03 2023","The main experiment item","yes","m21-ab-lexicalDecision.osexp","C:\Users\emoore8\Desktop\m21_vsl-main","no","mono","no","18","no","white","no","yes","1080","legacy","77","77","C:/Users/emoore8/Desktop/m21_vsl-main/subject-207.csv","xpyriment","Lentiform Loewenfeld","3.3.11","0","/","space","NA","NA","NA","space","/","565","30576","NA","NA","NA","33908","565","2","legacy","1024","2","48000","-16","AB_m21","207","odd","FILL_W","SAVE","1685","388113","384877","386609","35606","345605","NA","NA","NA","NA","385377","NA","NA","NA","384377","NA","384350","1697","388313","NA","NA","NA","385417","1685","1685","NA","385982","386006","384350","385377","385397","morph21_Oliver/Morris","66","50406","78","yes","1920","46"
"350","84.81012658227849","84.81012658227849","650.367088607595","650.367088607595","black","no","xpyriment","legacy","legacy","0","205","NA","uniform","NA","NA","NA","1","undefined","1","0","78","78","78","0","78","78","78","NA","0","78","NA","NA","0","78","NA","78","0","78","NA","NA","NA","78","0","0","NA","78","78","78","78","78","79","z","Tue Jun 20 13:33:03 2023","The main experiment item","yes","m21-ab-lexicalDecision.osexp","C:\Users\emoore8\Desktop\m21_vsl-main","no","mono","no","18","no","white","no","yes","1080","legacy","78","78","C:/Users/emoore8/Desktop/m21_vsl-main/subject-207.csv","xpyriment","Lentiform Loewenfeld","3.3.11","0","z","space","NA","NA","NA","space","z","973","30576","NA","NA","NA","33908","973","2","legacy","1024","2","48000","-16","AB_m21","207","odd","NW_S_SIMP","ACREMANT","1685","391962","389819","386609","35606","345605","NA","NA","NA","NA","390319","NA","NA","NA","389319","NA","389295","1697","392312","NA","NA","NA","390360","1685","1685","NA","391334","391359","389295","390319","390340","morph21_Oliver/Morris","67","51379","79","yes","1920","16"
"350","85","85","651.5625","651.5625","black","no","xpyriment","legacy","legacy","0","207","NA","uniform","NA","NA","NA","1","undefined","1","0","79","79","79","0","79","79","79","NA","0","79","NA","NA","0","79","NA","79","0","79","NA","NA","NA","79","0","0","NA","79","79","79","79","79","80","/","Tue Jun 20 13:33:03 2023","The main experiment item","yes","m21-ab-lexicalDecision.osexp","C:\Users\emoore8\Desktop\m21_vsl-main","no","mono","no","18","no","white","no","yes","1080","legacy","79","79","C:/Users/emoore8/Desktop/m21_vsl-main/subject-207.csv","xpyriment","Lentiform Loewenfeld","3.3.11","0","/","space","NA","NA","NA","space","/","746","30576","NA","NA","NA","33908","746","2","legacy","1024","2","48000","-16","AB_m21","207","odd","FILL_W","LEAK","1685","395732","393816","386609","35606","345605","NA","NA","NA","NA","394316","NA","NA","NA","393316","NA","393293","1697","396082","NA","NA","NA","394356","1685","1685","NA","395102","395127","393293","394316","394336","morph21_Oliver/Morris","68","52125","80","yes","1920","9"
"200","85.18518518518519","85.18518518518519","651.5432098765432","651.5432098765432","black","no","xpyriment","legacy","legacy","0","208","NA","uniform","NA","NA","NA","1","undefined","1","0","80","80","80","0","80","80","80","NA","0","80","NA","NA","0","80","NA","80","0","80","NA","NA","NA","80","0","0","NA","80","80","80","80","80","81","z","Tue Jun 20 13:33:03 2023","The main experiment item","yes","m21-ab-lexicalDecision.osexp","C:\Users\emoore8\Desktop\m21_vsl-main","no","mono","no","18","no","white","no","yes","1080","legacy","80","80","C:/Users/emoore8/Desktop/m21_vsl-main/subject-207.csv","xpyriment","Lentiform Loewenfeld","3.3.11","0","z","space","NA","NA","NA","space","z","650","30576","NA","NA","NA","33908","650","2","legacy","1024","2","48000","-16","AB_m21","207","odd","FILL_NW","SMADE","1685","400920","397598","399417","35606","345605","NA","NA","NA","NA","398099","NA","NA","NA","397097","NA","397072","1697","401120","NA","NA","NA","398140","1685","1685","NA","398790","398814","397072","398099","398120","morph21_Oliver/Morris","69","52775","81","yes","1920","42"
"300","85.36585365853658","85.36585365853658","652.9878048780488","652.9878048780488","black","no","xpyriment","legacy","legacy","0","205","NA","uniform","NA","NA","NA","1","undefined","1","0","81","81","81","0","81","81","81","NA","0","81","NA","NA","0","81","NA","81","0","81","NA","NA","NA","81","0","0","NA","81","81","81","81","81","82","z","Tue Jun 20 13:33:03 2023","The main experiment item","yes","m21-ab-lexicalDecision.osexp","C:\Users\emoore8\Desktop\m21_vsl-main","no","mono","no","18","no","white","no","yes","1080","legacy","81","81","C:/Users/emoore8/Desktop/m21_vsl-main/subject-207.csv","xpyriment","Lentiform Loewenfeld","3.3.11","0","z","space","NA","NA","NA","space","z","770","30576","NA","NA","NA","33908","770","2","legacy","1024","2","48000","-16","AB_m21","207","odd","NW_S_SIMP","TILTADY","1685","404563","402621","399417","35606","345605","NA","NA","NA","NA","403122","NA","NA","NA","402120","NA","402098","1697","404863","NA","NA","NA","403163","1685","1685","NA","403934","403959","402098","403122","403143","morph21_Oliver/Morris","70","53545","82","yes","1920","17"
"350","85.5421686746988","85.5421686746988","652.566265060241","652.566265060241","black","no","xpyriment","legacy","legacy","0","208","NA","uniform","NA","NA","NA","1","undefined","1","0","82","82","82","0","82","82","82","NA","0","82","NA","NA","0","82","NA","82","0","82","NA","NA","NA","82","0","0","NA","82","82","82","82","82","83","z","Tue Jun 20 13:33:03 2023","The main experiment item","yes","m21-ab-lexicalDecision.osexp","C:\Users\emoore8\Desktop\m21_vsl-main","no","mono","no","18","no","white","no","yes","1080","legacy","82","82","C:/Users/emoore8/Desktop/m21_vsl-main/subject-207.csv","xpyriment","Lentiform Loewenfeld","3.3.11","0","z","space","NA","NA","NA","space","z","618","30576","NA","NA","NA","33908","618","2","legacy","1024","2","48000","-16","AB_m21","207","odd","FILL_NW","DOADS","1685","408154","406368","399417","35606","345605","NA","NA","NA","NA","406868","NA","NA","NA","405867","NA","405841","1697","408505","NA","NA","NA","406908","1685","1685","NA","407526","407550","405841","406868","406888","morph21_Oliver/Morris","71","54163","83","yes","1920","15"
"250","85.71428571428571","85.71428571428571","653.797619047619","653.797619047619","black","no","xpyriment","legacy","legacy","0","207","NA","uniform","NA","NA","NA","1","undefined","1","0","83","83","83","0","83","83","83","NA","0","83","NA","NA","0","83","NA","83","0","83","NA","NA","NA","83","0","0","NA","83","83","83","83","83","84","/","Tue Jun 20 13:33:03 2023","The main experiment item","yes","m21-ab-lexicalDecision.osexp","C:\Users\emoore8\Desktop\m21_vsl-main","no","mono","no","18","no","white","no","yes","1080","legacy","83","83","C:/Users/emoore8/Desktop/m21_vsl-main/subject-207.csv","xpyriment","Lentiform Loewenfeld","3.3.11","0","/","space","NA","NA","NA","space","/","756","30576","NA","NA","NA","33908","756","2","legacy","1024","2","48000","-16","AB_m21","207","odd","FILL_W","SOUGHT","1685","413449","410020","411946","35606","345605","NA","NA","NA","NA","410522","NA","NA","NA","409519","NA","409495","1697","413699","NA","NA","NA","410562","1685","1685","NA","411319","411342","409495","410522","410542","morph21_Oliver/Morris","72","54919","84","yes","1920","40"
"200","84.70588235294117","84.70588235294117","655.964705882353","655.964705882353","black","no","xpyriment","legacy","legacy","0","201","NA","uniform","NA","NA","NA","0","undefined","0","0","84","84","84","0","84","84","84","NA","0","84","NA","NA","0","84","NA","84","0","84","NA","NA","NA","84","0","0","NA","84","84","84","84","84","85","/","Tue Jun 20 13:33:03 2023","The main experiment item","yes","m21-ab-lexicalDecision.osexp","C:\Users\emoore8\Desktop\m21_vsl-main","no","mono","no","18","no","white","no","yes","1080","legacy","84","84","C:/Users/emoore8/Desktop/m21_vsl-main/subject-207.csv","xpyriment","Lentiform Loewenfeld","3.3.11","0","z","space","NA","NA","NA","space","z","838","30576","NA","NA","NA","33908","838","2","legacy","1024","2","48000","-16","AB_m21","207","odd","CW_S","THRUSTER","1685","417217","415212","411946","35606","345605","NA","NA","NA","NA","415712","NA","NA","NA","414712","NA","414686","1697","417417","NA","NA","NA","415752","1685","1685","NA","416591","416614","414686","415712","415732","morph21_Oliver/Morris","72","55757","85","yes","1920","24"
"350","84.88372093023256","84.88372093023256","657.8720930232558","657.8720930232558","black","no","xpyriment","legacy","legacy","0","204","NA","uniform","NA","NA","NA","1","undefined","1","0","85","85","85","0","85","85","85","NA","0","85","NA","NA","0","85","NA","85","0","85","NA","NA","NA","85","0","0","NA","85","85","85","85","85","86","z","Tue Jun 20 13:33:03 2023","The main experiment item","yes","m21-ab-lexicalDecision.osexp","C:\Users\emoore8\Desktop\m21_vsl-main","no","mono","no","18","no","white","no","yes","1080","legacy","85","85","C:/Users/emoore8/Desktop/m21_vsl-main/subject-207.csv","xpyriment","Lentiform Loewenfeld","3.3.11","0","z","space","NA","NA","NA","space","z","820","30576","NA","NA","NA","33908","820","2","legacy","1024","2","48000","-16","AB_m21","207","odd","NW_L_COMP","AGREELY","1685","420930","418942","411946","35606","345605","NA","NA","NA","NA","419442","NA","NA","NA","418441","NA","418412","1697","421280","NA","NA","NA","419482","1685","1685","NA","420302","420327","418412","419442","419462","morph21_Oliver/Morris","73","56577","86","yes","1920","24"
"250","85.05747126436782","85.05747126436782","658.5747126436781","658.5747126436781","black","no","xpyriment","legacy","legacy","0","201","NA","uniform","NA","NA","NA","1","undefined","1","0","86","86","86","0","86","86","86","NA","0","86","NA","NA","0","86","NA","86","0","86","NA","NA","NA","86","0","0","NA","86","86","86","86","86","87","/","Tue Jun 20 13:33:03 2023","The main experiment item","yes","m21-ab-lexicalDecision.osexp","C:\Users\emoore8\Desktop\m21_vsl-main","no","mono","no","18","no","white","no","yes","1080","legacy","86","86","C:/Users/emoore8/Desktop/m21_vsl-main/subject-207.csv","xpyriment","Lentiform Loewenfeld","3.3.11","0","/","space","NA","NA","NA","space","/","719","30576","NA","NA","NA","33908","719","2","legacy","1024","2","48000","-16","AB_m21","207","odd","CW_S","MILDNESS","1685","426177","422786","424673","35606","345605","NA","NA","NA","NA","423287","NA","NA","NA","422286","NA","422263","1697","426427","NA","NA","NA","423327","1685","1685","NA","424046","424070","422263","423286","423307","morph21_Oliver/Morris","74","57296","87","yes","1920","42"
"200","85.22727272727273","85.22727272727273","661.3636363636364","661.3636363636364","black","no","xpyriment","legacy","legacy","0","208","NA","uniform","NA","NA","NA","1","undefined","1","0","87","87","87","0","87","87","87","NA","0","87","NA","NA","0","87","NA","87","0","87","NA","NA","NA","87","0","0","NA","87","87","87","87","87","88","z","Tue Jun 20 13:33:03 2023","The main experiment item","yes","m21-ab-lexicalDecision.osexp","C:\Users\emoore8\Desktop\m21_vsl-main","no","mono","no","18","no","white","no","yes","1080","legacy","87","87","C:/Users/emoore8/Desktop/m21_vsl-main/subject-207.csv","xpyriment","Lentiform Loewenfeld","3.3.11","0","z","space","NA","NA","NA","space","z","904","30576","NA","NA","NA","33908","904","2","legacy","1024","2","48000","-16","AB_m21","207","odd","FILL_NW","GAIRS","1685","430004","427929","424673","35606","345605","NA","NA","NA","NA","428430","NA","NA","NA","427429","NA","427403","1697","430204","NA","NA","NA","428470","1685","1685","NA","429375","429401","427403","428430","428450","morph21_Oliver/Morris","75","58200","88","yes","1920","23"
"400","85.3932584269663","85.3932584269663","666.4831460674158","666.4831460674158","black","no","xpyriment","legacy","legacy","0","207","NA","uniform","NA","NA","NA","1","undefined","1","0","88","88","88","0","88","88","88","NA","0","88","NA","NA","0","88","NA","88","0","88","NA","NA","NA","88","0","0","NA","88","88","88","88","88","89","/","Tue Jun 20 13:33:03 2023","The main experiment item","yes","m21-ab-lexicalDecision.osexp","C:\Users\emoore8\Desktop\m21_vsl-main","no","mono","no","18","no","white","no","yes","1080","legacy","88","88","C:/Users/emoore8/Desktop/m21_vsl-main/subject-207.csv","xpyriment","Lentiform Loewenfeld","3.3.11","0","/","space","NA","NA","NA","space","/","1117","30576","NA","NA","NA","33908","1117","2","legacy","1024","2","48000","-16","AB_m21","207","odd","FILL_W","STEEP","1685","433994","431706","424673","35606","345605","NA","NA","NA","NA","432207","NA","NA","NA","431206","NA","431180","1697","434394","NA","NA","NA","432248","1685","1685","NA","433366","433389","431180","432207","432227","morph21_Oliver/Morris","76","59317","89","yes","1920","16"
"250","85.55555555555556","85.55555555555556","667.0333333333333","667.0333333333333","black","no","xpyriment","legacy","legacy","0","208","NA","uniform","NA","NA","NA","1","undefined","1","0","89","89","89","0","89","89","89","NA","0","89","NA","NA","0","89","NA","89","0","89","NA","NA","NA","89","0","0","NA","89","89","89","89","89","90","z","Tue Jun 20 13:33:03 2023","The main experiment item","yes","m21-ab-lexicalDecision.osexp","C:\Users\emoore8\Desktop\m21_vsl-main","no","mono","no","18","no","white","no","yes","1080","legacy","89","89","C:/Users/emoore8/Desktop/m21_vsl-main/subject-207.csv","xpyriment","Lentiform Loewenfeld","3.3.11","0","z","space","NA","NA","NA","space","z","716","30576","NA","NA","NA","33908","716","2","legacy","1024","2","48000","-16","AB_m21","207","odd","FILL_NW","BUWL","1685","439290","435900","437785","35606","345605","NA","NA","NA","NA","436401","NA","NA","NA","435398","NA","435373","1697","439540","NA","NA","NA","436442","1685","1685","NA","437159","437182","435373","436401","436422","morph21_Oliver/Morris","77","60033","90","yes","1920","9"
