"ITI","acc","accuracy","average_response_time","avg_rt","background","bidi","canvas_backend","clock_backend","color_backend","compensation","cond_trig","condtrigtime","coordinates","coroutines_cycles","coroutines_duration","coroutines_mean_cycle_duration","correct","correct_instructions_1","correct_new_keyboard_response_1","count_AB_m21","count_ITI","count_blank_screen","count_blink_screen","count_block1","count_break1","count_break2","count_break3_1","count_canvas","count_close_port","count_cond_trigger","count_correct_trigger","count_def_chain","count_end_screen","count_fixation_1","count_getting_started","count_inc_counter","count_instructions_1","count_logger","count_logscript","count_new_inline_script","count_new_inline_script_2","count_new_keyboard_response_1","count_open_port","count_reset_counter_prep","count_reset_counter_run","count_response_trigger_trial","count_responsescreen","count_sequence","count_target_present","count_word_trigger","counter","cresp","datetime","description","disable_garbage_collection","experiment_file","experiment_path","font_bold","font_family","font_italic","font_size","font_underline","foreground","form_clicks","fullscreen","height","keyboard_backend","live_row","live_row_block1","logfile","mouse_backend","opensesame_codename","opensesame_version","repeat_cycle","response","response_break1","response_break2","response_break3_1","response_end_screen","response_instructions_1","response_new_keyboard_response_1","response_time","response_time_break1","response_time_break2","response_time_break3_1","response_time_end_screen","response_time_instructions_1","response_time_new_keyboard_response_1","round_decimals","sampler_backend","sound_buf_size","sound_channels","sound_freq","sound_sample_size","start","subject_nr","subject_parity","targ_type","target","time_AB_m21","time_ITI","time_blank_screen","time_blink_screen","time_block1","time_break1","time_break2","time_break3_1","time_canvas","time_close_port","time_cond_trigger","time_correct_trigger","time_def_chain","time_end_screen","time_fixation_1","time_getting_started","time_inc_counter","time_instructions_1","time_logger","time_logscript","time_new_inline_script","time_new_inline_script_2","time_new_keyboard_response_1","time_open_port","time_reset_counter_prep","time_reset_counter_run","time_response_trigger_trial","time_responsescreen","time_sequence","time_target_present","time_word_trigger","title","total_correct","total_response_time","total_responses","uniform_coordinates","width","word_trig"
"200","0","0","1200","1200","black","no","xpyriment","legacy","legacy","0","208","NA","uniform","NA","NA","NA","0","undefined","0","0","0","0","0","0","0","0","0","NA","0","0","NA","NA","0","0","NA","0","0","0","NA","NA","NA","0","0","0","NA","0","0","0","0","0","1","z","Wed Oct  4 15:21:31 2023","The main experiment item","yes","m21-ab-lexicalDecision.osexp","C:\Users\ekealey\Desktop","no","mono","no","18","no","white","no","yes","1080","legacy","0","0","C:/Users/ekealey/Desktop/subject-219.csv","xpyriment","Lentiform Loewenfeld","3.3.11","0","None","NA","NA","NA","NA","space","None","1200","NA","NA","NA","NA","77835","1200","2","legacy","1024","2","48000","-16","AB_m21","219","odd","FILL_NW","BROUPS","1792","83910","81541","NA","79641","NA","NA","NA","NA","NA","82042","NA","NA","NA","81039","NA","81008","1805","84110","NA","NA","NA","82082","1792","1792","NA","83282","83306","81008","82041","82062","morph21_Oliver/Morris","0","1200","1","yes","1920","4"
"350","0","0","1107.5","1107.5","black","no","xpyriment","legacy","legacy","0","207","NA","uniform","NA","NA","NA","0","undefined","0","0","1","1","1","0","1","1","1","NA","0","1","NA","NA","0","1","NA","1","0","1","NA","NA","NA","1","0","0","NA","1","1","1","1","1","2","/","Wed Oct  4 15:21:31 2023","The main experiment item","yes","m21-ab-lexicalDecision.osexp","C:\Users\ekealey\Desktop","no","mono","no","18","no","white","no","yes","1080","legacy","1","1","C:/Users/ekealey/Desktop/subject-219.csv","xpyriment","Lentiform Loewenfeld","3.3.11","0","z","NA","NA","NA","NA","space","z","1015","NA","NA","NA","NA","77835","1015","2","legacy","1024","2","48000","-16","AB_m21","219","odd","FILL_W","GLOOM","1792","87871","85684","NA","79641","NA","NA","NA","NA","NA","86185","NA","NA","NA","85183","NA","85152","1805","88221","NA","NA","NA","86225","1792","1792","NA","87240","87266","85151","86184","86205","morph21_Oliver/Morris","0","2215","2","yes","1920","14"
"200","33.333333333333336","33.333333333333336","954","954","black","no","xpyriment","legacy","legacy","0","207","NA","uniform","NA","NA","NA","1","undefined","1","0","2","2","2","0","2","2","2","NA","0","2","NA","NA","0","2","NA","2","0","2","NA","NA","NA","2","0","0","NA","2","2","2","2","2","3","/","Wed Oct  4 15:21:31 2023","The main experiment item","yes","m21-ab-lexicalDecision.osexp","C:\Users\ekealey\Desktop","no","mono","no","18","no","white","no","yes","1080","legacy","2","2","C:/Users/ekealey/Desktop/subject-219.csv","xpyriment","Lentiform Loewenfeld","3.3.11","0","/","NA","NA","NA","NA","space","/","647","NA","NA","NA","NA","77835","647","2","legacy","1024","2","48000","-16","AB_m21","219","odd","FILL_W","TEST","1792","93089","89771","91587","79641","NA","NA","NA","NA","NA","90273","NA","NA","NA","89269","NA","89243","1805","93289","NA","NA","NA","90313","1792","1792","NA","90960","90984","89243","90273","90293","morph21_Oliver/Morris","1","2862","3","yes","1920","47"
"250","25","25","1015.5","1015.5","black","no","xpyriment","legacy","legacy","0","201","NA","uniform","NA","NA","NA","0","undefined","0","0","3","3","3","0","3","3","3","NA","0","3","NA","NA","0","3","NA","3","0","3","NA","NA","NA","3","0","0","NA","3","3","3","3","3","4","/","Wed Oct  4 15:21:31 2023","The main experiment item","yes","m21-ab-lexicalDecision.osexp","C:\Users\ekealey\Desktop","no","mono","no","18","no","white","no","yes","1080","legacy","3","3","C:/Users/ekealey/Desktop/subject-219.csv","xpyriment","Lentiform Loewenfeld","3.3.11","0","None","NA","NA","NA","NA","space","None","1200","NA","NA","NA","NA","77835","1200","2","legacy","1024","2","48000","-16","AB_m21","219","odd","CW_S","GRIMLY","1792","97220","94853","91587","79641","NA","NA","NA","NA","NA","95353","NA","NA","NA","94352","NA","94318","1805","97470","NA","NA","NA","95394","1792","1792","NA","96594","96617","94318","95353","95374","morph21_Oliver/Morris","1","4062","4","yes","1920","31"
"350","40","40","971.6","971.6","black","no","xpyriment","legacy","legacy","0","202","NA","uniform","NA","NA","NA","1","undefined","1","0","4","4","4","0","4","4","4","NA","0","4","NA","NA","0","4","NA","4","0","4","NA","NA","NA","4","0","0","NA","4","4","4","4","4","5","/","Wed Oct  4 15:21:31 2023","The main experiment item","yes","m21-ab-lexicalDecision.osexp","C:\Users\ekealey\Desktop","no","mono","no","18","no","white","no","yes","1080","legacy","4","4","C:/Users/ekealey/Desktop/subject-219.csv","xpyriment","Lentiform Loewenfeld","3.3.11","0","/","NA","NA","NA","NA","space","/","796","NA","NA","NA","NA","77835","796","2","legacy","1024","2","48000","-16","AB_m21","219","odd","CW_L","PUNCHER","1792","100974","99006","91587","79641","NA","NA","NA","NA","NA","99508","NA","NA","NA","98503","NA","98477","1805","101324","NA","NA","NA","99548","1792","1792","NA","100344","100370","98477","99507","99528","morph21_Oliver/Morris","2","4858","5","yes","1920","1"
"350","50","50","923.6666666666666","923.6666666666666","black","no","xpyriment","legacy","legacy","0","201","NA","uniform","NA","NA","NA","1","undefined","1","0","5","5","5","0","5","5","5","NA","0","5","NA","NA","0","5","NA","5","0","5","NA","NA","NA","5","0","0","NA","5","5","5","5","5","6","/","Wed Oct  4 15:21:31 2023","The main experiment item","yes","m21-ab-lexicalDecision.osexp","C:\Users\ekealey\Desktop","no","mono","no","18","no","white","no","yes","1080","legacy","5","5","C:/Users/ekealey/Desktop/subject-219.csv","xpyriment","Lentiform Loewenfeld","3.3.11","0","/","NA","NA","NA","NA","space","/","684","NA","NA","NA","NA","77835","684","2","legacy","1024","2","48000","-16","AB_m21","219","odd","CW_S","SINGER","1792","106277","102919","104774","79641","NA","NA","NA","NA","NA","103419","NA","NA","NA","102419","NA","102391","1805","106627","NA","NA","NA","103460","1792","1792","NA","104145","104170","102391","103419","103440","morph21_Oliver/Morris","3","5542","6","yes","1920","17"
"250","57.142857142857146","57.142857142857146","860.1428571428571","860.1428571428571","black","no","xpyriment","legacy","legacy","0","202","NA","uniform","NA","NA","NA","1","undefined","1","0","6","6","6","0","6","6","6","NA","0","6","NA","NA","0","6","NA","6","0","6","NA","NA","NA","6","0","0","NA","6","6","6","6","6","7","/","Wed Oct  4 15:21:31 2023","The main experiment item","yes","m21-ab-lexicalDecision.osexp","C:\Users\ekealey\Desktop","no","mono","no","18","no","white","no","yes","1080","legacy","6","6","C:/Users/ekealey/Desktop/subject-219.csv","xpyriment","Lentiform Loewenfeld","3.3.11","0","/","NA","NA","NA","NA","space","/","479","NA","NA","NA","NA","77835","479","2","legacy","1024","2","48000","-16","AB_m21","219","odd","CW_L","DREAMER","1792","109820","108172","104774","79641","NA","NA","NA","NA","NA","108673","NA","NA","NA","107670","NA","107640","1805","110070","NA","NA","NA","108714","1792","1792","NA","109193","109216","107640","108673","108694","morph21_Oliver/Morris","4","6021","7","yes","1920","12"
"300","62.5","62.5","841","841","black","no","xpyriment","legacy","legacy","0","203","NA","uniform","NA","NA","NA","1","undefined","1","0","7","7","7","0","7","7","7","NA","0","7","NA","NA","0","7","NA","7","0","7","NA","NA","NA","7","0","0","NA","7","7","7","7","7","8","z","Wed Oct  4 15:21:31 2023","The main experiment item","yes","m21-ab-lexicalDecision.osexp","C:\Users\ekealey\Desktop","no","mono","no","18","no","white","no","yes","1080","legacy","7","7","C:/Users/ekealey/Desktop/subject-219.csv","xpyriment","Lentiform Loewenfeld","3.3.11","0","z","NA","NA","NA","NA","space","z","707","NA","NA","NA","NA","77835","707","2","legacy","1024","2","48000","-16","AB_m21","219","odd","NW_S_COMP","CURTITY","1792","113477","111599","104774","79641","NA","NA","NA","NA","NA","112100","NA","NA","NA","111098","NA","111064","1805","113777","NA","NA","NA","112141","1792","1792","NA","112848","112873","111064","112100","112121","morph21_Oliver/Morris","5","6728","8","yes","1920","11"
"350","66.66666666666667","66.66666666666667","820.8888888888889","820.8888888888889","black","no","xpyriment","legacy","legacy","0","206","NA","uniform","NA","NA","NA","1","undefined","1","0","8","8","8","0","8","8","8","NA","0","8","NA","NA","0","8","NA","8","0","8","NA","NA","NA","8","0","0","NA","8","8","8","8","8","9","z","Wed Oct  4 15:21:31 2023","The main experiment item","yes","m21-ab-lexicalDecision.osexp","C:\Users\ekealey\Desktop","no","mono","no","18","no","white","no","yes","1080","legacy","8","8","C:/Users/ekealey/Desktop/subject-219.csv","xpyriment","Lentiform Loewenfeld","3.3.11","0","z","NA","NA","NA","NA","space","z","660","NA","NA","NA","NA","77835","660","2","legacy","1024","2","48000","-16","AB_m21","219","odd","NW_L_SIMP","WIGITH","1792","118628","115296","117124","79641","NA","NA","NA","NA","NA","115796","NA","NA","NA","114796","NA","114768","1805","118978","NA","NA","NA","115836","1792","1792","NA","116496","116520","114768","115796","115816","morph21_Oliver/Morris","6","7388","9","yes","1920","9"
"400","70","70","824.9","824.9","black","no","xpyriment","legacy","legacy","0","205","NA","uniform","NA","NA","NA","1","undefined","1","0","9","9","9","0","9","9","9","NA","0","9","NA","NA","0","9","NA","9","0","9","NA","NA","NA","9","0","0","NA","9","9","9","9","9","10","z","Wed Oct  4 15:21:31 2023","The main experiment item","yes","m21-ab-lexicalDecision.osexp","C:\Users\ekealey\Desktop","no","mono","no","18","no","white","no","yes","1080","legacy","9","9","C:/Users/ekealey/Desktop/subject-219.csv","xpyriment","Lentiform Loewenfeld","3.3.11","0","z","NA","NA","NA","NA","space","z","861","NA","NA","NA","NA","77835","861","2","legacy","1024","2","48000","-16","AB_m21","219","odd","NW_S_SIMP","MEDICALADY","1792","122541","120509","117124","79641","NA","NA","NA","NA","NA","121011","NA","NA","NA","120008","NA","119977","1805","122941","NA","NA","NA","121051","1792","1792","NA","121912","121938","119977","121011","121031","morph21_Oliver/Morris","7","8249","10","yes","1920","18"
"300","72.72727272727273","72.72727272727273","796.4545454545455","796.4545454545455","black","no","xpyriment","legacy","legacy","0","201","NA","uniform","NA","NA","NA","1","undefined","1","0","10","10","10","0","10","10","10","NA","0","10","NA","NA","0","10","NA","10","0","10","NA","NA","NA","10","0","0","NA","10","10","10","10","10","11","/","Wed Oct  4 15:21:31 2023","The main experiment item","yes","m21-ab-lexicalDecision.osexp","C:\Users\ekealey\Desktop","no","mono","no","18","no","white","no","yes","1080","legacy","10","10","C:/Users/ekealey/Desktop/subject-219.csv","xpyriment","Lentiform Loewenfeld","3.3.11","0","/","NA","NA","NA","NA","space","/","512","NA","NA","NA","NA","77835","512","2","legacy","1024","2","48000","-16","AB_m21","219","odd","CW_S","DESTROYER","1792","126173","124490","117124","79641","NA","NA","NA","NA","NA","124991","NA","NA","NA","123990","NA","123960","1805","126473","NA","NA","NA","125032","1792","1792","NA","125544","125570","123960","124991","125012","morph21_Oliver/Morris","8","8761","11","yes","1920","14"
"250","75","75","782.5833333333334","782.5833333333334","black","no","xpyriment","legacy","legacy","0","201","NA","uniform","NA","NA","NA","1","undefined","1","0","11","11","11","0","11","11","11","NA","0","11","NA","NA","0","11","NA","11","0","11","NA","NA","NA","11","0","0","NA","11","11","11","11","11","12","/","Wed Oct  4 15:21:31 2023","The main experiment item","yes","m21-ab-lexicalDecision.osexp","C:\Users\ekealey\Desktop","no","mono","no","18","no","white","no","yes","1080","legacy","11","11","C:/Users/ekealey/Desktop/subject-219.csv","xpyriment","Lentiform Loewenfeld","3.3.11","0","/","NA","NA","NA","NA","space","/","630","NA","NA","NA","NA","77835","630","2","legacy","1024","2","48000","-16","AB_m21","219","odd","CW_S","MILDNESS","1792","131324","128021","129820","79641","NA","NA","NA","NA","NA","128521","NA","NA","NA","127519","NA","127492","1805","131574","NA","NA","NA","128562","1792","1792","NA","129193","129216","127492","128521","128542","morph21_Oliver/Morris","9","9391","12","yes","1920","42"
"300","76.92307692307692","76.92307692307692","763.2307692307693","763.2307692307693","black","no","xpyriment","legacy","legacy","0","206","NA","uniform","NA","NA","NA","1","undefined","1","0","12","12","12","0","12","12","12","NA","0","12","NA","NA","0","12","NA","12","0","12","NA","NA","NA","12","0","0","NA","12","12","12","12","12","13","z","Wed Oct  4 15:21:31 2023","The main experiment item","yes","m21-ab-lexicalDecision.osexp","C:\Users\ekealey\Desktop","no","mono","no","18","no","white","no","yes","1080","legacy","12","12","C:/Users/ekealey/Desktop/subject-219.csv","xpyriment","Lentiform Loewenfeld","3.3.11","0","z","NA","NA","NA","NA","space","z","531","NA","NA","NA","NA","77835","531","2","legacy","1024","2","48000","-16","AB_m21","219","odd","NW_L_SIMP","LONGNELS","1792","134819","133120","129820","79641","NA","NA","NA","NA","NA","133620","NA","NA","NA","132618","NA","132585","1805","135119","NA","NA","NA","133661","1792","1792","NA","134193","134216","132585","133620","133641","morph21_Oliver/Morris","10","9922","13","yes","1920","17"
"250","78.57142857142857","78.57142857142857","756.0714285714286","756.0714285714286","black","no","xpyriment","legacy","legacy","0","204","NA","uniform","NA","NA","NA","1","undefined","1","0","13","13","13","0","13","13","13","NA","0","13","NA","NA","0","13","NA","13","0","13","NA","NA","NA","13","0","0","NA","13","13","13","13","13","14","z","Wed Oct  4 15:21:31 2023","The main experiment item","yes","m21-ab-lexicalDecision.osexp","C:\Users\ekealey\Desktop","no","mono","no","18","no","white","no","yes","1080","legacy","13","13","C:/Users/ekealey/Desktop/subject-219.csv","xpyriment","Lentiform Loewenfeld","3.3.11","0","z","NA","NA","NA","NA","space","z","663","NA","NA","NA","NA","77835","663","2","legacy","1024","2","48000","-16","AB_m21","219","odd","NW_L_COMP","MUDLY","1792","138477","136644","129820","79641","NA","NA","NA","NA","NA","137145","NA","NA","NA","136142","NA","136114","1805","138727","NA","NA","NA","137185","1792","1792","NA","137848","137873","136114","137144","137165","morph21_Oliver/Morris","11","10585","14","yes","1920","12"
"400","80","80","741.2666666666667","741.2666666666667","black","no","xpyriment","legacy","legacy","0","207","NA","uniform","NA","NA","NA","1","undefined","1","0","14","14","14","0","14","14","14","NA","0","14","NA","NA","0","14","NA","14","0","14","NA","NA","NA","14","0","0","NA","14","14","14","14","14","15","/","Wed Oct  4 15:21:31 2023","The main experiment item","yes","m21-ab-lexicalDecision.osexp","C:\Users\ekealey\Desktop","no","mono","no","18","no","white","no","yes","1080","legacy","14","14","C:/Users/ekealey/Desktop/subject-219.csv","xpyriment","Lentiform Loewenfeld","3.3.11","0","/","NA","NA","NA","NA","space","/","534","NA","NA","NA","NA","77835","534","2","legacy","1024","2","48000","-16","AB_m21","219","odd","FILL_W","DRUNK","1792","143478","140267","141974","79641","NA","NA","NA","NA","NA","140768","NA","NA","NA","139765","NA","139737","1805","143878","NA","NA","NA","140810","1792","1792","NA","141344","141371","139737","140768","140789","morph21_Oliver/Morris","12","11119","15","yes","1920","19"
"200","81.25","81.25","740.4375","740.4375","black","no","xpyriment","legacy","legacy","0","208","NA","uniform","NA","NA","NA","1","undefined","1","0","15","15","15","0","15","15","15","NA","0","15","NA","NA","0","15","NA","15","0","15","NA","NA","NA","15","0","0","NA","15","15","15","15","15","16","z","Wed Oct  4 15:21:31 2023","The main experiment item","yes","m21-ab-lexicalDecision.osexp","C:\Users\ekealey\Desktop","no","mono","no","18","no","white","no","yes","1080","legacy","15","15","C:/Users/ekealey/Desktop/subject-219.csv","xpyriment","Lentiform Loewenfeld","3.3.11","0","z","NA","NA","NA","NA","space","z","728","NA","NA","NA","NA","77835","728","2","legacy","1024","2","48000","-16","AB_m21","219","odd","FILL_NW","DARM","1792","147309","145411","141974","79641","NA","NA","NA","NA","NA","145912","NA","NA","NA","144910","NA","144881","1805","147509","NA","NA","NA","145952","1792","1792","NA","146680","146705","144881","145911","145932","morph21_Oliver/Morris","13","11847","16","yes","1920","11"
"200","82.3529411764706","82.3529411764706","729.5294117647059","729.5294117647059","black","no","xpyriment","legacy","legacy","0","207","NA","uniform","NA","NA","NA","1","undefined","1","0","16","16","16","0","16","16","16","NA","0","16","NA","NA","0","16","NA","16","0","16","NA","NA","NA","16","0","0","NA","16","16","16","16","16","17","/","Wed Oct  4 15:21:31 2023","The main experiment item","yes","m21-ab-lexicalDecision.osexp","C:\Users\ekealey\Desktop","no","mono","no","18","no","white","no","yes","1080","legacy","16","16","C:/Users/ekealey/Desktop/subject-219.csv","xpyriment","Lentiform Loewenfeld","3.3.11","0","/","NA","NA","NA","NA","space","/","555","NA","NA","NA","NA","77835","555","2","legacy","1024","2","48000","-16","AB_m21","219","odd","FILL_W","SAVE","1792","150787","149064","141974","79641","NA","NA","NA","NA","NA","149565","NA","NA","NA","148564","NA","148535","1805","150987","NA","NA","NA","149605","1792","1792","NA","150160","150184","148535","149564","149585","morph21_Oliver/Morris","14","12402","17","yes","1920","46"
"350","83.33333333333333","83.33333333333333","714.5555555555555","714.5555555555555","black","no","xpyriment","legacy","legacy","0","202","NA","uniform","NA","NA","NA","1","undefined","1","0","17","17","17","0","17","17","17","NA","0","17","NA","NA","0","17","NA","17","0","17","NA","NA","NA","17","0","0","NA","17","17","17","17","17","18","/","Wed Oct  4 15:21:31 2023","The main experiment item","yes","m21-ab-lexicalDecision.osexp","C:\Users\ekealey\Desktop","no","mono","no","18","no","white","no","yes","1080","legacy","17","17","C:/Users/ekealey/Desktop/subject-219.csv","xpyriment","Lentiform Loewenfeld","3.3.11","0","/","NA","NA","NA","NA","space","/","460","NA","NA","NA","NA","77835","460","2","legacy","1024","2","48000","-16","AB_m21","219","odd","CW_L","PARKING","1792","155659","152526","154156","79641","NA","NA","NA","NA","NA","153027","NA","NA","NA","152026","NA","151994","1805","156009","NA","NA","NA","153068","1792","1792","NA","153528","153552","151994","153027","153048","morph21_Oliver/Morris","15","12862","18","yes","1920","25"
"250","84.21052631578948","84.21052631578948","702.2105263157895","702.2105263157895","black","no","xpyriment","legacy","legacy","0","208","NA","uniform","NA","NA","NA","1","undefined","1","0","18","18","18","0","18","18","18","NA","0","18","NA","NA","0","18","NA","18","0","18","NA","NA","NA","18","0","0","NA","18","18","18","18","18","19","z","Wed Oct  4 15:21:31 2023","The main experiment item","yes","m21-ab-lexicalDecision.osexp","C:\Users\ekealey\Desktop","no","mono","no","18","no","white","no","yes","1080","legacy","18","18","C:/Users/ekealey/Desktop/subject-219.csv","xpyriment","Lentiform Loewenfeld","3.3.11","0","z","NA","NA","NA","NA","space","z","480","NA","NA","NA","NA","77835","480","2","legacy","1024","2","48000","-16","AB_m21","219","odd","FILL_NW","PIFTH","1792","159186","157539","154156","79641","NA","NA","NA","NA","NA","158040","NA","NA","NA","157037","NA","157008","1805","159437","NA","NA","NA","158080","1792","1792","NA","158560","158583","157008","158040","158060","morph21_Oliver/Morris","16","13342","19","yes","1920","36"
"250","85","85","705.6","705.6","black","no","xpyriment","legacy","legacy","0","202","NA","uniform","NA","NA","NA","1","undefined","1","0","19","19","19","0","19","19","19","NA","0","19","NA","NA","0","19","NA","19","0","19","NA","NA","NA","19","0","0","NA","19","19","19","19","19","20","/","Wed Oct  4 15:21:31 2023","The main experiment item","yes","m21-ab-lexicalDecision.osexp","C:\Users\ekealey\Desktop","no","mono","no","18","no","white","no","yes","1080","legacy","19","19","C:/Users/ekealey/Desktop/subject-219.csv","xpyriment","Lentiform Loewenfeld","3.3.11","0","/","NA","NA","NA","NA","space","/","770","NA","NA","NA","NA","77835","770","2","legacy","1024","2","48000","-16","AB_m21","219","odd","CW_L","STRIKER","1792","162934","160993","154156","79641","NA","NA","NA","NA","NA","161493","NA","NA","NA","160493","NA","160467","1805","163184","NA","NA","NA","161534","1792","1792","NA","162304","162329","160467","161493","161514","morph21_Oliver/Morris","17","14112","20","yes","1920","17"
"250","85.71428571428571","85.71428571428571","701.1904761904761","701.1904761904761","black","no","xpyriment","legacy","legacy","0","201","NA","uniform","NA","NA","NA","1","undefined","1","0","20","20","20","0","20","20","20","NA","0","20","NA","NA","0","20","NA","20","0","20","NA","NA","NA","20","0","0","NA","20","20","20","20","20","21","/","Wed Oct  4 15:21:31 2023","The main experiment item","yes","m21-ab-lexicalDecision.osexp","C:\Users\ekealey\Desktop","no","mono","no","18","no","white","no","yes","1080","legacy","20","20","C:/Users/ekealey/Desktop/subject-219.csv","xpyriment","Lentiform Loewenfeld","3.3.11","0","/","NA","NA","NA","NA","space","/","613","NA","NA","NA","NA","77835","613","2","legacy","1024","2","48000","-16","AB_m21","219","odd","CW_S","TOSSING","1792","168019","164734","166516","79641","NA","NA","NA","NA","NA","165235","NA","NA","NA","164234","NA","164208","1805","168269","NA","NA","NA","165275","1792","1792","NA","165888","165911","164208","165235","165255","morph21_Oliver/Morris","18","14725","21","yes","1920","26"
"400","86.36363636363636","86.36363636363636","690.0909090909091","690.0909090909091","black","no","xpyriment","legacy","legacy","0","201","NA","uniform","NA","NA","NA","1","undefined","1","0","21","21","21","0","21","21","21","NA","0","21","NA","NA","0","21","NA","21","0","21","NA","NA","NA","21","0","0","NA","21","21","21","21","21","22","/","Wed Oct  4 15:21:31 2023","The main experiment item","yes","m21-ab-lexicalDecision.osexp","C:\Users\ekealey\Desktop","no","mono","no","18","no","white","no","yes","1080","legacy","21","21","C:/Users/ekealey/Desktop/subject-219.csv","xpyriment","Lentiform Loewenfeld","3.3.11","0","/","NA","NA","NA","NA","space","/","457","NA","NA","NA","NA","77835","457","2","legacy","1024","2","48000","-16","AB_m21","219","odd","CW_S","RAIDER","1792","171427","169801","166516","79641","NA","NA","NA","NA","NA","170302","NA","NA","NA","169299","NA","169269","1805","171827","NA","NA","NA","170343","1792","1792","NA","170801","170824","169269","170302","170323","morph21_Oliver/Morris","19","15182","22","yes","1920","12"
"300","86.95652173913044","86.95652173913044","680.7391304347826","680.7391304347826","black","no","xpyriment","legacy","legacy","0","201","NA","uniform","NA","NA","NA","1","undefined","1","0","22","22","22","0","22","22","22","NA","0","22","NA","NA","0","22","NA","22","0","22","NA","NA","NA","22","0","0","NA","22","22","22","22","22","23","/","Wed Oct  4 15:21:31 2023","The main experiment item","yes","m21-ab-lexicalDecision.osexp","C:\Users\ekealey\Desktop","no","mono","no","18","no","white","no","yes","1080","legacy","22","22","C:/Users/ekealey/Desktop/subject-219.csv","xpyriment","Lentiform Loewenfeld","3.3.11","0","/","NA","NA","NA","NA","space","/","475","NA","NA","NA","NA","77835","475","2","legacy","1024","2","48000","-16","AB_m21","219","odd","CW_S","INSISTENT","1792","175011","173367","166516","79641","NA","NA","NA","NA","NA","173869","NA","NA","NA","172865","NA","172835","1805","175311","NA","NA","NA","173909","1792","1792","NA","174385","174408","172835","173869","173889","morph21_Oliver/Morris","20","15657","23","yes","1920","9"
"300","87.5","87.5","675.1666666666666","675.1666666666666","black","no","xpyriment","legacy","legacy","0","202","NA","uniform","NA","NA","NA","1","undefined","1","0","23","23","23","0","23","23","23","NA","0","23","NA","NA","0","23","NA","23","0","23","NA","NA","NA","23","0","0","NA","23","23","23","23","23","24","/","Wed Oct  4 15:21:31 2023","The main experiment item","yes","m21-ab-lexicalDecision.osexp","C:\Users\ekealey\Desktop","no","mono","no","18","no","white","no","yes","1080","legacy","23","23","C:/Users/ekealey/Desktop/subject-219.csv","xpyriment","Lentiform Loewenfeld","3.3.11","0","/","NA","NA","NA","NA","space","/","547","NA","NA","NA","NA","77835","547","2","legacy","1024","2","48000","-16","AB_m21","219","odd","CW_L","MADNESS","1792","180046","176824","178541","79641","NA","NA","NA","NA","NA","177325","NA","NA","NA","176324","NA","176295","1805","180346","NA","NA","NA","177365","1792","1792","NA","177912","177938","176295","177325","177345","morph21_Oliver/Morris","21","16204","24","yes","1920","41"
"400","88","88","671.32","671.32","black","no","xpyriment","legacy","legacy","0","208","NA","uniform","NA","NA","NA","1","undefined","1","0","24","24","24","0","24","24","24","NA","0","24","NA","NA","0","24","NA","24","0","24","NA","NA","NA","24","0","0","NA","24","24","24","24","24","25","z","Wed Oct  4 15:21:31 2023","The main experiment item","yes","m21-ab-lexicalDecision.osexp","C:\Users\ekealey\Desktop","no","mono","no","18","no","white","no","yes","1080","legacy","24","24","C:/Users/ekealey/Desktop/subject-219.csv","xpyriment","Lentiform Loewenfeld","3.3.11","0","z","NA","NA","NA","NA","space","z","579","NA","NA","NA","NA","77835","579","2","legacy","1024","2","48000","-16","AB_m21","219","odd","FILL_NW","SOISE","1792","183653","181900","178541","79641","NA","NA","NA","NA","NA","182403","NA","NA","NA","181401","NA","181370","1805","184053","NA","NA","NA","182445","1792","1792","NA","183025","183050","181370","182403","182425","morph21_Oliver/Morris","22","16783","25","yes","1920","43"
"400","88.46153846153847","88.46153846153847","663.4230769230769","663.4230769230769","black","no","xpyriment","legacy","legacy","0","207","NA","uniform","NA","NA","NA","1","undefined","1","0","25","25","25","0","25","25","25","NA","0","25","NA","NA","0","25","NA","25","0","25","NA","NA","NA","25","0","0","NA","25","25","25","25","25","26","/","Wed Oct  4 15:21:31 2023","The main experiment item","yes","m21-ab-lexicalDecision.osexp","C:\Users\ekealey\Desktop","no","mono","no","18","no","white","no","yes","1080","legacy","25","25","C:/Users/ekealey/Desktop/subject-219.csv","xpyriment","Lentiform Loewenfeld","3.3.11","0","/","NA","NA","NA","NA","space","/","466","NA","NA","NA","NA","77835","466","2","legacy","1024","2","48000","-16","AB_m21","219","odd","FILL_W","CRUNCH","1792","187212","185576","178541","79641","NA","NA","NA","NA","NA","186077","NA","NA","NA","185076","NA","185042","1805","187612","NA","NA","NA","186118","1792","1792","NA","186585","186609","185042","186077","186098","morph21_Oliver/Morris","23","17249","26","yes","1920","20"
"350","88.88888888888889","88.88888888888889","659.2592592592592","659.2592592592592","black","no","xpyriment","legacy","legacy","0","205","NA","uniform","NA","NA","NA","1","undefined","1","0","26","26","26","0","26","26","26","NA","0","26","NA","NA","0","26","NA","26","0","26","NA","NA","NA","26","0","0","NA","26","26","26","26","26","27","z","Wed Oct  4 15:21:31 2023","The main experiment item","yes","m21-ab-lexicalDecision.osexp","C:\Users\ekealey\Desktop","no","mono","no","18","no","white","no","yes","1080","legacy","26","26","C:/Users/ekealey/Desktop/subject-219.csv","xpyriment","Lentiform Loewenfeld","3.3.11","0","z","NA","NA","NA","NA","space","z","551","NA","NA","NA","NA","77835","551","2","legacy","1024","2","48000","-16","AB_m21","219","odd","NW_S_SIMP","BASKODY","1792","192364","189139","190860","79641","NA","NA","NA","NA","NA","189641","NA","NA","NA","188637","NA","188611","1805","192714","NA","NA","NA","189681","1792","1792","NA","190233","190256","188611","189641","189661","morph21_Oliver/Morris","24","17800","27","yes","1920","10"
"250","89.28571428571429","89.28571428571429","659.0357142857143","659.0357142857143","black","no","xpyriment","legacy","legacy","0","201","NA","uniform","NA","NA","NA","1","undefined","1","0","27","27","27","0","27","27","27","NA","0","27","NA","NA","0","27","NA","27","0","27","NA","NA","NA","27","0","0","NA","27","27","27","27","27","28","/","Wed Oct  4 15:21:31 2023","The main experiment item","yes","m21-ab-lexicalDecision.osexp","C:\Users\ekealey\Desktop","no","mono","no","18","no","white","no","yes","1080","legacy","27","27","C:/Users/ekealey/Desktop/subject-219.csv","xpyriment","Lentiform Loewenfeld","3.3.11","0","/","NA","NA","NA","NA","space","/","653","NA","NA","NA","NA","77835","653","2","legacy","1024","2","48000","-16","AB_m21","219","odd","CW_S","COSTLY","1792","196084","194262","190860","79641","NA","NA","NA","NA","NA","194762","NA","NA","NA","193761","NA","193727","1805","196334","NA","NA","NA","194803","1792","1792","NA","195457","195480","193727","194762","194783","morph21_Oliver/Morris","25","18453","28","yes","1920","36"
"350","89.65517241379311","89.65517241379311","655.9655172413793","655.9655172413793","black","no","xpyriment","legacy","legacy","0","208","NA","uniform","NA","NA","NA","1","undefined","1","0","28","28","28","0","28","28","28","NA","0","28","NA","NA","0","28","NA","28","0","28","NA","NA","NA","28","0","0","NA","28","28","28","28","28","29","z","Wed Oct  4 15:21:31 2023","The main experiment item","yes","m21-ab-lexicalDecision.osexp","C:\Users\ekealey\Desktop","no","mono","no","18","no","white","no","yes","1080","legacy","28","28","C:/Users/ekealey/Desktop/subject-219.csv","xpyriment","Lentiform Loewenfeld","3.3.11","0","z","NA","NA","NA","NA","space","z","570","NA","NA","NA","NA","77835","570","2","legacy","1024","2","48000","-16","AB_m21","219","odd","FILL_NW","HEAS","1792","199614","197872","190860","79641","NA","NA","NA","NA","NA","198373","NA","NA","NA","197371","NA","197344","1805","199964","NA","NA","NA","198413","1792","1792","NA","198984","199011","197344","198373","198393","morph21_Oliver/Morris","26","19023","29","yes","1920","26"
"400","90","90","647.5333333333333","647.5333333333333","black","no","xpyriment","legacy","legacy","0","202","NA","uniform","NA","NA","NA","1","undefined","1","0","29","29","29","0","29","29","29","NA","0","29","NA","NA","0","29","NA","29","0","29","NA","NA","NA","29","0","0","NA","29","29","29","29","29","30","/","Wed Oct  4 15:21:31 2023","The main experiment item","yes","m21-ab-lexicalDecision.osexp","C:\Users\ekealey\Desktop","no","mono","no","18","no","white","no","yes","1080","legacy","29","29","C:/Users/ekealey/Desktop/subject-219.csv","xpyriment","Lentiform Loewenfeld","3.3.11","0","/","NA","NA","NA","NA","space","/","403","NA","NA","NA","NA","77835","403","2","legacy","1024","2","48000","-16","AB_m21","219","odd","CW_L","FAITHFUL","1792","204581","201502","203077","79641","NA","NA","NA","NA","NA","202003","NA","NA","NA","201001","NA","200975","1805","204981","NA","NA","NA","202044","1792","1792","NA","202448","202473","200975","202003","202024","morph21_Oliver/Morris","27","19426","30","yes","1920","20"
"300","90.3225806451613","90.3225806451613","639.8064516129032","639.8064516129032","black","no","xpyriment","legacy","legacy","0","208","NA","uniform","NA","NA","NA","1","undefined","1","0","30","30","30","0","30","30","30","NA","0","30","NA","NA","0","30","NA","30","0","30","NA","NA","NA","30","0","0","NA","30","30","30","30","30","31","z","Wed Oct  4 15:21:31 2023","The main experiment item","yes","m21-ab-lexicalDecision.osexp","C:\Users\ekealey\Desktop","no","mono","no","18","no","white","no","yes","1080","legacy","30","30","C:/Users/ekealey/Desktop/subject-219.csv","xpyriment","Lentiform Loewenfeld","3.3.11","0","z","NA","NA","NA","NA","space","z","408","NA","NA","NA","NA","77835","408","2","legacy","1024","2","48000","-16","AB_m21","219","odd","FILL_NW","BAFED","1792","208101","206523","203077","79641","NA","NA","NA","NA","NA","207023","NA","NA","NA","206022","NA","205989","1805","208401","NA","NA","NA","207064","1792","1792","NA","207473","207496","205989","207023","207044","morph21_Oliver/Morris","28","19834","31","yes","1920","1"
"350","90.625","90.625","635.84375","635.84375","black","no","xpyriment","legacy","legacy","0","201","NA","uniform","NA","NA","NA","1","undefined","1","0","31","31","31","0","31","31","31","NA","0","31","NA","NA","0","31","NA","31","0","31","NA","NA","NA","31","0","0","NA","31","31","31","31","31","32","/","Wed Oct  4 15:21:31 2023","The main experiment item","yes","m21-ab-lexicalDecision.osexp","C:\Users\ekealey\Desktop","no","mono","no","18","no","white","no","yes","1080","legacy","31","31","C:/Users/ekealey/Desktop/subject-219.csv","xpyriment","Lentiform Loewenfeld","3.3.11","0","/","NA","NA","NA","NA","space","/","513","NA","NA","NA","NA","77835","513","2","legacy","1024","2","48000","-16","AB_m21","219","odd","CW_S","DENSELY","1792","211620","209936","203077","79641","NA","NA","NA","NA","NA","210439","NA","NA","NA","209435","NA","209407","1805","211970","NA","NA","NA","210479","1792","1792","NA","210993","211017","209407","210439","210459","morph21_Oliver/Morris","29","20347","32","yes","1920","32"
"200","90.9090909090909","90.9090909090909","629.8181818181819","629.8181818181819","black","no","xpyriment","legacy","legacy","0","208","NA","uniform","NA","NA","NA","1","undefined","1","0","32","32","32","0","32","32","32","NA","0","32","NA","NA","0","32","NA","32","0","32","NA","NA","NA","32","0","0","NA","32","32","32","32","32","33","z","Wed Oct  4 15:21:31 2023","The main experiment item","yes","m21-ab-lexicalDecision.osexp","C:\Users\ekealey\Desktop","no","mono","no","18","no","white","no","yes","1080","legacy","32","32","C:/Users/ekealey/Desktop/subject-219.csv","xpyriment","Lentiform Loewenfeld","3.3.11","0","z","NA","NA","NA","NA","space","z","437","NA","NA","NA","NA","77835","437","2","legacy","1024","2","48000","-16","AB_m21","219","odd","FILL_NW","GILN","1792","216627","213518","215124","79641","NA","NA","NA","NA","NA","214018","NA","NA","NA","213018","NA","212990","1805","216827","NA","NA","NA","214059","1792","1792","NA","214497","214520","212990","214018","214039","morph21_Oliver/Morris","30","20784","33","yes","1920","25"
"250","91.17647058823529","91.17647058823529","626.4117647058823","626.4117647058823","black","no","xpyriment","legacy","legacy","0","207","NA","uniform","NA","NA","NA","1","undefined","1","0","33","33","33","0","33","33","33","NA","0","33","NA","NA","0","33","NA","33","0","33","NA","NA","NA","33","0","0","NA","33","33","33","33","33","34","/","Wed Oct  4 15:21:31 2023","The main experiment item","yes","m21-ab-lexicalDecision.osexp","C:\Users\ekealey\Desktop","no","mono","no","18","no","white","no","yes","1080","legacy","33","33","C:/Users/ekealey/Desktop/subject-219.csv","xpyriment","Lentiform Loewenfeld","3.3.11","0","/","NA","NA","NA","NA","space","/","514","NA","NA","NA","NA","77835","514","2","legacy","1024","2","48000","-16","AB_m21","219","odd","FILL_W","COOK","1792","220059","218377","215124","79641","NA","NA","NA","NA","NA","218878","NA","NA","NA","217876","NA","217850","1805","220309","NA","NA","NA","218918","1792","1792","NA","219433","219456","217850","218878","218898","morph21_Oliver/Morris","31","21298","34","yes","1920","38"
"200","91.42857142857143","91.42857142857143","619.7714285714286","619.7714285714286","black","no","xpyriment","legacy","legacy","0","202","NA","uniform","NA","NA","NA","1","undefined","1","0","34","34","34","0","34","34","34","NA","0","34","NA","NA","0","34","NA","34","0","34","NA","NA","NA","34","0","0","NA","34","34","34","34","34","35","/","Wed Oct  4 15:21:31 2023","The main experiment item","yes","m21-ab-lexicalDecision.osexp","C:\Users\ekealey\Desktop","no","mono","no","18","no","white","no","yes","1080","legacy","34","34","C:/Users/ekealey/Desktop/subject-219.csv","xpyriment","Lentiform Loewenfeld","3.3.11","0","/","NA","NA","NA","NA","space","/","394","NA","NA","NA","NA","77835","394","2","legacy","1024","2","48000","-16","AB_m21","219","odd","CW_L","VERBAL","1792","223407","221841","215124","79641","NA","NA","NA","NA","NA","222342","NA","NA","NA","221340","NA","221311","1805","223607","NA","NA","NA","222382","1792","1792","NA","222776","222800","221311","222342","222362","morph21_Oliver/Morris","32","21692","35","yes","1920","50"
"400","91.66666666666667","91.66666666666667","614.6388888888889","614.6388888888889","black","no","xpyriment","legacy","legacy","0","202","NA","uniform","NA","NA","NA","1","undefined","1","0","35","35","35","0","35","35","35","NA","0","35","NA","NA","0","35","NA","35","0","35","NA","NA","NA","35","0","0","NA","35","35","35","35","35","36","/","Wed Oct  4 15:21:31 2023","The main experiment item","yes","m21-ab-lexicalDecision.osexp","C:\Users\ekealey\Desktop","no","mono","no","18","no","white","no","yes","1080","legacy","35","35","C:/Users/ekealey/Desktop/subject-219.csv","xpyriment","Lentiform Loewenfeld","3.3.11","0","/","NA","NA","NA","NA","space","/","435","NA","NA","NA","NA","77835","435","2","legacy","1024","2","48000","-16","AB_m21","219","odd","CW_L","COOLING","1792","228259","225152","226756","79641","NA","NA","NA","NA","NA","225652","NA","NA","NA","224652","NA","224620","1805","228659","NA","NA","NA","225693","1792","1792","NA","226129","226152","224619","225652","225673","morph21_Oliver/Morris","33","22127","36","yes","1920","24"
"200","91.89189189189189","91.89189189189189","612.5135135135135","612.5135135135135","black","no","xpyriment","legacy","legacy","0","208","NA","uniform","NA","NA","NA","1","undefined","1","0","36","36","36","0","36","36","36","NA","0","36","NA","NA","0","36","NA","36","0","36","NA","NA","NA","36","0","0","NA","36","36","36","36","36","37","z","Wed Oct  4 15:21:31 2023","The main experiment item","yes","m21-ab-lexicalDecision.osexp","C:\Users\ekealey\Desktop","no","mono","no","18","no","white","no","yes","1080","legacy","36","36","C:/Users/ekealey/Desktop/subject-219.csv","xpyriment","Lentiform Loewenfeld","3.3.11","0","z","NA","NA","NA","NA","space","z","536","NA","NA","NA","NA","77835","536","2","legacy","1024","2","48000","-16","AB_m21","219","odd","FILL_NW","VUNKS","1792","231901","230193","226756","79641","NA","NA","NA","NA","NA","230694","NA","NA","NA","229693","NA","229660","1805","232101","NA","NA","NA","230735","1792","1792","NA","231272","231296","229660","230694","230715","morph21_Oliver/Morris","34","22663","37","yes","1920","49"
"350","92.10526315789474","92.10526315789474","611.3157894736842","611.3157894736842","black","no","xpyriment","legacy","legacy","0","203","NA","uniform","NA","NA","NA","1","undefined","1","0","37","37","37","0","37","37","37","NA","0","37","NA","NA","0","37","NA","37","0","37","NA","NA","NA","37","0","0","NA","37","37","37","37","37","38","z","Wed Oct  4 15:21:31 2023","The main experiment item","yes","m21-ab-lexicalDecision.osexp","C:\Users\ekealey\Desktop","no","mono","no","18","no","white","no","yes","1080","legacy","37","37","C:/Users/ekealey/Desktop/subject-219.csv","xpyriment","Lentiform Loewenfeld","3.3.11","0","z","NA","NA","NA","NA","space","z","567","NA","NA","NA","NA","77835","567","2","legacy","1024","2","48000","-16","AB_m21","219","odd","NW_S_COMP","DEBTISH","1792","235388","233651","226756","79641","NA","NA","NA","NA","NA","234152","NA","NA","NA","233151","NA","233122","1805","235738","NA","NA","NA","234193","1792","1792","NA","234760","234785","233122","234152","234173","morph21_Oliver/Morris","35","23230","38","yes","1920","22"
"400","92.3076923076923","92.3076923076923","605.0512820512821","605.0512820512821","black","no","xpyriment","legacy","legacy","0","205","NA","uniform","NA","NA","NA","1","undefined","1","0","38","38","38","0","38","38","38","NA","0","38","NA","NA","0","38","NA","38","0","38","NA","NA","NA","38","0","0","NA","38","38","38","38","38","39","z","Wed Oct  4 15:21:31 2023","The main experiment item","yes","m21-ab-lexicalDecision.osexp","C:\Users\ekealey\Desktop","no","mono","no","18","no","white","no","yes","1080","legacy","38","38","C:/Users/ekealey/Desktop/subject-219.csv","xpyriment","Lentiform Loewenfeld","3.3.11","0","z","NA","NA","NA","NA","space","z","367","NA","NA","NA","NA","77835","367","2","legacy","1024","2","48000","-16","AB_m21","219","odd","NW_S_SIMP","SCHEMENELS","1792","240321","237282","238819","79641","NA","NA","NA","NA","NA","237782","NA","NA","NA","236782","NA","236755","1805","240721","NA","NA","NA","237824","1792","1792","NA","238192","238216","236755","237782","237803","morph21_Oliver/Morris","36","23597","39","yes","1920","15"
"350","92.5","92.5","598.875","598.875","black","no","xpyriment","legacy","legacy","0","202","NA","uniform","NA","NA","NA","1","undefined","1","0","39","39","39","0","39","39","39","NA","0","39","NA","NA","0","39","NA","39","0","39","NA","NA","NA","39","0","0","NA","39","39","39","39","39","40","/","Wed Oct  4 15:21:31 2023","The main experiment item","yes","m21-ab-lexicalDecision.osexp","C:\Users\ekealey\Desktop","no","mono","no","18","no","white","no","yes","1080","legacy","39","39","C:/Users/ekealey/Desktop/subject-219.csv","xpyriment","Lentiform Loewenfeld","3.3.11","0","/","NA","NA","NA","NA","space","/","358","NA","NA","NA","NA","77835","358","2","legacy","1024","2","48000","-16","AB_m21","219","odd","CW_L","SWIMMER","1792","243805","242276","238819","79641","NA","NA","NA","NA","NA","242777","NA","NA","NA","241775","NA","241749","1805","244155","NA","NA","NA","242817","1792","1792","NA","243176","243201","241749","242777","242797","morph21_Oliver/Morris","37","23955","40","yes","1920","5"
"400","92.6829268292683","92.6829268292683","599.6829268292682","599.6829268292682","black","no","xpyriment","legacy","legacy","0","204","NA","uniform","NA","NA","NA","1","undefined","1","0","40","40","40","0","40","40","40","NA","0","40","NA","NA","0","40","NA","40","0","40","NA","NA","NA","40","0","0","NA","40","40","40","40","40","41","z","Wed Oct  4 15:21:31 2023","The main experiment item","yes","m21-ab-lexicalDecision.osexp","C:\Users\ekealey\Desktop","no","mono","no","18","no","white","no","yes","1080","legacy","40","40","C:/Users/ekealey/Desktop/subject-219.csv","xpyriment","Lentiform Loewenfeld","3.3.11","0","z","NA","NA","NA","NA","space","z","632","NA","NA","NA","NA","77835","632","2","legacy","1024","2","48000","-16","AB_m21","219","odd","NW_L_COMP","BOILOUS","1792","247509","245707","238819","79641","NA","NA","NA","NA","NA","246208","NA","NA","NA","245206","NA","245180","1805","247909","NA","NA","NA","246248","1792","1792","NA","246880","246905","245180","246208","246228","morph21_Oliver/Morris","38","24587","41","yes","1920","18"
"400","92.85714285714286","92.85714285714286","598.8809523809524","598.8809523809524","black","no","xpyriment","legacy","legacy","0","205","NA","uniform","NA","NA","NA","1","undefined","1","0","41","41","41","0","41","41","41","NA","0","41","NA","NA","0","41","NA","41","0","41","NA","NA","NA","41","0","0","NA","41","41","41","41","41","42","z","Wed Oct  4 15:21:31 2023","The main experiment item","yes","m21-ab-lexicalDecision.osexp","C:\Users\ekealey\Desktop","no","mono","no","18","no","white","no","yes","1080","legacy","41","41","C:/Users/ekealey/Desktop/subject-219.csv","xpyriment","Lentiform Loewenfeld","3.3.11","0","z","NA","NA","NA","NA","space","z","566","NA","NA","NA","NA","77835","566","2","legacy","1024","2","48000","-16","AB_m21","219","odd","NW_S_SIMP","ADVERTISELA","1792","252692","249453","251189","79641","NA","NA","NA","NA","NA","249954","NA","NA","NA","248953","NA","248924","1805","253092","NA","NA","NA","249994","1792","1792","NA","250560","250585","248924","249953","249974","morph21_Oliver/Morris","39","25153","42","yes","1920","25"
"300","93.02325581395348","93.02325581395348","600.3953488372093","600.3953488372093","black","no","xpyriment","legacy","legacy","0","205","NA","uniform","NA","NA","NA","1","undefined","1","0","42","42","42","0","42","42","42","NA","0","42","NA","NA","0","42","NA","42","0","42","NA","NA","NA","42","0","0","NA","42","42","42","42","42","43","z","Wed Oct  4 15:21:31 2023","The main experiment item","yes","m21-ab-lexicalDecision.osexp","C:\Users\ekealey\Desktop","no","mono","no","18","no","white","no","yes","1080","legacy","42","42","C:/Users/ekealey/Desktop/subject-219.csv","xpyriment","Lentiform Loewenfeld","3.3.11","0","z","NA","NA","NA","NA","space","z","664","NA","NA","NA","NA","77835","664","2","legacy","1024","2","48000","-16","AB_m21","219","odd","NW_S_SIMP","WINKIDY","1792","256451","254618","251189","79641","NA","NA","NA","NA","NA","255118","NA","NA","NA","254118","NA","254089","1805","256751","NA","NA","NA","255159","1792","1792","NA","255824","255848","254089","255118","255139","morph21_Oliver/Morris","40","25817","43","yes","1920","21"
"250","93.18181818181819","93.18181818181819","598.0909090909091","598.0909090909091","black","no","xpyriment","legacy","legacy","0","207","NA","uniform","NA","NA","NA","1","undefined","1","0","43","43","43","0","43","43","43","NA","0","43","NA","NA","0","43","NA","43","0","43","NA","NA","NA","43","0","0","NA","43","43","43","43","43","44","/","Wed Oct  4 15:21:31 2023","The main experiment item","yes","m21-ab-lexicalDecision.osexp","C:\Users\ekealey\Desktop","no","mono","no","18","no","white","no","yes","1080","legacy","43","43","C:/Users/ekealey/Desktop/subject-219.csv","xpyriment","Lentiform Loewenfeld","3.3.11","0","/","NA","NA","NA","NA","space","/","499","NA","NA","NA","NA","77835","499","2","legacy","1024","2","48000","-16","AB_m21","219","odd","FILL_W","SUIT","1792","259941","258270","251189","79641","NA","NA","NA","NA","NA","258772","NA","NA","NA","257768","NA","257744","1805","260192","NA","NA","NA","258812","1792","1792","NA","259312","259337","257744","258772","258792","morph21_Oliver/Morris","41","26316","44","yes","1920","49"
"200","93.33333333333333","93.33333333333333","594.5555555555555","594.5555555555555","black","no","xpyriment","legacy","legacy","0","207","NA","uniform","NA","NA","NA","1","undefined","1","0","44","44","44","0","44","44","44","NA","0","44","NA","NA","0","44","NA","44","0","44","NA","NA","NA","44","0","0","NA","44","44","44","44","44","45","/","Wed Oct  4 15:21:31 2023","The main experiment item","yes","m21-ab-lexicalDecision.osexp","C:\Users\ekealey\Desktop","no","mono","no","18","no","white","no","yes","1080","legacy","44","44","C:/Users/ekealey/Desktop/subject-219.csv","xpyriment","Lentiform Loewenfeld","3.3.11","0","/","NA","NA","NA","NA","space","/","439","NA","NA","NA","NA","77835","439","2","legacy","1024","2","48000","-16","AB_m21","219","odd","FILL_W","LEGAL","1792","264858","261747","263355","79641","NA","NA","NA","NA","NA","262247","NA","NA","NA","261247","NA","261219","1805","265058","NA","NA","NA","262288","1792","1792","NA","262728","262752","261219","262247","262268","morph21_Oliver/Morris","42","26755","45","yes","1920","35"
"250","93.47826086956522","93.47826086956522","593.0869565217391","593.0869565217391","black","no","xpyriment","legacy","legacy","0","207","NA","uniform","NA","NA","NA","1","undefined","1","0","45","45","45","0","45","45","45","NA","0","45","NA","NA","0","45","NA","45","0","45","NA","NA","NA","45","0","0","NA","45","45","45","45","45","46","/","Wed Oct  4 15:21:31 2023","The main experiment item","yes","m21-ab-lexicalDecision.osexp","C:\Users\ekealey\Desktop","no","mono","no","18","no","white","no","yes","1080","legacy","45","45","C:/Users/ekealey/Desktop/subject-219.csv","xpyriment","Lentiform Loewenfeld","3.3.11","0","/","NA","NA","NA","NA","space","/","527","NA","NA","NA","NA","77835","527","2","legacy","1024","2","48000","-16","AB_m21","219","odd","FILL_W","SMOKE","1792","268299","266602","263355","79641","NA","NA","NA","NA","NA","267104","NA","NA","NA","266100","NA","266076","1805","268549","NA","NA","NA","267144","1792","1792","NA","267672","267696","266076","267103","267124","morph21_Oliver/Morris","43","27282","46","yes","1920","50"
"300","91.48936170212765","91.48936170212765","590.5106382978723","590.5106382978723","black","no","xpyriment","legacy","legacy","0","207","NA","uniform","NA","NA","NA","0","undefined","0","0","46","46","46","0","46","46","46","NA","0","46","NA","NA","0","46","NA","46","0","46","NA","NA","NA","46","0","0","NA","46","46","46","46","46","47","/","Wed Oct  4 15:21:31 2023","The main experiment item","yes","m21-ab-lexicalDecision.osexp","C:\Users\ekealey\Desktop","no","mono","no","18","no","white","no","yes","1080","legacy","46","46","C:/Users/ekealey/Desktop/subject-219.csv","xpyriment","Lentiform Loewenfeld","3.3.11","0","z","NA","NA","NA","NA","space","z","472","NA","NA","NA","NA","77835","472","2","legacy","1024","2","48000","-16","AB_m21","219","odd","FILL_W","BALD","1792","271724","270082","263355","79641","NA","NA","NA","NA","NA","270582","NA","NA","NA","269581","NA","269551","1805","272024","NA","NA","NA","270624","1792","1792","NA","271096","271120","269551","270582","270603","morph21_Oliver/Morris","43","27754","47","yes","1920","3"
"400","91.66666666666667","91.66666666666667","588.6875","588.6875","black","no","xpyriment","legacy","legacy","0","206","NA","uniform","NA","NA","NA","1","undefined","1","0","47","47","47","0","47","47","47","NA","0","47","NA","NA","0","47","NA","47","0","47","NA","NA","NA","47","0","0","NA","47","47","47","47","47","48","z","Wed Oct  4 15:21:31 2023","The main experiment item","yes","m21-ab-lexicalDecision.osexp","C:\Users\ekealey\Desktop","no","mono","no","18","no","white","no","yes","1080","legacy","47","47","C:/Users/ekealey/Desktop/subject-219.csv","xpyriment","Lentiform Loewenfeld","3.3.11","0","z","NA","NA","NA","NA","space","z","503","NA","NA","NA","NA","77835","503","2","legacy","1024","2","48000","-16","AB_m21","219","odd","NW_L_SIMP","VALIDEL","1792","276762","273587","275259","79641","NA","NA","NA","NA","NA","274088","NA","NA","NA","273086","NA","273059","1805","277162","NA","NA","NA","274128","1792","1792","NA","274632","274656","273059","274088","274108","morph21_Oliver/Morris","44","28257","48","yes","1920","23"
"200","91.83673469387755","91.83673469387755","588.9591836734694","588.9591836734694","black","no","xpyriment","legacy","legacy","0","203","NA","uniform","NA","NA","NA","1","undefined","1","0","48","48","48","0","48","48","48","NA","0","48","NA","NA","0","48","NA","48","0","48","NA","NA","NA","48","0","0","NA","48","48","48","48","48","49","z","Wed Oct  4 15:21:31 2023","The main experiment item","yes","m21-ab-lexicalDecision.osexp","C:\Users\ekealey\Desktop","no","mono","no","18","no","white","no","yes","1080","legacy","48","48","C:/Users/ekealey/Desktop/subject-219.csv","xpyriment","Lentiform Loewenfeld","3.3.11","0","z","NA","NA","NA","NA","space","z","602","NA","NA","NA","NA","77835","602","2","legacy","1024","2","48000","-16","AB_m21","219","odd","NW_S_COMP","YANKORY","1792","280470","278696","275259","79641","NA","NA","NA","NA","NA","279198","NA","NA","NA","278196","NA","278164","1805","280670","NA","NA","NA","279238","1792","1792","NA","279840","279865","278164","279198","279218","morph21_Oliver/Morris","45","28859","49","yes","1920","23"
"300","92","92","593.58","593.58","black","no","xpyriment","legacy","legacy","0","206","NA","uniform","NA","NA","NA","1","undefined","1","0","49","49","49","0","49","49","49","NA","0","49","NA","NA","0","49","NA","49","0","49","NA","NA","NA","49","0","0","NA","49","49","49","49","49","50","z","Wed Oct  4 15:21:31 2023","The main experiment item","yes","m21-ab-lexicalDecision.osexp","C:\Users\ekealey\Desktop","no","mono","no","18","no","white","no","yes","1080","legacy","49","49","C:/Users/ekealey/Desktop/subject-219.csv","xpyriment","Lentiform Loewenfeld","3.3.11","0","z","NA","NA","NA","NA","space","z","820","NA","NA","NA","NA","77835","820","2","legacy","1024","2","48000","-16","AB_m21","219","odd","NW_L_SIMP","BANDADY","1792","284196","282207","275259","79641","NA","NA","NA","NA","NA","282707","NA","NA","NA","281705","NA","281678","1805","284496","NA","NA","NA","282748","1792","1792","NA","283568","283592","281678","282707","282728","morph21_Oliver/Morris","46","29679","50","yes","1920","3"
"200","92.15686274509804","92.15686274509804","593.7254901960785","593.7254901960785","black","no","xpyriment","legacy","legacy","0","204","NA","uniform","NA","NA","NA","1","undefined","1","0","50","50","50","0","50","50","50","NA","0","50","NA","NA","0","50","NA","50","0","50","NA","NA","NA","50","0","0","NA","50","50","50","50","50","51","z","Wed Oct  4 15:21:31 2023","The main experiment item","yes","m21-ab-lexicalDecision.osexp","C:\Users\ekealey\Desktop","no","mono","no","18","no","white","no","yes","1080","legacy","50","50","C:/Users/ekealey/Desktop/subject-219.csv","xpyriment","Lentiform Loewenfeld","3.3.11","0","z","NA","NA","NA","NA","space","z","601","NA","NA","NA","NA","77835","601","2","legacy","1024","2","48000","-16","AB_m21","219","odd","NW_L_COMP","GASFUL","1792","289317","286042","287814","79641","NA","NA","NA","NA","NA","286543","NA","NA","NA","285540","NA","285513","1805","289517","NA","NA","NA","286583","1792","1792","NA","287184","287210","285513","286543","286563","morph21_Oliver/Morris","47","30280","51","yes","1920","6"
"400","92.3076923076923","92.3076923076923","594.8076923076923","594.8076923076923","black","no","xpyriment","legacy","legacy","0","208","NA","uniform","NA","NA","NA","1","undefined","1","0","51","51","51","0","51","51","51","NA","0","51","NA","NA","0","51","NA","51","0","51","NA","NA","NA","51","0","0","NA","51","51","51","51","51","52","z","Wed Oct  4 15:21:31 2023","The main experiment item","yes","m21-ab-lexicalDecision.osexp","C:\Users\ekealey\Desktop","no","mono","no","18","no","white","no","yes","1080","legacy","51","51","C:/Users/ekealey/Desktop/subject-219.csv","xpyriment","Lentiform Loewenfeld","3.3.11","0","z","NA","NA","NA","NA","space","z","650","NA","NA","NA","NA","77835","650","2","legacy","1024","2","48000","-16","AB_m21","219","odd","FILL_NW","GIKE","1792","292859","291039","287814","79641","NA","NA","NA","NA","NA","291541","NA","NA","NA","290538","NA","290510","1805","293259","NA","NA","NA","291582","1792","1792","NA","292233","292256","290510","291541","291561","morph21_Oliver/Morris","48","30930","52","yes","1920","24"
"350","92.45283018867924","92.45283018867924","593.8490566037735","593.8490566037735","black","no","xpyriment","legacy","legacy","0","203","NA","uniform","NA","NA","NA","1","undefined","1","0","52","52","52","0","52","52","52","NA","0","52","NA","NA","0","52","NA","52","0","52","NA","NA","NA","52","0","0","NA","52","52","52","52","52","53","z","Wed Oct  4 15:21:31 2023","The main experiment item","yes","m21-ab-lexicalDecision.osexp","C:\Users\ekealey\Desktop","no","mono","no","18","no","white","no","yes","1080","legacy","52","52","C:/Users/ekealey/Desktop/subject-219.csv","xpyriment","Lentiform Loewenfeld","3.3.11","0","z","NA","NA","NA","NA","space","z","544","NA","NA","NA","NA","77835","544","2","legacy","1024","2","48000","-16","AB_m21","219","odd","NW_S_COMP","EJECTENCE","1792","296515","294801","287814","79641","NA","NA","NA","NA","NA","295302","NA","NA","NA","294299","NA","294275","1805","296865","NA","NA","NA","295343","1792","1792","NA","295888","295912","294275","295302","295323","morph21_Oliver/Morris","49","31474","53","yes","1920","20"
"200","90.74074074074075","90.74074074074075","590.2777777777778","590.2777777777778","black","no","xpyriment","legacy","legacy","0","203","NA","uniform","NA","NA","NA","0","undefined","0","0","53","53","53","0","53","53","53","NA","0","53","NA","NA","0","53","NA","53","0","53","NA","NA","NA","53","0","0","NA","53","53","53","53","53","54","z","Wed Oct  4 15:21:31 2023","The main experiment item","yes","m21-ab-lexicalDecision.osexp","C:\Users\ekealey\Desktop","no","mono","no","18","no","white","no","yes","1080","legacy","53","53","C:/Users/ekealey/Desktop/subject-219.csv","xpyriment","Lentiform Loewenfeld","3.3.11","0","/","NA","NA","NA","NA","space","/","401","NA","NA","NA","NA","77835","401","2","legacy","1024","2","48000","-16","AB_m21","219","odd","NW_S_COMP","ANTISM","1792","301467","298394","299965","79641","NA","NA","NA","NA","NA","298895","NA","NA","NA","297893","NA","297863","1805","301668","NA","NA","NA","298935","1792","1792","NA","299336","299360","297863","298894","298915","morph21_Oliver/Morris","49","31875","54","yes","1920","8"
"250","90.9090909090909","90.9090909090909","599.0909090909091","599.0909090909091","black","no","xpyriment","legacy","legacy","0","208","NA","uniform","NA","NA","NA","1","undefined","1","0","54","54","54","0","54","54","54","NA","0","54","NA","NA","0","54","NA","54","0","54","NA","NA","NA","54","0","0","NA","54","54","54","54","54","55","z","Wed Oct  4 15:21:31 2023","The main experiment item","yes","m21-ab-lexicalDecision.osexp","C:\Users\ekealey\Desktop","no","mono","no","18","no","white","no","yes","1080","legacy","54","54","C:/Users/ekealey/Desktop/subject-219.csv","xpyriment","Lentiform Loewenfeld","3.3.11","0","z","NA","NA","NA","NA","space","z","1075","NA","NA","NA","NA","77835","1075","2","legacy","1024","2","48000","-16","AB_m21","219","odd","FILL_NW","DOWED","1792","305438","303191","299965","79641","NA","NA","NA","NA","NA","303691","NA","NA","NA","302691","NA","302666","1805","305688","NA","NA","NA","303732","1792","1792","NA","304808","304833","302666","303691","303712","morph21_Oliver/Morris","50","32950","55","yes","1920","16"
"350","91.07142857142857","91.07142857142857","603.7321428571429","603.7321428571429","black","no","xpyriment","legacy","legacy","0","202","NA","uniform","NA","NA","NA","1","undefined","1","0","55","55","55","0","55","55","55","NA","0","55","NA","NA","0","55","NA","55","0","55","NA","NA","NA","55","0","0","NA","55","55","55","55","55","56","/","Wed Oct  4 15:21:31 2023","The main experiment item","yes","m21-ab-lexicalDecision.osexp","C:\Users\ekealey\Desktop","no","mono","no","18","no","white","no","yes","1080","legacy","55","55","C:/Users/ekealey/Desktop/subject-219.csv","xpyriment","Lentiform Loewenfeld","3.3.11","0","/","NA","NA","NA","NA","space","/","859","NA","NA","NA","NA","77835","859","2","legacy","1024","2","48000","-16","AB_m21","219","odd","CW_L","BOMBER","1792","309267","307238","299965","79641","NA","NA","NA","NA","NA","307739","NA","NA","NA","306736","NA","306711","1805","309617","NA","NA","NA","307780","1792","1792","NA","308640","308663","306711","307739","307760","morph21_Oliver/Morris","51","33809","56","yes","1920","7"
"300","91.2280701754386","91.2280701754386","606.421052631579","606.421052631579","black","no","xpyriment","legacy","legacy","0","206","NA","uniform","NA","NA","NA","1","undefined","1","0","56","56","56","0","56","56","56","NA","0","56","NA","NA","0","56","NA","56","0","56","NA","NA","NA","56","0","0","NA","56","56","56","56","56","57","z","Wed Oct  4 15:21:31 2023","The main experiment item","yes","m21-ab-lexicalDecision.osexp","C:\Users\ekealey\Desktop","no","mono","no","18","no","white","no","yes","1080","legacy","56","56","C:/Users/ekealey/Desktop/subject-219.csv","xpyriment","Lentiform Loewenfeld","3.3.11","0","z","NA","NA","NA","NA","space","z","757","NA","NA","NA","NA","77835","757","2","legacy","1024","2","48000","-16","AB_m21","219","odd","NW_L_SIMP","BEANITH","1792","314578","311150","313076","79641","NA","NA","NA","NA","NA","311651","NA","NA","NA","310650","NA","310622","1805","314878","NA","NA","NA","311691","1792","1792","NA","312448","312472","310621","311651","311671","morph21_Oliver/Morris","52","34566","57","yes","1920","8"
"200","91.37931034482759","91.37931034482759","603.4310344827586","603.4310344827586","black","no","xpyriment","legacy","legacy","0","205","NA","uniform","NA","NA","NA","1","undefined","1","0","57","57","57","0","57","57","57","NA","0","57","NA","NA","0","57","NA","57","0","57","NA","NA","NA","57","0","0","NA","57","57","57","57","57","58","z","Wed Oct  4 15:21:31 2023","The main experiment item","yes","m21-ab-lexicalDecision.osexp","C:\Users\ekealey\Desktop","no","mono","no","18","no","white","no","yes","1080","legacy","57","57","C:/Users/ekealey/Desktop/subject-219.csv","xpyriment","Lentiform Loewenfeld","3.3.11","0","z","NA","NA","NA","NA","space","z","433","NA","NA","NA","NA","77835","433","2","legacy","1024","2","48000","-16","AB_m21","219","odd","NW_S_SIMP","NULLITH","1792","318042","316441","313076","79641","NA","NA","NA","NA","NA","316942","NA","NA","NA","315941","NA","315913","1805","318243","NA","NA","NA","316982","1792","1792","NA","317416","317439","315913","316942","316962","morph21_Oliver/Morris","53","34999","58","yes","1920","23"
"250","91.52542372881356","91.52542372881356","601.9152542372881","601.9152542372881","black","no","xpyriment","legacy","legacy","0","201","NA","uniform","NA","NA","NA","1","undefined","1","0","58","58","58","0","58","58","58","NA","0","58","NA","NA","0","58","NA","58","0","58","NA","NA","NA","58","0","0","NA","58","58","58","58","58","59","/","Wed Oct  4 15:21:31 2023","The main experiment item","yes","m21-ab-lexicalDecision.osexp","C:\Users\ekealey\Desktop","no","mono","no","18","no","white","no","yes","1080","legacy","58","58","C:/Users/ekealey/Desktop/subject-219.csv","xpyriment","Lentiform Loewenfeld","3.3.11","0","/","NA","NA","NA","NA","space","/","514","NA","NA","NA","NA","77835","514","2","legacy","1024","2","48000","-16","AB_m21","219","odd","CW_S","MOSSY","1792","321465","319784","313076","79641","NA","NA","NA","NA","NA","320285","NA","NA","NA","319284","NA","319255","1805","321716","NA","NA","NA","320325","1792","1792","NA","320840","320863","319255","320285","320305","morph21_Oliver/Morris","54","35513","59","yes","1920","47"
"350","91.66666666666667","91.66666666666667","606.8666666666667","606.8666666666667","black","no","xpyriment","legacy","legacy","0","203","NA","uniform","NA","NA","NA","1","undefined","1","0","59","59","59","0","59","59","59","NA","0","59","NA","NA","0","59","NA","59","0","59","NA","NA","NA","59","0","0","NA","59","59","59","59","59","60","z","Wed Oct  4 15:21:31 2023","The main experiment item","yes","m21-ab-lexicalDecision.osexp","C:\Users\ekealey\Desktop","no","mono","no","18","no","white","no","yes","1080","legacy","59","59","C:/Users/ekealey/Desktop/subject-219.csv","xpyriment","Lentiform Loewenfeld","3.3.11","0","z","NA","NA","NA","NA","space","z","899","NA","NA","NA","NA","77835","899","2","legacy","1024","2","48000","-16","AB_m21","219","odd","NW_S_COMP","HUMIDOUS","1792","326814","323239","325310","79641","NA","NA","NA","NA","NA","323740","NA","NA","NA","322736","NA","322709","1805","327165","NA","NA","NA","323781","1792","1792","NA","324680","324706","322709","323740","323761","morph21_Oliver/Morris","55","36412","60","yes","1920","25"
"400","91.80327868852459","91.80327868852459","604.4590163934427","604.4590163934427","black","no","xpyriment","legacy","legacy","0","203","NA","uniform","NA","NA","NA","1","undefined","1","0","60","60","60","0","60","60","60","NA","0","60","NA","NA","0","60","NA","60","0","60","NA","NA","NA","60","0","0","NA","60","60","60","60","60","61","z","Wed Oct  4 15:21:31 2023","The main experiment item","yes","m21-ab-lexicalDecision.osexp","C:\Users\ekealey\Desktop","no","mono","no","18","no","white","no","yes","1080","legacy","60","60","C:/Users/ekealey/Desktop/subject-219.csv","xpyriment","Lentiform Loewenfeld","3.3.11","0","z","NA","NA","NA","NA","space","z","460","NA","NA","NA","NA","77835","460","2","legacy","1024","2","48000","-16","AB_m21","219","odd","NW_S_COMP","ALTARIC","1792","330348","328720","325310","79641","NA","NA","NA","NA","NA","329220","NA","NA","NA","328219","NA","328186","1805","330748","NA","NA","NA","329260","1792","1792","NA","329720","329745","328186","329220","329240","morph21_Oliver/Morris","56","36872","61","yes","1920","7"
"200","91.93548387096774","91.93548387096774","601.3870967741935","601.3870967741935","black","no","xpyriment","legacy","legacy","0","207","NA","uniform","NA","NA","NA","1","undefined","1","0","61","61","61","0","61","61","61","NA","0","61","NA","NA","0","61","NA","61","0","61","NA","NA","NA","61","0","0","NA","61","61","61","61","61","62","/","Wed Oct  4 15:21:31 2023","The main experiment item","yes","m21-ab-lexicalDecision.osexp","C:\Users\ekealey\Desktop","no","mono","no","18","no","white","no","yes","1080","legacy","61","61","C:/Users/ekealey/Desktop/subject-219.csv","xpyriment","Lentiform Loewenfeld","3.3.11","0","/","NA","NA","NA","NA","space","/","414","NA","NA","NA","NA","77835","414","2","legacy","1024","2","48000","-16","AB_m21","219","odd","FILL_W","FLOAT","1792","333858","332276","325310","79641","NA","NA","NA","NA","NA","332776","NA","NA","NA","331775","NA","331748","1805","334058","NA","NA","NA","332817","1792","1792","NA","333232","333255","331748","332776","332797","morph21_Oliver/Morris","57","37286","62","yes","1920","30"
"200","92.06349206349206","92.06349206349206","599.7460317460317","599.7460317460317","black","no","xpyriment","legacy","legacy","0","201","NA","uniform","NA","NA","NA","1","undefined","1","0","62","62","62","0","62","62","62","NA","0","62","NA","NA","0","62","NA","62","0","62","NA","NA","NA","62","0","0","NA","62","62","62","62","62","63","/","Wed Oct  4 15:21:31 2023","The main experiment item","yes","m21-ab-lexicalDecision.osexp","C:\Users\ekealey\Desktop","no","mono","no","18","no","white","no","yes","1080","legacy","62","62","C:/Users/ekealey/Desktop/subject-219.csv","xpyriment","Lentiform Loewenfeld","3.3.11","0","/","NA","NA","NA","NA","space","/","498","NA","NA","NA","NA","77835","498","2","legacy","1024","2","48000","-16","AB_m21","219","odd","CW_S","ANGELIC","1792","338794","335624","337291","79641","NA","NA","NA","NA","NA","336124","NA","NA","NA","335124","NA","335094","1805","338994","NA","NA","NA","336165","1792","1792","NA","336664","336688","335094","336124","336145","morph21_Oliver/Morris","58","37784","63","yes","1920","25"
"300","92.1875","92.1875","597.375","597.375","black","no","xpyriment","legacy","legacy","0","207","NA","uniform","NA","NA","NA","1","undefined","1","0","63","63","63","0","63","63","63","NA","0","63","NA","NA","0","63","NA","63","0","63","NA","NA","NA","63","0","0","NA","63","63","63","63","63","64","/","Wed Oct  4 15:21:31 2023","The main experiment item","yes","m21-ab-lexicalDecision.osexp","C:\Users\ekealey\Desktop","no","mono","no","18","no","white","no","yes","1080","legacy","63","63","C:/Users/ekealey/Desktop/subject-219.csv","xpyriment","Lentiform Loewenfeld","3.3.11","0","/","NA","NA","NA","NA","space","/","448","NA","NA","NA","NA","77835","448","2","legacy","1024","2","48000","-16","AB_m21","219","odd","FILL_W","BLUNT","1792","342147","340532","337291","79641","NA","NA","NA","NA","NA","341032","NA","NA","NA","340031","NA","339999","1805","342447","NA","NA","NA","341072","1792","1792","NA","341520","341544","339999","341032","341052","morph21_Oliver/Morris","59","38232","64","yes","1920","4"
"250","92.3076923076923","92.3076923076923","596.7384615384616","596.7384615384616","black","no","xpyriment","legacy","legacy","0","207","NA","uniform","NA","NA","NA","1","undefined","1","0","64","64","64","0","64","64","64","NA","0","64","NA","NA","0","64","NA","64","0","64","NA","NA","NA","64","0","0","NA","64","64","64","64","64","65","/","Wed Oct  4 15:21:31 2023","The main experiment item","yes","m21-ab-lexicalDecision.osexp","C:\Users\ekealey\Desktop","no","mono","no","18","no","white","no","yes","1080","legacy","64","64","C:/Users/ekealey/Desktop/subject-219.csv","xpyriment","Lentiform Loewenfeld","3.3.11","0","/","NA","NA","NA","NA","space","/","556","NA","NA","NA","NA","77835","556","2","legacy","1024","2","48000","-16","AB_m21","219","odd","FILL_W","FIERCE","1792","345709","343981","337291","79641","NA","NA","NA","NA","NA","344482","NA","NA","NA","343480","NA","343452","1805","345959","NA","NA","NA","344523","1792","1792","NA","345080","345106","343452","344482","344503","morph21_Oliver/Morris","60","38788","65","yes","1920","24"
"200","92.42424242424242","92.42424242424242","595.6818181818181","595.6818181818181","black","no","xpyriment","legacy","legacy","0","205","NA","uniform","NA","NA","NA","1","undefined","1","0","65","65","65","0","65","65","65","NA","0","65","NA","NA","0","65","NA","65","0","65","NA","NA","NA","65","0","0","NA","65","65","65","65","65","66","z","Wed Oct  4 15:21:31 2023","The main experiment item","yes","m21-ab-lexicalDecision.osexp","C:\Users\ekealey\Desktop","no","mono","no","18","no","white","no","yes","1080","legacy","65","65","C:/Users/ekealey/Desktop/subject-219.csv","xpyriment","Lentiform Loewenfeld","3.3.11","0","z","NA","NA","NA","NA","space","z","527","NA","NA","NA","NA","77835","527","2","legacy","1024","2","48000","-16","AB_m21","219","odd","NW_S_SIMP","THRILLANGE","1792","350699","347497","349195","79641","NA","NA","NA","NA","NA","347999","NA","NA","NA","346997","NA","346966","1805","350899","NA","NA","NA","348040","1792","1792","NA","348568","348592","346966","347999","348020","morph21_Oliver/Morris","61","39315","66","yes","1920","22"
"350","92.53731343283582","92.53731343283582","594.044776119403","594.044776119403","black","no","xpyriment","legacy","legacy","0","207","NA","uniform","NA","NA","NA","1","undefined","1","0","66","66","66","0","66","66","66","NA","0","66","NA","NA","0","66","NA","66","0","66","NA","NA","NA","66","0","0","NA","66","66","66","66","66","67","/","Wed Oct  4 15:21:31 2023","The main experiment item","yes","m21-ab-lexicalDecision.osexp","C:\Users\ekealey\Desktop","no","mono","no","18","no","white","no","yes","1080","legacy","66","66","C:/Users/ekealey/Desktop/subject-219.csv","xpyriment","Lentiform Loewenfeld","3.3.11","0","/","NA","NA","NA","NA","space","/","486","NA","NA","NA","NA","77835","486","2","legacy","1024","2","48000","-16","AB_m21","219","odd","FILL_W","LIFT","1792","354076","352421","349195","79641","NA","NA","NA","NA","NA","352921","NA","NA","NA","351920","NA","351890","1805","354426","NA","NA","NA","352961","1792","1792","NA","353448","353472","351890","352921","352941","morph21_Oliver/Morris","62","39801","67","yes","1920","39"
"300","91.17647058823529","91.17647058823529","592.0588235294117","592.0588235294117","black","no","xpyriment","legacy","legacy","0","204","NA","uniform","NA","NA","NA","0","undefined","0","0","67","67","67","0","67","67","67","NA","0","67","NA","NA","0","67","NA","67","0","67","NA","NA","NA","67","0","0","NA","67","67","67","67","67","68","z","Wed Oct  4 15:21:31 2023","The main experiment item","yes","m21-ab-lexicalDecision.osexp","C:\Users\ekealey\Desktop","no","mono","no","18","no","white","no","yes","1080","legacy","67","67","C:/Users/ekealey/Desktop/subject-219.csv","xpyriment","Lentiform Loewenfeld","3.3.11","0","/","NA","NA","NA","NA","space","/","459","NA","NA","NA","NA","77835","459","2","legacy","1024","2","48000","-16","AB_m21","219","odd","NW_L_COMP","SHEETER","1792","357619","355992","349195","79641","NA","NA","NA","NA","NA","356492","NA","NA","NA","355492","NA","355466","1805","357919","NA","NA","NA","356532","1792","1792","NA","356992","357016","355466","356492","356512","morph21_Oliver/Morris","62","40260","68","yes","1920","5"
"250","91.30434782608695","91.30434782608695","592.3188405797101","592.3188405797101","black","no","xpyriment","legacy","legacy","0","201","NA","uniform","NA","NA","NA","1","undefined","1","0","68","68","68","0","68","68","68","NA","0","68","NA","NA","0","68","NA","68","0","68","NA","NA","NA","68","0","0","NA","68","68","68","68","68","69","/","Wed Oct  4 15:21:31 2023","The main experiment item","yes","m21-ab-lexicalDecision.osexp","C:\Users\ekealey\Desktop","no","mono","no","18","no","white","no","yes","1080","legacy","68","68","C:/Users/ekealey/Desktop/subject-219.csv","xpyriment","Lentiform Loewenfeld","3.3.11","0","/","NA","NA","NA","NA","space","/","610","NA","NA","NA","NA","77835","610","2","legacy","1024","2","48000","-16","AB_m21","219","odd","CW_S","HUGELY","1792","362748","359464","361245","79641","NA","NA","NA","NA","NA","359965","NA","NA","NA","358964","NA","358933","1805","362998","NA","NA","NA","360005","1792","1792","NA","360616","360640","358933","359965","359985","morph21_Oliver/Morris","63","40870","69","yes","1920","35"
"200","91.42857142857143","91.42857142857143","591.3857142857142","591.3857142857142","black","no","xpyriment","legacy","legacy","0","202","NA","uniform","NA","NA","NA","1","undefined","1","0","69","69","69","0","69","69","69","NA","0","69","NA","NA","0","69","NA","69","0","69","NA","NA","NA","69","0","0","NA","69","69","69","69","69","70","/","Wed Oct  4 15:21:31 2023","The main experiment item","yes","m21-ab-lexicalDecision.osexp","C:\Users\ekealey\Desktop","no","mono","no","18","no","white","no","yes","1080","legacy","69","69","C:/Users/ekealey/Desktop/subject-219.csv","xpyriment","Lentiform Loewenfeld","3.3.11","0","/","NA","NA","NA","NA","space","/","527","NA","NA","NA","NA","77835","527","2","legacy","1024","2","48000","-16","AB_m21","219","odd","CW_L","COLLECTOR","1792","366244","364548","361245","79641","NA","NA","NA","NA","NA","365048","NA","NA","NA","364047","NA","364014","1805","366444","NA","NA","NA","365089","1792","1792","NA","365616","365641","364014","365048","365069","morph21_Oliver/Morris","64","41397","70","yes","1920","46"
"350","91.54929577464789","91.54929577464789","590.2676056338029","590.2676056338029","black","no","xpyriment","legacy","legacy","0","202","NA","uniform","NA","NA","NA","1","undefined","1","0","70","70","70","0","70","70","70","NA","0","70","NA","NA","0","70","NA","70","0","70","NA","NA","NA","70","0","0","NA","70","70","70","70","70","71","/","Wed Oct  4 15:21:31 2023","The main experiment item","yes","m21-ab-lexicalDecision.osexp","C:\Users\ekealey\Desktop","no","mono","no","18","no","white","no","yes","1080","legacy","70","70","C:/Users/ekealey/Desktop/subject-219.csv","xpyriment","Lentiform Loewenfeld","3.3.11","0","/","NA","NA","NA","NA","space","/","512","NA","NA","NA","NA","77835","512","2","legacy","1024","2","48000","-16","AB_m21","219","odd","CW_L","FEEDER","1792","369659","367978","361245","79641","NA","NA","NA","NA","NA","368478","NA","NA","NA","367478","NA","367447","1805","370009","NA","NA","NA","368519","1792","1792","NA","369032","369056","367447","368478","368499","morph21_Oliver/Morris","65","41909","71","yes","1920","14"
"300","91.66666666666667","91.66666666666667","589.3472222222222","589.3472222222222","black","no","xpyriment","legacy","legacy","0","205","NA","uniform","NA","NA","NA","1","undefined","1","0","71","71","71","0","71","71","71","NA","0","71","NA","NA","0","71","NA","71","0","71","NA","NA","NA","71","0","0","NA","71","71","71","71","71","72","z","Wed Oct  4 15:21:31 2023","The main experiment item","yes","m21-ab-lexicalDecision.osexp","C:\Users\ekealey\Desktop","no","mono","no","18","no","white","no","yes","1080","legacy","71","71","C:/Users/ekealey/Desktop/subject-219.csv","xpyriment","Lentiform Loewenfeld","3.3.11","0","z","NA","NA","NA","NA","space","z","524","NA","NA","NA","NA","77835","524","2","legacy","1024","2","48000","-16","AB_m21","219","odd","NW_S_SIMP","WARNODY","1792","374754","371558","373251","79641","NA","NA","NA","NA","NA","372058","NA","NA","NA","371058","NA","371031","1805","375054","NA","NA","NA","372099","1792","1792","NA","372624","372647","371031","372058","372079","morph21_Oliver/Morris","66","42433","72","yes","1920","12"
"300","91.78082191780823","91.78082191780823","592.8219178082192","592.8219178082192","black","no","xpyriment","legacy","legacy","0","208","NA","uniform","NA","NA","NA","1","undefined","1","0","72","72","72","0","72","72","72","NA","0","72","NA","NA","0","72","NA","72","0","72","NA","NA","NA","72","0","0","NA","72","72","72","72","72","73","z","Wed Oct  4 15:21:31 2023","The main experiment item","yes","m21-ab-lexicalDecision.osexp","C:\Users\ekealey\Desktop","no","mono","no","18","no","white","no","yes","1080","legacy","72","72","C:/Users/ekealey/Desktop/subject-219.csv","xpyriment","Lentiform Loewenfeld","3.3.11","0","z","NA","NA","NA","NA","space","z","843","NA","NA","NA","NA","77835","843","2","legacy","1024","2","48000","-16","AB_m21","219","odd","FILL_NW","SCURE","1792","378595","376583","373251","79641","NA","NA","NA","NA","NA","377083","NA","NA","NA","376083","NA","376053","1805","378895","NA","NA","NA","377124","1792","1792","NA","377968","377992","376053","377083","377103","morph21_Oliver/Morris","67","43276","73","yes","1920","41"
"200","91.89189189189189","91.89189189189189","594.918918918919","594.918918918919","black","no","xpyriment","legacy","legacy","0","208","NA","uniform","NA","NA","NA","1","undefined","1","0","73","73","73","0","73","73","73","NA","0","73","NA","NA","0","73","NA","73","0","73","NA","NA","NA","73","0","0","NA","73","73","73","73","73","74","z","Wed Oct  4 15:21:31 2023","The main experiment item","yes","m21-ab-lexicalDecision.osexp","C:\Users\ekealey\Desktop","no","mono","no","18","no","white","no","yes","1080","legacy","73","73","C:/Users/ekealey/Desktop/subject-219.csv","xpyriment","Lentiform Loewenfeld","3.3.11","0","z","NA","NA","NA","NA","space","z","748","NA","NA","NA","NA","77835","748","2","legacy","1024","2","48000","-16","AB_m21","219","odd","FILL_NW","FROT","1792","382348","380429","373251","79641","NA","NA","NA","NA","NA","380931","NA","NA","NA","379929","NA","379896","1805","382548","NA","NA","NA","380971","1792","1792","NA","381720","381743","379896","380930","380951","morph21_Oliver/Morris","68","44024","74","yes","1920","22"
"250","92","92","593.2533333333333","593.2533333333333","black","no","xpyriment","legacy","legacy","0","208","NA","uniform","NA","NA","NA","undefined","undefined","1","0","74","74","74","0","74","74","74","NA","0","74","NA","NA","0","74","NA","74","0","74","NA","NA","NA","74","0","0","NA","74","74","74","74","74","75","z","Wed Oct  4 15:21:31 2023","The main experiment item","yes","m21-ab-lexicalDecision.osexp","C:\Users\ekealey\Desktop","no","mono","no","18","no","white","no","yes","1080","legacy","74","74","C:/Users/ekealey/Desktop/subject-219.csv","xpyriment","Lentiform Loewenfeld","3.3.11","0","space","space","NA","NA","NA","space","z","12948","12948","NA","NA","NA","77835","470","2","legacy","1024","2","48000","-16","AB_m21","219","odd","FILL_NW","PHEEKS","1792","387220","384076","385717","79641","387475","NA","NA","NA","NA","384577","NA","NA","NA","383574","NA","383547","1805","400424","NA","NA","NA","384617","1792","1792","NA","385088","385114","383547","384577","384597","morph21_Oliver/Morris","69","44494","75","yes","1920","35"
"350","92.10526315789474","92.10526315789474","594.3026315789474","594.3026315789474","black","no","xpyriment","legacy","legacy","0","206","NA","uniform","NA","NA","NA","1","undefined","1","0","75","75","75","0","75","75","75","NA","0","75","NA","NA","0","75","NA","75","0","75","NA","NA","NA","75","0","0","NA","75","75","75","75","75","76","z","Wed Oct  4 15:21:31 2023","The main experiment item","yes","m21-ab-lexicalDecision.osexp","C:\Users\ekealey\Desktop","no","mono","no","18","no","white","no","yes","1080","legacy","75","75","C:/Users/ekealey/Desktop/subject-219.csv","xpyriment","Lentiform Loewenfeld","3.3.11","0","z","space","NA","NA","NA","space","z","673","12948","NA","NA","NA","77835","673","2","legacy","1024","2","48000","-16","AB_m21","219","odd","NW_L_SIMP","CRITICANGE","1792","403819","401977","385717","79641","387475","NA","NA","NA","NA","402478","NA","NA","NA","401477","NA","401446","1805","404169","NA","NA","NA","402518","1792","1792","NA","403192","403215","401446","402477","402498","morph21_Oliver/Morris","70","45167","76","yes","1920","22"
"400","92.20779220779221","92.20779220779221","591.922077922078","591.922077922078","black","no","xpyriment","legacy","legacy","0","206","NA","uniform","NA","NA","NA","1","undefined","1","0","76","76","76","0","76","76","76","NA","0","76","NA","NA","0","76","NA","76","0","76","NA","NA","NA","76","0","0","NA","76","76","76","76","76","77","z","Wed Oct  4 15:21:31 2023","The main experiment item","yes","m21-ab-lexicalDecision.osexp","C:\Users\ekealey\Desktop","no","mono","no","18","no","white","no","yes","1080","legacy","76","76","C:/Users/ekealey/Desktop/subject-219.csv","xpyriment","Lentiform Loewenfeld","3.3.11","0","z","space","NA","NA","NA","space","z","411","12948","NA","NA","NA","77835","411","2","legacy","1024","2","48000","-16","AB_m21","219","odd","NW_L_SIMP","BOGADY","1792","407331","405752","385717","79641","387475","NA","NA","NA","NA","406252","NA","NA","NA","405250","NA","405223","1805","407732","NA","NA","NA","406292","1792","1792","NA","406704","406728","405223","406252","406272","morph21_Oliver/Morris","71","45578","77","yes","1920","2"
"200","92.3076923076923","92.3076923076923","591.1794871794872","591.1794871794872","black","no","xpyriment","legacy","legacy","0","207","NA","uniform","NA","NA","NA","1","undefined","1","0","77","77","77","0","77","77","77","NA","0","77","NA","NA","0","77","NA","77","0","77","NA","NA","NA","77","0","0","NA","77","77","77","77","77","78","/","Wed Oct  4 15:21:31 2023","The main experiment item","yes","m21-ab-lexicalDecision.osexp","C:\Users\ekealey\Desktop","no","mono","no","18","no","white","no","yes","1080","legacy","77","77","C:/Users/ekealey/Desktop/subject-219.csv","xpyriment","Lentiform Loewenfeld","3.3.11","0","/","space","NA","NA","NA","space","/","534","12948","NA","NA","NA","77835","534","2","legacy","1024","2","48000","-16","AB_m21","219","odd","FILL_W","TAX","1792","412477","409267","410972","79641","387475","NA","NA","NA","NA","409769","NA","NA","NA","408766","NA","408735","1805","412677","NA","NA","NA","409809","1792","1792","NA","410344","410367","408735","409768","409789","morph21_Oliver/Morris","72","46112","78","yes","1920","45"
"400","91.13924050632912","91.13924050632912","592.2911392405064","592.2911392405064","black","no","xpyriment","legacy","legacy","0","208","NA","uniform","NA","NA","NA","0","undefined","0","0","78","78","78","0","78","78","78","NA","0","78","NA","NA","0","78","NA","78","0","78","NA","NA","NA","78","0","0","NA","78","78","78","78","78","79","z","Wed Oct  4 15:21:31 2023","The main experiment item","yes","m21-ab-lexicalDecision.osexp","C:\Users\ekealey\Desktop","no","mono","no","18","no","white","no","yes","1080","legacy","78","78","C:/Users/ekealey/Desktop/subject-219.csv","xpyriment","Lentiform Loewenfeld","3.3.11","0","/","space","NA","NA","NA","space","/","679","12948","NA","NA","NA","77835","679","2","legacy","1024","2","48000","-16","AB_m21","219","odd","FILL_NW","BUTE","1792","416059","414211","410972","79641","387475","NA","NA","NA","NA","414711","NA","NA","NA","413709","NA","413680","1805","416460","NA","NA","NA","414752","1792","1792","NA","415432","415456","413680","414711","414732","morph21_Oliver/Morris","72","46791","79","yes","1920","5"
"400","91.25","91.25","591.1125","591.1125","black","no","xpyriment","legacy","legacy","0","202","NA","uniform","NA","NA","NA","1","undefined","1","0","79","79","79","0","79","79","79","NA","0","79","NA","NA","0","79","NA","79","0","79","NA","NA","NA","79","0","0","NA","79","79","79","79","79","80","/","Wed Oct  4 15:21:31 2023","The main experiment item","yes","m21-ab-lexicalDecision.osexp","C:\Users\ekealey\Desktop","no","mono","no","18","no","white","no","yes","1080","legacy","79","79","C:/Users/ekealey/Desktop/subject-219.csv","xpyriment","Lentiform Loewenfeld","3.3.11","0","/","space","NA","NA","NA","space","/","498","12948","NA","NA","NA","77835","498","2","legacy","1024","2","48000","-16","AB_m21","219","odd","CW_L","CLOUDLESS","1792","419668","417999","410972","79641","387475","NA","NA","NA","NA","418501","NA","NA","NA","417498","NA","417465","1805","420069","NA","NA","NA","418541","1792","1792","NA","419040","419064","417464","418501","418521","morph21_Oliver/Morris","73","47289","80","yes","1920","33"
"250","91.35802469135803","91.35802469135803","589.4444444444445","589.4444444444445","black","no","xpyriment","legacy","legacy","0","201","NA","uniform","NA","NA","NA","1","undefined","1","0","80","80","80","0","80","80","80","NA","0","80","NA","NA","0","80","NA","80","0","80","NA","NA","NA","80","0","0","NA","80","80","80","80","80","81","/","Wed Oct  4 15:21:31 2023","The main experiment item","yes","m21-ab-lexicalDecision.osexp","C:\Users\ekealey\Desktop","no","mono","no","18","no","white","no","yes","1080","legacy","80","80","C:/Users/ekealey/Desktop/subject-219.csv","xpyriment","Lentiform Loewenfeld","3.3.11","0","/","space","NA","NA","NA","space","/","456","12948","NA","NA","NA","77835","456","2","legacy","1024","2","48000","-16","AB_m21","219","odd","CW_S","AWARENESS","1792","424731","421601","423228","79641","387475","NA","NA","NA","NA","422103","NA","NA","NA","421100","NA","421072","1805","424981","NA","NA","NA","422143","1792","1792","NA","422600","422623","421072","422102","422123","morph21_Oliver/Morris","74","47745","81","yes","1920","44"
"250","91.46341463414635","91.46341463414635","591.560975609756","591.560975609756","black","no","xpyriment","legacy","legacy","0","204","NA","uniform","NA","NA","NA","1","undefined","1","0","81","81","81","0","81","81","81","NA","0","81","NA","NA","0","81","NA","81","0","81","NA","NA","NA","81","0","0","NA","81","81","81","81","81","82","z","Wed Oct  4 15:21:31 2023","The main experiment item","yes","m21-ab-lexicalDecision.osexp","C:\Users\ekealey\Desktop","no","mono","no","18","no","white","no","yes","1080","legacy","81","81","C:/Users/ekealey/Desktop/subject-219.csv","xpyriment","Lentiform Loewenfeld","3.3.11","0","z","space","NA","NA","NA","space","z","763","12948","NA","NA","NA","77835","763","2","legacy","1024","2","48000","-16","AB_m21","219","odd","NW_L_COMP","TRIPARY","1792","428451","426520","423228","79641","387475","NA","NA","NA","NA","427020","NA","NA","NA","426020","NA","425989","1805","428701","NA","NA","NA","427060","1792","1792","NA","427824","427847","425989","427020","427040","morph21_Oliver/Morris","75","48508","82","yes","1920","2"
"300","91.56626506024097","91.56626506024097","591.5783132530121","591.5783132530121","black","no","xpyriment","legacy","legacy","0","205","NA","uniform","NA","NA","NA","1","undefined","1","0","82","82","82","0","82","82","82","NA","0","82","NA","NA","0","82","NA","82","0","82","NA","NA","NA","82","0","0","NA","82","82","82","82","82","83","z","Wed Oct  4 15:21:31 2023","The main experiment item","yes","m21-ab-lexicalDecision.osexp","C:\Users\ekealey\Desktop","no","mono","no","18","no","white","no","yes","1080","legacy","82","82","C:/Users/ekealey/Desktop/subject-219.csv","xpyriment","Lentiform Loewenfeld","3.3.11","0","z","space","NA","NA","NA","space","z","593","12948","NA","NA","NA","77835","593","2","legacy","1024","2","48000","-16","AB_m21","219","odd","NW_S_SIMP","YIELDILT","1792","431996","430232","423228","79641","387475","NA","NA","NA","NA","430733","NA","NA","NA","429731","NA","429701","1805","432296","NA","NA","NA","430774","1792","1792","NA","431367","431392","429701","430733","430754","morph21_Oliver/Morris","76","49101","83","yes","1920","20"
"350","91.66666666666667","91.66666666666667","590.2261904761905","590.2261904761905","black","no","xpyriment","legacy","legacy","0","203","NA","uniform","NA","NA","NA","1","undefined","1","0","83","83","83","0","83","83","83","NA","0","83","NA","NA","0","83","NA","83","0","83","NA","NA","NA","83","0","0","NA","83","83","83","83","83","84","z","Wed Oct  4 15:21:31 2023","The main experiment item","yes","m21-ab-lexicalDecision.osexp","C:\Users\ekealey\Desktop","no","mono","no","18","no","white","no","yes","1080","legacy","83","83","C:/Users/ekealey/Desktop/subject-219.csv","xpyriment","Lentiform Loewenfeld","3.3.11","0","z","space","NA","NA","NA","space","z","478","12948","NA","NA","NA","77835","478","2","legacy","1024","2","48000","-16","AB_m21","219","odd","NW_S_COMP","WELDIC","1792","436985","433835","435482","79641","387475","NA","NA","NA","NA","434336","NA","NA","NA","433333","NA","433305","1805","437335","NA","NA","NA","434377","1792","1792","NA","434855","434879","433305","434336","434357","morph21_Oliver/Morris","77","49579","84","yes","1920","21"
"200","91.76470588235294","91.76470588235294","588.7294117647059","588.7294117647059","black","no","xpyriment","legacy","legacy","0","205","NA","uniform","NA","NA","NA","1","undefined","1","0","84","84","84","0","84","84","84","NA","0","84","NA","NA","0","84","NA","84","0","84","NA","NA","NA","84","0","0","NA","84","84","84","84","84","85","z","Wed Oct  4 15:21:31 2023","The main experiment item","yes","m21-ab-lexicalDecision.osexp","C:\Users\ekealey\Desktop","no","mono","no","18","no","white","no","yes","1080","legacy","84","84","C:/Users/ekealey/Desktop/subject-219.csv","xpyriment","Lentiform Loewenfeld","3.3.11","0","z","space","NA","NA","NA","space","z","463","12948","NA","NA","NA","77835","463","2","legacy","1024","2","48000","-16","AB_m21","219","odd","NW_S_SIMP","GUMFIL","1792","440531","438898","435482","79641","387475","NA","NA","NA","NA","439399","NA","NA","NA","438396","NA","438365","1805","440732","NA","NA","NA","439440","1792","1792","NA","439904","439928","438364","439399","439420","morph21_Oliver/Morris","78","50042","85","yes","1920","2"
"200","91.86046511627907","91.86046511627907","587.5232558139535","587.5232558139535","black","no","xpyriment","legacy","legacy","0","207","NA","uniform","NA","NA","NA","1","undefined","1","0","85","85","85","0","85","85","85","NA","0","85","NA","NA","0","85","NA","85","0","85","NA","NA","NA","85","0","0","NA","85","85","85","85","85","86","/","Wed Oct  4 15:21:31 2023","The main experiment item","yes","m21-ab-lexicalDecision.osexp","C:\Users\ekealey\Desktop","no","mono","no","18","no","white","no","yes","1080","legacy","85","85","C:/Users/ekealey/Desktop/subject-219.csv","xpyriment","Lentiform Loewenfeld","3.3.11","0","/","space","NA","NA","NA","space","/","485","12948","NA","NA","NA","77835","485","2","legacy","1024","2","48000","-16","AB_m21","219","odd","FILL_W","BLEAK","1792","443922","442268","435482","79641","387475","NA","NA","NA","NA","442769","NA","NA","NA","441767","NA","441742","1805","444122","NA","NA","NA","442810","1792","1792","NA","443296","443319","441742","442769","442790","morph21_Oliver/Morris","79","50527","86","yes","1920","5"
"400","91.95402298850574","91.95402298850574","584.264367816092","584.264367816092","black","no","xpyriment","legacy","legacy","0","202","NA","uniform","NA","NA","NA","1","undefined","1","0","86","86","86","0","86","86","86","NA","0","86","NA","NA","0","86","NA","86","0","86","NA","NA","NA","86","0","0","NA","86","86","86","86","86","87","/","Wed Oct  4 15:21:31 2023","The main experiment item","yes","m21-ab-lexicalDecision.osexp","C:\Users\ekealey\Desktop","no","mono","no","18","no","white","no","yes","1080","legacy","86","86","C:/Users/ekealey/Desktop/subject-219.csv","xpyriment","Lentiform Loewenfeld","3.3.11","0","/","space","NA","NA","NA","space","/","304","12948","NA","NA","NA","77835","304","2","legacy","1024","2","48000","-16","AB_m21","219","odd","CW_L","LOCKER","1792","448627","445650","447124","79641","387475","NA","NA","NA","NA","446150","NA","NA","NA","445148","NA","445117","1805","449027","NA","NA","NA","446191","1792","1792","NA","446495","446520","445117","446150","446170","morph21_Oliver/Morris","80","50831","87","yes","1920","8"
"400","92.04545454545455","92.04545454545455","585.4772727272727","585.4772727272727","black","no","xpyriment","legacy","legacy","0","201","NA","uniform","NA","NA","NA","1","undefined","1","0","87","87","87","0","87","87","87","NA","0","87","NA","NA","0","87","NA","87","0","87","NA","NA","NA","87","0","0","NA","87","87","87","87","87","88","/","Wed Oct  4 15:21:31 2023","The main experiment item","yes","m21-ab-lexicalDecision.osexp","C:\Users\ekealey\Desktop","no","mono","no","18","no","white","no","yes","1080","legacy","87","87","C:/Users/ekealey/Desktop/subject-219.csv","xpyriment","Lentiform Loewenfeld","3.3.11","0","/","space","NA","NA","NA","space","/","691","12948","NA","NA","NA","77835","691","2","legacy","1024","2","48000","-16","AB_m21","219","odd","CW_S","DIETARY","1792","452437","450573","447124","79641","387475","NA","NA","NA","NA","451075","NA","NA","NA","450072","NA","450046","1805","452837","NA","NA","NA","451116","1792","1792","NA","451807","451832","450046","451075","451096","morph21_Oliver/Morris","81","51522","88","yes","1920","6"
"300","92.13483146067416","92.13483146067416","585.7528089887641","585.7528089887641","black","no","xpyriment","legacy","legacy","0","208","NA","uniform","NA","NA","NA","1","undefined","1","0","88","88","88","0","88","88","88","NA","0","88","NA","NA","0","88","NA","88","0","88","NA","NA","NA","88","0","0","NA","88","88","88","88","88","89","z","Wed Oct  4 15:21:31 2023","The main experiment item","yes","m21-ab-lexicalDecision.osexp","C:\Users\ekealey\Desktop","no","mono","no","18","no","white","no","yes","1080","legacy","88","88","C:/Users/ekealey/Desktop/subject-219.csv","xpyriment","Lentiform Loewenfeld","3.3.11","0","z","space","NA","NA","NA","space","z","610","12948","NA","NA","NA","77835","610","2","legacy","1024","2","48000","-16","AB_m21","219","odd","FILL_NW","VOGS","1792","456154","454376","447124","79641","387475","NA","NA","NA","NA","454876","NA","NA","NA","453875","NA","453848","1805","456454","NA","NA","NA","454917","1792","1792","NA","455528","455551","453848","454876","454897","morph21_Oliver/Morris","82","52132","89","yes","1920","47"
"400","92.22222222222223","92.22222222222223","584.0333333333333","584.0333333333333","black","no","xpyriment","legacy","legacy","0","207","NA","uniform","NA","NA","NA","1","undefined","1","0","89","89","89","0","89","89","89","NA","0","89","NA","NA","0","89","NA","89","0","89","NA","NA","NA","89","0","0","NA","89","89","89","89","89","90","/","Wed Oct  4 15:21:31 2023","The main experiment item","yes","m21-ab-lexicalDecision.osexp","C:\Users\ekealey\Desktop","no","mono","no","18","no","white","no","yes","1080","legacy","89","89","C:/Users/ekealey/Desktop/subject-219.csv","xpyriment","Lentiform Loewenfeld","3.3.11","0","/","space","NA","NA","NA","space","/","431","12948","NA","NA","NA","77835","431","2","legacy","1024","2","48000","-16","AB_m21","219","odd","FILL_W","QUIT","1792","461124","458020","459620","79641","387475","NA","NA","NA","NA","458520","NA","NA","NA","457519","NA","457490","1805","461524","NA","NA","NA","458560","1792","1792","NA","458992","459016","457490","458520","458540","morph21_Oliver/Morris","83","52563","90","yes","1920","21"
"300","92.3076923076923","92.3076923076923","582.032967032967","582.032967032967","black","no","xpyriment","legacy","legacy","0","202","NA","uniform","NA","NA","NA","1","undefined","1","0","90","90","90","0","90","90","90","NA","0","90","NA","NA","0","90","NA","90","0","90","NA","NA","NA","90","0","0","NA","90","90","90","90","90","91","/","Wed Oct  4 15:21:31 2023","The main experiment item","yes","m21-ab-lexicalDecision.osexp","C:\Users\ekealey\Desktop","no","mono","no","18","no","white","no","yes","1080","legacy","90","90","C:/Users/ekealey/Desktop/subject-219.csv","xpyriment","Lentiform Loewenfeld","3.3.11","0","/","space","NA","NA","NA","space","/","402","12948","NA","NA","NA","77835","402","2","legacy","1024","2","48000","-16","AB_m21","219","odd","CW_L","PROFESSOR","1792","464650","463079","459620","79641","387475","NA","NA","NA","NA","463580","NA","NA","NA","462578","NA","462548","1805","464950","NA","NA","NA","463621","1792","1792","NA","464024","464047","462548","463580","463601","morph21_Oliver/Morris","84","52965","91","yes","1920","47"
"350","92.3913043478261","92.3913043478261","581.8369565217391","581.8369565217391","black","no","xpyriment","legacy","legacy","0","202","NA","uniform","NA","NA","NA","1","undefined","1","0","91","91","91","0","91","91","91","NA","0","91","NA","NA","0","91","NA","91","0","91","NA","NA","NA","91","0","0","NA","91","91","91","91","91","92","/","Wed Oct  4 15:21:31 2023","The main experiment item","yes","m21-ab-lexicalDecision.osexp","C:\Users\ekealey\Desktop","no","mono","no","18","no","white","no","yes","1080","legacy","91","91","C:/Users/ekealey/Desktop/subject-219.csv","xpyriment","Lentiform Loewenfeld","3.3.11","0","/","space","NA","NA","NA","space","/","564","12948","NA","NA","NA","77835","564","2","legacy","1024","2","48000","-16","AB_m21","219","odd","CW_L","JUMPING","1792","468227","466494","459620","79641","387475","NA","NA","NA","NA","466995","NA","NA","NA","465994","NA","465963","1805","468577","NA","NA","NA","467035","1792","1792","NA","467600","467624","465963","466995","467015","morph21_Oliver/Morris","85","53529","92","yes","1920","30"
