"ITI","acc","accuracy","average_response_time","avg_rt","background","bidi","canvas_backend","clock_backend","color_backend","compensation","cond_trig","condtrigtime","coordinates","coroutines_cycles","coroutines_duration","coroutines_mean_cycle_duration","correct","correct_instructions_1","correct_new_keyboard_response_1","count_AB_m21","count_ITI","count_blank_screen","count_blink_screen","count_block1","count_break1","count_break2","count_break3_1","count_canvas","count_close_port","count_cond_trigger","count_correct_trigger","count_def_chain","count_end_screen","count_fixation_1","count_getting_started","count_inc_counter","count_instructions_1","count_logger","count_logscript","count_new_inline_script","count_new_inline_script_2","count_new_keyboard_response_1","count_open_port","count_reset_counter_prep","count_reset_counter_run","count_response_trigger_trial","count_responsescreen","count_sequence","count_target_present","count_word_trigger","counter","cresp","datetime","description","disable_garbage_collection","experiment_file","experiment_path","font_bold","font_family","font_italic","font_size","font_underline","foreground","form_clicks","fullscreen","height","keyboard_backend","live_row","live_row_block1","logfile","mouse_backend","opensesame_codename","opensesame_version","repeat_cycle","response","response_break1","response_break2","response_break3_1","response_end_screen","response_instructions_1","response_new_keyboard_response_1","response_time","response_time_break1","response_time_break2","response_time_break3_1","response_time_end_screen","response_time_instructions_1","response_time_new_keyboard_response_1","round_decimals","sampler_backend","sound_buf_size","sound_channels","sound_freq","sound_sample_size","start","subject_nr","subject_parity","targ_type","target","time_AB_m21","time_ITI","time_blank_screen","time_blink_screen","time_block1","time_break1","time_break2","time_break3_1","time_canvas","time_close_port","time_cond_trigger","time_correct_trigger","time_def_chain","time_end_screen","time_fixation_1","time_getting_started","time_inc_counter","time_instructions_1","time_logger","time_logscript","time_new_inline_script","time_new_inline_script_2","time_new_keyboard_response_1","time_open_port","time_reset_counter_prep","time_reset_counter_run","time_response_trigger_trial","time_responsescreen","time_sequence","time_target_present","time_word_trigger","title","total_correct","total_response_time","total_responses","uniform_coordinates","width","word_trig"
"200","0","0","1200","1200","black","no","xpyriment","legacy","legacy","0","203","NA","uniform","NA","NA","NA","0","undefined","0","0","0","0","0","0","0","0","0","NA","0","0","NA","NA","0","0","NA","0","0","0","NA","NA","NA","0","0","0","NA","0","0","0","0","0","1","z","Thu Jul  6 08:45:50 2023","The main experiment item","yes","m21-ab-lexicalDecision.osexp","C:\Users\emoore8\Desktop\m21_vsl-main","no","mono","no","18","no","white","no","yes","1080","legacy","0","0","C:/Users/emoore8/Desktop/m21_vsl-main/subject-215.csv","xpyriment","Lentiform Loewenfeld","3.3.11","0","None","NA","NA","NA","NA","space","None","1200","NA","NA","NA","NA","55724","1200","2","legacy","1024","2","48000","-16","AB_m21","215","odd","NW_S_COMP","FANFUL","2172","62196","59825","NA","57908","NA","NA","NA","NA","NA","60325","NA","NA","NA","59322","NA","59268","2182","62396","NA","NA","NA","60366","2172","2172","NA","61566","61590","59267","60325","60346","morph21_Oliver/Morris","0","1200","1","yes","1920","6"
"200","50","50","1009.5","1009.5","black","no","xpyriment","legacy","legacy","0","201","NA","uniform","NA","NA","NA","1","undefined","1","0","1","1","1","0","1","1","1","NA","0","1","NA","NA","0","1","NA","1","0","1","NA","NA","NA","1","0","0","NA","1","1","1","1","1","2","/","Thu Jul  6 08:45:50 2023","The main experiment item","yes","m21-ab-lexicalDecision.osexp","C:\Users\emoore8\Desktop\m21_vsl-main","no","mono","no","18","no","white","no","yes","1080","legacy","1","1","C:/Users/emoore8/Desktop/m21_vsl-main/subject-215.csv","xpyriment","Lentiform Loewenfeld","3.3.11","0","/","NA","NA","NA","NA","space","/","819","NA","NA","NA","NA","55724","819","2","legacy","1024","2","48000","-16","AB_m21","215","odd","CW_S","LOCALLY","2172","66054","64064","NA","57908","NA","NA","NA","NA","NA","64566","NA","NA","NA","63563","NA","63538","2182","66254","NA","NA","NA","64607","2172","2172","NA","65427","65451","63538","64566","64587","morph21_Oliver/Morris","1","2019","2","yes","1920","37"
"400","66.66666666666667","66.66666666666667","956.6666666666666","956.6666666666666","black","no","xpyriment","legacy","legacy","0","202","NA","uniform","NA","NA","NA","1","undefined","1","0","2","2","2","0","2","2","2","NA","0","2","NA","NA","0","2","NA","2","0","2","NA","NA","NA","2","0","0","NA","2","2","2","2","2","3","/","Thu Jul  6 08:45:50 2023","The main experiment item","yes","m21-ab-lexicalDecision.osexp","C:\Users\emoore8\Desktop\m21_vsl-main","no","mono","no","18","no","white","no","yes","1080","legacy","2","2","C:/Users/emoore8/Desktop/m21_vsl-main/subject-215.csv","xpyriment","Lentiform Loewenfeld","3.3.11","0","/","NA","NA","NA","NA","space","/","851","NA","NA","NA","NA","55724","851","2","legacy","1024","2","48000","-16","AB_m21","215","odd","CW_L","COOLING","2172","71328","67802","69823","57908","NA","NA","NA","NA","NA","68304","NA","NA","NA","67302","NA","67278","2182","71728","NA","NA","NA","68344","2172","2172","NA","69195","69219","67278","68304","68324","morph21_Oliver/Morris","2","2870","3","yes","1920","24"
"200","75","75","880.5","880.5","black","no","xpyriment","legacy","legacy","0","201","NA","uniform","NA","NA","NA","1","undefined","1","0","3","3","3","0","3","3","3","NA","0","3","NA","NA","0","3","NA","3","0","3","NA","NA","NA","3","0","0","NA","3","3","3","3","3","4","/","Thu Jul  6 08:45:50 2023","The main experiment item","yes","m21-ab-lexicalDecision.osexp","C:\Users\emoore8\Desktop\m21_vsl-main","no","mono","no","18","no","white","no","yes","1080","legacy","3","3","C:/Users/emoore8/Desktop/m21_vsl-main/subject-215.csv","xpyriment","Lentiform Loewenfeld","3.3.11","0","/","NA","NA","NA","NA","space","/","652","NA","NA","NA","NA","55724","652","2","legacy","1024","2","48000","-16","AB_m21","215","odd","CW_S","LISTENER","2172","75061","73243","69823","57908","NA","NA","NA","NA","NA","73743","NA","NA","NA","72741","NA","72714","2182","75261","NA","NA","NA","73783","2172","2172","NA","74436","74458","72714","73743","73763","morph21_Oliver/Morris","3","3522","4","yes","1920","18"
"200","80","80","863.2","863.2","black","no","xpyriment","legacy","legacy","0","207","NA","uniform","NA","NA","NA","1","undefined","1","0","4","4","4","0","4","4","4","NA","0","4","NA","NA","0","4","NA","4","0","4","NA","NA","NA","4","0","0","NA","4","4","4","4","4","5","/","Thu Jul  6 08:45:50 2023","The main experiment item","yes","m21-ab-lexicalDecision.osexp","C:\Users\emoore8\Desktop\m21_vsl-main","no","mono","no","18","no","white","no","yes","1080","legacy","4","4","C:/Users/emoore8/Desktop/m21_vsl-main/subject-215.csv","xpyriment","Lentiform Loewenfeld","3.3.11","0","/","NA","NA","NA","NA","space","/","794","NA","NA","NA","NA","55724","794","2","legacy","1024","2","48000","-16","AB_m21","215","odd","FILL_W","GOLF","2172","78726","76763","69823","57908","NA","NA","NA","NA","NA","77264","NA","NA","NA","76262","NA","76238","2182","78926","NA","NA","NA","77305","2172","2172","NA","78099","78122","76238","77264","77285","morph21_Oliver/Morris","4","4316","5","yes","1920","28"
"350","66.66666666666667","66.66666666666667","919.3333333333334","919.3333333333334","black","no","xpyriment","legacy","legacy","0","208","NA","uniform","NA","NA","NA","0","undefined","0","0","5","5","5","0","5","5","5","NA","0","5","NA","NA","0","5","NA","5","0","5","NA","NA","NA","5","0","0","NA","5","5","5","5","5","6","z","Thu Jul  6 08:45:50 2023","The main experiment item","yes","m21-ab-lexicalDecision.osexp","C:\Users\emoore8\Desktop\m21_vsl-main","no","mono","no","18","no","white","no","yes","1080","legacy","5","5","C:/Users/emoore8/Desktop/m21_vsl-main/subject-215.csv","xpyriment","Lentiform Loewenfeld","3.3.11","0","None","NA","NA","NA","NA","space","None","1200","NA","NA","NA","NA","55724","1200","2","legacy","1024","2","48000","-16","AB_m21","215","odd","FILL_NW","DELP","2172","84306","80428","82800","57908","NA","NA","NA","NA","NA","80930","NA","NA","NA","79926","NA","79902","2182","84656","NA","NA","NA","80970","2172","2172","NA","82170","82194","79902","80929","80950","morph21_Oliver/Morris","4","5516","6","yes","1920","14"
"350","57.142857142857146","57.142857142857146","954.7142857142857","954.7142857142857","black","no","xpyriment","legacy","legacy","0","208","NA","uniform","NA","NA","NA","0","undefined","0","0","6","6","6","0","6","6","6","NA","0","6","NA","NA","0","6","NA","6","0","6","NA","NA","NA","6","0","0","NA","6","6","6","6","6","7","z","Thu Jul  6 08:45:50 2023","The main experiment item","yes","m21-ab-lexicalDecision.osexp","C:\Users\emoore8\Desktop\m21_vsl-main","no","mono","no","18","no","white","no","yes","1080","legacy","6","6","C:/Users/emoore8/Desktop/m21_vsl-main/subject-215.csv","xpyriment","Lentiform Loewenfeld","3.3.11","0","/","NA","NA","NA","NA","space","/","1167","NA","NA","NA","NA","55724","1167","2","legacy","1024","2","48000","-16","AB_m21","215","odd","FILL_NW","BLANTH","2172","88510","86174","82800","57908","NA","NA","NA","NA","NA","86674","NA","NA","NA","85673","NA","85647","2182","88860","NA","NA","NA","86715","2172","2172","NA","87883","87907","85647","86674","86695","morph21_Oliver/Morris","4","6683","7","yes","1920","3"
"300","62.5","62.5","910.375","910.375","black","no","xpyriment","legacy","legacy","0","207","NA","uniform","NA","NA","NA","1","undefined","1","0","7","7","7","0","7","7","7","NA","0","7","NA","NA","0","7","NA","7","0","7","NA","NA","NA","7","0","0","NA","7","7","7","7","7","8","/","Thu Jul  6 08:45:50 2023","The main experiment item","yes","m21-ab-lexicalDecision.osexp","C:\Users\emoore8\Desktop\m21_vsl-main","no","mono","no","18","no","white","no","yes","1080","legacy","7","7","C:/Users/emoore8/Desktop/m21_vsl-main/subject-215.csv","xpyriment","Lentiform Loewenfeld","3.3.11","0","/","NA","NA","NA","NA","space","/","600","NA","NA","NA","NA","55724","600","2","legacy","1024","2","48000","-16","AB_m21","215","odd","FILL_W","SICK","2172","92126","90358","82800","57908","NA","NA","NA","NA","NA","90858","NA","NA","NA","89858","NA","89833","2182","92426","NA","NA","NA","90899","2172","2172","NA","91500","91523","89833","90858","90879","morph21_Oliver/Morris","5","7283","8","yes","1920","36"
"200","66.66666666666667","66.66666666666667","874.3333333333334","874.3333333333334","black","no","xpyriment","legacy","legacy","0","202","NA","uniform","NA","NA","NA","1","undefined","1","0","8","8","8","0","8","8","8","NA","0","8","NA","NA","0","8","NA","8","0","8","NA","NA","NA","8","0","0","NA","8","8","8","8","8","9","/","Thu Jul  6 08:45:50 2023","The main experiment item","yes","m21-ab-lexicalDecision.osexp","C:\Users\emoore8\Desktop\m21_vsl-main","no","mono","no","18","no","white","no","yes","1080","legacy","8","8","C:/Users/emoore8/Desktop/m21_vsl-main/subject-215.csv","xpyriment","Lentiform Loewenfeld","3.3.11","0","/","NA","NA","NA","NA","space","/","586","NA","NA","NA","NA","55724","586","2","legacy","1024","2","48000","-16","AB_m21","215","odd","CW_L","BOOTLESS","2172","97183","93924","95679","57908","NA","NA","NA","NA","NA","94424","NA","NA","NA","93424","NA","93398","2182","97383","NA","NA","NA","94465","2172","2172","NA","95051","95076","93398","94424","94445","morph21_Oliver/Morris","6","7869","9","yes","1920","32"
"200","60","60","906.9","906.9","black","no","xpyriment","legacy","legacy","0","203","NA","uniform","NA","NA","NA","0","undefined","0","0","9","9","9","0","9","9","9","NA","0","9","NA","NA","0","9","NA","9","0","9","NA","NA","NA","9","0","0","NA","9","9","9","9","9","10","z","Thu Jul  6 08:45:50 2023","The main experiment item","yes","m21-ab-lexicalDecision.osexp","C:\Users\emoore8\Desktop\m21_vsl-main","no","mono","no","18","no","white","no","yes","1080","legacy","9","9","C:/Users/emoore8/Desktop/m21_vsl-main/subject-215.csv","xpyriment","Lentiform Loewenfeld","3.3.11","0","None","NA","NA","NA","NA","space","None","1200","NA","NA","NA","NA","55724","1200","2","legacy","1024","2","48000","-16","AB_m21","215","odd","NW_S_COMP","HAPPENANCE","2172","101305","98935","95679","57908","NA","NA","NA","NA","NA","99436","NA","NA","NA","98434","NA","98409","2182","101505","NA","NA","NA","99476","2172","2172","NA","100676","100701","98409","99436","99456","morph21_Oliver/Morris","6","9069","10","yes","1920","2"
"250","63.63636363636363","63.63636363636363","887.6363636363636","887.6363636363636","black","no","xpyriment","legacy","legacy","0","202","NA","uniform","NA","NA","NA","1","undefined","1","0","10","10","10","0","10","10","10","NA","0","10","NA","NA","0","10","NA","10","0","10","NA","NA","NA","10","0","0","NA","10","10","10","10","10","11","/","Thu Jul  6 08:45:50 2023","The main experiment item","yes","m21-ab-lexicalDecision.osexp","C:\Users\emoore8\Desktop\m21_vsl-main","no","mono","no","18","no","white","no","yes","1080","legacy","10","10","C:/Users/emoore8/Desktop/m21_vsl-main/subject-215.csv","xpyriment","Lentiform Loewenfeld","3.3.11","0","/","NA","NA","NA","NA","space","/","695","NA","NA","NA","NA","55724","695","2","legacy","1024","2","48000","-16","AB_m21","215","odd","CW_L","DREAMER","2172","104878","103015","95679","57908","NA","NA","NA","NA","NA","103515","NA","NA","NA","102514","NA","102486","2182","105128","NA","NA","NA","103556","2172","2172","NA","104251","104275","102486","103515","103536","morph21_Oliver/Morris","7","9764","11","yes","1920","12"
"300","66.66666666666667","66.66666666666667","893.5833333333334","893.5833333333334","black","no","xpyriment","legacy","legacy","0","208","NA","uniform","NA","NA","NA","1","undefined","1","0","11","11","11","0","11","11","11","NA","0","11","NA","NA","0","11","NA","11","0","11","NA","NA","NA","11","0","0","NA","11","11","11","11","11","12","z","Thu Jul  6 08:45:50 2023","The main experiment item","yes","m21-ab-lexicalDecision.osexp","C:\Users\emoore8\Desktop\m21_vsl-main","no","mono","no","18","no","white","no","yes","1080","legacy","11","11","C:/Users/emoore8/Desktop/m21_vsl-main/subject-215.csv","xpyriment","Lentiform Loewenfeld","3.3.11","0","z","NA","NA","NA","NA","space","z","959","NA","NA","NA","NA","55724","959","2","legacy","1024","2","48000","-16","AB_m21","215","odd","FILL_NW","DASK","2172","110266","106631","108758","57908","NA","NA","NA","NA","NA","107132","NA","NA","NA","106129","NA","106106","2182","110566","NA","NA","NA","107172","2172","2172","NA","108131","108155","106106","107131","107152","morph21_Oliver/Morris","8","10723","12","yes","1920","12"
"350","69.23076923076923","69.23076923076923","893","893","black","no","xpyriment","legacy","legacy","0","201","NA","uniform","NA","NA","NA","1","undefined","1","0","12","12","12","0","12","12","12","NA","0","12","NA","NA","0","12","NA","12","0","12","NA","NA","NA","12","0","0","NA","12","12","12","12","12","13","/","Thu Jul  6 08:45:50 2023","The main experiment item","yes","m21-ab-lexicalDecision.osexp","C:\Users\emoore8\Desktop\m21_vsl-main","no","mono","no","18","no","white","no","yes","1080","legacy","12","12","C:/Users/emoore8/Desktop/m21_vsl-main/subject-215.csv","xpyriment","Lentiform Loewenfeld","3.3.11","0","/","NA","NA","NA","NA","space","/","886","NA","NA","NA","NA","55724","886","2","legacy","1024","2","48000","-16","AB_m21","215","odd","CW_S","DULLNESS","2172","114201","112144","108758","57908","NA","NA","NA","NA","NA","112645","NA","NA","NA","111643","NA","111615","2182","114551","NA","NA","NA","112685","2172","2172","NA","113572","113596","111615","112644","112665","morph21_Oliver/Morris","9","11609","13","yes","1920","43"
"200","64.28571428571429","64.28571428571429","914.9285714285714","914.9285714285714","black","no","xpyriment","legacy","legacy","0","201","NA","uniform","NA","NA","NA","0","undefined","0","0","13","13","13","0","13","13","13","NA","0","13","NA","NA","0","13","NA","13","0","13","NA","NA","NA","13","0","0","NA","13","13","13","13","13","14","/","Thu Jul  6 08:45:50 2023","The main experiment item","yes","m21-ab-lexicalDecision.osexp","C:\Users\emoore8\Desktop\m21_vsl-main","no","mono","no","18","no","white","no","yes","1080","legacy","13","13","C:/Users/emoore8/Desktop/m21_vsl-main/subject-215.csv","xpyriment","Lentiform Loewenfeld","3.3.11","0","None","NA","NA","NA","NA","space","None","1200","NA","NA","NA","NA","55724","1200","2","legacy","1024","2","48000","-16","AB_m21","215","odd","CW_S","CAMPAIGNER","2172","118413","116045","108758","57908","NA","NA","NA","NA","NA","116545","NA","NA","NA","115544","NA","115518","2182","118614","NA","NA","NA","116586","2172","2172","NA","117786","117809","115518","116545","116566","morph21_Oliver/Morris","9","12809","14","yes","1920","15"
"200","66.66666666666667","66.66666666666667","911.3333333333334","911.3333333333334","black","no","xpyriment","legacy","legacy","0","201","NA","uniform","NA","NA","NA","1","undefined","1","0","14","14","14","0","14","14","14","NA","0","14","NA","NA","0","14","NA","14","0","14","NA","NA","NA","14","0","0","NA","14","14","14","14","14","15","/","Thu Jul  6 08:45:50 2023","The main experiment item","yes","m21-ab-lexicalDecision.osexp","C:\Users\emoore8\Desktop\m21_vsl-main","no","mono","no","18","no","white","no","yes","1080","legacy","14","14","C:/Users/emoore8/Desktop/m21_vsl-main/subject-215.csv","xpyriment","Lentiform Loewenfeld","3.3.11","0","/","NA","NA","NA","NA","space","/","861","NA","NA","NA","NA","55724","861","2","legacy","1024","2","48000","-16","AB_m21","215","odd","CW_S","BOLDNESS","2172","123665","120130","122159","57908","NA","NA","NA","NA","NA","120630","NA","NA","NA","119629","NA","119605","2182","123865","NA","NA","NA","120670","2172","2172","NA","121532","121555","119605","120630","120650","morph21_Oliver/Morris","10","13670","15","yes","1920","41"
"200","68.75","68.75","892.75","892.75","black","no","xpyriment","legacy","legacy","0","207","NA","uniform","NA","NA","NA","1","undefined","1","0","15","15","15","0","15","15","15","NA","0","15","NA","NA","0","15","NA","15","0","15","NA","NA","NA","15","0","0","NA","15","15","15","15","15","16","/","Thu Jul  6 08:45:50 2023","The main experiment item","yes","m21-ab-lexicalDecision.osexp","C:\Users\emoore8\Desktop\m21_vsl-main","no","mono","no","18","no","white","no","yes","1080","legacy","15","15","C:/Users/emoore8/Desktop/m21_vsl-main/subject-215.csv","xpyriment","Lentiform Loewenfeld","3.3.11","0","/","NA","NA","NA","NA","space","/","614","NA","NA","NA","NA","55724","614","2","legacy","1024","2","48000","-16","AB_m21","215","odd","FILL_W","TEST","2172","127423","125640","122159","57908","NA","NA","NA","NA","NA","126141","NA","NA","NA","125139","NA","125114","2182","127623","NA","NA","NA","126181","2172","2172","NA","126795","126819","125114","126141","126161","morph21_Oliver/Morris","11","14284","16","yes","1920","47"
"250","70.58823529411765","70.58823529411765","875.2941176470588","875.2941176470588","black","no","xpyriment","legacy","legacy","0","202","NA","uniform","NA","NA","NA","1","undefined","1","0","16","16","16","0","16","16","16","NA","0","16","NA","NA","0","16","NA","16","0","16","NA","NA","NA","16","0","0","NA","16","16","16","16","16","17","/","Thu Jul  6 08:45:50 2023","The main experiment item","yes","m21-ab-lexicalDecision.osexp","C:\Users\emoore8\Desktop\m21_vsl-main","no","mono","no","18","no","white","no","yes","1080","legacy","16","16","C:/Users/emoore8/Desktop/m21_vsl-main/subject-215.csv","xpyriment","Lentiform Loewenfeld","3.3.11","0","/","NA","NA","NA","NA","space","/","596","NA","NA","NA","NA","55724","596","2","legacy","1024","2","48000","-16","AB_m21","215","odd","CW_L","DANCER","2172","130911","129146","122159","57908","NA","NA","NA","NA","NA","129647","NA","NA","NA","128646","NA","128619","2182","131161","NA","NA","NA","129687","2172","2172","NA","130283","130308","128619","129647","129667","morph21_Oliver/Morris","12","14880","17","yes","1920","11"
"250","72.22222222222223","72.22222222222223","868.6111111111111","868.6111111111111","black","no","xpyriment","legacy","legacy","0","201","NA","uniform","NA","NA","NA","1","undefined","1","0","17","17","17","0","17","17","17","NA","0","17","NA","NA","0","17","NA","17","0","17","NA","NA","NA","17","0","0","NA","17","17","17","17","17","18","/","Thu Jul  6 08:45:50 2023","The main experiment item","yes","m21-ab-lexicalDecision.osexp","C:\Users\emoore8\Desktop\m21_vsl-main","no","mono","no","18","no","white","no","yes","1080","legacy","17","17","C:/Users/emoore8/Desktop/m21_vsl-main/subject-215.csv","xpyriment","Lentiform Loewenfeld","3.3.11","0","/","NA","NA","NA","NA","space","/","755","NA","NA","NA","NA","55724","755","2","legacy","1024","2","48000","-16","AB_m21","215","odd","CW_S","AWARENESS","2172","136118","132691","134615","57908","NA","NA","NA","NA","NA","133191","NA","NA","NA","132190","NA","132166","2182","136368","NA","NA","NA","133232","2172","2172","NA","133988","134011","132166","133191","133212","morph21_Oliver/Morris","13","15635","18","yes","1920","44"
"250","73.6842105263158","73.6842105263158","878.3684210526316","878.3684210526316","black","no","xpyriment","legacy","legacy","0","201","NA","uniform","NA","NA","NA","1","undefined","1","0","18","18","18","0","18","18","18","NA","0","18","NA","NA","0","18","NA","18","0","18","NA","NA","NA","18","0","0","NA","18","18","18","18","18","19","/","Thu Jul  6 08:45:50 2023","The main experiment item","yes","m21-ab-lexicalDecision.osexp","C:\Users\emoore8\Desktop\m21_vsl-main","no","mono","no","18","no","white","no","yes","1080","legacy","18","18","C:/Users/emoore8/Desktop/m21_vsl-main/subject-215.csv","xpyriment","Lentiform Loewenfeld","3.3.11","0","/","NA","NA","NA","NA","space","/","1054","NA","NA","NA","NA","55724","1054","2","legacy","1024","2","48000","-16","AB_m21","215","odd","CW_S","NOTICEABLE","2172","140160","137935","134615","57908","NA","NA","NA","NA","NA","138437","NA","NA","NA","137435","NA","137405","2182","140410","NA","NA","NA","138477","2172","2172","NA","139531","139555","137405","138436","138457","morph21_Oliver/Morris","14","16689","19","yes","1920","3"
"300","70","70","894.45","894.45","black","no","xpyriment","legacy","legacy","0","205","NA","uniform","NA","NA","NA","0","undefined","0","0","19","19","19","0","19","19","19","NA","0","19","NA","NA","0","19","NA","19","0","19","NA","NA","NA","19","0","0","NA","19","19","19","19","19","20","z","Thu Jul  6 08:45:50 2023","The main experiment item","yes","m21-ab-lexicalDecision.osexp","C:\Users\emoore8\Desktop\m21_vsl-main","no","mono","no","18","no","white","no","yes","1080","legacy","19","19","C:/Users/emoore8/Desktop/m21_vsl-main/subject-215.csv","xpyriment","Lentiform Loewenfeld","3.3.11","0","None","NA","NA","NA","NA","space","None","1200","NA","NA","NA","NA","55724","1200","2","legacy","1024","2","48000","-16","AB_m21","215","odd","NW_S_SIMP","HELMETOES","2172","144307","141937","134615","57908","NA","NA","NA","NA","NA","142439","NA","NA","NA","141436","NA","141412","2182","144607","NA","NA","NA","142479","2172","2172","NA","143679","143704","141412","142438","142459","morph21_Oliver/Morris","14","17889","20","yes","1920","14"
"300","66.66666666666667","66.66666666666667","909","909","black","no","xpyriment","legacy","legacy","0","204","NA","uniform","NA","NA","NA","0","undefined","0","0","20","20","20","0","20","20","20","NA","0","20","NA","NA","0","20","NA","20","0","20","NA","NA","NA","20","0","0","NA","20","20","20","20","20","21","z","Thu Jul  6 08:45:50 2023","The main experiment item","yes","m21-ab-lexicalDecision.osexp","C:\Users\emoore8\Desktop\m21_vsl-main","no","mono","no","18","no","white","no","yes","1080","legacy","20","20","C:/Users/emoore8/Desktop/m21_vsl-main/subject-215.csv","xpyriment","Lentiform Loewenfeld","3.3.11","0","None","NA","NA","NA","NA","space","None","1200","NA","NA","NA","NA","55724","1200","2","legacy","1024","2","48000","-16","AB_m21","215","odd","NW_L_COMP","BINDIC","2172","149983","146112","148479","57908","NA","NA","NA","NA","NA","146613","NA","NA","NA","145612","NA","145586","2182","150283","NA","NA","NA","146653","2172","2172","NA","147853","147876","145586","146613","146633","morph21_Oliver/Morris","14","19089","21","yes","1920","22"
"200","68.18181818181819","68.18181818181819","909.5454545454545","909.5454545454545","black","no","xpyriment","legacy","legacy","0","202","NA","uniform","NA","NA","NA","1","undefined","1","0","21","21","21","0","21","21","21","NA","0","21","NA","NA","0","21","NA","21","0","21","NA","NA","NA","21","0","0","NA","21","21","21","21","21","22","/","Thu Jul  6 08:45:50 2023","The main experiment item","yes","m21-ab-lexicalDecision.osexp","C:\Users\emoore8\Desktop\m21_vsl-main","no","mono","no","18","no","white","no","yes","1080","legacy","21","21","C:/Users/emoore8/Desktop/m21_vsl-main/subject-215.csv","xpyriment","Lentiform Loewenfeld","3.3.11","0","/","NA","NA","NA","NA","space","/","921","NA","NA","NA","NA","55724","921","2","legacy","1024","2","48000","-16","AB_m21","215","odd","CW_L","SHAMEFUL","2172","153942","151853","148479","57908","NA","NA","NA","NA","NA","152353","NA","NA","NA","151353","NA","151325","2182","154142","NA","NA","NA","152394","2172","2172","NA","153315","153339","151325","152353","152374","morph21_Oliver/Morris","15","20010","22","yes","1920","19"
"350","69.56521739130434","69.56521739130434","918.1739130434783","918.1739130434783","black","no","xpyriment","legacy","legacy","0","206","NA","uniform","NA","NA","NA","1","undefined","1","0","22","22","22","0","22","22","22","NA","0","22","NA","NA","0","22","NA","22","0","22","NA","NA","NA","22","0","0","NA","22","22","22","22","22","23","z","Thu Jul  6 08:45:50 2023","The main experiment item","yes","m21-ab-lexicalDecision.osexp","C:\Users\emoore8\Desktop\m21_vsl-main","no","mono","no","18","no","white","no","yes","1080","legacy","22","22","C:/Users/emoore8/Desktop/m21_vsl-main/subject-215.csv","xpyriment","Lentiform Loewenfeld","3.3.11","0","z","NA","NA","NA","NA","space","z","1108","NA","NA","NA","NA","55724","1108","2","legacy","1024","2","48000","-16","AB_m21","215","odd","NW_L_SIMP","WITCHITH","2172","157950","155674","148479","57908","NA","NA","NA","NA","NA","156175","NA","NA","NA","155173","NA","155146","2182","158301","NA","NA","NA","156215","2172","2172","NA","157323","157347","155146","156175","156195","morph21_Oliver/Morris","16","21118","23","yes","1920","11"
"250","70.83333333333333","70.83333333333333","922.0416666666666","922.0416666666666","black","no","xpyriment","legacy","legacy","0","206","NA","uniform","NA","NA","NA","1","undefined","1","0","23","23","23","0","23","23","23","NA","0","23","NA","NA","0","23","NA","23","0","23","NA","NA","NA","23","0","0","NA","23","23","23","23","23","24","z","Thu Jul  6 08:45:50 2023","The main experiment item","yes","m21-ab-lexicalDecision.osexp","C:\Users\emoore8\Desktop\m21_vsl-main","no","mono","no","18","no","white","no","yes","1080","legacy","23","23","C:/Users/emoore8/Desktop/m21_vsl-main/subject-215.csv","xpyriment","Lentiform Loewenfeld","3.3.11","0","z","NA","NA","NA","NA","space","z","1011","NA","NA","NA","NA","55724","1011","2","legacy","1024","2","48000","-16","AB_m21","215","odd","NW_L_SIMP","BEARILT","2172","163478","159794","161973","57908","NA","NA","NA","NA","NA","160295","NA","NA","NA","159295","NA","159272","2182","163728","NA","NA","NA","160336","2172","2172","NA","161347","161371","159272","160295","160316","morph21_Oliver/Morris","17","22129","24","yes","1920","25"
"250","72","72","924.92","924.92","black","no","xpyriment","legacy","legacy","0","205","NA","uniform","NA","NA","NA","1","undefined","1","0","24","24","24","0","24","24","24","NA","0","24","NA","NA","0","24","NA","24","0","24","NA","NA","NA","24","0","0","NA","24","24","24","24","24","25","z","Thu Jul  6 08:45:50 2023","The main experiment item","yes","m21-ab-lexicalDecision.osexp","C:\Users\emoore8\Desktop\m21_vsl-main","no","mono","no","18","no","white","no","yes","1080","legacy","24","24","C:/Users/emoore8/Desktop/m21_vsl-main/subject-215.csv","xpyriment","Lentiform Loewenfeld","3.3.11","0","z","NA","NA","NA","NA","space","z","994","NA","NA","NA","NA","55724","994","2","legacy","1024","2","48000","-16","AB_m21","215","odd","NW_S_SIMP","ZOOMFIL","2172","167432","165267","161973","57908","NA","NA","NA","NA","NA","165769","NA","NA","NA","164764","NA","164741","2182","167682","NA","NA","NA","165809","2172","2172","NA","166803","166828","164741","165769","165789","morph21_Oliver/Morris","18","23123","25","yes","1920","19"
"250","69.23076923076923","69.23076923076923","935.5","935.5","black","no","xpyriment","legacy","legacy","0","201","NA","uniform","NA","NA","NA","0","undefined","0","0","25","25","25","0","25","25","25","NA","0","25","NA","NA","0","25","NA","25","0","25","NA","NA","NA","25","0","0","NA","25","25","25","25","25","26","/","Thu Jul  6 08:45:50 2023","The main experiment item","yes","m21-ab-lexicalDecision.osexp","C:\Users\emoore8\Desktop\m21_vsl-main","no","mono","no","18","no","white","no","yes","1080","legacy","25","25","C:/Users/emoore8/Desktop/m21_vsl-main/subject-215.csv","xpyriment","Lentiform Loewenfeld","3.3.11","0","None","NA","NA","NA","NA","space","None","1200","NA","NA","NA","NA","55724","1200","2","legacy","1024","2","48000","-16","AB_m21","215","odd","CW_S","HUGELY","2172","171563","169193","161973","57908","NA","NA","NA","NA","NA","169693","NA","NA","NA","168691","NA","168668","2182","171813","NA","NA","NA","169734","2172","2172","NA","170934","170957","168668","169693","169714","morph21_Oliver/Morris","18","24323","26","yes","1920","35"
"250","70.37037037037037","70.37037037037037","939.7037037037037","939.7037037037037","black","no","xpyriment","legacy","legacy","0","203","NA","uniform","NA","NA","NA","1","undefined","1","0","26","26","26","0","26","26","26","NA","0","26","NA","NA","0","26","NA","26","0","26","NA","NA","NA","26","0","0","NA","26","26","26","26","26","27","z","Thu Jul  6 08:45:50 2023","The main experiment item","yes","m21-ab-lexicalDecision.osexp","C:\Users\emoore8\Desktop\m21_vsl-main","no","mono","no","18","no","white","no","yes","1080","legacy","26","26","C:/Users/emoore8/Desktop/m21_vsl-main/subject-215.csv","xpyriment","Lentiform Loewenfeld","3.3.11","0","z","NA","NA","NA","NA","space","z","1049","NA","NA","NA","NA","55724","1049","2","legacy","1024","2","48000","-16","AB_m21","215","odd","NW_S_COMP","BEERER","2172","177029","173309","175525","57908","NA","NA","NA","NA","NA","173809","NA","NA","NA","172809","NA","172781","2182","177279","NA","NA","NA","173850","2172","2172","NA","174899","174922","172781","173809","173830","morph21_Oliver/Morris","19","25372","27","yes","1920","5"
"250","71.42857142857143","71.42857142857143","933.8571428571429","933.8571428571429","black","no","xpyriment","legacy","legacy","0","207","NA","uniform","NA","NA","NA","1","undefined","1","0","27","27","27","0","27","27","27","NA","0","27","NA","NA","0","27","NA","27","0","27","NA","NA","NA","27","0","0","NA","27","27","27","27","27","28","/","Thu Jul  6 08:45:50 2023","The main experiment item","yes","m21-ab-lexicalDecision.osexp","C:\Users\emoore8\Desktop\m21_vsl-main","no","mono","no","18","no","white","no","yes","1080","legacy","27","27","C:/Users/emoore8/Desktop/m21_vsl-main/subject-215.csv","xpyriment","Lentiform Loewenfeld","3.3.11","0","/","NA","NA","NA","NA","space","/","776","NA","NA","NA","NA","55724","776","2","legacy","1024","2","48000","-16","AB_m21","215","odd","FILL_W","SLIM","2172","180768","178821","175525","57908","NA","NA","NA","NA","NA","179322","NA","NA","NA","178321","NA","178292","2182","181018","NA","NA","NA","179362","2172","2172","NA","180139","180163","178292","179322","179342","morph21_Oliver/Morris","20","26148","28","yes","1920","6"
"300","68.96551724137932","68.96551724137932","943.0344827586207","943.0344827586207","black","no","xpyriment","legacy","legacy","0","203","NA","uniform","NA","NA","NA","0","undefined","0","0","28","28","28","0","28","28","28","NA","0","28","NA","NA","0","28","NA","28","0","28","NA","NA","NA","28","0","0","NA","28","28","28","28","28","29","z","Thu Jul  6 08:45:50 2023","The main experiment item","yes","m21-ab-lexicalDecision.osexp","C:\Users\emoore8\Desktop\m21_vsl-main","no","mono","no","18","no","white","no","yes","1080","legacy","28","28","C:/Users/emoore8/Desktop/m21_vsl-main/subject-215.csv","xpyriment","Lentiform Loewenfeld","3.3.11","0","None","NA","NA","NA","NA","space","None","1200","NA","NA","NA","NA","55724","1200","2","legacy","1024","2","48000","-16","AB_m21","215","odd","NW_S_COMP","CURTITY","2172","184898","182527","175525","57908","NA","NA","NA","NA","NA","183029","NA","NA","NA","182027","NA","182003","2182","185198","NA","NA","NA","183070","2172","2172","NA","184270","184293","182003","183029","183050","morph21_Oliver/Morris","20","27348","29","yes","1920","11"
"200","66.66666666666667","66.66666666666667","951.6","951.6","black","no","xpyriment","legacy","legacy","0","208","NA","uniform","NA","NA","NA","0","undefined","0","0","29","29","29","0","29","29","29","NA","0","29","NA","NA","0","29","NA","29","0","29","NA","NA","NA","29","0","0","NA","29","29","29","29","29","30","z","Thu Jul  6 08:45:50 2023","The main experiment item","yes","m21-ab-lexicalDecision.osexp","C:\Users\emoore8\Desktop\m21_vsl-main","no","mono","no","18","no","white","no","yes","1080","legacy","29","29","C:/Users/emoore8/Desktop/m21_vsl-main/subject-215.csv","xpyriment","Lentiform Loewenfeld","3.3.11","0","None","NA","NA","NA","NA","space","None","1200","NA","NA","NA","NA","55724","1200","2","legacy","1024","2","48000","-16","AB_m21","215","odd","FILL_NW","CINDS","2172","190601","186726","189096","57908","NA","NA","NA","NA","NA","187227","NA","NA","NA","186225","NA","186202","2182","190801","NA","NA","NA","187268","2172","2172","NA","188468","188492","186201","187227","187248","morph21_Oliver/Morris","20","28548","30","yes","1920","6"
"200","67.74193548387096","67.74193548387096","953.1935483870968","953.1935483870968","black","no","xpyriment","legacy","legacy","0","208","NA","uniform","NA","NA","NA","1","undefined","1","0","30","30","30","0","30","30","30","NA","0","30","NA","NA","0","30","NA","30","0","30","NA","NA","NA","30","0","0","NA","30","30","30","30","30","31","z","Thu Jul  6 08:45:50 2023","The main experiment item","yes","m21-ab-lexicalDecision.osexp","C:\Users\emoore8\Desktop\m21_vsl-main","no","mono","no","18","no","white","no","yes","1080","legacy","30","30","C:/Users/emoore8/Desktop/m21_vsl-main/subject-215.csv","xpyriment","Lentiform Loewenfeld","3.3.11","0","z","NA","NA","NA","NA","space","z","1001","NA","NA","NA","NA","55724","1001","2","legacy","1024","2","48000","-16","AB_m21","215","odd","FILL_NW","TUEER","2172","194511","192340","189096","57908","NA","NA","NA","NA","NA","192841","NA","NA","NA","191840","NA","191812","2182","194711","NA","NA","NA","192881","2172","2172","NA","193883","193907","191812","192840","192861","morph21_Oliver/Morris","21","29549","31","yes","1920","44"
"300","68.75","68.75","941","941","black","no","xpyriment","legacy","legacy","0","201","NA","uniform","NA","NA","NA","1","undefined","1","0","31","31","31","0","31","31","31","NA","0","31","NA","NA","0","31","NA","31","0","31","NA","NA","NA","31","0","0","NA","31","31","31","31","31","32","/","Thu Jul  6 08:45:50 2023","The main experiment item","yes","m21-ab-lexicalDecision.osexp","C:\Users\emoore8\Desktop\m21_vsl-main","no","mono","no","18","no","white","no","yes","1080","legacy","31","31","C:/Users/emoore8/Desktop/m21_vsl-main/subject-215.csv","xpyriment","Lentiform Loewenfeld","3.3.11","0","/","NA","NA","NA","NA","space","/","563","NA","NA","NA","NA","55724","563","2","legacy","1024","2","48000","-16","AB_m21","215","odd","CW_S","ATTACKER","2172","197950","196220","189096","57908","NA","NA","NA","NA","NA","196720","NA","NA","NA","195719","NA","195691","2182","198250","NA","NA","NA","196760","2172","2172","NA","197324","197347","195691","196720","196740","morph21_Oliver/Morris","22","30112","32","yes","1920","20"
"200","69.6969696969697","69.6969696969697","929.4242424242424","929.4242424242424","black","no","xpyriment","legacy","legacy","0","207","NA","uniform","NA","NA","NA","1","undefined","1","0","32","32","32","0","32","32","32","NA","0","32","NA","NA","0","32","NA","32","0","32","NA","NA","NA","32","0","0","NA","32","32","32","32","32","33","/","Thu Jul  6 08:45:50 2023","The main experiment item","yes","m21-ab-lexicalDecision.osexp","C:\Users\emoore8\Desktop\m21_vsl-main","no","mono","no","18","no","white","no","yes","1080","legacy","32","32","C:/Users/emoore8/Desktop/m21_vsl-main/subject-215.csv","xpyriment","Lentiform Loewenfeld","3.3.11","0","/","NA","NA","NA","NA","space","/","559","NA","NA","NA","NA","55724","559","2","legacy","1024","2","48000","-16","AB_m21","215","odd","FILL_W","BLEAK","2172","202999","199764","201495","57908","NA","NA","NA","NA","NA","200267","NA","NA","NA","199263","NA","199239","2182","203199","NA","NA","NA","200307","2172","2172","NA","200867","200891","199239","200266","200287","morph21_Oliver/Morris","23","30671","33","yes","1920","5"
"300","70.58823529411765","70.58823529411765","919.9705882352941","919.9705882352941","black","no","xpyriment","legacy","legacy","0","207","NA","uniform","NA","NA","NA","1","undefined","1","0","33","33","33","0","33","33","33","NA","0","33","NA","NA","0","33","NA","33","0","33","NA","NA","NA","33","0","0","NA","33","33","33","33","33","34","/","Thu Jul  6 08:45:50 2023","The main experiment item","yes","m21-ab-lexicalDecision.osexp","C:\Users\emoore8\Desktop\m21_vsl-main","no","mono","no","18","no","white","no","yes","1080","legacy","33","33","C:/Users/emoore8/Desktop/m21_vsl-main/subject-215.csv","xpyriment","Lentiform Loewenfeld","3.3.11","0","/","NA","NA","NA","NA","space","/","608","NA","NA","NA","NA","55724","608","2","legacy","1024","2","48000","-16","AB_m21","215","odd","FILL_W","BOX","2172","206485","204710","201495","57908","NA","NA","NA","NA","NA","205211","NA","NA","NA","204210","NA","204184","2182","206786","NA","NA","NA","205251","2172","2172","NA","205859","205883","204184","205211","205231","morph21_Oliver/Morris","24","31279","34","yes","1920","42"
"200","68.57142857142857","68.57142857142857","927.9714285714285","927.9714285714285","black","no","xpyriment","legacy","legacy","0","206","NA","uniform","NA","NA","NA","0","undefined","0","0","34","34","34","0","34","34","34","NA","0","34","NA","NA","0","34","NA","34","0","34","NA","NA","NA","34","0","0","NA","34","34","34","34","34","35","z","Thu Jul  6 08:45:50 2023","The main experiment item","yes","m21-ab-lexicalDecision.osexp","C:\Users\emoore8\Desktop\m21_vsl-main","no","mono","no","18","no","white","no","yes","1080","legacy","34","34","C:/Users/emoore8/Desktop/m21_vsl-main/subject-215.csv","xpyriment","Lentiform Loewenfeld","3.3.11","0","None","NA","NA","NA","NA","space","None","1200","NA","NA","NA","NA","55724","1200","2","legacy","1024","2","48000","-16","AB_m21","215","odd","NW_L_SIMP","GROWILT","2172","210673","208304","201495","57908","NA","NA","NA","NA","NA","208805","NA","NA","NA","207804","NA","207779","2182","210873","NA","NA","NA","208845","2172","2172","NA","210045","210070","207779","208805","208825","morph21_Oliver/Morris","24","32479","35","yes","1920","20"
"250","69.44444444444444","69.44444444444444","919.25","919.25","black","no","xpyriment","legacy","legacy","0","202","NA","uniform","NA","NA","NA","1","undefined","1","0","35","35","35","0","35","35","35","NA","0","35","NA","NA","0","35","NA","35","0","35","NA","NA","NA","35","0","0","NA","35","35","35","35","35","36","/","Thu Jul  6 08:45:50 2023","The main experiment item","yes","m21-ab-lexicalDecision.osexp","C:\Users\emoore8\Desktop\m21_vsl-main","no","mono","no","18","no","white","no","yes","1080","legacy","35","35","C:/Users/emoore8/Desktop/m21_vsl-main/subject-215.csv","xpyriment","Lentiform Loewenfeld","3.3.11","0","/","NA","NA","NA","NA","space","/","614","NA","NA","NA","NA","55724","614","2","legacy","1024","2","48000","-16","AB_m21","215","odd","CW_L","LAUGHING","2172","215671","212384","214167","57908","NA","NA","NA","NA","NA","212884","NA","NA","NA","211884","NA","211859","2182","215922","NA","NA","NA","212925","2172","2172","NA","213540","213563","211858","212884","212905","morph21_Oliver/Morris","25","33093","36","yes","1920","27"
"400","70.27027027027027","70.27027027027027","913.081081081081","913.081081081081","black","no","xpyriment","legacy","legacy","0","201","NA","uniform","NA","NA","NA","1","undefined","1","0","36","36","36","0","36","36","36","NA","0","36","NA","NA","0","36","NA","36","0","36","NA","NA","NA","36","0","0","NA","36","36","36","36","36","37","/","Thu Jul  6 08:45:50 2023","The main experiment item","yes","m21-ab-lexicalDecision.osexp","C:\Users\emoore8\Desktop\m21_vsl-main","no","mono","no","18","no","white","no","yes","1080","legacy","36","36","C:/Users/emoore8/Desktop/m21_vsl-main/subject-215.csv","xpyriment","Lentiform Loewenfeld","3.3.11","0","/","NA","NA","NA","NA","space","/","691","NA","NA","NA","NA","55724","691","2","legacy","1024","2","48000","-16","AB_m21","215","odd","CW_S","DESIGN","2172","219318","217459","214167","57908","NA","NA","NA","NA","NA","217959","NA","NA","NA","216959","NA","216934","2182","219718","NA","NA","NA","218000","2172","2172","NA","218692","218715","216934","217959","217980","morph21_Oliver/Morris","26","33784","37","yes","1920","19"
"250","71.05263157894737","71.05263157894737","911.578947368421","911.578947368421","black","no","xpyriment","legacy","legacy","0","203","NA","uniform","NA","NA","NA","1","undefined","1","0","37","37","37","0","37","37","37","NA","0","37","NA","NA","0","37","NA","37","0","37","NA","NA","NA","37","0","0","NA","37","37","37","37","37","38","z","Thu Jul  6 08:45:50 2023","The main experiment item","yes","m21-ab-lexicalDecision.osexp","C:\Users\emoore8\Desktop\m21_vsl-main","no","mono","no","18","no","white","no","yes","1080","legacy","37","37","C:/Users/emoore8/Desktop/m21_vsl-main/subject-215.csv","xpyriment","Lentiform Loewenfeld","3.3.11","0","z","NA","NA","NA","NA","space","z","856","NA","NA","NA","NA","55724","856","2","legacy","1024","2","48000","-16","AB_m21","215","odd","NW_S_COMP","LIDARY","2172","223239","221213","214167","57908","NA","NA","NA","NA","NA","221714","NA","NA","NA","220713","NA","220687","2182","223489","NA","NA","NA","221754","2172","2172","NA","222611","222636","220687","221714","221734","morph21_Oliver/Morris","27","34640","38","yes","1920","3"
"350","71.7948717948718","71.7948717948718","907.9230769230769","907.9230769230769","black","no","xpyriment","legacy","legacy","0","208","NA","uniform","NA","NA","NA","1","undefined","1","0","38","38","38","0","38","38","38","NA","0","38","NA","NA","0","38","NA","38","0","38","NA","NA","NA","38","0","0","NA","38","38","38","38","38","39","z","Thu Jul  6 08:45:50 2023","The main experiment item","yes","m21-ab-lexicalDecision.osexp","C:\Users\emoore8\Desktop\m21_vsl-main","no","mono","no","18","no","white","no","yes","1080","legacy","38","38","C:/Users/emoore8/Desktop/m21_vsl-main/subject-215.csv","xpyriment","Lentiform Loewenfeld","3.3.11","0","z","NA","NA","NA","NA","space","z","769","NA","NA","NA","NA","55724","769","2","legacy","1024","2","48000","-16","AB_m21","215","odd","FILL_NW","JADS","2172","228432","224989","226927","57908","NA","NA","NA","NA","NA","225490","NA","NA","NA","224488","NA","224465","2182","228783","NA","NA","NA","225530","2172","2172","NA","226300","226323","224465","225490","225510","morph21_Oliver/Morris","28","35409","39","yes","1920","31"
"350","72.5","72.5","900.85","900.85","black","no","xpyriment","legacy","legacy","0","207","NA","uniform","NA","NA","NA","1","undefined","1","0","39","39","39","0","39","39","39","NA","0","39","NA","NA","0","39","NA","39","0","39","NA","NA","NA","39","0","0","NA","39","39","39","39","39","40","/","Thu Jul  6 08:45:50 2023","The main experiment item","yes","m21-ab-lexicalDecision.osexp","C:\Users\emoore8\Desktop\m21_vsl-main","no","mono","no","18","no","white","no","yes","1080","legacy","39","39","C:/Users/emoore8/Desktop/m21_vsl-main/subject-215.csv","xpyriment","Lentiform Loewenfeld","3.3.11","0","/","NA","NA","NA","NA","space","/","625","NA","NA","NA","NA","55724","625","2","legacy","1024","2","48000","-16","AB_m21","215","odd","FILL_W","BRISK","2172","232086","230292","226927","57908","NA","NA","NA","NA","NA","230792","NA","NA","NA","229791","NA","229768","2182","232436","NA","NA","NA","230833","2172","2172","NA","231459","231482","229768","230792","230813","morph21_Oliver/Morris","29","36034","40","yes","1920","8"
"350","70.73170731707317","70.73170731707317","908.1463414634146","908.1463414634146","black","no","xpyriment","legacy","legacy","0","203","NA","uniform","NA","NA","NA","0","undefined","0","0","40","40","40","0","40","40","40","NA","0","40","NA","NA","0","40","NA","40","0","40","NA","NA","NA","40","0","0","NA","40","40","40","40","40","41","z","Thu Jul  6 08:45:50 2023","The main experiment item","yes","m21-ab-lexicalDecision.osexp","C:\Users\emoore8\Desktop\m21_vsl-main","no","mono","no","18","no","white","no","yes","1080","legacy","40","40","C:/Users/emoore8/Desktop/m21_vsl-main/subject-215.csv","xpyriment","Lentiform Loewenfeld","3.3.11","0","None","NA","NA","NA","NA","space","None","1200","NA","NA","NA","NA","55724","1200","2","legacy","1024","2","48000","-16","AB_m21","215","odd","NW_S_COMP","HEIGHTENCE","2172","236319","233952","226927","57908","NA","NA","NA","NA","NA","234452","NA","NA","NA","233452","NA","233424","2182","236670","NA","NA","NA","234493","2172","2172","NA","235693","235716","233424","234452","234473","morph21_Oliver/Morris","29","37234","41","yes","1920","18"
"400","69.04761904761905","69.04761904761905","915.0952380952381","915.0952380952381","black","no","xpyriment","legacy","legacy","0","205","NA","uniform","NA","NA","NA","0","undefined","0","0","41","41","41","0","41","41","41","NA","0","41","NA","NA","0","41","NA","41","0","41","NA","NA","NA","41","0","0","NA","41","41","41","41","41","42","z","Thu Jul  6 08:45:50 2023","The main experiment item","yes","m21-ab-lexicalDecision.osexp","C:\Users\emoore8\Desktop\m21_vsl-main","no","mono","no","18","no","white","no","yes","1080","legacy","41","41","C:/Users/emoore8/Desktop/m21_vsl-main/subject-215.csv","xpyriment","Lentiform Loewenfeld","3.3.11","0","None","NA","NA","NA","NA","space","None","1200","NA","NA","NA","NA","55724","1200","2","legacy","1024","2","48000","-16","AB_m21","215","odd","NW_S_SIMP","URNILT","2172","242078","238206","240573","57908","NA","NA","NA","NA","NA","238706","NA","NA","NA","237704","NA","237679","2182","242478","NA","NA","NA","238746","2172","2172","NA","239946","239970","237679","238706","238726","morph21_Oliver/Morris","29","38434","42","yes","1920","5"
"350","67.44186046511628","67.44186046511628","921.7209302325581","921.7209302325581","black","no","xpyriment","legacy","legacy","0","201","NA","uniform","NA","NA","NA","0","undefined","0","0","42","42","42","0","42","42","42","NA","0","42","NA","NA","0","42","NA","42","0","42","NA","NA","NA","42","0","0","NA","42","42","42","42","42","43","/","Thu Jul  6 08:45:50 2023","The main experiment item","yes","m21-ab-lexicalDecision.osexp","C:\Users\emoore8\Desktop\m21_vsl-main","no","mono","no","18","no","white","no","yes","1080","legacy","42","42","C:/Users/emoore8/Desktop/m21_vsl-main/subject-215.csv","xpyriment","Lentiform Loewenfeld","3.3.11","0","None","NA","NA","NA","NA","space","None","1200","NA","NA","NA","NA","55724","1200","2","legacy","1024","2","48000","-16","AB_m21","215","odd","CW_S","NEATLY","2172","246385","244017","240573","57908","NA","NA","NA","NA","NA","244518","NA","NA","NA","243517","NA","243483","2182","246736","NA","NA","NA","244559","2172","2172","NA","245759","245782","243483","244518","244539","morph21_Oliver/Morris","29","39634","43","yes","1920","33"
"250","68.18181818181819","68.18181818181819","914.5909090909091","914.5909090909091","black","no","xpyriment","legacy","legacy","0","201","NA","uniform","NA","NA","NA","1","undefined","1","0","43","43","43","0","43","43","43","NA","0","43","NA","NA","0","43","NA","43","0","43","NA","NA","NA","43","0","0","NA","43","43","43","43","43","44","/","Thu Jul  6 08:45:50 2023","The main experiment item","yes","m21-ab-lexicalDecision.osexp","C:\Users\emoore8\Desktop\m21_vsl-main","no","mono","no","18","no","white","no","yes","1080","legacy","43","43","C:/Users/emoore8/Desktop/m21_vsl-main/subject-215.csv","xpyriment","Lentiform Loewenfeld","3.3.11","0","/","NA","NA","NA","NA","space","/","608","NA","NA","NA","NA","55724","608","2","legacy","1024","2","48000","-16","AB_m21","215","odd","CW_S","JAILER","2172","250094","248318","240573","57908","NA","NA","NA","NA","NA","248818","NA","NA","NA","247817","NA","247787","2182","250344","NA","NA","NA","248859","2172","2172","NA","249468","249491","247787","248818","248839","morph21_Oliver/Morris","30","40242","44","yes","1920","13"
"350","66.66666666666667","66.66666666666667","915.0666666666667","915.0666666666667","black","no","xpyriment","legacy","legacy","0","204","NA","uniform","NA","NA","NA","0","undefined","0","0","44","44","44","0","44","44","44","NA","0","44","NA","NA","0","44","NA","44","0","44","NA","NA","NA","44","0","0","NA","44","44","44","44","44","45","z","Thu Jul  6 08:45:50 2023","The main experiment item","yes","m21-ab-lexicalDecision.osexp","C:\Users\emoore8\Desktop\m21_vsl-main","no","mono","no","18","no","white","no","yes","1080","legacy","44","44","C:/Users/emoore8/Desktop/m21_vsl-main/subject-215.csv","xpyriment","Lentiform Loewenfeld","3.3.11","0","/","NA","NA","NA","NA","space","/","936","NA","NA","NA","NA","55724","936","2","legacy","1024","2","48000","-16","AB_m21","215","odd","NW_L_COMP","AGREELY","2172","255476","251861","253970","57908","NA","NA","NA","NA","NA","252362","NA","NA","NA","251360","NA","251331","2182","255826","NA","NA","NA","252403","2172","2172","NA","253340","253365","251331","252362","252383","morph21_Oliver/Morris","30","41178","45","yes","1920","24"
"200","67.3913043478261","67.3913043478261","918.0869565217391","918.0869565217391","black","no","xpyriment","legacy","legacy","0","204","NA","uniform","NA","NA","NA","1","undefined","1","0","45","45","45","0","45","45","45","NA","0","45","NA","NA","0","45","NA","45","0","45","NA","NA","NA","45","0","0","NA","45","45","45","45","45","46","z","Thu Jul  6 08:45:50 2023","The main experiment item","yes","m21-ab-lexicalDecision.osexp","C:\Users\emoore8\Desktop\m21_vsl-main","no","mono","no","18","no","white","no","yes","1080","legacy","45","45","C:/Users/emoore8/Desktop/m21_vsl-main/subject-215.csv","xpyriment","Lentiform Loewenfeld","3.3.11","0","z","NA","NA","NA","NA","space","z","1054","NA","NA","NA","NA","55724","1054","2","legacy","1024","2","48000","-16","AB_m21","215","odd","NW_L_COMP","PITCHORY","2172","259590","257367","253970","57908","NA","NA","NA","NA","NA","257869","NA","NA","NA","256866","NA","256842","2182","259791","NA","NA","NA","257909","2172","2172","NA","258963","258987","256842","257869","257889","morph21_Oliver/Morris","31","42232","46","yes","1920","25"
"200","68.08510638297872","68.08510638297872","922.2340425531914","922.2340425531914","black","no","xpyriment","legacy","legacy","0","208","NA","uniform","NA","NA","NA","1","undefined","1","0","46","46","46","0","46","46","46","NA","0","46","NA","NA","0","46","NA","46","0","46","NA","NA","NA","46","0","0","NA","46","46","46","46","46","47","z","Thu Jul  6 08:45:50 2023","The main experiment item","yes","m21-ab-lexicalDecision.osexp","C:\Users\emoore8\Desktop\m21_vsl-main","no","mono","no","18","no","white","no","yes","1080","legacy","46","46","C:/Users/emoore8/Desktop/m21_vsl-main/subject-215.csv","xpyriment","Lentiform Loewenfeld","3.3.11","0","z","NA","NA","NA","NA","space","z","1113","NA","NA","NA","NA","55724","1113","2","legacy","1024","2","48000","-16","AB_m21","215","odd","FILL_NW","HESK","2172","263590","261309","253970","57908","NA","NA","NA","NA","NA","261810","NA","NA","NA","260809","NA","260780","2182","263790","NA","NA","NA","261850","2172","2172","NA","262964","262987","260780","261809","261830","morph21_Oliver/Morris","32","43345","47","yes","1920","29"
"250","66.66666666666667","66.66666666666667","915.6666666666666","915.6666666666666","black","no","xpyriment","legacy","legacy","0","203","NA","uniform","NA","NA","NA","0","undefined","0","0","47","47","47","0","47","47","47","NA","0","47","NA","NA","0","47","NA","47","0","47","NA","NA","NA","47","0","0","NA","47","47","47","47","47","48","z","Thu Jul  6 08:45:50 2023","The main experiment item","yes","m21-ab-lexicalDecision.osexp","C:\Users\emoore8\Desktop\m21_vsl-main","no","mono","no","18","no","white","no","yes","1080","legacy","47","47","C:/Users/emoore8/Desktop/m21_vsl-main/subject-215.csv","xpyriment","Lentiform Loewenfeld","3.3.11","0","/","NA","NA","NA","NA","space","/","607","NA","NA","NA","NA","55724","607","2","legacy","1024","2","48000","-16","AB_m21","215","odd","NW_S_COMP","BRANCHER","2172","268576","265294","267073","57908","NA","NA","NA","NA","NA","265795","NA","NA","NA","264794","NA","264771","2182","268826","NA","NA","NA","265836","2172","2172","NA","266443","266469","264771","265795","265816","morph21_Oliver/Morris","32","43952","48","yes","1920","16"
"200","67.34693877551021","67.34693877551021","916.0408163265306","916.0408163265306","black","no","xpyriment","legacy","legacy","0","204","NA","uniform","NA","NA","NA","1","undefined","1","0","48","48","48","0","48","48","48","NA","0","48","NA","NA","0","48","NA","48","0","48","NA","NA","NA","48","0","0","NA","48","48","48","48","48","49","z","Thu Jul  6 08:45:50 2023","The main experiment item","yes","m21-ab-lexicalDecision.osexp","C:\Users\emoore8\Desktop\m21_vsl-main","no","mono","no","18","no","white","no","yes","1080","legacy","48","48","C:/Users/emoore8/Desktop/m21_vsl-main/subject-215.csv","xpyriment","Lentiform Loewenfeld","3.3.11","0","z","NA","NA","NA","NA","space","z","934","NA","NA","NA","NA","55724","934","2","legacy","1024","2","48000","-16","AB_m21","215","odd","NW_L_COMP","FLIPORY","2172","272454","270353","267073","57908","NA","NA","NA","NA","NA","270853","NA","NA","NA","269853","NA","269826","2182","272654","NA","NA","NA","270893","2172","2172","NA","271827","271851","269826","270853","270873","morph21_Oliver/Morris","33","44886","49","yes","1920","16"
"200","68","68","908.84","908.84","black","no","xpyriment","legacy","legacy","0","207","NA","uniform","NA","NA","NA","1","undefined","1","0","49","49","49","0","49","49","49","NA","0","49","NA","NA","0","49","NA","49","0","49","NA","NA","NA","49","0","0","NA","49","49","49","49","49","50","/","Thu Jul  6 08:45:50 2023","The main experiment item","yes","m21-ab-lexicalDecision.osexp","C:\Users\emoore8\Desktop\m21_vsl-main","no","mono","no","18","no","white","no","yes","1080","legacy","49","49","C:/Users/emoore8/Desktop/m21_vsl-main/subject-215.csv","xpyriment","Lentiform Loewenfeld","3.3.11","0","/","NA","NA","NA","NA","space","/","556","NA","NA","NA","NA","55724","556","2","legacy","1024","2","48000","-16","AB_m21","215","odd","FILL_W","WRECK","2172","275911","274185","267073","57908","NA","NA","NA","NA","NA","274686","NA","NA","NA","273684","NA","273656","2182","276111","NA","NA","NA","274727","2172","2172","NA","275284","275307","273656","274685","274707","morph21_Oliver/Morris","34","45442","50","yes","1920","13"
"350","68.62745098039215","68.62745098039215","905.0392156862745","905.0392156862745","black","no","xpyriment","legacy","legacy","0","201","NA","uniform","NA","NA","NA","1","undefined","1","0","50","50","50","0","50","50","50","NA","0","50","NA","NA","0","50","NA","50","0","50","NA","NA","NA","50","0","0","NA","50","50","50","50","50","51","/","Thu Jul  6 08:45:50 2023","The main experiment item","yes","m21-ab-lexicalDecision.osexp","C:\Users\emoore8\Desktop\m21_vsl-main","no","mono","no","18","no","white","no","yes","1080","legacy","50","50","C:/Users/emoore8/Desktop/m21_vsl-main/subject-215.csv","xpyriment","Lentiform Loewenfeld","3.3.11","0","/","NA","NA","NA","NA","space","/","715","NA","NA","NA","NA","55724","715","2","legacy","1024","2","48000","-16","AB_m21","215","odd","CW_S","RICHNESS","2172","281030","277643","279526","57908","NA","NA","NA","NA","NA","278144","NA","NA","NA","277143","NA","277115","2182","281380","NA","NA","NA","278184","2172","2172","NA","278899","278923","277115","278144","278164","morph21_Oliver/Morris","35","46157","51","yes","1920","45"
"200","67.3076923076923","67.3076923076923","910.7115384615385","910.7115384615385","black","no","xpyriment","legacy","legacy","0","208","NA","uniform","NA","NA","NA","0","undefined","0","0","51","51","51","0","51","51","51","NA","0","51","NA","NA","0","51","NA","51","0","51","NA","NA","NA","51","0","0","NA","51","51","51","51","51","52","z","Thu Jul  6 08:45:50 2023","The main experiment item","yes","m21-ab-lexicalDecision.osexp","C:\Users\emoore8\Desktop\m21_vsl-main","no","mono","no","18","no","white","no","yes","1080","legacy","51","51","C:/Users/emoore8/Desktop/m21_vsl-main/subject-215.csv","xpyriment","Lentiform Loewenfeld","3.3.11","0","None","NA","NA","NA","NA","space","None","1200","NA","NA","NA","NA","55724","1200","2","legacy","1024","2","48000","-16","AB_m21","215","odd","FILL_NW","GAIRS","2172","285249","282882","279526","57908","NA","NA","NA","NA","NA","283382","NA","NA","NA","282382","NA","282354","2182","285449","NA","NA","NA","283422","2172","2172","NA","284622","284645","282354","283382","283402","morph21_Oliver/Morris","35","47357","52","yes","1920","23"
"350","67.9245283018868","67.9245283018868","906.9245283018868","906.9245283018868","black","no","xpyriment","legacy","legacy","0","202","NA","uniform","NA","NA","NA","1","undefined","1","0","52","52","52","0","52","52","52","NA","0","52","NA","NA","0","52","NA","52","0","52","NA","NA","NA","52","0","0","NA","52","52","52","52","52","53","/","Thu Jul  6 08:45:50 2023","The main experiment item","yes","m21-ab-lexicalDecision.osexp","C:\Users\emoore8\Desktop\m21_vsl-main","no","mono","no","18","no","white","no","yes","1080","legacy","52","52","C:/Users/emoore8/Desktop/m21_vsl-main/subject-215.csv","xpyriment","Lentiform Loewenfeld","3.3.11","0","/","NA","NA","NA","NA","space","/","710","NA","NA","NA","NA","55724","710","2","legacy","1024","2","48000","-16","AB_m21","215","odd","CW_L","PARKING","2172","288833","286953","279526","57908","NA","NA","NA","NA","NA","287453","NA","NA","NA","286453","NA","286425","2182","289184","NA","NA","NA","287493","2172","2172","NA","288204","288229","286425","287453","287473","morph21_Oliver/Morris","36","48067","53","yes","1920","25"
"400","68.51851851851852","68.51851851851852","902.2592592592592","902.2592592592592","black","no","xpyriment","legacy","legacy","0","202","NA","uniform","NA","NA","NA","1","undefined","1","0","53","53","53","0","53","53","53","NA","0","53","NA","NA","0","53","NA","53","0","53","NA","NA","NA","53","0","0","NA","53","53","53","53","53","54","/","Thu Jul  6 08:45:50 2023","The main experiment item","yes","m21-ab-lexicalDecision.osexp","C:\Users\emoore8\Desktop\m21_vsl-main","no","mono","no","18","no","white","no","yes","1080","legacy","53","53","C:/Users/emoore8/Desktop/m21_vsl-main/subject-215.csv","xpyriment","Lentiform Loewenfeld","3.3.11","0","/","NA","NA","NA","NA","space","/","655","NA","NA","NA","NA","55724","655","2","legacy","1024","2","48000","-16","AB_m21","215","odd","CW_L","CLOUDLESS","2172","294021","290694","292518","57908","NA","NA","NA","NA","NA","291196","NA","NA","NA","290193","NA","290170","2182","294421","NA","NA","NA","291236","2172","2172","NA","291892","291915","290170","291195","291216","morph21_Oliver/Morris","37","48722","54","yes","1920","33"
"200","69.0909090909091","69.0909090909091","903.6181818181818","903.6181818181818","black","no","xpyriment","legacy","legacy","0","201","NA","uniform","NA","NA","NA","1","undefined","1","0","54","54","54","0","54","54","54","NA","0","54","NA","NA","0","54","NA","54","0","54","NA","NA","NA","54","0","0","NA","54","54","54","54","54","55","/","Thu Jul  6 08:45:50 2023","The main experiment item","yes","m21-ab-lexicalDecision.osexp","C:\Users\emoore8\Desktop\m21_vsl-main","no","mono","no","18","no","white","no","yes","1080","legacy","54","54","C:/Users/emoore8/Desktop/m21_vsl-main/subject-215.csv","xpyriment","Lentiform Loewenfeld","3.3.11","0","/","NA","NA","NA","NA","space","/","977","NA","NA","NA","NA","55724","977","2","legacy","1024","2","48000","-16","AB_m21","215","odd","CW_S","ENJOYMENT","2172","298086","295942","292518","57908","NA","NA","NA","NA","NA","296442","NA","NA","NA","295441","NA","295414","2182","298286","NA","NA","NA","296482","2172","2172","NA","297459","297483","295414","296442","296462","morph21_Oliver/Morris","38","49699","55","yes","1920","40"
"350","69.64285714285714","69.64285714285714","901.0178571428571","901.0178571428571","black","no","xpyriment","legacy","legacy","0","201","NA","uniform","NA","NA","NA","1","undefined","1","0","55","55","55","0","55","55","55","NA","0","55","NA","NA","0","55","NA","55","0","55","NA","NA","NA","55","0","0","NA","55","55","55","55","55","56","/","Thu Jul  6 08:45:50 2023","The main experiment item","yes","m21-ab-lexicalDecision.osexp","C:\Users\emoore8\Desktop\m21_vsl-main","no","mono","no","18","no","white","no","yes","1080","legacy","55","55","C:/Users/emoore8/Desktop/m21_vsl-main/subject-215.csv","xpyriment","Lentiform Loewenfeld","3.3.11","0","/","NA","NA","NA","NA","space","/","758","NA","NA","NA","NA","55724","758","2","legacy","1024","2","48000","-16","AB_m21","215","odd","CW_S","LENDER","2172","301719","299792","292518","57908","NA","NA","NA","NA","NA","300293","NA","NA","NA","299291","NA","299263","2182","302069","NA","NA","NA","300333","2172","2172","NA","301092","301115","299263","300293","300313","morph21_Oliver/Morris","39","50457","56","yes","1920","11"
"400","70.17543859649123","70.17543859649123","904.3859649122807","904.3859649122807","black","no","xpyriment","legacy","legacy","0","201","NA","uniform","NA","NA","NA","1","undefined","1","0","56","56","56","0","56","56","56","NA","0","56","NA","NA","0","56","NA","56","0","56","NA","NA","NA","56","0","0","NA","56","56","56","56","56","57","/","Thu Jul  6 08:45:50 2023","The main experiment item","yes","m21-ab-lexicalDecision.osexp","C:\Users\emoore8\Desktop\m21_vsl-main","no","mono","no","18","no","white","no","yes","1080","legacy","56","56","C:/Users/emoore8/Desktop/m21_vsl-main/subject-215.csv","xpyriment","Lentiform Loewenfeld","3.3.11","0","/","NA","NA","NA","NA","space","/","1093","NA","NA","NA","NA","55724","1093","2","legacy","1024","2","48000","-16","AB_m21","215","odd","CW_S","AVOIDABLE","2172","307361","303593","305854","57908","NA","NA","NA","NA","NA","304094","NA","NA","NA","303093","NA","303062","2182","307761","NA","NA","NA","304134","2172","2172","NA","305228","305251","303062","304093","304114","morph21_Oliver/Morris","40","51550","57","yes","1920","2"
"200","70.6896551724138","70.6896551724138","906.5","906.5","black","no","xpyriment","legacy","legacy","0","203","NA","uniform","NA","NA","NA","1","undefined","1","0","57","57","57","0","57","57","57","NA","0","57","NA","NA","0","57","NA","57","0","57","NA","NA","NA","57","0","0","NA","57","57","57","57","57","58","z","Thu Jul  6 08:45:50 2023","The main experiment item","yes","m21-ab-lexicalDecision.osexp","C:\Users\emoore8\Desktop\m21_vsl-main","no","mono","no","18","no","white","no","yes","1080","legacy","57","57","C:/Users/emoore8/Desktop/m21_vsl-main/subject-215.csv","xpyriment","Lentiform Loewenfeld","3.3.11","0","z","NA","NA","NA","NA","space","z","1027","NA","NA","NA","NA","55724","1027","2","legacy","1024","2","48000","-16","AB_m21","215","odd","NW_S_COMP","ADOPTILP","2172","311478","309283","305854","57908","NA","NA","NA","NA","NA","309783","NA","NA","NA","308782","NA","308755","2182","311678","NA","NA","NA","309824","2172","2172","NA","310851","310875","308755","309783","309804","morph21_Oliver/Morris","41","52577","58","yes","1920","19"
"300","69.49152542372882","69.49152542372882","911.4745762711865","911.4745762711865","black","no","xpyriment","legacy","legacy","0","208","NA","uniform","NA","NA","NA","0","undefined","0","0","58","58","58","0","58","58","58","NA","0","58","NA","NA","0","58","NA","58","0","58","NA","NA","NA","58","0","0","NA","58","58","58","58","58","59","z","Thu Jul  6 08:45:50 2023","The main experiment item","yes","m21-ab-lexicalDecision.osexp","C:\Users\emoore8\Desktop\m21_vsl-main","no","mono","no","18","no","white","no","yes","1080","legacy","58","58","C:/Users/emoore8/Desktop/m21_vsl-main/subject-215.csv","xpyriment","Lentiform Loewenfeld","3.3.11","0","None","NA","NA","NA","NA","space","None","1200","NA","NA","NA","NA","55724","1200","2","legacy","1024","2","48000","-16","AB_m21","215","odd","FILL_NW","BAFED","2172","315560","313192","305854","57908","NA","NA","NA","NA","NA","313694","NA","NA","NA","312690","NA","312667","2182","315860","NA","NA","NA","313734","2172","2172","NA","314934","314957","312667","313693","313714","morph21_Oliver/Morris","41","53777","59","yes","1920","1"
"250","70","70","914.6","914.6","black","no","xpyriment","legacy","legacy","0","208","NA","uniform","NA","NA","NA","1","undefined","1","0","59","59","59","0","59","59","59","NA","0","59","NA","NA","0","59","NA","59","0","59","NA","NA","NA","59","0","0","NA","59","59","59","59","59","60","z","Thu Jul  6 08:45:50 2023","The main experiment item","yes","m21-ab-lexicalDecision.osexp","C:\Users\emoore8\Desktop\m21_vsl-main","no","mono","no","18","no","white","no","yes","1080","legacy","59","59","C:/Users/emoore8/Desktop/m21_vsl-main/subject-215.csv","xpyriment","Lentiform Loewenfeld","3.3.11","0","z","NA","NA","NA","NA","space","z","1099","NA","NA","NA","NA","55724","1099","2","legacy","1024","2","48000","-16","AB_m21","215","odd","FILL_NW","PLAODS","2172","321201","317427","319695","57908","NA","NA","NA","NA","NA","317927","NA","NA","NA","316926","NA","316899","2182","321451","NA","NA","NA","317968","2172","2172","NA","319068","319091","316899","317927","317948","morph21_Oliver/Morris","42","54876","60","yes","1920","37"
"200","68.85245901639344","68.85245901639344","919.2786885245902","919.2786885245902","black","no","xpyriment","legacy","legacy","0","205","NA","uniform","NA","NA","NA","0","undefined","0","0","60","60","60","0","60","60","60","NA","0","60","NA","NA","0","60","NA","60","0","60","NA","NA","NA","60","0","0","NA","60","60","60","60","60","61","z","Thu Jul  6 08:45:50 2023","The main experiment item","yes","m21-ab-lexicalDecision.osexp","C:\Users\emoore8\Desktop\m21_vsl-main","no","mono","no","18","no","white","no","yes","1080","legacy","60","60","C:/Users/emoore8/Desktop/m21_vsl-main/subject-215.csv","xpyriment","Lentiform Loewenfeld","3.3.11","0","None","NA","NA","NA","NA","space","None","1200","NA","NA","NA","NA","55724","1200","2","legacy","1024","2","48000","-16","AB_m21","215","odd","NW_S_SIMP","OPPOSEMANT","2172","325369","322998","319695","57908","NA","NA","NA","NA","NA","323499","NA","NA","NA","322497","NA","322472","2182","325569","NA","NA","NA","323540","2172","2172","NA","324740","324764","322472","323499","323520","morph21_Oliver/Morris","42","56076","61","yes","1920","8"
"400","69.35483870967742","69.35483870967742","918.1935483870968","918.1935483870968","black","no","xpyriment","legacy","legacy","0","208","NA","uniform","NA","NA","NA","1","undefined","1","0","61","61","61","0","61","61","61","NA","0","61","NA","NA","0","61","NA","61","0","61","NA","NA","NA","61","0","0","NA","61","61","61","61","61","62","z","Thu Jul  6 08:45:50 2023","The main experiment item","yes","m21-ab-lexicalDecision.osexp","C:\Users\emoore8\Desktop\m21_vsl-main","no","mono","no","18","no","white","no","yes","1080","legacy","61","61","C:/Users/emoore8/Desktop/m21_vsl-main/subject-215.csv","xpyriment","Lentiform Loewenfeld","3.3.11","0","z","NA","NA","NA","NA","space","z","852","NA","NA","NA","NA","55724","852","2","legacy","1024","2","48000","-16","AB_m21","215","odd","FILL_NW","SOISE","2172","329087","327065","319695","57908","NA","NA","NA","NA","NA","327566","NA","NA","NA","326563","NA","326540","2182","329487","NA","NA","NA","327607","2172","2172","NA","328460","328484","326540","327566","327587","morph21_Oliver/Morris","43","56928","62","yes","1920","43"
"350","69.84126984126983","69.84126984126983","912.4761904761905","912.4761904761905","black","no","xpyriment","legacy","legacy","0","202","NA","uniform","NA","NA","NA","1","undefined","1","0","62","62","62","0","62","62","62","NA","0","62","NA","NA","0","62","NA","62","0","62","NA","NA","NA","62","0","0","NA","62","62","62","62","62","63","/","Thu Jul  6 08:45:50 2023","The main experiment item","yes","m21-ab-lexicalDecision.osexp","C:\Users\emoore8\Desktop\m21_vsl-main","no","mono","no","18","no","white","no","yes","1080","legacy","62","62","C:/Users/emoore8/Desktop/m21_vsl-main/subject-215.csv","xpyriment","Lentiform Loewenfeld","3.3.11","0","/","NA","NA","NA","NA","space","/","558","NA","NA","NA","NA","55724","558","2","legacy","1024","2","48000","-16","AB_m21","215","odd","CW_L","PAINTER","2172","334240","331008","332736","57908","NA","NA","NA","NA","NA","331509","NA","NA","NA","330507","NA","330479","2182","334591","NA","NA","NA","331549","2172","2172","NA","332108","332132","330479","331509","331529","morph21_Oliver/Morris","44","57486","63","yes","1920","18"
"200","70.3125","70.3125","916.109375","916.109375","black","no","xpyriment","legacy","legacy","0","207","NA","uniform","NA","NA","NA","1","undefined","1","0","63","63","63","0","63","63","63","NA","0","63","NA","NA","0","63","NA","63","0","63","NA","NA","NA","63","0","0","NA","63","63","63","63","63","64","/","Thu Jul  6 08:45:50 2023","The main experiment item","yes","m21-ab-lexicalDecision.osexp","C:\Users\emoore8\Desktop\m21_vsl-main","no","mono","no","18","no","white","no","yes","1080","legacy","63","63","C:/Users/emoore8/Desktop/m21_vsl-main/subject-215.csv","xpyriment","Lentiform Loewenfeld","3.3.11","0","/","NA","NA","NA","NA","space","/","1145","NA","NA","NA","NA","55724","1145","2","legacy","1024","2","48000","-16","AB_m21","215","odd","FILL_W","STALK","2172","338414","336101","332736","57908","NA","NA","NA","NA","NA","336602","NA","NA","NA","335600","NA","335575","2182","338614","NA","NA","NA","336642","2172","2172","NA","337788","337811","335575","336602","336622","morph21_Oliver/Morris","45","58631","64","yes","1920","27"
"250","70.76923076923077","70.76923076923077","915.5846153846154","915.5846153846154","black","no","xpyriment","legacy","legacy","0","207","NA","uniform","NA","NA","NA","1","undefined","1","0","64","64","64","0","64","64","64","NA","0","64","NA","NA","0","64","NA","64","0","64","NA","NA","NA","64","0","0","NA","64","64","64","64","64","65","/","Thu Jul  6 08:45:50 2023","The main experiment item","yes","m21-ab-lexicalDecision.osexp","C:\Users\emoore8\Desktop\m21_vsl-main","no","mono","no","18","no","white","no","yes","1080","legacy","64","64","C:/Users/emoore8/Desktop/m21_vsl-main/subject-215.csv","xpyriment","Lentiform Loewenfeld","3.3.11","0","/","NA","NA","NA","NA","space","/","882","NA","NA","NA","NA","55724","882","2","legacy","1024","2","48000","-16","AB_m21","215","odd","FILL_W","FIERCE","2172","342168","340116","332736","57908","NA","NA","NA","NA","NA","340617","NA","NA","NA","339616","NA","339589","2182","342418","NA","NA","NA","340657","2172","2172","NA","341540","341564","339589","340617","340637","morph21_Oliver/Morris","46","59513","65","yes","1920","24"
"250","69.6969696969697","69.6969696969697","919.8939393939394","919.8939393939394","black","no","xpyriment","legacy","legacy","0","206","NA","uniform","NA","NA","NA","0","undefined","0","0","65","65","65","0","65","65","65","NA","0","65","NA","NA","0","65","NA","65","0","65","NA","NA","NA","65","0","0","NA","65","65","65","65","65","66","z","Thu Jul  6 08:45:50 2023","The main experiment item","yes","m21-ab-lexicalDecision.osexp","C:\Users\emoore8\Desktop\m21_vsl-main","no","mono","no","18","no","white","no","yes","1080","legacy","65","65","C:/Users/emoore8/Desktop/m21_vsl-main/subject-215.csv","xpyriment","Lentiform Loewenfeld","3.3.11","0","None","NA","NA","NA","NA","space","None","1200","NA","NA","NA","NA","55724","1200","2","legacy","1024","2","48000","-16","AB_m21","215","odd","NW_L_SIMP"," DRESSODY","2172","347783","343908","346277","57908","NA","NA","NA","NA","NA","344408","NA","NA","NA","343408","NA","343382","2182","348033","NA","NA","NA","344449","2172","2172","NA","345649","345673","343382","344408","344429","morph21_Oliver/Morris","46","60713","66","yes","1920","21"
"200","70.14925373134328","70.14925373134328","918.2686567164179","918.2686567164179","black","no","xpyriment","legacy","legacy","0","203","NA","uniform","NA","NA","NA","1","undefined","1","0","66","66","66","0","66","66","66","NA","0","66","NA","NA","0","66","NA","66","0","66","NA","NA","NA","66","0","0","NA","66","66","66","66","66","67","z","Thu Jul  6 08:45:50 2023","The main experiment item","yes","m21-ab-lexicalDecision.osexp","C:\Users\emoore8\Desktop\m21_vsl-main","no","mono","no","18","no","white","no","yes","1080","legacy","66","66","C:/Users/emoore8/Desktop/m21_vsl-main/subject-215.csv","xpyriment","Lentiform Loewenfeld","3.3.11","0","z","NA","NA","NA","NA","space","z","811","NA","NA","NA","NA","55724","811","2","legacy","1024","2","48000","-16","AB_m21","215","odd","NW_S_COMP","PILLIZE","2172","351537","349555","346277","57908","NA","NA","NA","NA","NA","350056","NA","NA","NA","349055","NA","349031","2182","351737","NA","NA","NA","350096","2172","2172","NA","350907","350932","349031","350056","350076","morph21_Oliver/Morris","47","61524","67","yes","1920","13"
"250","70.58823529411765","70.58823529411765","917.2794117647059","917.2794117647059","black","no","xpyriment","legacy","legacy","0","202","NA","uniform","NA","NA","NA","1","undefined","1","0","67","67","67","0","67","67","67","NA","0","67","NA","NA","0","67","NA","67","0","67","NA","NA","NA","67","0","0","NA","67","67","67","67","67","68","/","Thu Jul  6 08:45:50 2023","The main experiment item","yes","m21-ab-lexicalDecision.osexp","C:\Users\emoore8\Desktop\m21_vsl-main","no","mono","no","18","no","white","no","yes","1080","legacy","67","67","C:/Users/emoore8/Desktop/m21_vsl-main/subject-215.csv","xpyriment","Lentiform Loewenfeld","3.3.11","0","/","NA","NA","NA","NA","space","/","851","NA","NA","NA","NA","55724","851","2","legacy","1024","2","48000","-16","AB_m21","215","odd","CW_L","EXCITEMENT","2172","355272","353250","346277","57908","NA","NA","NA","NA","NA","353751","NA","NA","NA","352750","NA","352720","2182","355522","NA","NA","NA","353791","2172","2172","NA","354643","354668","352720","353751","353771","morph21_Oliver/Morris","48","62375","68","yes","1920","38"
"250","71.01449275362319","71.01449275362319","916.072463768116","916.072463768116","black","no","xpyriment","legacy","legacy","0","208","NA","uniform","NA","NA","NA","1","undefined","1","0","68","68","68","0","68","68","68","NA","0","68","NA","NA","0","68","NA","68","0","68","NA","NA","NA","68","0","0","NA","68","68","68","68","68","69","z","Thu Jul  6 08:45:50 2023","The main experiment item","yes","m21-ab-lexicalDecision.osexp","C:\Users\emoore8\Desktop\m21_vsl-main","no","mono","no","18","no","white","no","yes","1080","legacy","68","68","C:/Users/emoore8/Desktop/m21_vsl-main/subject-215.csv","xpyriment","Lentiform Loewenfeld","3.3.11","0","z","NA","NA","NA","NA","space","z","834","NA","NA","NA","NA","55724","834","2","legacy","1024","2","48000","-16","AB_m21","215","odd","FILL_NW","PHEEKS","2172","360543","357034","359039","57908","NA","NA","NA","NA","NA","357536","NA","NA","NA","356532","NA","356507","2182","360793","NA","NA","NA","357576","2172","2172","NA","358411","358436","356507","357536","357556","morph21_Oliver/Morris","49","63209","69","yes","1920","35"
"350","71.42857142857143","71.42857142857143","914.3428571428572","914.3428571428572","black","no","xpyriment","legacy","legacy","0","201","NA","uniform","NA","NA","NA","1","undefined","1","0","69","69","69","0","69","69","69","NA","0","69","NA","NA","0","69","NA","69","0","69","NA","NA","NA","69","0","0","NA","69","69","69","69","69","70","/","Thu Jul  6 08:45:50 2023","The main experiment item","yes","m21-ab-lexicalDecision.osexp","C:\Users\emoore8\Desktop\m21_vsl-main","no","mono","no","18","no","white","no","yes","1080","legacy","69","69","C:/Users/emoore8/Desktop/m21_vsl-main/subject-215.csv","xpyriment","Lentiform Loewenfeld","3.3.11","0","/","NA","NA","NA","NA","space","/","795","NA","NA","NA","NA","55724","795","2","legacy","1024","2","48000","-16","AB_m21","215","odd","CW_S","SINGER","2172","364305","362339","359039","57908","NA","NA","NA","NA","NA","362839","NA","NA","NA","361837","NA","361812","2182","364655","NA","NA","NA","362880","2172","2172","NA","363676","363700","361812","362839","362860","morph21_Oliver/Morris","50","64004","70","yes","1920","17"
"200","71.83098591549296","71.83098591549296","916.4084507042254","916.4084507042254","black","no","xpyriment","legacy","legacy","0","201","NA","uniform","NA","NA","NA","1","undefined","1","0","70","70","70","0","70","70","70","NA","0","70","NA","NA","0","70","NA","70","0","70","NA","NA","NA","70","0","0","NA","70","70","70","70","70","71","/","Thu Jul  6 08:45:50 2023","The main experiment item","yes","m21-ab-lexicalDecision.osexp","C:\Users\emoore8\Desktop\m21_vsl-main","no","mono","no","18","no","white","no","yes","1080","legacy","70","70","C:/Users/emoore8/Desktop/m21_vsl-main/subject-215.csv","xpyriment","Lentiform Loewenfeld","3.3.11","0","/","NA","NA","NA","NA","space","/","1061","NA","NA","NA","NA","55724","1061","2","legacy","1024","2","48000","-16","AB_m21","215","odd","CW_S","ANGELIC","2172","368383","366154","359039","57908","NA","NA","NA","NA","NA","366654","NA","NA","NA","365654","NA","365631","2182","368584","NA","NA","NA","366694","2172","2172","NA","367755","367780","365631","366654","366674","morph21_Oliver/Morris","51","65065","71","yes","1920","25"
"400","72.22222222222223","72.22222222222223","913.1527777777778","913.1527777777778","black","no","xpyriment","legacy","legacy","0","206","NA","uniform","NA","NA","NA","1","undefined","1","0","71","71","71","0","71","71","71","NA","0","71","NA","NA","0","71","NA","71","0","71","NA","NA","NA","71","0","0","NA","71","71","71","71","71","72","z","Thu Jul  6 08:45:50 2023","The main experiment item","yes","m21-ab-lexicalDecision.osexp","C:\Users\emoore8\Desktop\m21_vsl-main","no","mono","no","18","no","white","no","yes","1080","legacy","71","71","C:/Users/emoore8/Desktop/m21_vsl-main/subject-215.csv","xpyriment","Lentiform Loewenfeld","3.3.11","0","z","NA","NA","NA","NA","space","z","682","NA","NA","NA","NA","55724","682","2","legacy","1024","2","48000","-16","AB_m21","215","odd","NW_L_SIMP","POORIDY","2172","373453","370099","371950","57908","NA","NA","NA","NA","NA","370600","NA","NA","NA","369597","NA","369571","2182","373854","NA","NA","NA","370641","2172","2172","NA","371323","371347","369571","370600","370621","morph21_Oliver/Morris","52","65747","72","yes","1920","13"
"400","72.6027397260274","72.6027397260274","909.6027397260274","909.6027397260274","black","no","xpyriment","legacy","legacy","0","205","NA","uniform","NA","NA","NA","1","undefined","1","0","72","72","72","0","72","72","72","NA","0","72","NA","NA","0","72","NA","72","0","72","NA","NA","NA","72","0","0","NA","72","72","72","72","72","73","z","Thu Jul  6 08:45:50 2023","The main experiment item","yes","m21-ab-lexicalDecision.osexp","C:\Users\emoore8\Desktop\m21_vsl-main","no","mono","no","18","no","white","no","yes","1080","legacy","72","72","C:/Users/emoore8/Desktop/m21_vsl-main/subject-215.csv","xpyriment","Lentiform Loewenfeld","3.3.11","0","z","NA","NA","NA","NA","space","z","654","NA","NA","NA","NA","55724","654","2","legacy","1024","2","48000","-16","AB_m21","215","odd","NW_S_SIMP","AIDIG","2172","377182","375360","371950","57908","NA","NA","NA","NA","NA","375860","NA","NA","NA","374859","NA","374836","2182","377583","NA","NA","NA","375901","2172","2172","NA","376556","376579","374836","375860","375881","morph21_Oliver/Morris","53","66401","73","yes","1920","4"
"250","71.62162162162163","71.62162162162163","913.527027027027","913.527027027027","black","no","xpyriment","legacy","legacy","0","208","NA","uniform","NA","NA","NA","0","undefined","0","0","73","73","73","0","73","73","73","NA","0","73","NA","NA","0","73","NA","73","0","73","NA","NA","NA","73","0","0","NA","73","73","73","73","73","74","z","Thu Jul  6 08:45:50 2023","The main experiment item","yes","m21-ab-lexicalDecision.osexp","C:\Users\emoore8\Desktop\m21_vsl-main","no","mono","no","18","no","white","no","yes","1080","legacy","73","73","C:/Users/emoore8/Desktop/m21_vsl-main/subject-215.csv","xpyriment","Lentiform Loewenfeld","3.3.11","0","None","NA","NA","NA","NA","space","None","1200","NA","NA","NA","NA","55724","1200","2","legacy","1024","2","48000","-16","AB_m21","215","odd","FILL_NW","DOWED","2172","381460","379091","371950","57908","NA","NA","NA","NA","NA","379592","NA","NA","NA","378591","NA","378567","2182","381710","NA","NA","NA","379632","2172","2172","NA","380832","380856","378567","379592","379612","morph21_Oliver/Morris","53","67601","74","yes","1920","16"
"300","70.66666666666667","70.66666666666667","912.0266666666666","912.0266666666666","black","no","xpyriment","legacy","legacy","0","202","NA","uniform","NA","NA","NA","undefined","undefined","0","0","74","74","74","0","74","74","74","NA","0","74","NA","NA","0","74","NA","74","0","74","NA","NA","NA","74","0","0","NA","74","74","74","74","74","75","/","Thu Jul  6 08:45:50 2023","The main experiment item","yes","m21-ab-lexicalDecision.osexp","C:\Users\emoore8\Desktop\m21_vsl-main","no","mono","no","18","no","white","no","yes","1080","legacy","74","74","C:/Users/emoore8/Desktop/m21_vsl-main/subject-215.csv","xpyriment","Lentiform Loewenfeld","3.3.11","0","space","space","NA","NA","NA","space","z","25945","25945","NA","NA","NA","55724","801","2","legacy","1024","2","48000","-16","AB_m21","215","odd","CW_L","DAMPISH","2172","386712","383237","385209","57908","387018","NA","NA","NA","NA","383737","NA","NA","NA","382737","NA","382711","2182","412964","NA","NA","NA","383778","2172","2172","NA","384580","384606","382711","383737","383758","morph21_Oliver/Morris","53","68402","75","yes","1920","28"
"300","71.05263157894737","71.05263157894737","913.0657894736842","913.0657894736842","black","no","xpyriment","legacy","legacy","0","202","NA","uniform","NA","NA","NA","1","undefined","1","0","75","75","75","0","75","75","75","NA","0","75","NA","NA","0","75","NA","75","0","75","NA","NA","NA","75","0","0","NA","75","75","75","75","75","76","/","Thu Jul  6 08:45:50 2023","The main experiment item","yes","m21-ab-lexicalDecision.osexp","C:\Users\emoore8\Desktop\m21_vsl-main","no","mono","no","18","no","white","no","yes","1080","legacy","75","75","C:/Users/emoore8/Desktop/m21_vsl-main/subject-215.csv","xpyriment","Lentiform Loewenfeld","3.3.11","0","/","space","NA","NA","NA","space","/","991","25945","NA","NA","NA","55724","991","2","legacy","1024","2","48000","-16","AB_m21","215","odd","CW_L","MADNESS","2172","416654","414494","385209","57908","387018","NA","NA","NA","NA","414995","NA","NA","NA","413993","NA","413968","2182","416955","NA","NA","NA","415036","2172","2172","NA","416027","416051","413968","414995","415016","morph21_Oliver/Morris","54","69393","76","yes","1920","41"
"250","71.42857142857143","71.42857142857143","912.2987012987013","912.2987012987013","black","no","xpyriment","legacy","legacy","0","204","NA","uniform","NA","NA","NA","1","undefined","1","0","76","76","76","0","76","76","76","NA","0","76","NA","NA","0","76","NA","76","0","76","NA","NA","NA","76","0","0","NA","76","76","76","76","76","77","z","Thu Jul  6 08:45:50 2023","The main experiment item","yes","m21-ab-lexicalDecision.osexp","C:\Users\emoore8\Desktop\m21_vsl-main","no","mono","no","18","no","white","no","yes","1080","legacy","76","76","C:/Users/emoore8/Desktop/m21_vsl-main/subject-215.csv","xpyriment","Lentiform Loewenfeld","3.3.11","0","z","space","NA","NA","NA","space","z","854","25945","NA","NA","NA","55724","854","2","legacy","1024","2","48000","-16","AB_m21","215","odd","NW_L_COMP","TRIPARY","2172","420511","418488","385209","57908","387018","NA","NA","NA","NA","418989","NA","NA","NA","417988","NA","417963","2182","420761","NA","NA","NA","419029","2172","2172","NA","419884","419908","417963","418988","419009","morph21_Oliver/Morris","55","70247","77","yes","1920","2"
"400","70.51282051282051","70.51282051282051","914.6282051282051","914.6282051282051","black","no","xpyriment","legacy","legacy","0","203","NA","uniform","NA","NA","NA","0","undefined","0","0","77","77","77","0","77","77","77","NA","0","77","NA","NA","0","77","NA","77","0","77","NA","NA","NA","77","0","0","NA","77","77","77","77","77","78","z","Thu Jul  6 08:45:50 2023","The main experiment item","yes","m21-ab-lexicalDecision.osexp","C:\Users\emoore8\Desktop\m21_vsl-main","no","mono","no","18","no","white","no","yes","1080","legacy","77","77","C:/Users/emoore8/Desktop/m21_vsl-main/subject-215.csv","xpyriment","Lentiform Loewenfeld","3.3.11","0","/","space","NA","NA","NA","space","/","1094","25945","NA","NA","NA","55724","1094","2","legacy","1024","2","48000","-16","AB_m21","215","odd","NW_S_COMP","TRUENESS","2172","426063","422296","424558","57908","387018","NA","NA","NA","NA","422796","NA","NA","NA","421796","NA","421772","2182","426463","NA","NA","NA","422837","2172","2172","NA","423931","423955","421772","422796","422817","morph21_Oliver/Morris","55","71341","78","yes","1920","15"
"200","70.88607594936708","70.88607594936708","913.3924050632911","913.3924050632911","black","no","xpyriment","legacy","legacy","0","205","NA","uniform","NA","NA","NA","1","undefined","1","0","78","78","78","0","78","78","78","NA","0","78","NA","NA","0","78","NA","78","0","78","NA","NA","NA","78","0","0","NA","78","78","78","78","78","79","z","Thu Jul  6 08:45:50 2023","The main experiment item","yes","m21-ab-lexicalDecision.osexp","C:\Users\emoore8\Desktop\m21_vsl-main","no","mono","no","18","no","white","no","yes","1080","legacy","78","78","C:/Users/emoore8/Desktop/m21_vsl-main/subject-215.csv","xpyriment","Lentiform Loewenfeld","3.3.11","0","z","space","NA","NA","NA","space","z","817","25945","NA","NA","NA","55724","817","2","legacy","1024","2","48000","-16","AB_m21","215","odd","NW_S_SIMP","GUMFIL","2172","429974","427990","424558","57908","387018","NA","NA","NA","NA","428490","NA","NA","NA","427490","NA","427460","2182","430174","NA","NA","NA","428530","2172","2172","NA","429347","429371","427460","428490","428510","morph21_Oliver/Morris","56","72158","79","yes","1920","2"
"400","71.25","71.25","911.25","911.25","black","no","xpyriment","legacy","legacy","0","208","NA","uniform","NA","NA","NA","1","undefined","1","0","79","79","79","0","79","79","79","NA","0","79","NA","NA","0","79","NA","79","0","79","NA","NA","NA","79","0","0","NA","79","79","79","79","79","80","z","Thu Jul  6 08:45:50 2023","The main experiment item","yes","m21-ab-lexicalDecision.osexp","C:\Users\emoore8\Desktop\m21_vsl-main","no","mono","no","18","no","white","no","yes","1080","legacy","79","79","C:/Users/emoore8/Desktop/m21_vsl-main/subject-215.csv","xpyriment","Lentiform Loewenfeld","3.3.11","0","z","space","NA","NA","NA","space","z","742","25945","NA","NA","NA","55724","742","2","legacy","1024","2","48000","-16","AB_m21","215","odd","FILL_NW","BORMS","2172","433592","431680","424558","57908","387018","NA","NA","NA","NA","432180","NA","NA","NA","431179","NA","431153","2182","433992","NA","NA","NA","432221","2172","2172","NA","432964","432988","431153","432180","432201","morph21_Oliver/Morris","57","72900","80","yes","1920","50"
"400","71.60493827160494","71.60493827160494","909.0370370370371","909.0370370370371","black","no","xpyriment","legacy","legacy","0","201","NA","uniform","NA","NA","NA","1","undefined","1","0","80","80","80","0","80","80","80","NA","0","80","NA","NA","0","80","NA","80","0","80","NA","NA","NA","80","0","0","NA","80","80","80","80","80","81","/","Thu Jul  6 08:45:50 2023","The main experiment item","yes","m21-ab-lexicalDecision.osexp","C:\Users\emoore8\Desktop\m21_vsl-main","no","mono","no","18","no","white","no","yes","1080","legacy","80","80","C:/Users/emoore8/Desktop/m21_vsl-main/subject-215.csv","xpyriment","Lentiform Loewenfeld","3.3.11","0","/","space","NA","NA","NA","space","/","732","25945","NA","NA","NA","55724","732","2","legacy","1024","2","48000","-16","AB_m21","215","odd","CW_S","EFFORTLESS","2172","438895","435490","437391","57908","387018","NA","NA","NA","NA","435990","NA","NA","NA","434990","NA","434966","2182","439295","NA","NA","NA","436031","2172","2172","NA","436764","436787","434966","435990","436011","morph21_Oliver/Morris","58","73632","81","yes","1920","30"
"350","71.95121951219512","71.95121951219512","911.170731707317","911.170731707317","black","no","xpyriment","legacy","legacy","0","202","NA","uniform","NA","NA","NA","1","undefined","1","0","81","81","81","0","81","81","81","NA","0","81","NA","NA","0","81","NA","81","0","81","NA","NA","NA","81","0","0","NA","81","81","81","81","81","82","/","Thu Jul  6 08:45:50 2023","The main experiment item","yes","m21-ab-lexicalDecision.osexp","C:\Users\emoore8\Desktop\m21_vsl-main","no","mono","no","18","no","white","no","yes","1080","legacy","81","81","C:/Users/emoore8/Desktop/m21_vsl-main/subject-215.csv","xpyriment","Lentiform Loewenfeld","3.3.11","0","/","space","NA","NA","NA","space","/","1084","25945","NA","NA","NA","55724","1084","2","legacy","1024","2","48000","-16","AB_m21","215","odd","CW_L","GUARDING","2172","443041","440787","437391","57908","387018","NA","NA","NA","NA","441287","NA","NA","NA","440287","NA","440264","2182","443392","NA","NA","NA","441327","2172","2172","NA","442412","442437","440264","441287","441307","morph21_Oliver/Morris","59","74716","82","yes","1920","26"
"250","72.28915662650603","72.28915662650603","909.5783132530121","909.5783132530121","black","no","xpyriment","legacy","legacy","0","206","NA","uniform","NA","NA","NA","1","undefined","1","0","82","82","82","0","82","82","82","NA","0","82","NA","NA","0","82","NA","82","0","82","NA","NA","NA","82","0","0","NA","82","82","82","82","82","83","z","Thu Jul  6 08:45:50 2023","The main experiment item","yes","m21-ab-lexicalDecision.osexp","C:\Users\emoore8\Desktop\m21_vsl-main","no","mono","no","18","no","white","no","yes","1080","legacy","82","82","C:/Users/emoore8/Desktop/m21_vsl-main/subject-215.csv","xpyriment","Lentiform Loewenfeld","3.3.11","0","z","space","NA","NA","NA","space","z","779","25945","NA","NA","NA","55724","779","2","legacy","1024","2","48000","-16","AB_m21","215","odd","NW_L_SIMP","SHOOTMANT","2172","446839","444891","437391","57908","387018","NA","NA","NA","NA","445392","NA","NA","NA","444391","NA","444367","2182","447089","NA","NA","NA","445432","2172","2172","NA","446211","446236","444367","445391","445412","morph21_Oliver/Morris","60","75495","83","yes","1920","16"
"300","72.61904761904762","72.61904761904762","911.3095238095239","911.3095238095239","black","no","xpyriment","legacy","legacy","0","202","NA","uniform","NA","NA","NA","1","undefined","1","0","83","83","83","0","83","83","83","NA","0","83","NA","NA","0","83","NA","83","0","83","NA","NA","NA","83","0","0","NA","83","83","83","83","83","84","/","Thu Jul  6 08:45:50 2023","The main experiment item","yes","m21-ab-lexicalDecision.osexp","C:\Users\emoore8\Desktop\m21_vsl-main","no","mono","no","18","no","white","no","yes","1080","legacy","83","83","C:/Users/emoore8/Desktop/m21_vsl-main/subject-215.csv","xpyriment","Lentiform Loewenfeld","3.3.11","0","/","space","NA","NA","NA","space","/","1055","25945","NA","NA","NA","55724","1055","2","legacy","1024","2","48000","-16","AB_m21","215","odd","CW_L","COMPOSER","2172","452319","448592","450815","57908","387018","NA","NA","NA","NA","449092","NA","NA","NA","448092","NA","448069","2182","452619","NA","NA","NA","449132","2172","2172","NA","450187","450211","448069","449092","449112","morph21_Oliver/Morris","61","76550","84","yes","1920","6"
"250","72.94117647058823","72.94117647058823","908.9882352941177","908.9882352941177","black","no","xpyriment","legacy","legacy","0","207","NA","uniform","NA","NA","NA","1","undefined","1","0","84","84","84","0","84","84","84","NA","0","84","NA","NA","0","84","NA","84","0","84","NA","NA","NA","84","0","0","NA","84","84","84","84","84","85","/","Thu Jul  6 08:45:50 2023","The main experiment item","yes","m21-ab-lexicalDecision.osexp","C:\Users\emoore8\Desktop\m21_vsl-main","no","mono","no","18","no","white","no","yes","1080","legacy","84","84","C:/Users/emoore8/Desktop/m21_vsl-main/subject-215.csv","xpyriment","Lentiform Loewenfeld","3.3.11","0","/","space","NA","NA","NA","space","/","714","25945","NA","NA","NA","55724","714","2","legacy","1024","2","48000","-16","AB_m21","215","odd","FILL_W","STARVE","2172","456016","454130","450815","57908","387018","NA","NA","NA","NA","454632","NA","NA","NA","453629","NA","453605","2182","456266","NA","NA","NA","454673","2172","2172","NA","455388","455413","453605","454632","454653","morph21_Oliver/Morris","62","77264","85","yes","1920","15"
"250","73.25581395348837","73.25581395348837","906.6511627906976","906.6511627906976","black","no","xpyriment","legacy","legacy","0","202","NA","uniform","NA","NA","NA","1","undefined","1","0","85","85","85","0","85","85","85","NA","0","85","NA","NA","0","85","NA","85","0","85","NA","NA","NA","85","0","0","NA","85","85","85","85","85","86","/","Thu Jul  6 08:45:50 2023","The main experiment item","yes","m21-ab-lexicalDecision.osexp","C:\Users\emoore8\Desktop\m21_vsl-main","no","mono","no","18","no","white","no","yes","1080","legacy","85","85","C:/Users/emoore8/Desktop/m21_vsl-main/subject-215.csv","xpyriment","Lentiform Loewenfeld","3.3.11","0","/","space","NA","NA","NA","space","/","708","25945","NA","NA","NA","55724","708","2","legacy","1024","2","48000","-16","AB_m21","215","odd","CW_L","STRIKER","2172","459654","457777","450815","57908","387018","NA","NA","NA","NA","458278","NA","NA","NA","457277","NA","457250","2182","459905","NA","NA","NA","458319","2172","2172","NA","459027","459051","457250","458278","458299","morph21_Oliver/Morris","63","77972","86","yes","1920","17"
"400","73.5632183908046","73.5632183908046","905.2298850574713","905.2298850574713","black","no","xpyriment","legacy","legacy","0","207","NA","uniform","NA","NA","NA","1","undefined","1","0","86","86","86","0","86","86","86","NA","0","86","NA","NA","0","86","NA","86","0","86","NA","NA","NA","86","0","0","NA","86","86","86","86","86","87","/","Thu Jul  6 08:45:50 2023","The main experiment item","yes","m21-ab-lexicalDecision.osexp","C:\Users\emoore8\Desktop\m21_vsl-main","no","mono","no","18","no","white","no","yes","1080","legacy","86","86","C:/Users/emoore8/Desktop/m21_vsl-main/subject-215.csv","xpyriment","Lentiform Loewenfeld","3.3.11","0","/","space","NA","NA","NA","space","/","783","25945","NA","NA","NA","55724","783","2","legacy","1024","2","48000","-16","AB_m21","215","odd","FILL_W","CRUNCH","2172","464872","461414","463369","57908","387018","NA","NA","NA","NA","461914","NA","NA","NA","460914","NA","460888","2182","465272","NA","NA","NA","461955","2172","2172","NA","462739","462765","460888","461914","461935","morph21_Oliver/Morris","64","78755","87","yes","1920","20"
"200","73.86363636363636","73.86363636363636","902.0227272727273","902.0227272727273","black","no","xpyriment","legacy","legacy","0","207","NA","uniform","NA","NA","NA","1","undefined","1","0","87","87","87","0","87","87","87","NA","0","87","NA","NA","0","87","NA","87","0","87","NA","NA","NA","87","0","0","NA","87","87","87","87","87","88","/","Thu Jul  6 08:45:50 2023","The main experiment item","yes","m21-ab-lexicalDecision.osexp","C:\Users\emoore8\Desktop\m21_vsl-main","no","mono","no","18","no","white","no","yes","1080","legacy","87","87","C:/Users/emoore8/Desktop/m21_vsl-main/subject-215.csv","xpyriment","Lentiform Loewenfeld","3.3.11","0","/","space","NA","NA","NA","space","/","623","25945","NA","NA","NA","55724","623","2","legacy","1024","2","48000","-16","AB_m21","215","odd","FILL_W","LEGAL","2172","468571","466775","463369","57908","387018","NA","NA","NA","NA","467276","NA","NA","NA","466275","NA","466249","2182","468772","NA","NA","NA","467316","2172","2172","NA","467939","467967","466249","467276","467296","morph21_Oliver/Morris","65","79378","88","yes","1920","35"
"350","74.15730337078652","74.15730337078652","905.0337078651686","905.0337078651686","black","no","xpyriment","legacy","legacy","0","202","NA","uniform","NA","NA","NA","1","undefined","1","0","88","88","88","0","88","88","88","NA","0","88","NA","NA","0","88","NA","88","0","88","NA","NA","NA","88","0","0","NA","88","88","88","88","88","89","/","Thu Jul  6 08:45:50 2023","The main experiment item","yes","m21-ab-lexicalDecision.osexp","C:\Users\emoore8\Desktop\m21_vsl-main","no","mono","no","18","no","white","no","yes","1080","legacy","88","88","C:/Users/emoore8/Desktop/m21_vsl-main/subject-215.csv","xpyriment","Lentiform Loewenfeld","3.3.11","0","/","space","NA","NA","NA","space","/","1170","25945","NA","NA","NA","55724","1170","2","legacy","1024","2","48000","-16","AB_m21","215","odd","CW_L","JUMPING","2172","472615","470275","463369","57908","387018","NA","NA","NA","NA","470776","NA","NA","NA","469775","NA","469749","2182","472965","NA","NA","NA","470817","2172","2172","NA","471988","472012","469749","470776","470797","morph21_Oliver/Morris","66","80548","89","yes","1920","30"
"200","74.44444444444444","74.44444444444444","906.9333333333333","906.9333333333333","black","no","xpyriment","legacy","legacy","0","203","NA","uniform","NA","NA","NA","1","undefined","1","0","89","89","89","0","89","89","89","NA","0","89","NA","NA","0","89","NA","89","0","89","NA","NA","NA","89","0","0","NA","89","89","89","89","89","90","z","Thu Jul  6 08:45:50 2023","The main experiment item","yes","m21-ab-lexicalDecision.osexp","C:\Users\emoore8\Desktop\m21_vsl-main","no","mono","no","18","no","white","no","yes","1080","legacy","89","89","C:/Users/emoore8/Desktop/m21_vsl-main/subject-215.csv","xpyriment","Lentiform Loewenfeld","3.3.11","0","z","space","NA","NA","NA","space","z","1076","25945","NA","NA","NA","55724","1076","2","legacy","1024","2","48000","-16","AB_m21","215","odd","NW_S_COMP","YANKORY","2172","478210","474459","476706","57908","387018","NA","NA","NA","NA","474959","NA","NA","NA","473958","NA","473934","2182","478410","NA","NA","NA","474999","2172","2172","NA","476076","476102","473934","474959","474979","morph21_Oliver/Morris","67","81624","90","yes","1920","23"
