"ITI","acc","accuracy","average_response_time","avg_rt","background","bidi","canvas_backend","clock_backend","color_backend","compensation","cond_trig","condtrigtime","coordinates","coroutines_cycles","coroutines_duration","coroutines_mean_cycle_duration","correct","correct_instructions_1","correct_new_keyboard_response_1","count_AB_m21","count_ITI","count_blank_screen","count_blink_screen","count_block1","count_break1","count_break2","count_break3_1","count_canvas","count_close_port","count_cond_trigger","count_correct_trigger","count_def_chain","count_end_screen","count_fixation_1","count_getting_started","count_inc_counter","count_instructions_1","count_logger","count_logscript","count_new_inline_script","count_new_inline_script_2","count_new_keyboard_response_1","count_open_port","count_reset_counter_prep","count_reset_counter_run","count_response_trigger_trial","count_responsescreen","count_sequence","count_target_present","count_word_trigger","counter","cresp","datetime","description","disable_garbage_collection","experiment_file","experiment_path","font_bold","font_family","font_italic","font_size","font_underline","foreground","form_clicks","fullscreen","height","keyboard_backend","live_row","live_row_block1","logfile","mouse_backend","opensesame_codename","opensesame_version","repeat_cycle","response","response_break1","response_break2","response_break3_1","response_end_screen","response_instructions_1","response_new_keyboard_response_1","response_time","response_time_break1","response_time_break2","response_time_break3_1","response_time_end_screen","response_time_instructions_1","response_time_new_keyboard_response_1","round_decimals","sampler_backend","sound_buf_size","sound_channels","sound_freq","sound_sample_size","start","subject_nr","subject_parity","targ_type","target","time_AB_m21","time_ITI","time_blank_screen","time_blink_screen","time_block1","time_break1","time_break2","time_break3_1","time_canvas","time_close_port","time_cond_trigger","time_correct_trigger","time_def_chain","time_end_screen","time_fixation_1","time_getting_started","time_inc_counter","time_instructions_1","time_logger","time_logscript","time_new_inline_script","time_new_inline_script_2","time_new_keyboard_response_1","time_open_port","time_reset_counter_prep","time_reset_counter_run","time_response_trigger_trial","time_responsescreen","time_sequence","time_target_present","time_word_trigger","title","total_correct","total_response_time","total_responses","uniform_coordinates","width","word_trig"
"300","0","0","1200","1200","black","no","xpyriment","legacy","legacy","0","206","NA","uniform","NA","NA","NA","0","undefined","0","0","0","0","0","0","0","0","0","NA","0","0","NA","NA","0","0","NA","0","0","0","NA","NA","NA","0","0","0","NA","0","0","0","0","0","1","z","Thu Oct 26 15:07:19 2023","The main experiment item","yes","m21-ab-lexicalDecision.osexp","C:\Users\ekealey\Desktop","no","mono","no","18","no","white","no","yes","1080","legacy","0","0","C:/Users/ekealey/Desktop/subject-227.csv","xpyriment","Lentiform Loewenfeld","3.3.11","0","None","NA","NA","NA","NA","space","None","1200","NA","NA","NA","NA","33958","1200","2","legacy","1024","2","48000","-16","AB_m21","227","odd","NW_L_SIMP","EARILT","1862","40125","37758","NA","35831","NA","NA","NA","NA","NA","38259","NA","NA","NA","37257","NA","37223","1872","40425","NA","NA","NA","38299","1862","1863","NA","39499","39522","37223","38259","38279","morph21_Oliver/Morris","0","1200","1","yes","1920","12"
"250","0","0","1200","1200","black","no","xpyriment","legacy","legacy","0","208","NA","uniform","NA","NA","NA","0","undefined","0","0","1","1","1","0","1","1","1","NA","0","1","NA","NA","0","1","NA","1","0","1","NA","NA","NA","1","0","0","NA","1","1","1","1","1","2","z","Thu Oct 26 15:07:19 2023","The main experiment item","yes","m21-ab-lexicalDecision.osexp","C:\Users\ekealey\Desktop","no","mono","no","18","no","white","no","yes","1080","legacy","1","1","C:/Users/ekealey/Desktop/subject-227.csv","xpyriment","Lentiform Loewenfeld","3.3.11","0","None","NA","NA","NA","NA","space","None","1200","NA","NA","NA","NA","33958","1200","2","legacy","1024","2","48000","-16","AB_m21","227","odd","FILL_NW","PHEEKS","1862","44384","42014","NA","35831","NA","NA","NA","NA","NA","42516","NA","NA","NA","41513","NA","41484","1872","44634","NA","NA","NA","42556","1862","1863","NA","43756","43781","41484","42516","42536","morph21_Oliver/Morris","0","2400","2","yes","1920","35"
"400","33.333333333333336","33.333333333333336","1094","1094","black","no","xpyriment","legacy","legacy","0","201","NA","uniform","NA","NA","NA","1","undefined","1","0","2","2","2","0","2","2","2","NA","0","2","NA","NA","0","2","NA","2","0","2","NA","NA","NA","2","0","0","NA","2","2","2","2","2","3","/","Thu Oct 26 15:07:19 2023","The main experiment item","yes","m21-ab-lexicalDecision.osexp","C:\Users\ekealey\Desktop","no","mono","no","18","no","white","no","yes","1080","legacy","2","2","C:/Users/ekealey/Desktop/subject-227.csv","xpyriment","Lentiform Loewenfeld","3.3.11","0","/","NA","NA","NA","NA","space","/","882","NA","NA","NA","NA","33958","882","2","legacy","1024","2","48000","-16","AB_m21","227","odd","CW_S","DESIGN","1862","49770","46215","48265","35831","NA","NA","NA","NA","NA","46715","NA","NA","NA","45713","NA","45687","1872","50170","NA","NA","NA","46756","1862","1863","NA","47639","47662","45687","46715","46736","morph21_Oliver/Morris","1","3282","3","yes","1920","19"
"200","50","50","1057.25","1057.25","black","no","xpyriment","legacy","legacy","0","208","NA","uniform","NA","NA","NA","1","undefined","1","0","3","3","3","0","3","3","3","NA","0","3","NA","NA","0","3","NA","3","0","3","NA","NA","NA","3","0","0","NA","3","3","3","3","3","4","z","Thu Oct 26 15:07:19 2023","The main experiment item","yes","m21-ab-lexicalDecision.osexp","C:\Users\ekealey\Desktop","no","mono","no","18","no","white","no","yes","1080","legacy","3","3","C:/Users/ekealey/Desktop/subject-227.csv","xpyriment","Lentiform Loewenfeld","3.3.11","0","z","NA","NA","NA","NA","space","z","947","NA","NA","NA","NA","33958","947","2","legacy","1024","2","48000","-16","AB_m21","227","odd","FILL_NW","PORDS","1862","53891","51774","48265","35831","NA","NA","NA","NA","NA","52275","NA","NA","NA","51274","NA","51246","1872","54091","NA","NA","NA","52315","1862","1863","NA","53262","53287","51246","52275","52295","morph21_Oliver/Morris","2","4229","4","yes","1920","39"
"200","40","40","1085.8","1085.8","black","no","xpyriment","legacy","legacy","0","203","NA","uniform","NA","NA","NA","0","undefined","0","0","4","4","4","0","4","4","4","NA","0","4","NA","NA","0","4","NA","4","0","4","NA","NA","NA","4","0","0","NA","4","4","4","4","4","5","z","Thu Oct 26 15:07:19 2023","The main experiment item","yes","m21-ab-lexicalDecision.osexp","C:\Users\ekealey\Desktop","no","mono","no","18","no","white","no","yes","1080","legacy","4","4","C:/Users/ekealey/Desktop/subject-227.csv","xpyriment","Lentiform Loewenfeld","3.3.11","0","None","NA","NA","NA","NA","space","None","1200","NA","NA","NA","NA","33958","1200","2","legacy","1024","2","48000","-16","AB_m21","227","odd","NW_S_COMP","ADOPTILP","1862","58019","55646","48265","35831","NA","NA","NA","NA","NA","56150","NA","NA","NA","55145","NA","55118","1872","58219","NA","NA","NA","56191","1862","1863","NA","57391","57416","55118","56149","56170","morph21_Oliver/Morris","2","5429","5","yes","1920","19"
"300","50","50","1021","1021","black","no","xpyriment","legacy","legacy","0","202","NA","uniform","NA","NA","NA","1","undefined","1","0","5","5","5","0","5","5","5","NA","0","5","NA","NA","0","5","NA","5","0","5","NA","NA","NA","5","0","0","NA","5","5","5","5","5","6","/","Thu Oct 26 15:07:19 2023","The main experiment item","yes","m21-ab-lexicalDecision.osexp","C:\Users\ekealey\Desktop","no","mono","no","18","no","white","no","yes","1080","legacy","5","5","C:/Users/ekealey/Desktop/subject-227.csv","xpyriment","Lentiform Loewenfeld","3.3.11","0","/","NA","NA","NA","NA","space","/","697","NA","NA","NA","NA","33958","697","2","legacy","1024","2","48000","-16","AB_m21","227","odd","CW_L","DOUBTFUL","1862","63138","59768","61633","35831","NA","NA","NA","NA","NA","60268","NA","NA","NA","59267","NA","59237","1872","63438","NA","NA","NA","60309","1862","1863","NA","61007","61030","59237","60268","60289","morph21_Oliver/Morris","3","6126","6","yes","1920","21"
"350","57.142857142857146","57.142857142857146","1002.2857142857143","1002.2857142857143","black","no","xpyriment","legacy","legacy","0","208","NA","uniform","NA","NA","NA","1","undefined","1","0","6","6","6","0","6","6","6","NA","0","6","NA","NA","0","6","NA","6","0","6","NA","NA","NA","6","0","0","NA","6","6","6","6","6","7","z","Thu Oct 26 15:07:19 2023","The main experiment item","yes","m21-ab-lexicalDecision.osexp","C:\Users\ekealey\Desktop","no","mono","no","18","no","white","no","yes","1080","legacy","6","6","C:/Users/ekealey/Desktop/subject-227.csv","xpyriment","Lentiform Loewenfeld","3.3.11","0","z","NA","NA","NA","NA","space","z","890","NA","NA","NA","NA","33958","890","2","legacy","1024","2","48000","-16","AB_m21","227","odd","FILL_NW","KRAISE","1862","67077","65015","61633","35831","NA","NA","NA","NA","NA","65516","NA","NA","NA","64514","NA","64488","1872","67427","NA","NA","NA","65556","1862","1863","NA","66447","66472","64488","65515","65536","morph21_Oliver/Morris","4","7016","7","yes","1920","33"
"300","62.5","62.5","1000.625","1000.625","black","no","xpyriment","legacy","legacy","0","206","NA","uniform","NA","NA","NA","1","undefined","1","0","7","7","7","0","7","7","7","NA","0","7","NA","NA","0","7","NA","7","0","7","NA","NA","NA","7","0","0","NA","7","7","7","7","7","8","z","Thu Oct 26 15:07:19 2023","The main experiment item","yes","m21-ab-lexicalDecision.osexp","C:\Users\ekealey\Desktop","no","mono","no","18","no","white","no","yes","1080","legacy","7","7","C:/Users/ekealey/Desktop/subject-227.csv","xpyriment","Lentiform Loewenfeld","3.3.11","0","z","NA","NA","NA","NA","space","z","989","NA","NA","NA","NA","33958","989","2","legacy","1024","2","48000","-16","AB_m21","227","odd","NW_L_SIMP","TAXFIL","1862","71138","68980","61633","35831","NA","NA","NA","NA","NA","69481","NA","NA","NA","68479","NA","68452","1872","71438","NA","NA","NA","69521","1862","1863","NA","70511","70535","68452","69481","69501","morph21_Oliver/Morris","5","8005","8","yes","1920","6"
"350","55.55555555555556","55.55555555555556","973.4444444444445","973.4444444444445","black","no","xpyriment","legacy","legacy","0","203","NA","uniform","NA","NA","NA","0","undefined","0","0","8","8","8","0","8","8","8","NA","0","8","NA","NA","0","8","NA","8","0","8","NA","NA","NA","8","0","0","NA","8","8","8","8","8","9","z","Thu Oct 26 15:07:19 2023","The main experiment item","yes","m21-ab-lexicalDecision.osexp","C:\Users\ekealey\Desktop","no","mono","no","18","no","white","no","yes","1080","legacy","8","8","C:/Users/ekealey/Desktop/subject-227.csv","xpyriment","Lentiform Loewenfeld","3.3.11","0","/","NA","NA","NA","NA","space","/","756","NA","NA","NA","NA","33958","756","2","legacy","1024","2","48000","-16","AB_m21","227","odd","NW_S_COMP","HUMIDOUS","1862","76419","72989","74916","35831","NA","NA","NA","NA","NA","73490","NA","NA","NA","72488","NA","72461","1872","76769","NA","NA","NA","73530","1862","1863","NA","74287","74310","72461","73490","73510","morph21_Oliver/Morris","5","8761","9","yes","1920","25"
"350","60","60","967.7","967.7","black","no","xpyriment","legacy","legacy","0","206","NA","uniform","NA","NA","NA","1","undefined","1","0","9","9","9","0","9","9","9","NA","0","9","NA","NA","0","9","NA","9","0","9","NA","NA","NA","9","0","0","NA","9","9","9","9","9","10","z","Thu Oct 26 15:07:19 2023","The main experiment item","yes","m21-ab-lexicalDecision.osexp","C:\Users\ekealey\Desktop","no","mono","no","18","no","white","no","yes","1080","legacy","9","9","C:/Users/ekealey/Desktop/subject-227.csv","xpyriment","Lentiform Loewenfeld","3.3.11","0","z","NA","NA","NA","NA","space","z","916","NA","NA","NA","NA","33958","916","2","legacy","1024","2","48000","-16","AB_m21","227","odd","NW_L_SIMP","NUTLA","1862","80401","78317","74916","35831","NA","NA","NA","NA","NA","78817","NA","NA","NA","77817","NA","77786","1872","80752","NA","NA","NA","78858","1862","1863","NA","79775","79798","77786","78817","78838","morph21_Oliver/Morris","6","9677","10","yes","1920","14"
"250","63.63636363636363","63.63636363636363","951.3636363636364","951.3636363636364","black","no","xpyriment","legacy","legacy","0","205","NA","uniform","NA","NA","NA","1","undefined","1","0","10","10","10","0","10","10","10","NA","0","10","NA","NA","0","10","NA","10","0","10","NA","NA","NA","10","0","0","NA","10","10","10","10","10","11","z","Thu Oct 26 15:07:19 2023","The main experiment item","yes","m21-ab-lexicalDecision.osexp","C:\Users\ekealey\Desktop","no","mono","no","18","no","white","no","yes","1080","legacy","10","10","C:/Users/ekealey/Desktop/subject-227.csv","xpyriment","Lentiform Loewenfeld","3.3.11","0","z","NA","NA","NA","NA","space","z","788","NA","NA","NA","NA","33958","788","2","legacy","1024","2","48000","-16","AB_m21","227","odd","NW_S_SIMP","DIGODY","1862","84266","82306","74916","35831","NA","NA","NA","NA","NA","82809","NA","NA","NA","81806","NA","81776","1872","84516","NA","NA","NA","82850","1862","1863","NA","83639","83663","81776","82809","82830","morph21_Oliver/Morris","7","10465","11","yes","1920","11"
"200","66.66666666666667","66.66666666666667","933.6666666666666","933.6666666666666","black","no","xpyriment","legacy","legacy","0","208","NA","uniform","NA","NA","NA","1","undefined","1","0","11","11","11","0","11","11","11","NA","0","11","NA","NA","0","11","NA","11","0","11","NA","NA","NA","11","0","0","NA","11","11","11","11","11","12","z","Thu Oct 26 15:07:19 2023","The main experiment item","yes","m21-ab-lexicalDecision.osexp","C:\Users\ekealey\Desktop","no","mono","no","18","no","white","no","yes","1080","legacy","11","11","C:/Users/ekealey/Desktop/subject-227.csv","xpyriment","Lentiform Loewenfeld","3.3.11","0","z","NA","NA","NA","NA","space","z","739","NA","NA","NA","NA","33958","739","2","legacy","1024","2","48000","-16","AB_m21","227","odd","FILL_NW","HESK","1862","89473","86062","87969","35831","NA","NA","NA","NA","NA","86562","NA","NA","NA","85562","NA","85527","1872","89673","NA","NA","NA","86603","1862","1863","NA","87342","87366","85527","86562","86582","morph21_Oliver/Morris","8","11204","12","yes","1920","29"
"400","69.23076923076923","69.23076923076923","927.6153846153846","927.6153846153846","black","no","xpyriment","legacy","legacy","0","208","NA","uniform","NA","NA","NA","1","undefined","1","0","12","12","12","0","12","12","12","NA","0","12","NA","NA","0","12","NA","12","0","12","NA","NA","NA","12","0","0","NA","12","12","12","12","12","13","z","Thu Oct 26 15:07:19 2023","The main experiment item","yes","m21-ab-lexicalDecision.osexp","C:\Users\ekealey\Desktop","no","mono","no","18","no","white","no","yes","1080","legacy","12","12","C:/Users/ekealey/Desktop/subject-227.csv","xpyriment","Lentiform Loewenfeld","3.3.11","0","z","NA","NA","NA","NA","space","z","855","NA","NA","NA","NA","33958","855","2","legacy","1024","2","48000","-16","AB_m21","227","odd","FILL_NW","GIKE","1862","93291","91267","87969","35831","NA","NA","NA","NA","NA","91767","NA","NA","NA","90767","NA","90737","1872","93691","NA","NA","NA","91807","1862","1863","NA","92663","92687","90737","91767","91787","morph21_Oliver/Morris","9","12059","13","yes","1920","24"
"400","71.42857142857143","71.42857142857143","911.2142857142857","911.2142857142857","black","no","xpyriment","legacy","legacy","0","202","NA","uniform","NA","NA","NA","1","undefined","1","0","13","13","13","0","13","13","13","NA","0","13","NA","NA","0","13","NA","13","0","13","NA","NA","NA","13","0","0","NA","13","13","13","13","13","14","/","Thu Oct 26 15:07:19 2023","The main experiment item","yes","m21-ab-lexicalDecision.osexp","C:\Users\ekealey\Desktop","no","mono","no","18","no","white","no","yes","1080","legacy","13","13","C:/Users/ekealey/Desktop/subject-227.csv","xpyriment","Lentiform Loewenfeld","3.3.11","0","/","NA","NA","NA","NA","space","/","698","NA","NA","NA","NA","33958","698","2","legacy","1024","2","48000","-16","AB_m21","227","odd","CW_L","CLOUDLESS","1862","97097","95232","87969","35831","NA","NA","NA","NA","NA","95732","NA","NA","NA","94732","NA","94701","1872","97497","NA","NA","NA","95772","1862","1863","NA","96471","96494","94701","95732","95752","morph21_Oliver/Morris","10","12757","14","yes","1920","33"
"400","73.33333333333333","73.33333333333333","902.3333333333334","902.3333333333334","black","no","xpyriment","legacy","legacy","0","202","NA","uniform","NA","NA","NA","1","undefined","1","0","14","14","14","0","14","14","14","NA","0","14","NA","NA","0","14","NA","14","0","14","NA","NA","NA","14","0","0","NA","14","14","14","14","14","15","/","Thu Oct 26 15:07:19 2023","The main experiment item","yes","m21-ab-lexicalDecision.osexp","C:\Users\ekealey\Desktop","no","mono","no","18","no","white","no","yes","1080","legacy","14","14","C:/Users/ekealey/Desktop/subject-227.csv","xpyriment","Lentiform Loewenfeld","3.3.11","0","/","NA","NA","NA","NA","space","/","778","NA","NA","NA","NA","33958","778","2","legacy","1024","2","48000","-16","AB_m21","227","odd","CW_L","WRONGLY","1862","102497","99046","100993","35831","NA","NA","NA","NA","NA","99548","NA","NA","NA","98545","NA","98519","1872","102897","NA","NA","NA","99588","1862","1863","NA","100367","100390","98519","99548","99568","morph21_Oliver/Morris","11","13535","15","yes","1920","37"
"200","75","75","909.875","909.875","black","no","xpyriment","legacy","legacy","0","207","NA","uniform","NA","NA","NA","1","undefined","1","0","15","15","15","0","15","15","15","NA","0","15","NA","NA","0","15","NA","15","0","15","NA","NA","NA","15","0","0","NA","15","15","15","15","15","16","/","Thu Oct 26 15:07:19 2023","The main experiment item","yes","m21-ab-lexicalDecision.osexp","C:\Users\ekealey\Desktop","no","mono","no","18","no","white","no","yes","1080","legacy","15","15","C:/Users/ekealey/Desktop/subject-227.csv","xpyriment","Lentiform Loewenfeld","3.3.11","0","/","NA","NA","NA","NA","space","/","1023","NA","NA","NA","NA","33958","1023","2","legacy","1024","2","48000","-16","AB_m21","227","odd","FILL_W","OLD","1862","106657","104466","100993","35831","NA","NA","NA","NA","NA","104966","NA","NA","NA","103966","NA","103933","1872","106857","NA","NA","NA","105007","1862","1863","NA","106031","106054","103933","104966","104987","morph21_Oliver/Morris","12","14558","16","yes","1920","44"
"350","70.58823529411765","70.58823529411765","891.5294117647059","891.5294117647059","black","no","xpyriment","legacy","legacy","0","203","NA","uniform","NA","NA","NA","0","undefined","0","0","16","16","16","0","16","16","16","NA","0","16","NA","NA","0","16","NA","16","0","16","NA","NA","NA","16","0","0","NA","16","16","16","16","16","17","z","Thu Oct 26 15:07:19 2023","The main experiment item","yes","m21-ab-lexicalDecision.osexp","C:\Users\ekealey\Desktop","no","mono","no","18","no","white","no","yes","1080","legacy","16","16","C:/Users/ekealey/Desktop/subject-227.csv","xpyriment","Lentiform Loewenfeld","3.3.11","0","/","NA","NA","NA","NA","space","/","598","NA","NA","NA","NA","33958","598","2","legacy","1024","2","48000","-16","AB_m21","227","odd","NW_S_COMP","HEIGHTENCE","1862","110202","108435","100993","35831","NA","NA","NA","NA","NA","108936","NA","NA","NA","107935","NA","107906","1872","110552","NA","NA","NA","108976","1862","1863","NA","109575","109599","107906","108935","108956","morph21_Oliver/Morris","12","15156","17","yes","1920","18"
"400","72.22222222222223","72.22222222222223","885.5","885.5","black","no","xpyriment","legacy","legacy","0","204","NA","uniform","NA","NA","NA","1","undefined","1","0","17","17","17","0","17","17","17","NA","0","17","NA","NA","0","17","NA","17","0","17","NA","NA","NA","17","0","0","NA","17","17","17","17","17","18","z","Thu Oct 26 15:07:19 2023","The main experiment item","yes","m21-ab-lexicalDecision.osexp","C:\Users\ekealey\Desktop","no","mono","no","18","no","white","no","yes","1080","legacy","17","17","C:/Users/ekealey/Desktop/subject-227.csv","xpyriment","Lentiform Loewenfeld","3.3.11","0","z","NA","NA","NA","NA","space","z","783","NA","NA","NA","NA","33958","783","2","legacy","1024","2","48000","-16","AB_m21","227","odd","NW_L_COMP","PASSMENT","1862","115569","112114","114066","35831","NA","NA","NA","NA","NA","112615","NA","NA","NA","111613","NA","111586","1872","115970","NA","NA","NA","112655","1862","1863","NA","113438","113462","111586","112615","112635","morph21_Oliver/Morris","13","15939","18","yes","1920","14"
"250","73.6842105263158","73.6842105263158","895.6842105263158","895.6842105263158","black","no","xpyriment","legacy","legacy","0","207","NA","uniform","NA","NA","NA","1","undefined","1","0","18","18","18","0","18","18","18","NA","0","18","NA","NA","0","18","NA","18","0","18","NA","NA","NA","18","0","0","NA","18","18","18","18","18","19","/","Thu Oct 26 15:07:19 2023","The main experiment item","yes","m21-ab-lexicalDecision.osexp","C:\Users\ekealey\Desktop","no","mono","no","18","no","white","no","yes","1080","legacy","18","18","C:/Users/ekealey/Desktop/subject-227.csv","xpyriment","Lentiform Loewenfeld","3.3.11","0","/","NA","NA","NA","NA","space","/","1079","NA","NA","NA","NA","33958","1079","2","legacy","1024","2","48000","-16","AB_m21","227","odd","FILL_W","STARVE","1862","119780","117529","114066","35831","NA","NA","NA","NA","NA","118030","NA","NA","NA","117028","NA","116992","1872","120030","NA","NA","NA","118071","1862","1863","NA","119151","119176","116992","118030","118051","morph21_Oliver/Morris","14","17018","19","yes","1920","15"
"400","70","70","882.65","882.65","black","no","xpyriment","legacy","legacy","0","207","NA","uniform","NA","NA","NA","0","undefined","0","0","19","19","19","0","19","19","19","NA","0","19","NA","NA","0","19","NA","19","0","19","NA","NA","NA","19","0","0","NA","19","19","19","19","19","20","/","Thu Oct 26 15:07:19 2023","The main experiment item","yes","m21-ab-lexicalDecision.osexp","C:\Users\ekealey\Desktop","no","mono","no","18","no","white","no","yes","1080","legacy","19","19","C:/Users/ekealey/Desktop/subject-227.csv","xpyriment","Lentiform Loewenfeld","3.3.11","0","z","NA","NA","NA","NA","space","z","635","NA","NA","NA","NA","33958","635","2","legacy","1024","2","48000","-16","AB_m21","227","odd","FILL_W","LITHE","1862","123394","121590","114066","35831","NA","NA","NA","NA","NA","122091","NA","NA","NA","121090","NA","121062","1872","123794","NA","NA","NA","122131","1862","1863","NA","122767","122790","121062","122091","122111","morph21_Oliver/Morris","14","17653","20","yes","1920","23"
"300","71.42857142857143","71.42857142857143","889.7142857142857","889.7142857142857","black","no","xpyriment","legacy","legacy","0","205","NA","uniform","NA","NA","NA","1","undefined","1","0","20","20","20","0","20","20","20","NA","0","20","NA","NA","0","20","NA","20","0","20","NA","NA","NA","20","0","0","NA","20","20","20","20","20","21","z","Thu Oct 26 15:07:19 2023","The main experiment item","yes","m21-ab-lexicalDecision.osexp","C:\Users\ekealey\Desktop","no","mono","no","18","no","white","no","yes","1080","legacy","20","20","C:/Users/ekealey/Desktop/subject-227.csv","xpyriment","Lentiform Loewenfeld","3.3.11","0","z","NA","NA","NA","NA","space","z","1031","NA","NA","NA","NA","33958","1031","2","legacy","1024","2","48000","-16","AB_m21","227","odd","NW_S_SIMP","HELMETOES","1862","129052","125345","127548","35831","NA","NA","NA","NA","NA","125846","NA","NA","NA","124844","NA","124818","1872","129352","NA","NA","NA","125887","1862","1863","NA","126919","126943","124818","125846","125867","morph21_Oliver/Morris","15","18684","21","yes","1920","14"
"400","68.18181818181819","68.18181818181819","903.8181818181819","903.8181818181819","black","no","xpyriment","legacy","legacy","0","206","NA","uniform","NA","NA","NA","0","undefined","0","0","21","21","21","0","21","21","21","NA","0","21","NA","NA","0","21","NA","21","0","21","NA","NA","NA","21","0","0","NA","21","21","21","21","21","22","z","Thu Oct 26 15:07:19 2023","The main experiment item","yes","m21-ab-lexicalDecision.osexp","C:\Users\ekealey\Desktop","no","mono","no","18","no","white","no","yes","1080","legacy","21","21","C:/Users/ekealey/Desktop/subject-227.csv","xpyriment","Lentiform Loewenfeld","3.3.11","0","None","NA","NA","NA","NA","space","None","1200","NA","NA","NA","NA","33958","1200","2","legacy","1024","2","48000","-16","AB_m21","227","odd","NW_L_SIMP","VALIDEL","1862","133293","130922","127548","35831","NA","NA","NA","NA","NA","131423","NA","NA","NA","130421","NA","130391","1872","133693","NA","NA","NA","131465","1862","1863","NA","132665","132689","130391","131423","131444","morph21_Oliver/Morris","15","19884","22","yes","1920","23"
"300","69.56521739130434","69.56521739130434","899.0434782608696","899.0434782608696","black","no","xpyriment","legacy","legacy","0","202","NA","uniform","NA","NA","NA","1","undefined","1","0","22","22","22","0","22","22","22","NA","0","22","NA","NA","0","22","NA","22","0","22","NA","NA","NA","22","0","0","NA","22","22","22","22","22","23","/","Thu Oct 26 15:07:19 2023","The main experiment item","yes","m21-ab-lexicalDecision.osexp","C:\Users\ekealey\Desktop","no","mono","no","18","no","white","no","yes","1080","legacy","22","22","C:/Users/ekealey/Desktop/subject-227.csv","xpyriment","Lentiform Loewenfeld","3.3.11","0","/","NA","NA","NA","NA","space","/","794","NA","NA","NA","NA","33958","794","2","legacy","1024","2","48000","-16","AB_m21","227","odd","CW_L","MADNESS","1862","137212","135246","127548","35831","NA","NA","NA","NA","NA","135748","NA","NA","NA","134745","NA","134718","1872","137512","NA","NA","NA","135788","1862","1863","NA","136583","136607","134718","135748","135768","morph21_Oliver/Morris","16","20678","23","yes","1920","41"
"250","70.83333333333333","70.83333333333333","899.25","899.25","black","no","xpyriment","legacy","legacy","0","206","NA","uniform","NA","NA","NA","1","undefined","1","0","23","23","23","0","23","23","23","NA","0","23","NA","NA","0","23","NA","23","0","23","NA","NA","NA","23","0","0","NA","23","23","23","23","23","24","z","Thu Oct 26 15:07:19 2023","The main experiment item","yes","m21-ab-lexicalDecision.osexp","C:\Users\ekealey\Desktop","no","mono","no","18","no","white","no","yes","1080","legacy","23","23","C:/Users/ekealey/Desktop/subject-227.csv","xpyriment","Lentiform Loewenfeld","3.3.11","0","z","NA","NA","NA","NA","space","z","904","NA","NA","NA","NA","33958","904","2","legacy","1024","2","48000","-16","AB_m21","227","odd","NW_L_SIMP","SHOOTMANT","1862","142665","139089","141161","35831","NA","NA","NA","NA","NA","139589","NA","NA","NA","138589","NA","138560","1872","142915","NA","NA","NA","139630","1862","1863","NA","140535","140558","138560","139589","139610","morph21_Oliver/Morris","17","21582","24","yes","1920","16"
"300","72","72","891.68","891.68","black","no","xpyriment","legacy","legacy","0","205","NA","uniform","NA","NA","NA","1","undefined","1","0","24","24","24","0","24","24","24","NA","0","24","NA","NA","0","24","NA","24","0","24","NA","NA","NA","24","0","0","NA","24","24","24","24","24","25","z","Thu Oct 26 15:07:19 2023","The main experiment item","yes","m21-ab-lexicalDecision.osexp","C:\Users\ekealey\Desktop","no","mono","no","18","no","white","no","yes","1080","legacy","24","24","C:/Users/ekealey/Desktop/subject-227.csv","xpyriment","Lentiform Loewenfeld","3.3.11","0","z","NA","NA","NA","NA","space","z","710","NA","NA","NA","NA","33958","710","2","legacy","1024","2","48000","-16","AB_m21","227","odd","NW_S_SIMP","BOLTOES","1862","146387","144507","141161","35831","NA","NA","NA","NA","NA","145007","NA","NA","NA","144007","NA","143979","1872","146687","NA","NA","NA","145048","1862","1863","NA","145759","145784","143979","145007","145028","morph21_Oliver/Morris","18","22292","25","yes","1920","13"
"400","73.07692307692308","73.07692307692308","884.5","884.5","black","no","xpyriment","legacy","legacy","0","201","NA","uniform","NA","NA","NA","1","undefined","1","0","25","25","25","0","25","25","25","NA","0","25","NA","NA","0","25","NA","25","0","25","NA","NA","NA","25","0","0","NA","25","25","25","25","25","26","/","Thu Oct 26 15:07:19 2023","The main experiment item","yes","m21-ab-lexicalDecision.osexp","C:\Users\ekealey\Desktop","no","mono","no","18","no","white","no","yes","1080","legacy","25","25","C:/Users/ekealey/Desktop/subject-227.csv","xpyriment","Lentiform Loewenfeld","3.3.11","0","/","NA","NA","NA","NA","space","/","705","NA","NA","NA","NA","33958","705","2","legacy","1024","2","48000","-16","AB_m21","227","odd","CW_S","ALLOWANCE","1862","150122","148247","141161","35831","NA","NA","NA","NA","NA","148748","NA","NA","NA","147744","NA","147712","1872","150522","NA","NA","NA","148789","1862","1863","NA","149495","149519","147711","148748","148769","morph21_Oliver/Morris","19","22997","26","yes","1920","5"
"200","74.07407407407408","74.07407407407408","880.925925925926","880.925925925926","black","no","xpyriment","legacy","legacy","0","208","NA","uniform","NA","NA","NA","1","undefined","1","0","26","26","26","0","26","26","26","NA","0","26","NA","NA","0","26","NA","26","0","26","NA","NA","NA","26","0","0","NA","26","26","26","26","26","27","z","Thu Oct 26 15:07:19 2023","The main experiment item","yes","m21-ab-lexicalDecision.osexp","C:\Users\ekealey\Desktop","no","mono","no","18","no","white","no","yes","1080","legacy","26","26","C:/Users/ekealey/Desktop/subject-227.csv","xpyriment","Lentiform Loewenfeld","3.3.11","0","z","NA","NA","NA","NA","space","z","788","NA","NA","NA","NA","33958","788","2","legacy","1024","2","48000","-16","AB_m21","227","odd","FILL_NW","BLAYS","1862","155529","152070","154025","35831","NA","NA","NA","NA","NA","152570","NA","NA","NA","151569","NA","151537","1872","155729","NA","NA","NA","152610","1862","1863","NA","153398","153422","151537","152570","152590","morph21_Oliver/Morris","20","23785","27","yes","1920","8"
"350","75","75","877.5714285714286","877.5714285714286","black","no","xpyriment","legacy","legacy","0","207","NA","uniform","NA","NA","NA","1","undefined","1","0","27","27","27","0","27","27","27","NA","0","27","NA","NA","0","27","NA","27","0","27","NA","NA","NA","27","0","0","NA","27","27","27","27","27","28","/","Thu Oct 26 15:07:19 2023","The main experiment item","yes","m21-ab-lexicalDecision.osexp","C:\Users\ekealey\Desktop","no","mono","no","18","no","white","no","yes","1080","legacy","27","27","C:/Users/ekealey/Desktop/subject-227.csv","xpyriment","Lentiform Loewenfeld","3.3.11","0","/","NA","NA","NA","NA","space","/","787","NA","NA","NA","NA","33958","787","2","legacy","1024","2","48000","-16","AB_m21","227","odd","FILL_W","GLOOM","1862","159251","157293","154025","35831","NA","NA","NA","NA","NA","157794","NA","NA","NA","156793","NA","156765","1872","159602","NA","NA","NA","157835","1862","1863","NA","158622","158647","156765","157794","157815","morph21_Oliver/Morris","21","24572","28","yes","1920","14"
"300","72.41379310344827","72.41379310344827","875.0344827586207","875.0344827586207","black","no","xpyriment","legacy","legacy","0","204","NA","uniform","NA","NA","NA","0","undefined","0","0","28","28","28","0","28","28","28","NA","0","28","NA","NA","0","28","NA","28","0","28","NA","NA","NA","28","0","0","NA","28","28","28","28","28","29","z","Thu Oct 26 15:07:19 2023","The main experiment item","yes","m21-ab-lexicalDecision.osexp","C:\Users\ekealey\Desktop","no","mono","no","18","no","white","no","yes","1080","legacy","28","28","C:/Users/ekealey/Desktop/subject-227.csv","xpyriment","Lentiform Loewenfeld","3.3.11","0","/","NA","NA","NA","NA","space","/","804","NA","NA","NA","NA","33958","804","2","legacy","1024","2","48000","-16","AB_m21","227","odd","NW_L_COMP","KINGISM","1862","163147","161172","154025","35831","NA","NA","NA","NA","NA","161673","NA","NA","NA","160672","NA","160641","1872","163447","NA","NA","NA","161714","1862","1863","NA","162518","162542","160641","161673","161694","morph21_Oliver/Morris","21","25376","29","yes","1920","19"
"400","73.33333333333333","73.33333333333333","874.1333333333333","874.1333333333333","black","no","xpyriment","legacy","legacy","0","202","NA","uniform","NA","NA","NA","1","undefined","1","0","29","29","29","0","29","29","29","NA","0","29","NA","NA","0","29","NA","29","0","29","NA","NA","NA","29","0","0","NA","29","29","29","29","29","30","/","Thu Oct 26 15:07:19 2023","The main experiment item","yes","m21-ab-lexicalDecision.osexp","C:\Users\ekealey\Desktop","no","mono","no","18","no","white","no","yes","1080","legacy","29","29","C:/Users/ekealey/Desktop/subject-227.csv","xpyriment","Lentiform Loewenfeld","3.3.11","0","/","NA","NA","NA","NA","space","/","848","NA","NA","NA","NA","33958","848","2","legacy","1024","2","48000","-16","AB_m21","227","odd","CW_L","QUIETLY","1862","168523","165000","167018","35831","NA","NA","NA","NA","NA","165501","NA","NA","NA","164499","NA","164468","1872","168923","NA","NA","NA","165541","1862","1863","NA","166390","166415","164468","165501","165521","morph21_Oliver/Morris","22","26224","30","yes","1920","36"
"350","74.19354838709677","74.19354838709677","874.3548387096774","874.3548387096774","black","no","xpyriment","legacy","legacy","0","206","NA","uniform","NA","NA","NA","1","undefined","1","0","30","30","30","0","30","30","30","NA","0","30","NA","NA","0","30","NA","30","0","30","NA","NA","NA","30","0","0","NA","30","30","30","30","30","31","z","Thu Oct 26 15:07:19 2023","The main experiment item","yes","m21-ab-lexicalDecision.osexp","C:\Users\ekealey\Desktop","no","mono","no","18","no","white","no","yes","1080","legacy","30","30","C:/Users/ekealey/Desktop/subject-227.csv","xpyriment","Lentiform Loewenfeld","3.3.11","0","z","NA","NA","NA","NA","space","z","881","NA","NA","NA","NA","33958","881","2","legacy","1024","2","48000","-16","AB_m21","227","odd","NW_L_SIMP","WIGITH","1862","172529","170479","167018","35831","NA","NA","NA","NA","NA","170980","NA","NA","NA","169977","NA","169943","1872","172879","NA","NA","NA","171021","1862","1863","NA","171903","171926","169943","170980","171001","morph21_Oliver/Morris","23","27105","31","yes","1920","9"
"300","75","75","870.75","870.75","black","no","xpyriment","legacy","legacy","0","201","NA","uniform","NA","NA","NA","1","undefined","1","0","31","31","31","0","31","31","31","NA","0","31","NA","NA","0","31","NA","31","0","31","NA","NA","NA","31","0","0","NA","31","31","31","31","31","32","/","Thu Oct 26 15:07:19 2023","The main experiment item","yes","m21-ab-lexicalDecision.osexp","C:\Users\ekealey\Desktop","no","mono","no","18","no","white","no","yes","1080","legacy","31","31","C:/Users/ekealey/Desktop/subject-227.csv","xpyriment","Lentiform Loewenfeld","3.3.11","0","/","NA","NA","NA","NA","space","/","759","NA","NA","NA","NA","33958","759","2","legacy","1024","2","48000","-16","AB_m21","227","odd","CW_S","ATTACKER","1862","176387","174457","167018","35831","NA","NA","NA","NA","NA","174958","NA","NA","NA","173956","NA","173927","1872","176687","NA","NA","NA","174998","1862","1863","NA","175758","175783","173927","174958","174978","morph21_Oliver/Morris","24","27864","32","yes","1920","20"
"350","75.75757575757575","75.75757575757575","873","873","black","no","xpyriment","legacy","legacy","0","202","NA","uniform","NA","NA","NA","1","undefined","1","0","32","32","32","0","32","32","32","NA","0","32","NA","NA","0","32","NA","32","0","32","NA","NA","NA","32","0","0","NA","32","32","32","32","32","33","/","Thu Oct 26 15:07:19 2023","The main experiment item","yes","m21-ab-lexicalDecision.osexp","C:\Users\ekealey\Desktop","no","mono","no","18","no","white","no","yes","1080","legacy","32","32","C:/Users/ekealey/Desktop/subject-227.csv","xpyriment","Lentiform Loewenfeld","3.3.11","0","/","NA","NA","NA","NA","space","/","945","NA","NA","NA","NA","33958","945","2","legacy","1024","2","48000","-16","AB_m21","227","odd","CW_L","PUNCHER","1862","181885","178263","180378","35831","NA","NA","NA","NA","NA","178764","NA","NA","NA","177762","NA","177734","1872","182235","NA","NA","NA","178804","1862","1863","NA","179750","179773","177734","178764","178784","morph21_Oliver/Morris","25","28809","33","yes","1920","1"
"350","76.47058823529412","76.47058823529412","867.5882352941177","867.5882352941177","black","no","xpyriment","legacy","legacy","0","203","NA","uniform","NA","NA","NA","1","undefined","1","0","33","33","33","0","33","33","33","NA","0","33","NA","NA","0","33","NA","33","0","33","NA","NA","NA","33","0","0","NA","33","33","33","33","33","34","z","Thu Oct 26 15:07:19 2023","The main experiment item","yes","m21-ab-lexicalDecision.osexp","C:\Users\ekealey\Desktop","no","mono","no","18","no","white","no","yes","1080","legacy","33","33","C:/Users/ekealey/Desktop/subject-227.csv","xpyriment","Lentiform Loewenfeld","3.3.11","0","z","NA","NA","NA","NA","space","z","689","NA","NA","NA","NA","33958","689","2","legacy","1024","2","48000","-16","AB_m21","227","odd","NW_S_COMP","DEBTISH","1862","185683","183824","180378","35831","NA","NA","NA","NA","NA","184324","NA","NA","NA","183322","NA","183296","1872","186033","NA","NA","NA","184364","1862","1863","NA","185054","185079","183296","184324","184344","morph21_Oliver/Morris","26","29498","34","yes","1920","22"
"200","77.14285714285714","77.14285714285714","862.8285714285714","862.8285714285714","black","no","xpyriment","legacy","legacy","0","207","NA","uniform","NA","NA","NA","1","undefined","1","0","34","34","34","0","34","34","34","NA","0","34","NA","NA","0","34","NA","34","0","34","NA","NA","NA","34","0","0","NA","34","34","34","34","34","35","/","Thu Oct 26 15:07:19 2023","The main experiment item","yes","m21-ab-lexicalDecision.osexp","C:\Users\ekealey\Desktop","no","mono","no","18","no","white","no","yes","1080","legacy","34","34","C:/Users/ekealey/Desktop/subject-227.csv","xpyriment","Lentiform Loewenfeld","3.3.11","0","/","NA","NA","NA","NA","space","/","701","NA","NA","NA","NA","33958","701","2","legacy","1024","2","48000","-16","AB_m21","227","odd","FILL_W","GOLF","1862","189451","187579","180378","35831","NA","NA","NA","NA","NA","188080","NA","NA","NA","187078","NA","187049","1872","189651","NA","NA","NA","188120","1862","1863","NA","188822","188848","187049","188080","188100","morph21_Oliver/Morris","27","30199","35","yes","1920","28"
"200","77.77777777777777","77.77777777777777","862.1388888888889","862.1388888888889","black","no","xpyriment","legacy","legacy","0","205","NA","uniform","NA","NA","NA","1","undefined","1","0","35","35","35","0","35","35","35","NA","0","35","NA","NA","0","35","NA","35","0","35","NA","NA","NA","35","0","0","NA","35","35","35","35","35","36","z","Thu Oct 26 15:07:19 2023","The main experiment item","yes","m21-ab-lexicalDecision.osexp","C:\Users\ekealey\Desktop","no","mono","no","18","no","white","no","yes","1080","legacy","35","35","C:/Users/ekealey/Desktop/subject-227.csv","xpyriment","Lentiform Loewenfeld","3.3.11","0","z","NA","NA","NA","NA","space","z","838","NA","NA","NA","NA","33958","838","2","legacy","1024","2","48000","-16","AB_m21","227","odd","NW_S_SIMP","NULLITH","1862","194724","191210","193219","35831","NA","NA","NA","NA","NA","191711","NA","NA","NA","190707","NA","190682","1872","194924","NA","NA","NA","191752","1862","1863","NA","192591","192614","190682","191711","191732","morph21_Oliver/Morris","28","31037","36","yes","1920","23"
"350","78.37837837837837","78.37837837837837","857.3243243243244","857.3243243243244","black","no","xpyriment","legacy","legacy","0","202","NA","uniform","NA","NA","NA","1","undefined","1","0","36","36","36","0","36","36","36","NA","0","36","NA","NA","0","36","NA","36","0","36","NA","NA","NA","36","0","0","NA","36","36","36","36","36","37","/","Thu Oct 26 15:07:19 2023","The main experiment item","yes","m21-ab-lexicalDecision.osexp","C:\Users\ekealey\Desktop","no","mono","no","18","no","white","no","yes","1080","legacy","36","36","C:/Users/ekealey/Desktop/subject-227.csv","xpyriment","Lentiform Loewenfeld","3.3.11","0","/","NA","NA","NA","NA","space","/","684","NA","NA","NA","NA","33958","684","2","legacy","1024","2","48000","-16","AB_m21","227","odd","CW_L","KICKING","1862","198387","196534","193219","35831","NA","NA","NA","NA","NA","197034","NA","NA","NA","196034","NA","196004","1872","198737","NA","NA","NA","197074","1862","1863","NA","197758","197784","196004","197034","197054","morph21_Oliver/Morris","29","31721","37","yes","1920","23"
"200","76.3157894736842","76.3157894736842","860.2894736842105","860.2894736842105","black","no","xpyriment","legacy","legacy","0","208","NA","uniform","NA","NA","NA","0","undefined","0","0","37","37","37","0","37","37","37","NA","0","37","NA","NA","0","37","NA","37","0","37","NA","NA","NA","37","0","0","NA","37","37","37","37","37","38","z","Thu Oct 26 15:07:19 2023","The main experiment item","yes","m21-ab-lexicalDecision.osexp","C:\Users\ekealey\Desktop","no","mono","no","18","no","white","no","yes","1080","legacy","37","37","C:/Users/ekealey/Desktop/subject-227.csv","xpyriment","Lentiform Loewenfeld","3.3.11","0","/","NA","NA","NA","NA","space","/","970","NA","NA","NA","NA","33958","970","2","legacy","1024","2","48000","-16","AB_m21","227","odd","FILL_NW","SMADE","1862","202426","200288","193219","35831","NA","NA","NA","NA","NA","200788","NA","NA","NA","199787","NA","199759","1872","202626","NA","NA","NA","200828","1862","1863","NA","201798","201823","199759","200788","200808","morph21_Oliver/Morris","29","32691","38","yes","1920","42"
"200","76.92307692307692","76.92307692307692","857.6666666666666","857.6666666666666","black","no","xpyriment","legacy","legacy","0","201","NA","uniform","NA","NA","NA","1","undefined","1","0","38","38","38","0","38","38","38","NA","0","38","NA","NA","0","38","NA","38","0","38","NA","NA","NA","38","0","0","NA","38","38","38","38","38","39","/","Thu Oct 26 15:07:19 2023","The main experiment item","yes","m21-ab-lexicalDecision.osexp","C:\Users\ekealey\Desktop","no","mono","no","18","no","white","no","yes","1080","legacy","38","38","C:/Users/ekealey/Desktop/subject-227.csv","xpyriment","Lentiform Loewenfeld","3.3.11","0","/","NA","NA","NA","NA","space","/","758","NA","NA","NA","NA","33958","758","2","legacy","1024","2","48000","-16","AB_m21","227","odd","CW_S","AMUSEMENT","1862","207643","204209","206139","35831","NA","NA","NA","NA","NA","204711","NA","NA","NA","203708","NA","203683","1872","207843","NA","NA","NA","204751","1862","1863","NA","205510","205535","203683","204710","204731","morph21_Oliver/Morris","30","33449","39","yes","1920","38"
"300","77.5","77.5","857.025","857.025","black","no","xpyriment","legacy","legacy","0","204","NA","uniform","NA","NA","NA","1","undefined","1","0","39","39","39","0","39","39","39","NA","0","39","NA","NA","0","39","NA","39","0","39","NA","NA","NA","39","0","0","NA","39","39","39","39","39","40","z","Thu Oct 26 15:07:19 2023","The main experiment item","yes","m21-ab-lexicalDecision.osexp","C:\Users\ekealey\Desktop","no","mono","no","18","no","white","no","yes","1080","legacy","39","39","C:/Users/ekealey/Desktop/subject-227.csv","xpyriment","Lentiform Loewenfeld","3.3.11","0","z","NA","NA","NA","NA","space","z","832","NA","NA","NA","NA","33958","832","2","legacy","1024","2","48000","-16","AB_m21","227","odd","NW_L_COMP","ADDMENT","1862","211392","209392","206139","35831","NA","NA","NA","NA","NA","209892","NA","NA","NA","208892","NA","208858","1872","211692","NA","NA","NA","209933","1862","1863","NA","210766","210789","208858","209892","209913","morph21_Oliver/Morris","31","34281","40","yes","1920","13"
"200","78.04878048780488","78.04878048780488","863.8048780487804","863.8048780487804","black","no","xpyriment","legacy","legacy","0","205","NA","uniform","NA","NA","NA","1","undefined","1","0","40","40","40","0","40","40","40","NA","0","40","NA","NA","0","40","NA","40","0","40","NA","NA","NA","40","0","0","NA","40","40","40","40","40","41","z","Thu Oct 26 15:07:19 2023","The main experiment item","yes","m21-ab-lexicalDecision.osexp","C:\Users\ekealey\Desktop","no","mono","no","18","no","white","no","yes","1080","legacy","40","40","C:/Users/ekealey/Desktop/subject-227.csv","xpyriment","Lentiform Loewenfeld","3.3.11","0","z","NA","NA","NA","NA","space","z","1135","NA","NA","NA","NA","33958","1135","2","legacy","1024","2","48000","-16","AB_m21","227","odd","NW_S_SIMP","GUMFIL","1862","215555","213248","206139","35831","NA","NA","NA","NA","NA","213750","NA","NA","NA","212745","NA","212719","1872","215755","NA","NA","NA","213790","1862","1863","NA","214926","214951","212719","213750","213770","morph21_Oliver/Morris","32","35416","41","yes","1920","2"
"300","78.57142857142857","78.57142857142857","859.1666666666666","859.1666666666666","black","no","xpyriment","legacy","legacy","0","205","NA","uniform","NA","NA","NA","1","undefined","1","0","41","41","41","0","41","41","41","NA","0","41","NA","NA","0","41","NA","41","0","41","NA","NA","NA","41","0","0","NA","41","41","41","41","41","42","z","Thu Oct 26 15:07:19 2023","The main experiment item","yes","m21-ab-lexicalDecision.osexp","C:\Users\ekealey\Desktop","no","mono","no","18","no","white","no","yes","1080","legacy","41","41","C:/Users/ekealey/Desktop/subject-227.csv","xpyriment","Lentiform Loewenfeld","3.3.11","0","z","NA","NA","NA","NA","space","z","669","NA","NA","NA","NA","33958","669","2","legacy","1024","2","48000","-16","AB_m21","227","odd","NW_S_SIMP","HEIRIG","1862","220660","217316","219156","35831","NA","NA","NA","NA","NA","217817","NA","NA","NA","216814","NA","216788","1872","220960","NA","NA","NA","217857","1862","1863","NA","218527","218552","216788","217817","217837","morph21_Oliver/Morris","33","36085","42","yes","1920","3"
"200","79.06976744186046","79.06976744186046","863.9069767441861","863.9069767441861","black","no","xpyriment","legacy","legacy","0","207","NA","uniform","NA","NA","NA","1","undefined","1","0","42","42","42","0","42","42","42","NA","0","42","NA","NA","0","42","NA","42","0","42","NA","NA","NA","42","0","0","NA","42","42","42","42","42","43","/","Thu Oct 26 15:07:19 2023","The main experiment item","yes","m21-ab-lexicalDecision.osexp","C:\Users\ekealey\Desktop","no","mono","no","18","no","white","no","yes","1080","legacy","42","42","C:/Users/ekealey/Desktop/subject-227.csv","xpyriment","Lentiform Loewenfeld","3.3.11","0","/","NA","NA","NA","NA","space","/","1063","NA","NA","NA","NA","33958","1063","2","legacy","1024","2","48000","-16","AB_m21","227","odd","FILL_W","BLEAK","1862","224754","222520","219156","35831","NA","NA","NA","NA","NA","223021","NA","NA","NA","222019","NA","221986","1872","224954","NA","NA","NA","223063","1862","1863","NA","224127","224150","221986","223021","223042","morph21_Oliver/Morris","34","37148","43","yes","1920","5"
"350","79.54545454545455","79.54545454545455","862.1590909090909","862.1590909090909","black","no","xpyriment","legacy","legacy","0","202","NA","uniform","NA","NA","NA","1","undefined","1","0","43","43","43","0","43","43","43","NA","0","43","NA","NA","0","43","NA","43","0","43","NA","NA","NA","43","0","0","NA","43","43","43","43","43","44","/","Thu Oct 26 15:07:19 2023","The main experiment item","yes","m21-ab-lexicalDecision.osexp","C:\Users\ekealey\Desktop","no","mono","no","18","no","white","no","yes","1080","legacy","43","43","C:/Users/ekealey/Desktop/subject-227.csv","xpyriment","Lentiform Loewenfeld","3.3.11","0","/","NA","NA","NA","NA","space","/","787","NA","NA","NA","NA","33958","787","2","legacy","1024","2","48000","-16","AB_m21","227","odd","CW_L","EDITOR","1862","228465","226508","219156","35831","NA","NA","NA","NA","NA","227009","NA","NA","NA","226007","NA","225978","1872","228815","NA","NA","NA","227051","1862","1863","NA","227838","227862","225978","227009","227030","morph21_Oliver/Morris","35","37935","44","yes","1920","45"
"200","77.77777777777777","77.77777777777777","869.6666666666666","869.6666666666666","black","no","xpyriment","legacy","legacy","0","201","NA","uniform","NA","NA","NA","0","undefined","0","0","44","44","44","0","44","44","44","NA","0","44","NA","NA","0","44","NA","44","0","44","NA","NA","NA","44","0","0","NA","44","44","44","44","44","45","/","Thu Oct 26 15:07:19 2023","The main experiment item","yes","m21-ab-lexicalDecision.osexp","C:\Users\ekealey\Desktop","no","mono","no","18","no","white","no","yes","1080","legacy","44","44","C:/Users/ekealey/Desktop/subject-227.csv","xpyriment","Lentiform Loewenfeld","3.3.11","0","None","NA","NA","NA","NA","space","None","1200","NA","NA","NA","NA","33958","1200","2","legacy","1024","2","48000","-16","AB_m21","227","odd","CW_S","CAMPAIGNER","1862","234241","230367","232735","35831","NA","NA","NA","NA","NA","230867","NA","NA","NA","229865","NA","229837","1872","234441","NA","NA","NA","230907","1862","1863","NA","232107","232131","229837","230867","230887","morph21_Oliver/Morris","35","39135","45","yes","1920","15"
"350","78.26086956521739","78.26086956521739","863.3478260869565","863.3478260869565","black","no","xpyriment","legacy","legacy","0","208","NA","uniform","NA","NA","NA","1","undefined","1","0","45","45","45","0","45","45","45","NA","0","45","NA","NA","0","45","NA","45","0","45","NA","NA","NA","45","0","0","NA","45","45","45","45","45","46","z","Thu Oct 26 15:07:19 2023","The main experiment item","yes","m21-ab-lexicalDecision.osexp","C:\Users\ekealey\Desktop","no","mono","no","18","no","white","no","yes","1080","legacy","45","45","C:/Users/ekealey/Desktop/subject-227.csv","xpyriment","Lentiform Loewenfeld","3.3.11","0","z","NA","NA","NA","NA","space","z","579","NA","NA","NA","NA","33958","579","2","legacy","1024","2","48000","-16","AB_m21","227","odd","FILL_NW","JADS","1862","237761","236012","232735","35831","NA","NA","NA","NA","NA","236514","NA","NA","NA","235510","NA","235478","1872","238111","NA","NA","NA","236555","1862","1863","NA","237134","237158","235477","236514","236535","morph21_Oliver/Morris","36","39714","46","yes","1920","31"
"400","78.72340425531915","78.72340425531915","862.0851063829788","862.0851063829788","black","no","xpyriment","legacy","legacy","0","202","NA","uniform","NA","NA","NA","1","undefined","1","0","46","46","46","0","46","46","46","NA","0","46","NA","NA","0","46","NA","46","0","46","NA","NA","NA","46","0","0","NA","46","46","46","46","46","47","/","Thu Oct 26 15:07:19 2023","The main experiment item","yes","m21-ab-lexicalDecision.osexp","C:\Users\ekealey\Desktop","no","mono","no","18","no","white","no","yes","1080","legacy","46","46","C:/Users/ekealey/Desktop/subject-227.csv","xpyriment","Lentiform Loewenfeld","3.3.11","0","/","NA","NA","NA","NA","space","/","804","NA","NA","NA","NA","33958","804","2","legacy","1024","2","48000","-16","AB_m21","227","odd","CW_L","COOLING","1862","241633","239661","232735","35831","NA","NA","NA","NA","NA","240161","NA","NA","NA","239160","NA","239131","1872","242033","NA","NA","NA","240202","1862","1863","NA","241007","241030","239131","240161","240182","morph21_Oliver/Morris","37","40518","47","yes","1920","24"
"400","79.16666666666667","79.16666666666667","856.625","856.625","black","no","xpyriment","legacy","legacy","0","208","NA","uniform","NA","NA","NA","1","undefined","1","0","47","47","47","0","47","47","47","NA","0","47","NA","NA","0","47","NA","47","0","47","NA","NA","NA","47","0","0","NA","47","47","47","47","47","48","z","Thu Oct 26 15:07:19 2023","The main experiment item","yes","m21-ab-lexicalDecision.osexp","C:\Users\ekealey\Desktop","no","mono","no","18","no","white","no","yes","1080","legacy","47","47","C:/Users/ekealey/Desktop/subject-227.csv","xpyriment","Lentiform Loewenfeld","3.3.11","0","z","NA","NA","NA","NA","space","z","600","NA","NA","NA","NA","33958","600","2","legacy","1024","2","48000","-16","AB_m21","227","odd","FILL_NW","DROES","1862","246874","243600","245371","35831","NA","NA","NA","NA","NA","244100","NA","NA","NA","243100","NA","243070","1872","247274","NA","NA","NA","244141","1862","1863","NA","244742","244767","243070","244100","244121","morph21_Oliver/Morris","38","41118","48","yes","1920","17"
"400","79.59183673469387","79.59183673469387","853.0408163265306","853.0408163265306","black","no","xpyriment","legacy","legacy","0","207","NA","uniform","NA","NA","NA","1","undefined","1","0","48","48","48","0","48","48","48","NA","0","48","NA","NA","0","48","NA","48","0","48","NA","NA","NA","48","0","0","NA","48","48","48","48","48","49","/","Thu Oct 26 15:07:19 2023","The main experiment item","yes","m21-ab-lexicalDecision.osexp","C:\Users\ekealey\Desktop","no","mono","no","18","no","white","no","yes","1080","legacy","48","48","C:/Users/ekealey/Desktop/subject-227.csv","xpyriment","Lentiform Loewenfeld","3.3.11","0","/","NA","NA","NA","NA","space","/","681","NA","NA","NA","NA","33958","681","2","legacy","1024","2","48000","-16","AB_m21","227","odd","FILL_W","EAT","1862","250689","248840","245371","35831","NA","NA","NA","NA","NA","249340","NA","NA","NA","248340","NA","248306","1872","251089","NA","NA","NA","249380","1862","1863","NA","250062","250086","248306","249340","249360","morph21_Oliver/Morris","39","41799","49","yes","1920","25"
"350","80","80","857.2","857.2","black","no","xpyriment","legacy","legacy","0","207","NA","uniform","NA","NA","NA","1","undefined","1","0","49","49","49","0","49","49","49","NA","0","49","NA","NA","0","49","NA","49","0","49","NA","NA","NA","49","0","0","NA","49","49","49","49","49","50","/","Thu Oct 26 15:07:19 2023","The main experiment item","yes","m21-ab-lexicalDecision.osexp","C:\Users\ekealey\Desktop","no","mono","no","18","no","white","no","yes","1080","legacy","49","49","C:/Users/ekealey/Desktop/subject-227.csv","xpyriment","Lentiform Loewenfeld","3.3.11","0","/","NA","NA","NA","NA","space","/","1061","NA","NA","NA","NA","33958","1061","2","legacy","1024","2","48000","-16","AB_m21","227","odd","FILL_W","FAINT","1862","254947","252713","245371","35831","NA","NA","NA","NA","NA","253216","NA","NA","NA","252211","NA","252186","1872","255297","NA","NA","NA","253256","1862","1863","NA","254318","254342","252186","253216","253236","morph21_Oliver/Morris","40","42860","50","yes","1920","31"
"350","78.43137254901961","78.43137254901961","863.9215686274509","863.9215686274509","black","no","xpyriment","legacy","legacy","0","202","NA","uniform","NA","NA","NA","0","undefined","0","0","50","50","50","0","50","50","50","NA","0","50","NA","NA","0","50","NA","50","0","50","NA","NA","NA","50","0","0","NA","50","50","50","50","50","51","/","Thu Oct 26 15:07:19 2023","The main experiment item","yes","m21-ab-lexicalDecision.osexp","C:\Users\ekealey\Desktop","no","mono","no","18","no","white","no","yes","1080","legacy","50","50","C:/Users/ekealey/Desktop/subject-227.csv","xpyriment","Lentiform Loewenfeld","3.3.11","0","None","NA","NA","NA","NA","space","None","1200","NA","NA","NA","NA","33958","1200","2","legacy","1024","2","48000","-16","AB_m21","227","odd","CW_L","RENTER","1862","260817","256941","259312","35831","NA","NA","NA","NA","NA","257443","NA","NA","NA","256439","NA","256405","1872","261167","NA","NA","NA","257483","1862","1863","NA","258683","258708","256405","257443","257463","morph21_Oliver/Morris","40","44060","51","yes","1920","9"
"400","78.84615384615384","78.84615384615384","857.9038461538462","857.9038461538462","black","no","xpyriment","legacy","legacy","0","202","NA","uniform","NA","NA","NA","1","undefined","1","0","51","51","51","0","51","51","51","NA","0","51","NA","NA","0","51","NA","51","0","51","NA","NA","NA","51","0","0","NA","51","51","51","51","51","52","/","Thu Oct 26 15:07:19 2023","The main experiment item","yes","m21-ab-lexicalDecision.osexp","C:\Users\ekealey\Desktop","no","mono","no","18","no","white","no","yes","1080","legacy","51","51","C:/Users/ekealey/Desktop/subject-227.csv","xpyriment","Lentiform Loewenfeld","3.3.11","0","/","NA","NA","NA","NA","space","/","551","NA","NA","NA","NA","33958","551","2","legacy","1024","2","48000","-16","AB_m21","227","odd","CW_L","FAITHFUL","1862","264523","262801","259312","35831","NA","NA","NA","NA","NA","263301","NA","NA","NA","262301","NA","262273","1872","264923","NA","NA","NA","263342","1862","1863","NA","263894","263919","262273","263301","263322","morph21_Oliver/Morris","41","44611","52","yes","1920","20"
"350","79.24528301886792","79.24528301886792","858.3584905660377","858.3584905660377","black","no","xpyriment","legacy","legacy","0","201","NA","uniform","NA","NA","NA","1","undefined","1","0","52","52","52","0","52","52","52","NA","0","52","NA","NA","0","52","NA","52","0","52","NA","NA","NA","52","0","0","NA","52","52","52","52","52","53","/","Thu Oct 26 15:07:19 2023","The main experiment item","yes","m21-ab-lexicalDecision.osexp","C:\Users\ekealey\Desktop","no","mono","no","18","no","white","no","yes","1080","legacy","52","52","C:/Users/ekealey/Desktop/subject-227.csv","xpyriment","Lentiform Loewenfeld","3.3.11","0","/","NA","NA","NA","NA","space","/","882","NA","NA","NA","NA","33958","882","2","legacy","1024","2","48000","-16","AB_m21","227","odd","CW_S","AMAZEMENT","1862","268568","266517","259312","35831","NA","NA","NA","NA","NA","267018","NA","NA","NA","266017","NA","265991","1872","268918","NA","NA","NA","267059","1862","1863","NA","267942","267966","265991","267018","267039","morph21_Oliver/Morris","42","45493","53","yes","1920","39"
"350","77.77777777777777","77.77777777777777","864.6851851851852","864.6851851851852","black","no","xpyriment","legacy","legacy","0","203","NA","uniform","NA","NA","NA","0","undefined","0","0","53","53","53","0","53","53","53","NA","0","53","NA","NA","0","53","NA","53","0","53","NA","NA","NA","53","0","0","NA","53","53","53","53","53","54","z","Thu Oct 26 15:07:19 2023","The main experiment item","yes","m21-ab-lexicalDecision.osexp","C:\Users\ekealey\Desktop","no","mono","no","18","no","white","no","yes","1080","legacy","53","53","C:/Users/ekealey/Desktop/subject-227.csv","xpyriment","Lentiform Loewenfeld","3.3.11","0","None","NA","NA","NA","NA","space","None","1200","NA","NA","NA","NA","33958","1200","2","legacy","1024","2","48000","-16","AB_m21","227","odd","NW_S_COMP","PRINCEMENT","1862","274380","270504","272873","35831","NA","NA","NA","NA","NA","271004","NA","NA","NA","270003","NA","269974","1872","274730","NA","NA","NA","271045","1862","1863","NA","272245","272268","269974","271004","271025","morph21_Oliver/Morris","42","46693","54","yes","1920","17"
"300","78.18181818181819","78.18181818181819","862.6545454545454","862.6545454545454","black","no","xpyriment","legacy","legacy","0","202","NA","uniform","NA","NA","NA","1","undefined","1","0","54","54","54","0","54","54","54","NA","0","54","NA","NA","0","54","NA","54","0","54","NA","NA","NA","54","0","0","NA","54","54","54","54","54","55","/","Thu Oct 26 15:07:19 2023","The main experiment item","yes","m21-ab-lexicalDecision.osexp","C:\Users\ekealey\Desktop","no","mono","no","18","no","white","no","yes","1080","legacy","54","54","C:/Users/ekealey/Desktop/subject-227.csv","xpyriment","Lentiform Loewenfeld","3.3.11","0","/","NA","NA","NA","NA","space","/","753","NA","NA","NA","NA","33958","753","2","legacy","1024","2","48000","-16","AB_m21","227","odd","CW_L","COMPOSER","1862","278258","276336","272873","35831","NA","NA","NA","NA","NA","276836","NA","NA","NA","275836","NA","275807","1872","278558","NA","NA","NA","276877","1862","1863","NA","277630","277655","275807","276836","276857","morph21_Oliver/Morris","43","47446","55","yes","1920","6"
"250","76.78571428571429","76.78571428571429","865.4642857142857","865.4642857142857","black","no","xpyriment","legacy","legacy","0","204","NA","uniform","NA","NA","NA","0","undefined","0","0","55","55","55","0","55","55","55","NA","0","55","NA","NA","0","55","NA","55","0","55","NA","NA","NA","55","0","0","NA","55","55","55","55","55","56","z","Thu Oct 26 15:07:19 2023","The main experiment item","yes","m21-ab-lexicalDecision.osexp","C:\Users\ekealey\Desktop","no","mono","no","18","no","white","no","yes","1080","legacy","55","55","C:/Users/ekealey/Desktop/subject-227.csv","xpyriment","Lentiform Loewenfeld","3.3.11","0","/","NA","NA","NA","NA","space","/","1020","NA","NA","NA","NA","33958","1020","2","legacy","1024","2","48000","-16","AB_m21","227","odd","NW_L_COMP","BREAKITY","1862","282379","280188","272873","35831","NA","NA","NA","NA","NA","280689","NA","NA","NA","279688","NA","279660","1872","282629","NA","NA","NA","280730","1862","1863","NA","281751","281774","279660","280689","280710","morph21_Oliver/Morris","43","48466","56","yes","1920","23"
"350","77.19298245614036","77.19298245614036","867.0877192982456","867.0877192982456","black","no","xpyriment","legacy","legacy","0","202","NA","uniform","NA","NA","NA","1","undefined","1","0","56","56","56","0","56","56","56","NA","0","56","NA","NA","0","56","NA","56","0","56","NA","NA","NA","56","0","0","NA","56","56","56","56","56","57","/","Thu Oct 26 15:07:19 2023","The main experiment item","yes","m21-ab-lexicalDecision.osexp","C:\Users\ekealey\Desktop","no","mono","no","18","no","white","no","yes","1080","legacy","56","56","C:/Users/ekealey/Desktop/subject-227.csv","xpyriment","Lentiform Loewenfeld","3.3.11","0","/","NA","NA","NA","NA","space","/","958","NA","NA","NA","NA","33958","958","2","legacy","1024","2","48000","-16","AB_m21","227","odd","CW_L","SWIMMER","1862","287826","284194","286321","35831","NA","NA","NA","NA","NA","284695","NA","NA","NA","283692","NA","283662","1872","288177","NA","NA","NA","284735","1862","1863","NA","285694","285718","283662","284694","284715","morph21_Oliver/Morris","44","49424","57","yes","1920","5"
"300","77.58620689655173","77.58620689655173","865.5689655172414","865.5689655172414","black","no","xpyriment","legacy","legacy","0","201","NA","uniform","NA","NA","NA","1","undefined","1","0","57","57","57","0","57","57","57","NA","0","57","NA","NA","0","57","NA","57","0","57","NA","NA","NA","57","0","0","NA","57","57","57","57","57","58","/","Thu Oct 26 15:07:19 2023","The main experiment item","yes","m21-ab-lexicalDecision.osexp","C:\Users\ekealey\Desktop","no","mono","no","18","no","white","no","yes","1080","legacy","57","57","C:/Users/ekealey/Desktop/subject-227.csv","xpyriment","Lentiform Loewenfeld","3.3.11","0","/","NA","NA","NA","NA","space","/","779","NA","NA","NA","NA","33958","779","2","legacy","1024","2","48000","-16","AB_m21","227","odd","CW_S","DESTROYER","1862","291700","289748","286321","35831","NA","NA","NA","NA","NA","290249","NA","NA","NA","289246","NA","289216","1872","292000","NA","NA","NA","290290","1862","1863","NA","291070","291096","289216","290249","290270","morph21_Oliver/Morris","45","50203","58","yes","1920","14"
"400","76.27118644067797","76.27118644067797","871.2372881355932","871.2372881355932","black","no","xpyriment","legacy","legacy","0","201","NA","uniform","NA","NA","NA","0","undefined","0","0","58","58","58","0","58","58","58","NA","0","58","NA","NA","0","58","NA","58","0","58","NA","NA","NA","58","0","0","NA","58","58","58","58","58","59","/","Thu Oct 26 15:07:19 2023","The main experiment item","yes","m21-ab-lexicalDecision.osexp","C:\Users\ekealey\Desktop","no","mono","no","18","no","white","no","yes","1080","legacy","58","58","C:/Users/ekealey/Desktop/subject-227.csv","xpyriment","Lentiform Loewenfeld","3.3.11","0","None","NA","NA","NA","NA","space","None","1200","NA","NA","NA","NA","33958","1200","2","legacy","1024","2","48000","-16","AB_m21","227","odd","CW_S","DIETARY","1862","295965","293596","286321","35831","NA","NA","NA","NA","NA","294097","NA","NA","NA","293096","NA","293066","1872","296365","NA","NA","NA","294138","1862","1863","NA","295338","295362","293065","294097","294118","morph21_Oliver/Morris","45","51403","59","yes","1920","6"
"250","75","75","876.7166666666667","876.7166666666667","black","no","xpyriment","legacy","legacy","0","207","NA","uniform","NA","NA","NA","0","undefined","0","0","59","59","59","0","59","59","59","NA","0","59","NA","NA","0","59","NA","59","0","59","NA","NA","NA","59","0","0","NA","59","59","59","59","59","60","/","Thu Oct 26 15:07:19 2023","The main experiment item","yes","m21-ab-lexicalDecision.osexp","C:\Users\ekealey\Desktop","no","mono","no","18","no","white","no","yes","1080","legacy","59","59","C:/Users/ekealey/Desktop/subject-227.csv","xpyriment","Lentiform Loewenfeld","3.3.11","0","None","NA","NA","NA","NA","space","None","1200","NA","NA","NA","NA","33958","1200","2","legacy","1024","2","48000","-16","AB_m21","227","odd","FILL_W","COOK","1862","301817","297941","300311","35831","NA","NA","NA","NA","NA","298441","NA","NA","NA","297439","NA","297413","1872","302067","NA","NA","NA","298482","1862","1863","NA","299682","299707","297413","298441","298462","morph21_Oliver/Morris","45","52603","60","yes","1920","38"
"200","73.77049180327869","73.77049180327869","873.1311475409836","873.1311475409836","black","no","xpyriment","legacy","legacy","0","203","NA","uniform","NA","NA","NA","0","undefined","0","0","60","60","60","0","60","60","60","NA","0","60","NA","NA","0","60","NA","60","0","60","NA","NA","NA","60","0","0","NA","60","60","60","60","60","61","z","Thu Oct 26 15:07:19 2023","The main experiment item","yes","m21-ab-lexicalDecision.osexp","C:\Users\ekealey\Desktop","no","mono","no","18","no","white","no","yes","1080","legacy","60","60","C:/Users/ekealey/Desktop/subject-227.csv","xpyriment","Lentiform Loewenfeld","3.3.11","0","/","NA","NA","NA","NA","space","/","658","NA","NA","NA","NA","33958","658","2","legacy","1024","2","48000","-16","AB_m21","227","odd","NW_S_COMP","DUMBITY","1862","305464","303639","300311","35831","NA","NA","NA","NA","NA","304139","NA","NA","NA","303139","NA","303106","1872","305664","NA","NA","NA","304179","1862","1863","NA","304838","304861","303106","304139","304159","morph21_Oliver/Morris","45","53261","61","yes","1920","12"
"200","74.19354838709677","74.19354838709677","872.5","872.5","black","no","xpyriment","legacy","legacy","0","205","NA","uniform","NA","NA","NA","1","undefined","1","0","61","61","61","0","61","61","61","NA","0","61","NA","NA","0","61","NA","61","0","61","NA","NA","NA","61","0","0","NA","61","61","61","61","61","62","z","Thu Oct 26 15:07:19 2023","The main experiment item","yes","m21-ab-lexicalDecision.osexp","C:\Users\ekealey\Desktop","no","mono","no","18","no","white","no","yes","1080","legacy","61","61","C:/Users/ekealey/Desktop/subject-227.csv","xpyriment","Lentiform Loewenfeld","3.3.11","0","z","NA","NA","NA","NA","space","z","834","NA","NA","NA","NA","33958","834","2","legacy","1024","2","48000","-16","AB_m21","227","odd","NW_S_SIMP","JAWLA","1862","309218","307213","300311","35831","NA","NA","NA","NA","NA","307715","NA","NA","NA","306711","NA","306684","1872","309418","NA","NA","NA","307755","1862","1863","NA","308590","308615","306684","307715","307735","morph21_Oliver/Morris","46","54095","62","yes","1920","7"
"250","74.60317460317461","74.60317460317461","868.3809523809524","868.3809523809524","black","no","xpyriment","legacy","legacy","0","207","NA","uniform","NA","NA","NA","1","undefined","1","0","62","62","62","0","62","62","62","NA","0","62","NA","NA","0","62","NA","62","0","62","NA","NA","NA","62","0","0","NA","62","62","62","62","62","63","/","Thu Oct 26 15:07:19 2023","The main experiment item","yes","m21-ab-lexicalDecision.osexp","C:\Users\ekealey\Desktop","no","mono","no","18","no","white","no","yes","1080","legacy","62","62","C:/Users/ekealey/Desktop/subject-227.csv","xpyriment","Lentiform Loewenfeld","3.3.11","0","/","NA","NA","NA","NA","space","/","613","NA","NA","NA","NA","33958","613","2","legacy","1024","2","48000","-16","AB_m21","227","odd","FILL_W","SOFT","1862","314276","310987","312771","35831","NA","NA","NA","NA","NA","311487","NA","NA","NA","310486","NA","310458","1872","314526","NA","NA","NA","311528","1862","1863","NA","312142","312166","310458","311487","311508","morph21_Oliver/Morris","47","54708","63","yes","1920","43"
"250","75","75","869.109375","869.109375","black","no","xpyriment","legacy","legacy","0","203","NA","uniform","NA","NA","NA","1","undefined","1","0","63","63","63","0","63","63","63","NA","0","63","NA","NA","0","63","NA","63","0","63","NA","NA","NA","63","0","0","NA","63","63","63","63","63","64","z","Thu Oct 26 15:07:19 2023","The main experiment item","yes","m21-ab-lexicalDecision.osexp","C:\Users\ekealey\Desktop","no","mono","no","18","no","white","no","yes","1080","legacy","63","63","C:/Users/ekealey/Desktop/subject-227.csv","xpyriment","Lentiform Loewenfeld","3.3.11","0","z","NA","NA","NA","NA","space","z","915","NA","NA","NA","NA","33958","915","2","legacy","1024","2","48000","-16","AB_m21","227","odd","NW_S_COMP","TREASONIZE","1862","318187","316101","312771","35831","NA","NA","NA","NA","NA","316602","NA","NA","NA","315601","NA","315569","1872","318437","NA","NA","NA","316642","1862","1863","NA","317558","317583","315569","316601","316622","morph21_Oliver/Morris","48","55623","64","yes","1920","14"
"350","75.38461538461539","75.38461538461539","868.2923076923076","868.2923076923076","black","no","xpyriment","legacy","legacy","0","202","NA","uniform","NA","NA","NA","1","undefined","1","0","64","64","64","0","64","64","64","NA","0","64","NA","NA","0","64","NA","64","0","64","NA","NA","NA","64","0","0","NA","64","64","64","64","64","65","/","Thu Oct 26 15:07:19 2023","The main experiment item","yes","m21-ab-lexicalDecision.osexp","C:\Users\ekealey\Desktop","no","mono","no","18","no","white","no","yes","1080","legacy","64","64","C:/Users/ekealey/Desktop/subject-227.csv","xpyriment","Lentiform Loewenfeld","3.3.11","0","/","NA","NA","NA","NA","space","/","816","NA","NA","NA","NA","33958","816","2","legacy","1024","2","48000","-16","AB_m21","227","odd","CW_L","PAINTER","1862","321980","319991","312771","35831","NA","NA","NA","NA","NA","320491","NA","NA","NA","319490","NA","319459","1872","322330","NA","NA","NA","320533","1862","1863","NA","321350","321375","319459","320491","320512","morph21_Oliver/Morris","49","56439","65","yes","1920","18"
"300","75.75757575757575","75.75757575757575","868.3636363636364","868.3636363636364","black","no","xpyriment","legacy","legacy","0","207","NA","uniform","NA","NA","NA","1","undefined","1","0","65","65","65","0","65","65","65","NA","0","65","NA","NA","0","65","NA","65","0","65","NA","NA","NA","65","0","0","NA","65","65","65","65","65","66","/","Thu Oct 26 15:07:19 2023","The main experiment item","yes","m21-ab-lexicalDecision.osexp","C:\Users\ekealey\Desktop","no","mono","no","18","no","white","no","yes","1080","legacy","65","65","C:/Users/ekealey/Desktop/subject-227.csv","xpyriment","Lentiform Loewenfeld","3.3.11","0","/","NA","NA","NA","NA","space","/","873","NA","NA","NA","NA","33958","873","2","legacy","1024","2","48000","-16","AB_m21","227","odd","FILL_W","BLUNT","1862","327445","323896","325937","35831","NA","NA","NA","NA","NA","324396","NA","NA","NA","323395","NA","323367","1872","327745","NA","NA","NA","324437","1862","1863","NA","325310","325334","323367","324396","324417","morph21_Oliver/Morris","50","57312","66","yes","1920","4"
"350","76.11940298507463","76.11940298507463","870.2537313432836","870.2537313432836","black","no","xpyriment","legacy","legacy","0","207","NA","uniform","NA","NA","NA","1","undefined","1","0","66","66","66","0","66","66","66","NA","0","66","NA","NA","0","66","NA","66","0","66","NA","NA","NA","66","0","0","NA","66","66","66","66","66","67","/","Thu Oct 26 15:07:19 2023","The main experiment item","yes","m21-ab-lexicalDecision.osexp","C:\Users\ekealey\Desktop","no","mono","no","18","no","white","no","yes","1080","legacy","66","66","C:/Users/ekealey/Desktop/subject-227.csv","xpyriment","Lentiform Loewenfeld","3.3.11","0","/","NA","NA","NA","NA","space","/","995","NA","NA","NA","NA","33958","995","2","legacy","1024","2","48000","-16","AB_m21","227","odd","FILL_W","LEAK","1862","331492","329326","325937","35831","NA","NA","NA","NA","NA","329826","NA","NA","NA","328825","NA","328794","1872","331842","NA","NA","NA","329867","1862","1863","NA","330862","330887","328794","329826","329847","morph21_Oliver/Morris","51","58307","67","yes","1920","9"
"200","76.47058823529412","76.47058823529412","869.9117647058823","869.9117647058823","black","no","xpyriment","legacy","legacy","0","202","NA","uniform","NA","NA","NA","1","undefined","1","0","67","67","67","0","67","67","67","NA","0","67","NA","NA","0","67","NA","67","0","67","NA","NA","NA","67","0","0","NA","67","67","67","67","67","68","/","Thu Oct 26 15:07:19 2023","The main experiment item","yes","m21-ab-lexicalDecision.osexp","C:\Users\ekealey\Desktop","no","mono","no","18","no","white","no","yes","1080","legacy","67","67","C:/Users/ekealey/Desktop/subject-227.csv","xpyriment","Lentiform Loewenfeld","3.3.11","0","/","NA","NA","NA","NA","space","/","847","NA","NA","NA","NA","33958","847","2","legacy","1024","2","48000","-16","AB_m21","227","odd","CW_L","VERBAL","1862","335411","333391","325937","35831","NA","NA","NA","NA","NA","333892","NA","NA","NA","332889","NA","332857","1872","335611","NA","NA","NA","333934","1862","1863","NA","334782","334807","332857","333892","333913","morph21_Oliver/Morris","52","59154","68","yes","1920","50"
"200","76.81159420289855","76.81159420289855","866.8405797101449","866.8405797101449","black","no","xpyriment","legacy","legacy","0","208","NA","uniform","NA","NA","NA","1","undefined","1","0","68","68","68","0","68","68","68","NA","0","68","NA","NA","0","68","NA","68","0","68","NA","NA","NA","68","0","0","NA","68","68","68","68","68","69","z","Thu Oct 26 15:07:19 2023","The main experiment item","yes","m21-ab-lexicalDecision.osexp","C:\Users\ekealey\Desktop","no","mono","no","18","no","white","no","yes","1080","legacy","68","68","C:/Users/ekealey/Desktop/subject-227.csv","xpyriment","Lentiform Loewenfeld","3.3.11","0","z","NA","NA","NA","NA","space","z","658","NA","NA","NA","NA","33958","658","2","legacy","1024","2","48000","-16","AB_m21","227","odd","FILL_NW","GILN","1862","340514","337180","339010","35831","NA","NA","NA","NA","NA","337682","NA","NA","NA","336679","NA","336653","1872","340714","NA","NA","NA","337723","1862","1863","NA","338382","338406","336653","337682","337703","morph21_Oliver/Morris","53","59812","69","yes","1920","25"
"350","77.14285714285714","77.14285714285714","868.2","868.2","black","no","xpyriment","legacy","legacy","0","208","NA","uniform","NA","NA","NA","1","undefined","1","0","69","69","69","0","69","69","69","NA","0","69","NA","NA","0","69","NA","69","0","69","NA","NA","NA","69","0","0","NA","69","69","69","69","69","70","z","Thu Oct 26 15:07:19 2023","The main experiment item","yes","m21-ab-lexicalDecision.osexp","C:\Users\ekealey\Desktop","no","mono","no","18","no","white","no","yes","1080","legacy","69","69","C:/Users/ekealey/Desktop/subject-227.csv","xpyriment","Lentiform Loewenfeld","3.3.11","0","z","NA","NA","NA","NA","space","z","962","NA","NA","NA","NA","33958","962","2","legacy","1024","2","48000","-16","AB_m21","227","odd","FILL_NW","DOADS","1862","344402","342270","339010","35831","NA","NA","NA","NA","NA","342771","NA","NA","NA","341770","NA","341736","1872","344752","NA","NA","NA","342811","1862","1863","NA","343774","343799","341736","342771","342791","morph21_Oliver/Morris","54","60774","70","yes","1920","15"
"400","77.46478873239437","77.46478873239437","862.7323943661971","862.7323943661971","black","no","xpyriment","legacy","legacy","0","202","NA","uniform","NA","NA","NA","1","undefined","1","0","70","70","70","0","70","70","70","NA","0","70","NA","NA","0","70","NA","70","0","70","NA","NA","NA","70","0","0","NA","70","70","70","70","70","71","/","Thu Oct 26 15:07:19 2023","The main experiment item","yes","m21-ab-lexicalDecision.osexp","C:\Users\ekealey\Desktop","no","mono","no","18","no","white","no","yes","1080","legacy","70","70","C:/Users/ekealey/Desktop/subject-227.csv","xpyriment","Lentiform Loewenfeld","3.3.11","0","/","NA","NA","NA","NA","space","/","480","NA","NA","NA","NA","33958","480","2","legacy","1024","2","48000","-16","AB_m21","227","odd","CW_L","SPELLER","1862","347961","346312","339010","35831","NA","NA","NA","NA","NA","346813","NA","NA","NA","345809","NA","345784","1872","348361","NA","NA","NA","346853","1862","1863","NA","347334","347358","345784","346813","346833","morph21_Oliver/Morris","55","61254","71","yes","1920","3"
"300","76.38888888888889","76.38888888888889","867.4166666666666","867.4166666666666","black","no","xpyriment","legacy","legacy","0","206","NA","uniform","NA","NA","NA","0","undefined","0","0","71","71","71","0","71","71","71","NA","0","71","NA","NA","0","71","NA","71","0","71","NA","NA","NA","71","0","0","NA","71","71","71","71","71","72","z","Thu Oct 26 15:07:19 2023","The main experiment item","yes","m21-ab-lexicalDecision.osexp","C:\Users\ekealey\Desktop","no","mono","no","18","no","white","no","yes","1080","legacy","71","71","C:/Users/ekealey/Desktop/subject-227.csv","xpyriment","Lentiform Loewenfeld","3.3.11","0","None","NA","NA","NA","NA","space","None","1200","NA","NA","NA","NA","33958","1200","2","legacy","1024","2","48000","-16","AB_m21","227","odd","NW_L_SIMP","BANDADY","1862","353806","349933","352301","35831","NA","NA","NA","NA","NA","350433","NA","NA","NA","349433","NA","349405","1872","354106","NA","NA","NA","350474","1862","1863","NA","351674","351698","349405","350433","350454","morph21_Oliver/Morris","55","62454","72","yes","1920","3"
"300","76.71232876712328","76.71232876712328","863.986301369863","863.986301369863","black","no","xpyriment","legacy","legacy","0","207","NA","uniform","NA","NA","NA","1","undefined","1","0","72","72","72","0","72","72","72","NA","0","72","NA","NA","0","72","NA","72","0","72","NA","NA","NA","72","0","0","NA","72","72","72","72","72","73","/","Thu Oct 26 15:07:19 2023","The main experiment item","yes","m21-ab-lexicalDecision.osexp","C:\Users\ekealey\Desktop","no","mono","no","18","no","white","no","yes","1080","legacy","72","72","C:/Users/ekealey/Desktop/subject-227.csv","xpyriment","Lentiform Loewenfeld","3.3.11","0","/","NA","NA","NA","NA","space","/","617","NA","NA","NA","NA","33958","617","2","legacy","1024","2","48000","-16","AB_m21","227","odd","FILL_W","BOX","1862","357451","355664","352301","35831","NA","NA","NA","NA","NA","356164","NA","NA","NA","355162","NA","355128","1872","357751","NA","NA","NA","356204","1862","1863","NA","356822","356847","355128","356164","356184","morph21_Oliver/Morris","56","63071","73","yes","1920","42"
"400","77.02702702702703","77.02702702702703","861.3513513513514","861.3513513513514","black","no","xpyriment","legacy","legacy","0","202","NA","uniform","NA","NA","NA","1","undefined","1","0","73","73","73","0","73","73","73","NA","0","73","NA","NA","0","73","NA","73","0","73","NA","NA","NA","73","0","0","NA","73","73","73","73","73","74","/","Thu Oct 26 15:07:19 2023","The main experiment item","yes","m21-ab-lexicalDecision.osexp","C:\Users\ekealey\Desktop","no","mono","no","18","no","white","no","yes","1080","legacy","73","73","C:/Users/ekealey/Desktop/subject-227.csv","xpyriment","Lentiform Loewenfeld","3.3.11","0","/","NA","NA","NA","NA","space","/","669","NA","NA","NA","NA","33958","669","2","legacy","1024","2","48000","-16","AB_m21","227","odd","CW_L","LOCKER","1862","361130","359291","352301","35831","NA","NA","NA","NA","NA","359792","NA","NA","NA","358791","NA","358760","1872","361530","NA","NA","NA","359832","1862","1863","NA","360502","360527","358760","359791","359812","morph21_Oliver/Morris","57","63740","74","yes","1920","8"
"300","76","76","865.8666666666667","865.8666666666667","black","no","xpyriment","legacy","legacy","0","206","NA","uniform","NA","NA","NA","undefined","undefined","0","0","74","74","74","0","74","74","74","NA","0","74","NA","NA","0","74","NA","74","0","74","NA","NA","NA","74","0","0","NA","74","74","74","74","74","75","z","Thu Oct 26 15:07:19 2023","The main experiment item","yes","m21-ab-lexicalDecision.osexp","C:\Users\ekealey\Desktop","no","mono","no","18","no","white","no","yes","1080","legacy","74","74","C:/Users/ekealey/Desktop/subject-227.csv","xpyriment","Lentiform Loewenfeld","3.3.11","0","space","space","NA","NA","NA","space","None","8296","8296","NA","NA","NA","33958","1200","2","legacy","1024","2","48000","-16","AB_m21","227","odd","NW_L_SIMP","BEANITH","1862","366971","363100","365467","35831","367277","NA","NA","NA","NA","363600","NA","NA","NA","362600","NA","362570","1872","375574","NA","NA","NA","363640","1862","1863","NA","364840","364864","362570","363600","363620","morph21_Oliver/Morris","57","64940","75","yes","1920","8"
"200","75","75","870.2631578947369","870.2631578947369","black","no","xpyriment","legacy","legacy","0","204","NA","uniform","NA","NA","NA","0","undefined","0","0","75","75","75","0","75","75","75","NA","0","75","NA","NA","0","75","NA","75","0","75","NA","NA","NA","75","0","0","NA","75","75","75","75","75","76","z","Thu Oct 26 15:07:19 2023","The main experiment item","yes","m21-ab-lexicalDecision.osexp","C:\Users\ekealey\Desktop","no","mono","no","18","no","white","no","yes","1080","legacy","75","75","C:/Users/ekealey/Desktop/subject-227.csv","xpyriment","Lentiform Loewenfeld","3.3.11","0","None","space","NA","NA","NA","space","None","1200","8296","NA","NA","NA","33958","1200","2","legacy","1024","2","48000","-16","AB_m21","227","odd","NW_L_COMP","PITCHORY","1862","379541","377170","365467","35831","367277","NA","NA","NA","NA","377671","NA","NA","NA","376670","NA","376642","1872","379741","NA","NA","NA","377712","1862","1863","NA","378912","378937","376642","377671","377692","morph21_Oliver/Morris","57","66140","76","yes","1920","25"
"200","75.32467532467533","75.32467532467533","868.8311688311688","868.8311688311688","black","no","xpyriment","legacy","legacy","0","203","NA","uniform","NA","NA","NA","1","undefined","1","0","76","76","76","0","76","76","76","NA","0","76","NA","NA","0","76","NA","76","0","76","NA","NA","NA","76","0","0","NA","76","76","76","76","76","77","z","Thu Oct 26 15:07:19 2023","The main experiment item","yes","m21-ab-lexicalDecision.osexp","C:\Users\ekealey\Desktop","no","mono","no","18","no","white","no","yes","1080","legacy","76","76","C:/Users/ekealey/Desktop/subject-227.csv","xpyriment","Lentiform Loewenfeld","3.3.11","0","z","space","NA","NA","NA","space","z","760","8296","NA","NA","NA","33958","760","2","legacy","1024","2","48000","-16","AB_m21","227","odd","NW_S_COMP","YANKORY","1862","383243","381311","365467","35831","367277","NA","NA","NA","NA","381812","NA","NA","NA","380810","NA","380785","1872","383443","NA","NA","NA","381853","1862","1863","NA","382614","382638","380785","381812","381833","morph21_Oliver/Morris","58","66900","77","yes","1920","23"
"250","74.35897435897436","74.35897435897436","873.0769230769231","873.0769230769231","black","no","xpyriment","legacy","legacy","0","207","NA","uniform","NA","NA","NA","0","undefined","0","0","77","77","77","0","77","77","77","NA","0","77","NA","NA","0","77","NA","77","0","77","NA","NA","NA","77","0","0","NA","77","77","77","77","77","78","/","Thu Oct 26 15:07:19 2023","The main experiment item","yes","m21-ab-lexicalDecision.osexp","C:\Users\ekealey\Desktop","no","mono","no","18","no","white","no","yes","1080","legacy","77","77","C:/Users/ekealey/Desktop/subject-227.csv","xpyriment","Lentiform Loewenfeld","3.3.11","0","None","space","NA","NA","NA","space","None","1200","8296","NA","NA","NA","33958","1200","2","legacy","1024","2","48000","-16","AB_m21","227","odd","FILL_W","WEAVE","1862","388930","385055","387425","35831","367277","NA","NA","NA","NA","385557","NA","NA","NA","384555","NA","384525","1872","389181","NA","NA","NA","385598","1862","1863","NA","386798","386821","384525","385556","385577","morph21_Oliver/Morris","58","68100","78","yes","1920","12"
"250","73.41772151898734","73.41772151898734","877.2151898734177","877.2151898734177","black","no","xpyriment","legacy","legacy","0","204","NA","uniform","NA","NA","NA","0","undefined","0","0","78","78","78","0","78","78","78","NA","0","78","NA","NA","0","78","NA","78","0","78","NA","NA","NA","78","0","0","NA","78","78","78","78","78","79","z","Thu Oct 26 15:07:19 2023","The main experiment item","yes","m21-ab-lexicalDecision.osexp","C:\Users\ekealey\Desktop","no","mono","no","18","no","white","no","yes","1080","legacy","78","78","C:/Users/ekealey/Desktop/subject-227.csv","xpyriment","Lentiform Loewenfeld","3.3.11","0","None","space","NA","NA","NA","space","None","1200","8296","NA","NA","NA","33958","1200","2","legacy","1024","2","48000","-16","AB_m21","227","odd","NW_L_COMP","FREENESS","1862","393145","390774","387425","35831","367277","NA","NA","NA","NA","391275","NA","NA","NA","390273","NA","390248","1872","393395","NA","NA","NA","391315","1862","1863","NA","392515","392539","390248","391275","391295","morph21_Oliver/Morris","58","69300","79","yes","1920","15"
"350","73.75","73.75","873.7","873.7","black","no","xpyriment","legacy","legacy","0","208","NA","uniform","NA","NA","NA","1","undefined","1","0","79","79","79","0","79","79","79","NA","0","79","NA","NA","0","79","NA","79","0","79","NA","NA","NA","79","0","0","NA","79","79","79","79","79","80","z","Thu Oct 26 15:07:19 2023","The main experiment item","yes","m21-ab-lexicalDecision.osexp","C:\Users\ekealey\Desktop","no","mono","no","18","no","white","no","yes","1080","legacy","79","79","C:/Users/ekealey/Desktop/subject-227.csv","xpyriment","Lentiform Loewenfeld","3.3.11","0","z","space","NA","NA","NA","space","z","596","8296","NA","NA","NA","33958","596","2","legacy","1024","2","48000","-16","AB_m21","227","odd","FILL_NW","HEAS","1862","396769","395004","387425","35831","367277","NA","NA","NA","NA","395505","NA","NA","NA","394504","NA","394474","1872","397119","NA","NA","NA","395545","1862","1863","NA","396142","396166","394474","395505","395525","morph21_Oliver/Morris","59","69896","80","yes","1920","26"
"250","72.8395061728395","72.8395061728395","877.2098765432099","877.2098765432099","black","no","xpyriment","legacy","legacy","0","201","NA","uniform","NA","NA","NA","0","undefined","0","0","80","80","80","0","80","80","80","NA","0","80","NA","NA","0","80","NA","80","0","80","NA","NA","NA","80","0","0","NA","80","80","80","80","80","81","/","Thu Oct 26 15:07:19 2023","The main experiment item","yes","m21-ab-lexicalDecision.osexp","C:\Users\ekealey\Desktop","no","mono","no","18","no","white","no","yes","1080","legacy","80","80","C:/Users/ekealey/Desktop/subject-227.csv","xpyriment","Lentiform Loewenfeld","3.3.11","0","z","space","NA","NA","NA","space","z","1158","8296","NA","NA","NA","33958","1158","2","legacy","1024","2","48000","-16","AB_m21","227","odd","CW_S","MOSSY","1862","402633","398802","401129","35831","367277","NA","NA","NA","NA","399302","NA","NA","NA","398302","NA","398273","1872","402883","NA","NA","NA","399343","1862","1863","NA","400502","400525","398273","399302","399323","morph21_Oliver/Morris","59","71054","81","yes","1920","47"
"250","71.95121951219512","71.95121951219512","881.1463414634146","881.1463414634146","black","no","xpyriment","legacy","legacy","0","201","NA","uniform","NA","NA","NA","0","undefined","0","0","81","81","81","0","81","81","81","NA","0","81","NA","NA","0","81","NA","81","0","81","NA","NA","NA","81","0","0","NA","81","81","81","81","81","82","/","Thu Oct 26 15:07:19 2023","The main experiment item","yes","m21-ab-lexicalDecision.osexp","C:\Users\ekealey\Desktop","no","mono","no","18","no","white","no","yes","1080","legacy","81","81","C:/Users/ekealey/Desktop/subject-227.csv","xpyriment","Lentiform Loewenfeld","3.3.11","0","None","space","NA","NA","NA","space","None","1200","8296","NA","NA","NA","33958","1200","2","legacy","1024","2","48000","-16","AB_m21","227","odd","CW_S","COSTLY","1862","406888","404516","401129","35831","367277","NA","NA","NA","NA","405018","NA","NA","NA","404014","NA","403989","1872","407138","NA","NA","NA","405058","1862","1863","NA","406258","406284","403989","405017","405038","morph21_Oliver/Morris","59","72254","82","yes","1920","36"
"200","72.28915662650603","72.28915662650603","878.843373493976","878.843373493976","black","no","xpyriment","legacy","legacy","0","207","NA","uniform","NA","NA","NA","1","undefined","1","0","82","82","82","0","82","82","82","NA","0","82","NA","NA","0","82","NA","82","0","82","NA","NA","NA","82","0","0","NA","82","82","82","82","82","83","/","Thu Oct 26 15:07:19 2023","The main experiment item","yes","m21-ab-lexicalDecision.osexp","C:\Users\ekealey\Desktop","no","mono","no","18","no","white","no","yes","1080","legacy","82","82","C:/Users/ekealey/Desktop/subject-227.csv","xpyriment","Lentiform Loewenfeld","3.3.11","0","/","space","NA","NA","NA","space","/","690","8296","NA","NA","NA","33958","690","2","legacy","1024","2","48000","-16","AB_m21","227","odd","FILL_W","BRASS","1862","410561","408702","401129","35831","367277","NA","NA","NA","NA","409202","NA","NA","NA","408201","NA","408172","1872","410761","NA","NA","NA","409243","1862","1863","NA","409934","409958","408172","409202","409223","morph21_Oliver/Morris","60","72944","83","yes","1920","10"
"250","72.61904761904762","72.61904761904762","877.7261904761905","877.7261904761905","black","no","xpyriment","legacy","legacy","0","201","NA","uniform","NA","NA","NA","1","undefined","1","0","83","83","83","0","83","83","83","NA","0","83","NA","NA","0","83","NA","83","0","83","NA","NA","NA","83","0","0","NA","83","83","83","83","83","84","/","Thu Oct 26 15:07:19 2023","The main experiment item","yes","m21-ab-lexicalDecision.osexp","C:\Users\ekealey\Desktop","no","mono","no","18","no","white","no","yes","1080","legacy","83","83","C:/Users/ekealey/Desktop/subject-227.csv","xpyriment","Lentiform Loewenfeld","3.3.11","0","/","space","NA","NA","NA","space","/","785","8296","NA","NA","NA","33958","785","2","legacy","1024","2","48000","-16","AB_m21","227","odd","CW_S","SEEKER","1862","415795","412335","414289","35831","367277","NA","NA","NA","NA","412835","NA","NA","NA","411834","NA","411805","1872","416045","NA","NA","NA","412876","1862","1863","NA","413661","413686","411805","412835","412856","morph21_Oliver/Morris","61","73729","84","yes","1920","16"
"250","72.94117647058823","72.94117647058823","874.1058823529412","874.1058823529412","black","no","xpyriment","legacy","legacy","0","201","NA","uniform","NA","NA","NA","1","undefined","1","0","84","84","84","0","84","84","84","NA","0","84","NA","NA","0","84","NA","84","0","84","NA","NA","NA","84","0","0","NA","84","84","84","84","84","85","/","Thu Oct 26 15:07:19 2023","The main experiment item","yes","m21-ab-lexicalDecision.osexp","C:\Users\ekealey\Desktop","no","mono","no","18","no","white","no","yes","1080","legacy","84","84","C:/Users/ekealey/Desktop/subject-227.csv","xpyriment","Lentiform Loewenfeld","3.3.11","0","/","space","NA","NA","NA","space","/","570","8296","NA","NA","NA","33958","570","2","legacy","1024","2","48000","-16","AB_m21","227","odd","CW_S","NOTICEABLE","1862","419424","417686","414289","35831","367277","NA","NA","NA","NA","418187","NA","NA","NA","417184","NA","417156","1872","419674","NA","NA","NA","418227","1862","1863","NA","418798","418821","417156","418187","418207","morph21_Oliver/Morris","62","74299","85","yes","1920","3"
"300","73.25581395348837","73.25581395348837","874.1279069767442","874.1279069767442","black","no","xpyriment","legacy","legacy","0","203","NA","uniform","NA","NA","NA","1","undefined","1","0","85","85","85","0","85","85","85","NA","0","85","NA","NA","0","85","NA","85","0","85","NA","NA","NA","85","0","0","NA","85","85","85","85","85","86","z","Thu Oct 26 15:07:19 2023","The main experiment item","yes","m21-ab-lexicalDecision.osexp","C:\Users\ekealey\Desktop","no","mono","no","18","no","white","no","yes","1080","legacy","85","85","C:/Users/ekealey/Desktop/subject-227.csv","xpyriment","Lentiform Loewenfeld","3.3.11","0","z","space","NA","NA","NA","space","z","876","8296","NA","NA","NA","33958","876","2","legacy","1024","2","48000","-16","AB_m21","227","odd","NW_S_COMP","FIGER","1862","423252","421204","414289","35831","367277","NA","NA","NA","NA","421704","NA","NA","NA","420704","NA","420670","1872","423552","NA","NA","NA","421745","1862","1863","NA","422622","422648","420670","421704","421725","morph21_Oliver/Morris","63","75175","86","yes","1920","4"
"350","73.5632183908046","73.5632183908046","870.1609195402299","870.1609195402299","black","no","xpyriment","legacy","legacy","0","202","NA","uniform","NA","NA","NA","1","undefined","1","0","86","86","86","0","86","86","86","NA","0","86","NA","NA","0","86","NA","86","0","86","NA","NA","NA","86","0","0","NA","86","86","86","86","86","87","/","Thu Oct 26 15:07:19 2023","The main experiment item","yes","m21-ab-lexicalDecision.osexp","C:\Users\ekealey\Desktop","no","mono","no","18","no","white","no","yes","1080","legacy","86","86","C:/Users/ekealey/Desktop/subject-227.csv","xpyriment","Lentiform Loewenfeld","3.3.11","0","/","space","NA","NA","NA","space","/","529","8296","NA","NA","NA","33958","529","2","legacy","1024","2","48000","-16","AB_m21","227","odd","CW_L","PARKING","1862","428315","425110","426810","35831","367277","NA","NA","NA","NA","425612","NA","NA","NA","424608","NA","424584","1872","428665","NA","NA","NA","425652","1862","1863","NA","426182","426206","424584","425612","425632","morph21_Oliver/Morris","64","75704","87","yes","1920","25"
"250","73.86363636363636","73.86363636363636","868.8977272727273","868.8977272727273","black","no","xpyriment","legacy","legacy","0","207","NA","uniform","NA","NA","NA","1","undefined","1","0","87","87","87","0","87","87","87","NA","0","87","NA","NA","0","87","NA","87","0","87","NA","NA","NA","87","0","0","NA","87","87","87","87","87","88","/","Thu Oct 26 15:07:19 2023","The main experiment item","yes","m21-ab-lexicalDecision.osexp","C:\Users\ekealey\Desktop","no","mono","no","18","no","white","no","yes","1080","legacy","87","87","C:/Users/ekealey/Desktop/subject-227.csv","xpyriment","Lentiform Loewenfeld","3.3.11","0","/","space","NA","NA","NA","space","/","759","8296","NA","NA","NA","33958","759","2","legacy","1024","2","48000","-16","AB_m21","227","odd","FILL_W","TASTE","1862","432129","430202","426810","35831","367277","NA","NA","NA","NA","430702","NA","NA","NA","429702","NA","429667","1872","432379","NA","NA","NA","430742","1862","1863","NA","431502","431526","429667","430702","430722","morph21_Oliver/Morris","65","76463","88","yes","1920","34"
"200","74.15730337078652","74.15730337078652","866.9662921348314","866.9662921348314","black","no","xpyriment","legacy","legacy","0","208","NA","uniform","NA","NA","NA","1","undefined","1","0","88","88","88","0","88","88","88","NA","0","88","NA","NA","0","88","NA","88","0","88","NA","NA","NA","88","0","0","NA","88","88","88","88","88","89","z","Thu Oct 26 15:07:19 2023","The main experiment item","yes","m21-ab-lexicalDecision.osexp","C:\Users\ekealey\Desktop","no","mono","no","18","no","white","no","yes","1080","legacy","88","88","C:/Users/ekealey/Desktop/subject-227.csv","xpyriment","Lentiform Loewenfeld","3.3.11","0","z","space","NA","NA","NA","space","z","697","8296","NA","NA","NA","33958","697","2","legacy","1024","2","48000","-16","AB_m21","227","odd","FILL_NW","HOITS","1862","435769","433903","426810","35831","367277","NA","NA","NA","NA","434403","NA","NA","NA","433402","NA","433373","1872","435969","NA","NA","NA","434444","1862","1863","NA","435142","435165","433372","434403","434424","morph21_Oliver/Morris","66","77160","89","yes","1920","30"
"300","74.44444444444444","74.44444444444444","865.1888888888889","865.1888888888889","black","no","xpyriment","legacy","legacy","0","201","NA","uniform","NA","NA","NA","1","undefined","1","0","89","89","89","0","89","89","89","NA","0","89","NA","NA","0","89","NA","89","0","89","NA","NA","NA","89","0","0","NA","89","89","89","89","89","90","/","Thu Oct 26 15:07:19 2023","The main experiment item","yes","m21-ab-lexicalDecision.osexp","C:\Users\ekealey\Desktop","no","mono","no","18","no","white","no","yes","1080","legacy","89","89","C:/Users/ekealey/Desktop/subject-227.csv","xpyriment","Lentiform Loewenfeld","3.3.11","0","/","space","NA","NA","NA","space","/","707","8296","NA","NA","NA","33958","707","2","legacy","1024","2","48000","-16","AB_m21","227","odd","CW_S","RISKY","1862","440882","437502","439378","35831","367277","NA","NA","NA","NA","438002","NA","NA","NA","437001","NA","436970","1872","441183","NA","NA","NA","438042","1862","1863","NA","438750","438774","436970","438002","438022","morph21_Oliver/Morris","67","77867","90","yes","1920","50"
"400","74.72527472527473","74.72527472527473","865.4505494505495","865.4505494505495","black","no","xpyriment","legacy","legacy","0","205","NA","uniform","NA","NA","NA","1","undefined","1","0","90","90","90","0","90","90","90","NA","0","90","NA","NA","0","90","NA","90","0","90","NA","NA","NA","90","0","0","NA","90","90","90","90","90","91","z","Thu Oct 26 15:07:19 2023","The main experiment item","yes","m21-ab-lexicalDecision.osexp","C:\Users\ekealey\Desktop","no","mono","no","18","no","white","no","yes","1080","legacy","90","90","C:/Users/ekealey/Desktop/subject-227.csv","xpyriment","Lentiform Loewenfeld","3.3.11","0","z","space","NA","NA","NA","space","z","889","8296","NA","NA","NA","33958","889","2","legacy","1024","2","48000","-16","AB_m21","227","odd","NW_S_SIMP","MEDICALADY","1862","444792","442734","439378","35831","367277","NA","NA","NA","NA","443234","NA","NA","NA","442232","NA","442199","1872","445192","NA","NA","NA","443276","1862","1863","NA","444165","444189","442199","443234","443256","morph21_Oliver/Morris","68","78756","91","yes","1920","18"
"250","75","75","865.0869565217391","865.0869565217391","black","no","xpyriment","legacy","legacy","0","202","NA","uniform","NA","NA","NA","1","undefined","1","0","91","91","91","0","91","91","91","NA","0","91","NA","NA","0","91","NA","91","0","91","NA","NA","NA","91","0","0","NA","91","91","91","91","91","92","/","Thu Oct 26 15:07:19 2023","The main experiment item","yes","m21-ab-lexicalDecision.osexp","C:\Users\ekealey\Desktop","no","mono","no","18","no","white","no","yes","1080","legacy","91","91","C:/Users/ekealey/Desktop/subject-227.csv","xpyriment","Lentiform Loewenfeld","3.3.11","0","/","space","NA","NA","NA","space","/","832","8296","NA","NA","NA","33958","832","2","legacy","1024","2","48000","-16","AB_m21","227","odd","CW_L","EXCITEMENT","1862","448722","446720","439378","35831","367277","NA","NA","NA","NA","447221","NA","NA","NA","446219","NA","446189","1872","448972","NA","NA","NA","447261","1862","1863","NA","448093","448118","446189","447221","447241","morph21_Oliver/Morris","69","79588","92","yes","1920","38"
"400","75.26881720430107","75.26881720430107","861.2258064516129","861.2258064516129","black","no","xpyriment","legacy","legacy","0","207","NA","uniform","NA","NA","NA","1","undefined","1","0","92","92","92","0","92","92","92","NA","0","92","NA","NA","0","92","NA","92","0","92","NA","NA","NA","92","0","0","NA","92","92","92","92","92","93","/","Thu Oct 26 15:07:19 2023","The main experiment item","yes","m21-ab-lexicalDecision.osexp","C:\Users\ekealey\Desktop","no","mono","no","18","no","white","no","yes","1080","legacy","92","92","C:/Users/ekealey/Desktop/subject-227.csv","xpyriment","Lentiform Loewenfeld","3.3.11","0","/","space","NA","NA","NA","space","/","506","8296","NA","NA","NA","33958","506","2","legacy","1024","2","48000","-16","AB_m21","227","odd","FILL_W","QUIT","1862","453688","450508","452185","35831","367277","NA","NA","NA","NA","451011","NA","NA","NA","450006","NA","449972","1872","454089","NA","NA","NA","451051","1862","1863","NA","451558","451582","449972","451011","451031","morph21_Oliver/Morris","70","80094","93","yes","1920","21"
