"ITI","acc","accuracy","average_response_time","avg_rt","background","bidi","canvas_backend","clock_backend","color_backend","compensation","cond_trig","condtrigtime","coordinates","coroutines_cycles","coroutines_duration","coroutines_mean_cycle_duration","correct","correct_instructions_1","correct_new_keyboard_response_1","count_AB_m21","count_ITI","count_blank_screen","count_blink_screen","count_block1","count_break1","count_break2","count_break3_1","count_canvas","count_close_port","count_cond_trigger","count_correct_trigger","count_def_chain","count_end_screen","count_fixation_1","count_getting_started","count_inc_counter","count_instructions_1","count_logger","count_logscript","count_new_inline_script","count_new_inline_script_2","count_new_keyboard_response_1","count_open_port","count_reset_counter_prep","count_reset_counter_run","count_response_trigger_trial","count_responsescreen","count_sequence","count_target_present","count_word_trigger","counter","cresp","datetime","description","disable_garbage_collection","experiment_file","experiment_path","font_bold","font_family","font_italic","font_size","font_underline","foreground","form_clicks","fullscreen","height","keyboard_backend","live_row","live_row_block1","logfile","mouse_backend","opensesame_codename","opensesame_version","repeat_cycle","response","response_break1","response_break2","response_break3_1","response_end_screen","response_instructions_1","response_new_keyboard_response_1","response_time","response_time_break1","response_time_break2","response_time_break3_1","response_time_end_screen","response_time_instructions_1","response_time_new_keyboard_response_1","round_decimals","sampler_backend","sound_buf_size","sound_channels","sound_freq","sound_sample_size","start","subject_nr","subject_parity","targ_type","target","time_AB_m21","time_ITI","time_blank_screen","time_blink_screen","time_block1","time_break1","time_break2","time_break3_1","time_canvas","time_close_port","time_cond_trigger","time_correct_trigger","time_def_chain","time_end_screen","time_fixation_1","time_getting_started","time_inc_counter","time_instructions_1","time_logger","time_logscript","time_new_inline_script","time_new_inline_script_2","time_new_keyboard_response_1","time_open_port","time_reset_counter_prep","time_reset_counter_run","time_response_trigger_trial","time_responsescreen","time_sequence","time_target_present","time_word_trigger","title","total_correct","total_response_time","total_responses","uniform_coordinates","width","word_trig"
"350","0","0","1200","1200","black","no","xpyriment","legacy","legacy","0","203","NA","uniform","NA","NA","NA","0","undefined","0","0","0","0","0","0","0","0","0","NA","0","0","NA","NA","0","0","NA","0","0","0","NA","NA","NA","0","0","0","NA","0","0","0","0","0","1","z","Thu Feb 15 15:25:52 2024","The main experiment item","yes","m21-ab-lexicalDecision.osexp","C:\Users\ekealey\Desktop","no","mono","no","18","no","white","no","yes","1080","legacy","0","0","C:/Users/ekealey/Desktop/subject-237.csv","xpyriment","Lentiform Loewenfeld","3.3.11","0","None","NA","NA","NA","NA","space","None","1200","NA","NA","NA","NA","94275","1200","2","legacy","1024","2","48000","-16","AB_m21","237","odd","NW_S_COMP","PRINCEMENT","1929","100536","98164","NA","96216","NA","NA","NA","NA","NA","98667","NA","NA","NA","97662","NA","97626","1940","100886","NA","NA","NA","98707","1930","1930","NA","99907","99932","97626","98667","98687","morph21_Oliver/Morris","0","1200","1","yes","1920","17"
"350","50","50","1072.5","1072.5","black","no","xpyriment","legacy","legacy","0","206","NA","uniform","NA","NA","NA","1","undefined","1","0","1","1","1","0","1","1","1","NA","0","1","NA","NA","0","1","NA","1","0","1","NA","NA","NA","1","0","0","NA","1","1","1","1","1","2","z","Thu Feb 15 15:25:52 2024","The main experiment item","yes","m21-ab-lexicalDecision.osexp","C:\Users\ekealey\Desktop","no","mono","no","18","no","white","no","yes","1080","legacy","1","1","C:/Users/ekealey/Desktop/subject-237.csv","xpyriment","Lentiform Loewenfeld","3.3.11","0","z","NA","NA","NA","NA","space","z","945","NA","NA","NA","NA","94275","945","2","legacy","1024","2","48000","-16","AB_m21","237","odd","NW_L_SIMP","WIGITH","1929","104586","102473","NA","96216","NA","NA","NA","NA","NA","102974","NA","NA","NA","101972","NA","101943","1940","104936","NA","NA","NA","103014","1930","1930","NA","103960","103983","101943","102974","102994","morph21_Oliver/Morris","1","2145","2","yes","1920","9"
"300","66.66666666666667","66.66666666666667","862.3333333333334","862.3333333333334","black","no","xpyriment","legacy","legacy","0","208","NA","uniform","NA","NA","NA","1","undefined","1","0","2","2","2","0","2","2","2","NA","0","2","NA","NA","0","2","NA","2","0","2","NA","NA","NA","2","0","0","NA","2","2","2","2","2","3","z","Thu Feb 15 15:25:52 2024","The main experiment item","yes","m21-ab-lexicalDecision.osexp","C:\Users\ekealey\Desktop","no","mono","no","18","no","white","no","yes","1080","legacy","2","2","C:/Users/ekealey/Desktop/subject-237.csv","xpyriment","Lentiform Loewenfeld","3.3.11","0","z","NA","NA","NA","NA","space","z","442","NA","NA","NA","NA","94275","442","2","legacy","1024","2","48000","-16","AB_m21","237","odd","FILL_NW","BAFED","1929","109627","106513","108123","96216","NA","NA","NA","NA","NA","107013","NA","NA","NA","106013","NA","105985","1940","109927","NA","NA","NA","107053","1930","1930","NA","107495","107519","105985","107013","107033","morph21_Oliver/Morris","2","2587","3","yes","1920","1"
"350","75","75","755","755","black","no","xpyriment","legacy","legacy","0","207","NA","uniform","NA","NA","NA","1","undefined","1","0","3","3","3","0","3","3","3","NA","0","3","NA","NA","0","3","NA","3","0","3","NA","NA","NA","3","0","0","NA","3","3","3","3","3","4","/","Thu Feb 15 15:25:52 2024","The main experiment item","yes","m21-ab-lexicalDecision.osexp","C:\Users\ekealey\Desktop","no","mono","no","18","no","white","no","yes","1080","legacy","3","3","C:/Users/ekealey/Desktop/subject-237.csv","xpyriment","Lentiform Loewenfeld","3.3.11","0","/","NA","NA","NA","NA","space","/","433","NA","NA","NA","NA","94275","433","2","legacy","1024","2","48000","-16","AB_m21","237","odd","FILL_W","BRISK","1929","113115","111513","108123","96216","NA","NA","NA","NA","NA","112013","NA","NA","NA","111013","NA","110985","1940","113465","NA","NA","NA","112053","1930","1930","NA","112487","112511","110985","112013","112033","morph21_Oliver/Morris","3","3020","4","yes","1920","8"
"350","80","80","689.8","689.8","black","no","xpyriment","legacy","legacy","0","202","NA","uniform","NA","NA","NA","1","undefined","1","0","4","4","4","0","4","4","4","NA","0","4","NA","NA","0","4","NA","4","0","4","NA","NA","NA","4","0","0","NA","4","4","4","4","4","5","/","Thu Feb 15 15:25:52 2024","The main experiment item","yes","m21-ab-lexicalDecision.osexp","C:\Users\ekealey\Desktop","no","mono","no","18","no","white","no","yes","1080","legacy","4","4","C:/Users/ekealey/Desktop/subject-237.csv","xpyriment","Lentiform Loewenfeld","3.3.11","0","/","NA","NA","NA","NA","space","/","429","NA","NA","NA","NA","94275","429","2","legacy","1024","2","48000","-16","AB_m21","237","odd","CW_L","JUMPING","1929","116636","115034","108123","96216","NA","NA","NA","NA","NA","115535","NA","NA","NA","114534","NA","114506","1940","116986","NA","NA","NA","115577","1930","1930","NA","116007","116032","114506","115535","115556","morph21_Oliver/Morris","4","3449","5","yes","1920","30"
"200","66.66666666666667","66.66666666666667","635.1666666666666","635.1666666666666","black","no","xpyriment","legacy","legacy","0","203","NA","uniform","NA","NA","NA","0","undefined","0","0","5","5","5","0","5","5","5","NA","0","5","NA","NA","0","5","NA","5","0","5","NA","NA","NA","5","0","0","NA","5","5","5","5","5","6","z","Thu Feb 15 15:25:52 2024","The main experiment item","yes","m21-ab-lexicalDecision.osexp","C:\Users\ekealey\Desktop","no","mono","no","18","no","white","no","yes","1080","legacy","5","5","C:/Users/ekealey/Desktop/subject-237.csv","xpyriment","Lentiform Loewenfeld","3.3.11","0","/","NA","NA","NA","NA","space","/","362","NA","NA","NA","NA","94275","362","2","legacy","1024","2","48000","-16","AB_m21","237","odd","NW_S_COMP","FANFUL","1929","121604","118565","120100","96216","NA","NA","NA","NA","NA","119067","NA","NA","NA","118063","NA","118037","1940","121804","NA","NA","NA","119108","1930","1930","NA","119471","119495","118037","119067","119088","morph21_Oliver/Morris","4","3811","6","yes","1920","6"
"250","71.42857142857143","71.42857142857143","626.2857142857143","626.2857142857143","black","no","xpyriment","legacy","legacy","0","207","NA","uniform","NA","NA","NA","1","undefined","1","0","6","6","6","0","6","6","6","NA","0","6","NA","NA","0","6","NA","6","0","6","NA","NA","NA","6","0","0","NA","6","6","6","6","6","7","/","Thu Feb 15 15:25:52 2024","The main experiment item","yes","m21-ab-lexicalDecision.osexp","C:\Users\ekealey\Desktop","no","mono","no","18","no","white","no","yes","1080","legacy","6","6","C:/Users/ekealey/Desktop/subject-237.csv","xpyriment","Lentiform Loewenfeld","3.3.11","0","/","NA","NA","NA","NA","space","/","573","NA","NA","NA","NA","94275","573","2","legacy","1024","2","48000","-16","AB_m21","237","odd","FILL_W","SMOKE","1929","125106","123365","120100","96216","NA","NA","NA","NA","NA","123866","NA","NA","NA","122863","NA","122836","1940","125356","NA","NA","NA","123906","1930","1930","NA","124479","124503","122836","123866","123886","morph21_Oliver/Morris","5","4384","7","yes","1920","50"
"200","75","75","622.875","622.875","black","no","xpyriment","legacy","legacy","0","208","NA","uniform","NA","NA","NA","1","undefined","1","0","7","7","7","0","7","7","7","NA","0","7","NA","NA","0","7","NA","7","0","7","NA","NA","NA","7","0","0","NA","7","7","7","7","7","8","z","Thu Feb 15 15:25:52 2024","The main experiment item","yes","m21-ab-lexicalDecision.osexp","C:\Users\ekealey\Desktop","no","mono","no","18","no","white","no","yes","1080","legacy","7","7","C:/Users/ekealey/Desktop/subject-237.csv","xpyriment","Lentiform Loewenfeld","3.3.11","0","z","NA","NA","NA","NA","space","z","599","NA","NA","NA","NA","94275","599","2","legacy","1024","2","48000","-16","AB_m21","237","odd","FILL_NW","SMADE","1929","128669","126898","120100","96216","NA","NA","NA","NA","NA","127399","NA","NA","NA","126397","NA","126368","1940","128869","NA","NA","NA","127439","1930","1930","NA","128039","128065","126368","127399","127419","morph21_Oliver/Morris","6","4983","8","yes","1920","42"
"350","77.77777777777777","77.77777777777777","622.7777777777778","622.7777777777778","black","no","xpyriment","legacy","legacy","0","208","NA","uniform","NA","NA","NA","1","undefined","1","0","8","8","8","0","8","8","8","NA","0","8","NA","NA","0","8","NA","8","0","8","NA","NA","NA","8","0","0","NA","8","8","8","8","8","9","z","Thu Feb 15 15:25:52 2024","The main experiment item","yes","m21-ab-lexicalDecision.osexp","C:\Users\ekealey\Desktop","no","mono","no","18","no","white","no","yes","1080","legacy","8","8","C:/Users/ekealey/Desktop/subject-237.csv","xpyriment","Lentiform Loewenfeld","3.3.11","0","z","NA","NA","NA","NA","space","z","622","NA","NA","NA","NA","94275","622","2","legacy","1024","2","48000","-16","AB_m21","237","odd","FILL_NW","BLANTH","1929","133740","130443","132236","96216","NA","NA","NA","NA","NA","130943","NA","NA","NA","129941","NA","129914","1940","134090","NA","NA","NA","130984","1930","1930","NA","131607","131631","129914","130943","130964","morph21_Oliver/Morris","7","5605","9","yes","1920","3"
"200","80","80","598.8","598.8","black","no","xpyriment","legacy","legacy","0","202","NA","uniform","NA","NA","NA","1","undefined","1","0","9","9","9","0","9","9","9","NA","0","9","NA","NA","0","9","NA","9","0","9","NA","NA","NA","9","0","0","NA","9","9","9","9","9","10","/","Thu Feb 15 15:25:52 2024","The main experiment item","yes","m21-ab-lexicalDecision.osexp","C:\Users\ekealey\Desktop","no","mono","no","18","no","white","no","yes","1080","legacy","9","9","C:/Users/ekealey/Desktop/subject-237.csv","xpyriment","Lentiform Loewenfeld","3.3.11","0","/","NA","NA","NA","NA","space","/","383","NA","NA","NA","NA","94275","383","2","legacy","1024","2","48000","-16","AB_m21","237","odd","CW_L","BOOTLESS","1929","137211","135658","132236","96216","NA","NA","NA","NA","NA","136158","NA","NA","NA","135157","NA","135123","1940","137411","NA","NA","NA","136199","1930","1930","NA","136583","136607","135123","136158","136179","morph21_Oliver/Morris","8","5988","10","yes","1920","32"
"200","81.81818181818181","81.81818181818181","590.5454545454545","590.5454545454545","black","no","xpyriment","legacy","legacy","0","208","NA","uniform","NA","NA","NA","1","undefined","1","0","10","10","10","0","10","10","10","NA","0","10","NA","NA","0","10","NA","10","0","10","NA","NA","NA","10","0","0","NA","10","10","10","10","10","11","z","Thu Feb 15 15:25:52 2024","The main experiment item","yes","m21-ab-lexicalDecision.osexp","C:\Users\ekealey\Desktop","no","mono","no","18","no","white","no","yes","1080","legacy","10","10","C:/Users/ekealey/Desktop/subject-237.csv","xpyriment","Lentiform Loewenfeld","3.3.11","0","z","NA","NA","NA","NA","space","z","508","NA","NA","NA","NA","94275","508","2","legacy","1024","2","48000","-16","AB_m21","237","odd","FILL_NW","PUCTS","1929","140642","138964","132236","96216","NA","NA","NA","NA","NA","139466","NA","NA","NA","138462","NA","138436","1940","140842","NA","NA","NA","139506","1930","1930","NA","140015","140039","138436","139465","139486","morph21_Oliver/Morris","9","6496","11","yes","1920","40"
"350","83.33333333333333","83.33333333333333","583.5833333333334","583.5833333333334","black","no","xpyriment","legacy","legacy","0","202","NA","uniform","NA","NA","NA","1","undefined","1","0","11","11","11","0","11","11","11","NA","0","11","NA","NA","0","11","NA","11","0","11","NA","NA","NA","11","0","0","NA","11","11","11","11","11","12","/","Thu Feb 15 15:25:52 2024","The main experiment item","yes","m21-ab-lexicalDecision.osexp","C:\Users\ekealey\Desktop","no","mono","no","18","no","white","no","yes","1080","legacy","11","11","C:/Users/ekealey/Desktop/subject-237.csv","xpyriment","Lentiform Loewenfeld","3.3.11","0","/","NA","NA","NA","NA","space","/","507","NA","NA","NA","NA","94275","507","2","legacy","1024","2","48000","-16","AB_m21","237","odd","CW_L","GUILELESS","1929","145564","142384","144061","96216","NA","NA","NA","NA","NA","142884","NA","NA","NA","141884","NA","141850","1940","145915","NA","NA","NA","142924","1930","1930","NA","143431","143456","141849","142884","142904","morph21_Oliver/Morris","10","7003","12","yes","1920","31"
"350","84.61538461538461","84.61538461538461","584.2307692307693","584.2307692307693","black","no","xpyriment","legacy","legacy","0","206","NA","uniform","NA","NA","NA","1","undefined","1","0","12","12","12","0","12","12","12","NA","0","12","NA","NA","0","12","NA","12","0","12","NA","NA","NA","12","0","0","NA","12","12","12","12","12","13","z","Thu Feb 15 15:25:52 2024","The main experiment item","yes","m21-ab-lexicalDecision.osexp","C:\Users\ekealey\Desktop","no","mono","no","18","no","white","no","yes","1080","legacy","12","12","C:/Users/ekealey/Desktop/subject-237.csv","xpyriment","Lentiform Loewenfeld","3.3.11","0","z","NA","NA","NA","NA","space","z","592","NA","NA","NA","NA","94275","592","2","legacy","1024","2","48000","-16","AB_m21","237","odd","NW_L_SIMP","NUTLA","1929","149235","147473","144061","96216","NA","NA","NA","NA","NA","147974","NA","NA","NA","146973","NA","146940","1940","149586","NA","NA","NA","148014","1930","1930","NA","148607","148631","146940","147974","147994","morph21_Oliver/Morris","11","7595","13","yes","1920","14"
"400","85.71428571428571","85.71428571428571","600.8571428571429","600.8571428571429","black","no","xpyriment","legacy","legacy","0","202","NA","uniform","NA","NA","NA","1","undefined","1","0","13","13","13","0","13","13","13","NA","0","13","NA","NA","0","13","NA","13","0","13","NA","NA","NA","13","0","0","NA","13","13","13","13","13","14","/","Thu Feb 15 15:25:52 2024","The main experiment item","yes","m21-ab-lexicalDecision.osexp","C:\Users\ekealey\Desktop","no","mono","no","18","no","white","no","yes","1080","legacy","13","13","C:/Users/ekealey/Desktop/subject-237.csv","xpyriment","Lentiform Loewenfeld","3.3.11","0","/","NA","NA","NA","NA","space","/","817","NA","NA","NA","NA","94275","817","2","legacy","1024","2","48000","-16","AB_m21","237","odd","CW_L","FAITHFUL","1929","153123","151135","144061","96216","NA","NA","NA","NA","NA","151636","NA","NA","NA","150634","NA","150607","1940","153523","NA","NA","NA","151677","1930","1930","NA","152495","152520","150607","151636","151657","morph21_Oliver/Morris","12","8412","14","yes","1920","20"
"300","86.66666666666667","86.66666666666667","590.8666666666667","590.8666666666667","black","no","xpyriment","legacy","legacy","0","201","NA","uniform","NA","NA","NA","1","undefined","1","0","14","14","14","0","14","14","14","NA","0","14","NA","NA","0","14","NA","14","0","14","NA","NA","NA","14","0","0","NA","14","14","14","14","14","15","/","Thu Feb 15 15:25:52 2024","The main experiment item","yes","m21-ab-lexicalDecision.osexp","C:\Users\ekealey\Desktop","no","mono","no","18","no","white","no","yes","1080","legacy","14","14","C:/Users/ekealey/Desktop/subject-237.csv","xpyriment","Lentiform Loewenfeld","3.3.11","0","/","NA","NA","NA","NA","space","/","451","NA","NA","NA","NA","94275","451","2","legacy","1024","2","48000","-16","AB_m21","237","odd","CW_S","MAGICAL","1929","158193","155069","156689","96216","NA","NA","NA","NA","NA","155570","NA","NA","NA","154569","NA","154542","1940","158493","NA","NA","NA","155611","1930","1930","NA","156063","156086","154542","155570","155591","morph21_Oliver/Morris","13","8863","15","yes","1920","4"
"400","87.5","87.5","592.5","592.5","black","no","xpyriment","legacy","legacy","0","208","NA","uniform","NA","NA","NA","1","undefined","1","0","15","15","15","0","15","15","15","NA","0","15","NA","NA","0","15","NA","15","0","15","NA","NA","NA","15","0","0","NA","15","15","15","15","15","16","z","Thu Feb 15 15:25:52 2024","The main experiment item","yes","m21-ab-lexicalDecision.osexp","C:\Users\ekealey\Desktop","no","mono","no","18","no","white","no","yes","1080","legacy","15","15","C:/Users/ekealey/Desktop/subject-237.csv","xpyriment","Lentiform Loewenfeld","3.3.11","0","z","NA","NA","NA","NA","space","z","617","NA","NA","NA","NA","94275","617","2","legacy","1024","2","48000","-16","AB_m21","237","odd","FILL_NW","BORMS","1929","161859","160074","156689","96216","NA","NA","NA","NA","NA","160574","NA","NA","NA","159573","NA","159545","1940","162259","NA","NA","NA","160614","1930","1930","NA","161231","161255","159545","160574","160594","morph21_Oliver/Morris","14","9480","16","yes","1920","50"
"250","88.23529411764706","88.23529411764706","592.3529411764706","592.3529411764706","black","no","xpyriment","legacy","legacy","0","207","NA","uniform","NA","NA","NA","1","undefined","1","0","16","16","16","0","16","16","16","NA","0","16","NA","NA","0","16","NA","16","0","16","NA","NA","NA","16","0","0","NA","16","16","16","16","16","17","/","Thu Feb 15 15:25:52 2024","The main experiment item","yes","m21-ab-lexicalDecision.osexp","C:\Users\ekealey\Desktop","no","mono","no","18","no","white","no","yes","1080","legacy","16","16","C:/Users/ekealey/Desktop/subject-237.csv","xpyriment","Lentiform Loewenfeld","3.3.11","0","/","NA","NA","NA","NA","space","/","590","NA","NA","NA","NA","94275","590","2","legacy","1024","2","48000","-16","AB_m21","237","odd","FILL_W","SPLICE","1929","165578","163819","156689","96216","NA","NA","NA","NA","NA","164319","NA","NA","NA","163318","NA","163288","1940","165828","NA","NA","NA","164360","1930","1930","NA","164950","164974","163288","164319","164340","morph21_Oliver/Morris","15","10070","17","yes","1920","22"
"250","88.88888888888889","88.88888888888889","594.1666666666666","594.1666666666666","black","no","xpyriment","legacy","legacy","0","208","NA","uniform","NA","NA","NA","1","undefined","1","0","17","17","17","0","17","17","17","NA","0","17","NA","NA","0","17","NA","17","0","17","NA","NA","NA","17","0","0","NA","17","17","17","17","17","18","z","Thu Feb 15 15:25:52 2024","The main experiment item","yes","m21-ab-lexicalDecision.osexp","C:\Users\ekealey\Desktop","no","mono","no","18","no","white","no","yes","1080","legacy","17","17","C:/Users/ekealey/Desktop/subject-237.csv","xpyriment","Lentiform Loewenfeld","3.3.11","0","z","NA","NA","NA","NA","space","z","625","NA","NA","NA","NA","94275","625","2","legacy","1024","2","48000","-16","AB_m21","237","odd","FILL_NW","PHEEKS","1929","170681","167383","169178","96216","NA","NA","NA","NA","NA","167883","NA","NA","NA","166883","NA","166854","1940","170931","NA","NA","NA","167925","1930","1930","NA","168551","168575","166854","167883","167905","morph21_Oliver/Morris","16","10695","18","yes","1920","35"
"300","89.47368421052632","89.47368421052632","587.0526315789474","587.0526315789474","black","no","xpyriment","legacy","legacy","0","207","NA","uniform","NA","NA","NA","1","undefined","1","0","18","18","18","0","18","18","18","NA","0","18","NA","NA","0","18","NA","18","0","18","NA","NA","NA","18","0","0","NA","18","18","18","18","18","19","/","Thu Feb 15 15:25:52 2024","The main experiment item","yes","m21-ab-lexicalDecision.osexp","C:\Users\ekealey\Desktop","no","mono","no","18","no","white","no","yes","1080","legacy","18","18","C:/Users/ekealey/Desktop/subject-237.csv","xpyriment","Lentiform Loewenfeld","3.3.11","0","/","NA","NA","NA","NA","space","/","459","NA","NA","NA","NA","94275","459","2","legacy","1024","2","48000","-16","AB_m21","237","odd","FILL_W","MOURN","1929","174154","172526","169178","96216","NA","NA","NA","NA","NA","173026","NA","NA","NA","172026","NA","171991","1940","174454","NA","NA","NA","173067","1930","1930","NA","173527","173551","171991","173026","173047","morph21_Oliver/Morris","17","11154","19","yes","1920","26"
"350","90","90","586.3","586.3","black","no","xpyriment","legacy","legacy","0","208","NA","uniform","NA","NA","NA","1","undefined","1","0","19","19","19","0","19","19","19","NA","0","19","NA","NA","0","19","NA","19","0","19","NA","NA","NA","19","0","0","NA","19","19","19","19","19","20","z","Thu Feb 15 15:25:52 2024","The main experiment item","yes","m21-ab-lexicalDecision.osexp","C:\Users\ekealey\Desktop","no","mono","no","18","no","white","no","yes","1080","legacy","19","19","C:/Users/ekealey/Desktop/subject-237.csv","xpyriment","Lentiform Loewenfeld","3.3.11","0","z","NA","NA","NA","NA","space","z","572","NA","NA","NA","NA","94275","572","2","legacy","1024","2","48000","-16","AB_m21","237","odd","FILL_NW","DARF","1929","177745","176004","169178","96216","NA","NA","NA","NA","NA","176506","NA","NA","NA","175503","NA","175476","1940","178095","NA","NA","NA","176546","1930","1930","NA","177118","177142","175476","176506","176526","morph21_Oliver/Morris","18","11726","20","yes","1920","10"
"300","90.47619047619048","90.47619047619048","589.9047619047619","589.9047619047619","black","no","xpyriment","legacy","legacy","0","206","NA","uniform","NA","NA","NA","1","undefined","1","0","20","20","20","0","20","20","20","NA","0","20","NA","NA","0","20","NA","20","0","20","NA","NA","NA","20","0","0","NA","20","20","20","20","20","21","z","Thu Feb 15 15:25:52 2024","The main experiment item","yes","m21-ab-lexicalDecision.osexp","C:\Users\ekealey\Desktop","no","mono","no","18","no","white","no","yes","1080","legacy","20","20","C:/Users/ekealey/Desktop/subject-237.csv","xpyriment","Lentiform Loewenfeld","3.3.11","0","z","NA","NA","NA","NA","space","z","662","NA","NA","NA","NA","94275","662","2","legacy","1024","2","48000","-16","AB_m21","237","odd","NW_L_SIMP","LONGNELS","1929","182984","179651","181481","96216","NA","NA","NA","NA","NA","180152","NA","NA","NA","179151","NA","179119","1940","183284","NA","NA","NA","180192","1930","1930","NA","180855","180878","179119","180152","180172","morph21_Oliver/Morris","19","12388","21","yes","1920","17"
"400","90.9090909090909","90.9090909090909","583.7272727272727","583.7272727272727","black","no","xpyriment","legacy","legacy","0","208","NA","uniform","NA","NA","NA","1","undefined","1","0","21","21","21","0","21","21","21","NA","0","21","NA","NA","0","21","NA","21","0","21","NA","NA","NA","21","0","0","NA","21","21","21","21","21","22","z","Thu Feb 15 15:25:52 2024","The main experiment item","yes","m21-ab-lexicalDecision.osexp","C:\Users\ekealey\Desktop","no","mono","no","18","no","white","no","yes","1080","legacy","21","21","C:/Users/ekealey/Desktop/subject-237.csv","xpyriment","Lentiform Loewenfeld","3.3.11","0","z","NA","NA","NA","NA","space","z","454","NA","NA","NA","NA","94275","454","2","legacy","1024","2","48000","-16","AB_m21","237","odd","FILL_NW","ULNS","1929","186468","184843","181481","96216","NA","NA","NA","NA","NA","185343","NA","NA","NA","184343","NA","184313","1940","186868","NA","NA","NA","185384","1930","1930","NA","185839","185864","184313","185343","185364","morph21_Oliver/Morris","20","12842","22","yes","1920","45"
"300","86.95652173913044","86.95652173913044","580.0869565217391","580.0869565217391","black","no","xpyriment","legacy","legacy","0","204","NA","uniform","NA","NA","NA","0","undefined","0","0","22","22","22","0","22","22","22","NA","0","22","NA","NA","0","22","NA","22","0","22","NA","NA","NA","22","0","0","NA","22","22","22","22","22","23","z","Thu Feb 15 15:25:52 2024","The main experiment item","yes","m21-ab-lexicalDecision.osexp","C:\Users\ekealey\Desktop","no","mono","no","18","no","white","no","yes","1080","legacy","22","22","C:/Users/ekealey/Desktop/subject-237.csv","xpyriment","Lentiform Loewenfeld","3.3.11","0","/","NA","NA","NA","NA","space","/","500","NA","NA","NA","NA","94275","500","2","legacy","1024","2","48000","-16","AB_m21","237","odd","NW_L_COMP","EMPLOYNESS","1929","190074","188406","181481","96216","NA","NA","NA","NA","NA","188906","NA","NA","NA","187905","NA","187875","1940","190374","NA","NA","NA","188946","1930","1930","NA","189447","189471","187875","188906","188926","morph21_Oliver/Morris","20","13342","23","yes","1920","21"
"200","87.5","87.5","583.25","583.25","black","no","xpyriment","legacy","legacy","0","201","NA","uniform","NA","NA","NA","1","undefined","1","0","23","23","23","0","23","23","23","NA","0","23","NA","NA","0","23","NA","23","0","23","NA","NA","NA","23","0","0","NA","23","23","23","23","23","24","/","Thu Feb 15 15:25:52 2024","The main experiment item","yes","m21-ab-lexicalDecision.osexp","C:\Users\ekealey\Desktop","no","mono","no","18","no","white","no","yes","1080","legacy","23","23","C:/Users/ekealey/Desktop/subject-237.csv","xpyriment","Lentiform Loewenfeld","3.3.11","0","/","NA","NA","NA","NA","space","/","656","NA","NA","NA","NA","94275","656","2","legacy","1024","2","48000","-16","AB_m21","237","odd","CW_S","CAMPAIGNER","1929","195274","191945","193771","96216","NA","NA","NA","NA","NA","192446","NA","NA","NA","191444","NA","191416","1940","195474","NA","NA","NA","192486","1930","1930","NA","193143","193168","191416","192446","192466","morph21_Oliver/Morris","21","13998","24","yes","1920","15"
"350","88","88","580.8","580.8","black","no","xpyriment","legacy","legacy","0","208","NA","uniform","NA","NA","NA","1","undefined","1","0","24","24","24","0","24","24","24","NA","0","24","NA","NA","0","24","NA","24","0","24","NA","NA","NA","24","0","0","NA","24","24","24","24","24","25","z","Thu Feb 15 15:25:52 2024","The main experiment item","yes","m21-ab-lexicalDecision.osexp","C:\Users\ekealey\Desktop","no","mono","no","18","no","white","no","yes","1080","legacy","24","24","C:/Users/ekealey/Desktop/subject-237.csv","xpyriment","Lentiform Loewenfeld","3.3.11","0","z","NA","NA","NA","NA","space","z","522","NA","NA","NA","NA","94275","522","2","legacy","1024","2","48000","-16","AB_m21","237","odd","FILL_NW","DELP","1929","198723","197032","193771","96216","NA","NA","NA","NA","NA","197533","NA","NA","NA","196530","NA","196499","1940","199073","NA","NA","NA","197573","1930","1930","NA","198096","198119","196499","197533","197553","morph21_Oliver/Morris","22","14520","25","yes","1920","14"
"200","88.46153846153847","88.46153846153847","577.2307692307693","577.2307692307693","black","no","xpyriment","legacy","legacy","0","203","NA","uniform","NA","NA","NA","1","undefined","1","0","25","25","25","0","25","25","25","NA","0","25","NA","NA","0","25","NA","25","0","25","NA","NA","NA","25","0","0","NA","25","25","25","25","25","26","z","Thu Feb 15 15:25:52 2024","The main experiment item","yes","m21-ab-lexicalDecision.osexp","C:\Users\ekealey\Desktop","no","mono","no","18","no","white","no","yes","1080","legacy","25","25","C:/Users/ekealey/Desktop/subject-237.csv","xpyriment","Lentiform Loewenfeld","3.3.11","0","z","NA","NA","NA","NA","space","z","488","NA","NA","NA","NA","94275","488","2","legacy","1024","2","48000","-16","AB_m21","237","odd","NW_S_COMP","ADOPTILP","1929","202301","200642","193771","96216","NA","NA","NA","NA","NA","201143","NA","NA","NA","200140","NA","200111","1940","202502","NA","NA","NA","201183","1930","1930","NA","201671","201697","200111","201143","201163","morph21_Oliver/Morris","23","15008","26","yes","1920","19"
"350","88.88888888888889","88.88888888888889","574.074074074074","574.074074074074","black","no","xpyriment","legacy","legacy","0","203","NA","uniform","NA","NA","NA","1","undefined","1","0","26","26","26","0","26","26","26","NA","0","26","NA","NA","0","26","NA","26","0","26","NA","NA","NA","26","0","0","NA","26","26","26","26","26","27","z","Thu Feb 15 15:25:52 2024","The main experiment item","yes","m21-ab-lexicalDecision.osexp","C:\Users\ekealey\Desktop","no","mono","no","18","no","white","no","yes","1080","legacy","26","26","C:/Users/ekealey/Desktop/subject-237.csv","xpyriment","Lentiform Loewenfeld","3.3.11","0","z","NA","NA","NA","NA","space","z","492","NA","NA","NA","NA","94275","492","2","legacy","1024","2","48000","-16","AB_m21","237","odd","NW_S_COMP","DEBTISH","1929","207226","204061","205722","96216","NA","NA","NA","NA","NA","204561","NA","NA","NA","203561","NA","203534","1940","207576","NA","NA","NA","204602","1930","1930","NA","205095","205119","203534","204561","204582","morph21_Oliver/Morris","24","15500","27","yes","1920","22"
"250","89.28571428571429","89.28571428571429","583.1428571428571","583.1428571428571","black","no","xpyriment","legacy","legacy","0","205","NA","uniform","NA","NA","NA","1","undefined","1","0","27","27","27","0","27","27","27","NA","0","27","NA","NA","0","27","NA","27","0","27","NA","NA","NA","27","0","0","NA","27","27","27","27","27","28","z","Thu Feb 15 15:25:52 2024","The main experiment item","yes","m21-ab-lexicalDecision.osexp","C:\Users\ekealey\Desktop","no","mono","no","18","no","white","no","yes","1080","legacy","27","27","C:/Users/ekealey/Desktop/subject-237.csv","xpyriment","Lentiform Loewenfeld","3.3.11","0","z","NA","NA","NA","NA","space","z","828","NA","NA","NA","NA","94275","828","2","legacy","1024","2","48000","-16","AB_m21","237","odd","NW_S_SIMP","DIGODY","1929","211138","209141","205722","96216","NA","NA","NA","NA","NA","209641","NA","NA","NA","208641","NA","208610","1940","211388","NA","NA","NA","209682","1930","1930","NA","210510","210535","208610","209641","209662","morph21_Oliver/Morris","25","16328","28","yes","1920","11"
"350","86.20689655172414","86.20689655172414","582.8965517241379","582.8965517241379","black","no","xpyriment","legacy","legacy","0","203","NA","uniform","NA","NA","NA","0","undefined","0","0","28","28","28","0","28","28","28","NA","0","28","NA","NA","0","28","NA","28","0","28","NA","NA","NA","28","0","0","NA","28","28","28","28","28","29","z","Thu Feb 15 15:25:52 2024","The main experiment item","yes","m21-ab-lexicalDecision.osexp","C:\Users\ekealey\Desktop","no","mono","no","18","no","white","no","yes","1080","legacy","28","28","C:/Users/ekealey/Desktop/subject-237.csv","xpyriment","Lentiform Loewenfeld","3.3.11","0","/","NA","NA","NA","NA","space","/","576","NA","NA","NA","NA","94275","576","2","legacy","1024","2","48000","-16","AB_m21","237","odd","NW_S_COMP","HUMIDOUS","1929","214683","212937","205722","96216","NA","NA","NA","NA","NA","213438","NA","NA","NA","212437","NA","212406","1940","215034","NA","NA","NA","213478","1930","1930","NA","214056","214080","212406","213437","213458","morph21_Oliver/Morris","25","16904","29","yes","1920","25"
"200","86.66666666666667","86.66666666666667","586.2","586.2","black","no","xpyriment","legacy","legacy","0","205","NA","uniform","NA","NA","NA","1","undefined","1","0","29","29","29","0","29","29","29","NA","0","29","NA","NA","0","29","NA","29","0","29","NA","NA","NA","29","0","0","NA","29","29","29","29","29","30","z","Thu Feb 15 15:25:52 2024","The main experiment item","yes","m21-ab-lexicalDecision.osexp","C:\Users\ekealey\Desktop","no","mono","no","18","no","white","no","yes","1080","legacy","29","29","C:/Users/ekealey/Desktop/subject-237.csv","xpyriment","Lentiform Loewenfeld","3.3.11","0","z","NA","NA","NA","NA","space","z","682","NA","NA","NA","NA","94275","682","2","legacy","1024","2","48000","-16","AB_m21","237","odd","NW_S_SIMP","GUMFIL","1929","219937","216584","218434","96216","NA","NA","NA","NA","NA","217084","NA","NA","NA","216083","NA","216053","1940","220137","NA","NA","NA","217124","1930","1930","NA","217806","217831","216053","217084","217104","morph21_Oliver/Morris","26","17586","30","yes","1920","2"
"250","87.09677419354838","87.09677419354838","586.6129032258065","586.6129032258065","black","no","xpyriment","legacy","legacy","0","208","NA","uniform","NA","NA","NA","1","undefined","1","0","30","30","30","0","30","30","30","NA","0","30","NA","NA","0","30","NA","30","0","30","NA","NA","NA","30","0","0","NA","30","30","30","30","30","31","z","Thu Feb 15 15:25:52 2024","The main experiment item","yes","m21-ab-lexicalDecision.osexp","C:\Users\ekealey\Desktop","no","mono","no","18","no","white","no","yes","1080","legacy","30","30","C:/Users/ekealey/Desktop/subject-237.csv","xpyriment","Lentiform Loewenfeld","3.3.11","0","z","NA","NA","NA","NA","space","z","599","NA","NA","NA","NA","94275","599","2","legacy","1024","2","48000","-16","AB_m21","237","odd","FILL_NW","BUWL","1929","223474","221706","218434","96216","NA","NA","NA","NA","NA","222207","NA","NA","NA","221205","NA","221174","1940","223725","NA","NA","NA","222247","1930","1930","NA","222846","222871","221174","222207","222227","morph21_Oliver/Morris","27","18185","31","yes","1920","9"
"350","87.5","87.5","591.59375","591.59375","black","no","xpyriment","legacy","legacy","0","208","NA","uniform","NA","NA","NA","1","undefined","1","0","31","31","31","0","31","31","31","NA","0","31","NA","NA","0","31","NA","31","0","31","NA","NA","NA","31","0","0","NA","31","31","31","31","31","32","z","Thu Feb 15 15:25:52 2024","The main experiment item","yes","m21-ab-lexicalDecision.osexp","C:\Users\ekealey\Desktop","no","mono","no","18","no","white","no","yes","1080","legacy","31","31","C:/Users/ekealey/Desktop/subject-237.csv","xpyriment","Lentiform Loewenfeld","3.3.11","0","z","NA","NA","NA","NA","space","z","746","NA","NA","NA","NA","94275","746","2","legacy","1024","2","48000","-16","AB_m21","237","odd","FILL_NW","DOADS","1929","227205","225287","218434","96216","NA","NA","NA","NA","NA","225788","NA","NA","NA","224787","NA","224758","1940","227555","NA","NA","NA","225828","1930","1930","NA","226575","226601","224758","225788","225808","morph21_Oliver/Morris","28","18931","32","yes","1920","15"
"250","87.87878787878788","87.87878787878788","585.8181818181819","585.8181818181819","black","no","xpyriment","legacy","legacy","0","207","NA","uniform","NA","NA","NA","1","undefined","1","0","32","32","32","0","32","32","32","NA","0","32","NA","NA","0","32","NA","32","0","32","NA","NA","NA","32","0","0","NA","32","32","32","32","32","33","/","Thu Feb 15 15:25:52 2024","The main experiment item","yes","m21-ab-lexicalDecision.osexp","C:\Users\ekealey\Desktop","no","mono","no","18","no","white","no","yes","1080","legacy","32","32","C:/Users/ekealey/Desktop/subject-237.csv","xpyriment","Lentiform Loewenfeld","3.3.11","0","/","NA","NA","NA","NA","space","/","401","NA","NA","NA","NA","94275","401","2","legacy","1024","2","48000","-16","AB_m21","237","odd","FILL_W","PREACH","1929","232194","229120","230690","96216","NA","NA","NA","NA","NA","229620","NA","NA","NA","228620","NA","228591","1940","232445","NA","NA","NA","229661","1930","1930","NA","230063","230086","228591","229620","229641","morph21_Oliver/Morris","29","19332","33","yes","1920","7"
"250","88.23529411764706","88.23529411764706","584.6764705882352","584.6764705882352","black","no","xpyriment","legacy","legacy","0","207","NA","uniform","NA","NA","NA","1","undefined","1","0","33","33","33","0","33","33","33","NA","0","33","NA","NA","0","33","NA","33","0","33","NA","NA","NA","33","0","0","NA","33","33","33","33","33","34","/","Thu Feb 15 15:25:52 2024","The main experiment item","yes","m21-ab-lexicalDecision.osexp","C:\Users\ekealey\Desktop","no","mono","no","18","no","white","no","yes","1080","legacy","33","33","C:/Users/ekealey/Desktop/subject-237.csv","xpyriment","Lentiform Loewenfeld","3.3.11","0","/","NA","NA","NA","NA","space","/","547","NA","NA","NA","NA","94275","547","2","legacy","1024","2","48000","-16","AB_m21","237","odd","FILL_W","COOK","1929","235746","234029","230690","96216","NA","NA","NA","NA","NA","234531","NA","NA","NA","233527","NA","233502","1940","235996","NA","NA","NA","234571","1930","1930","NA","235118","235143","233502","234530","234551","morph21_Oliver/Morris","30","19879","34","yes","1920","38"
"300","88.57142857142857","88.57142857142857","587.9428571428572","587.9428571428572","black","no","xpyriment","legacy","legacy","0","204","NA","uniform","NA","NA","NA","1","undefined","1","0","34","34","34","0","34","34","34","NA","0","34","NA","NA","0","34","NA","34","0","34","NA","NA","NA","34","0","0","NA","34","34","34","34","34","35","z","Thu Feb 15 15:25:52 2024","The main experiment item","yes","m21-ab-lexicalDecision.osexp","C:\Users\ekealey\Desktop","no","mono","no","18","no","white","no","yes","1080","legacy","34","34","C:/Users/ekealey/Desktop/subject-237.csv","xpyriment","Lentiform Loewenfeld","3.3.11","0","z","NA","NA","NA","NA","space","z","699","NA","NA","NA","NA","94275","699","2","legacy","1024","2","48000","-16","AB_m21","237","odd","NW_L_COMP","NORTHIZE","1929","239417","237550","230690","96216","NA","NA","NA","NA","NA","238051","NA","NA","NA","237050","NA","237019","1940","239717","NA","NA","NA","238091","1930","1930","NA","238791","238814","237019","238050","238071","morph21_Oliver/Morris","31","20578","35","yes","1920","20"
"250","88.88888888888889","88.88888888888889","584.4722222222222","584.4722222222222","black","no","xpyriment","legacy","legacy","0","202","NA","uniform","NA","NA","NA","1","undefined","1","0","35","35","35","0","35","35","35","NA","0","35","NA","NA","0","35","NA","35","0","35","NA","NA","NA","35","0","0","NA","35","35","35","35","35","36","/","Thu Feb 15 15:25:52 2024","The main experiment item","yes","m21-ab-lexicalDecision.osexp","C:\Users\ekealey\Desktop","no","mono","no","18","no","white","no","yes","1080","legacy","35","35","C:/Users/ekealey/Desktop/subject-237.csv","xpyriment","Lentiform Loewenfeld","3.3.11","0","/","NA","NA","NA","NA","space","/","463","NA","NA","NA","NA","94275","463","2","legacy","1024","2","48000","-16","AB_m21","237","odd","CW_L","CREAMY","1929","244425","241289","242921","96216","NA","NA","NA","NA","NA","241790","NA","NA","NA","240789","NA","240757","1940","244675","NA","NA","NA","241831","1930","1930","NA","242295","242318","240756","241790","241811","morph21_Oliver/Morris","32","21041","36","yes","1920","49"
"350","89.1891891891892","89.1891891891892","583.9459459459459","583.9459459459459","black","no","xpyriment","legacy","legacy","0","208","NA","uniform","NA","NA","NA","1","undefined","1","0","36","36","36","0","36","36","36","NA","0","36","NA","NA","0","36","NA","36","0","36","NA","NA","NA","36","0","0","NA","36","36","36","36","36","37","z","Thu Feb 15 15:25:52 2024","The main experiment item","yes","m21-ab-lexicalDecision.osexp","C:\Users\ekealey\Desktop","no","mono","no","18","no","white","no","yes","1080","legacy","36","36","C:/Users/ekealey/Desktop/subject-237.csv","xpyriment","Lentiform Loewenfeld","3.3.11","0","z","NA","NA","NA","NA","space","z","565","NA","NA","NA","NA","94275","565","2","legacy","1024","2","48000","-16","AB_m21","237","odd","FILL_NW","JADS","1929","247986","246253","242921","96216","NA","NA","NA","NA","NA","246754","NA","NA","NA","245753","NA","245724","1940","248336","NA","NA","NA","246794","1930","1930","NA","247360","247383","245724","246754","246774","morph21_Oliver/Morris","33","21606","37","yes","1920","31"
"400","89.47368421052632","89.47368421052632","581.4736842105264","581.4736842105264","black","no","xpyriment","legacy","legacy","0","206","NA","uniform","NA","NA","NA","1","undefined","1","0","37","37","37","0","37","37","37","NA","0","37","NA","NA","0","37","NA","37","0","37","NA","NA","NA","37","0","0","NA","37","37","37","37","37","38","z","Thu Feb 15 15:25:52 2024","The main experiment item","yes","m21-ab-lexicalDecision.osexp","C:\Users\ekealey\Desktop","no","mono","no","18","no","white","no","yes","1080","legacy","37","37","C:/Users/ekealey/Desktop/subject-237.csv","xpyriment","Lentiform Loewenfeld","3.3.11","0","z","NA","NA","NA","NA","space","z","490","NA","NA","NA","NA","94275","490","2","legacy","1024","2","48000","-16","AB_m21","237","odd","NW_L_SIMP","CLASSOES","1929","251554","249894","242921","96216","NA","NA","NA","NA","NA","250396","NA","NA","NA","249393","NA","249367","1940","251955","NA","NA","NA","250436","1930","1930","NA","250927","250951","249367","250396","250416","morph21_Oliver/Morris","34","22096","38","yes","1920","18"
"200","89.74358974358974","89.74358974358974","580.974358974359","580.974358974359","black","no","xpyriment","legacy","legacy","0","208","NA","uniform","NA","NA","NA","1","undefined","1","0","38","38","38","0","38","38","38","NA","0","38","NA","NA","0","38","NA","38","0","38","NA","NA","NA","38","0","0","NA","38","38","38","38","38","39","z","Thu Feb 15 15:25:52 2024","The main experiment item","yes","m21-ab-lexicalDecision.osexp","C:\Users\ekealey\Desktop","no","mono","no","18","no","white","no","yes","1080","legacy","38","38","C:/Users/ekealey/Desktop/subject-237.csv","xpyriment","Lentiform Loewenfeld","3.3.11","0","z","NA","NA","NA","NA","space","z","562","NA","NA","NA","NA","94275","562","2","legacy","1024","2","48000","-16","AB_m21","237","odd","FILL_NW","PORDS","1929","256753","253519","255250","96216","NA","NA","NA","NA","NA","254019","NA","NA","NA","253019","NA","252990","1940","256954","NA","NA","NA","254060","1930","1930","NA","254623","254647","252990","254019","254040","morph21_Oliver/Morris","35","22658","39","yes","1920","39"
"200","90","90","578.2","578.2","black","no","xpyriment","legacy","legacy","0","208","NA","uniform","NA","NA","NA","1","undefined","1","0","39","39","39","0","39","39","39","NA","0","39","NA","NA","0","39","NA","39","0","39","NA","NA","NA","39","0","0","NA","39","39","39","39","39","40","z","Thu Feb 15 15:25:52 2024","The main experiment item","yes","m21-ab-lexicalDecision.osexp","C:\Users\ekealey\Desktop","no","mono","no","18","no","white","no","yes","1080","legacy","39","39","C:/Users/ekealey/Desktop/subject-237.csv","xpyriment","Lentiform Loewenfeld","3.3.11","0","z","NA","NA","NA","NA","space","z","470","NA","NA","NA","NA","94275","470","2","legacy","1024","2","48000","-16","AB_m21","237","odd","FILL_NW","CINDS","1929","260146","258507","255250","96216","NA","NA","NA","NA","NA","259007","NA","NA","NA","258007","NA","257975","1940","260346","NA","NA","NA","259048","1930","1930","NA","259518","259542","257975","259007","259028","morph21_Oliver/Morris","36","23128","40","yes","1920","6"
"350","90.2439024390244","90.2439024390244","577.2439024390244","577.2439024390244","black","no","xpyriment","legacy","legacy","0","207","NA","uniform","NA","NA","NA","1","undefined","1","0","40","40","40","0","40","40","40","NA","0","40","NA","NA","0","40","NA","40","0","40","NA","NA","NA","40","0","0","NA","40","40","40","40","40","41","/","Thu Feb 15 15:25:52 2024","The main experiment item","yes","m21-ab-lexicalDecision.osexp","C:\Users\ekealey\Desktop","no","mono","no","18","no","white","no","yes","1080","legacy","40","40","C:/Users/ekealey/Desktop/subject-237.csv","xpyriment","Lentiform Loewenfeld","3.3.11","0","/","NA","NA","NA","NA","space","/","539","NA","NA","NA","NA","94275","539","2","legacy","1024","2","48000","-16","AB_m21","237","odd","FILL_W","LEAK","1929","263610","261901","255250","96216","NA","NA","NA","NA","NA","262402","NA","NA","NA","261399","NA","261375","1940","263960","NA","NA","NA","262443","1930","1930","NA","262982","263007","261375","262402","262423","morph21_Oliver/Morris","37","23667","41","yes","1920","9"
"250","88.0952380952381","88.0952380952381","576.8571428571429","576.8571428571429","black","no","xpyriment","legacy","legacy","0","203","NA","uniform","NA","NA","NA","0","undefined","0","0","41","41","41","0","41","41","41","NA","0","41","NA","NA","0","41","NA","41","0","41","NA","NA","NA","41","0","0","NA","41","41","41","41","41","42","z","Thu Feb 15 15:25:52 2024","The main experiment item","yes","m21-ab-lexicalDecision.osexp","C:\Users\ekealey\Desktop","no","mono","no","18","no","white","no","yes","1080","legacy","41","41","C:/Users/ekealey/Desktop/subject-237.csv","xpyriment","Lentiform Loewenfeld","3.3.11","0","/","NA","NA","NA","NA","space","/","561","NA","NA","NA","NA","94275","561","2","legacy","1024","2","48000","-16","AB_m21","237","odd","NW_S_COMP","BRANCHER","1929","268738","265504","267235","96216","NA","NA","NA","NA","NA","266005","NA","NA","NA","265002","NA","264976","1940","268988","NA","NA","NA","266045","1930","1930","NA","266607","266632","264976","266005","266025","morph21_Oliver/Morris","37","24228","42","yes","1920","16"
"200","88.37209302325581","88.37209302325581","577","577","black","no","xpyriment","legacy","legacy","0","207","NA","uniform","NA","NA","NA","1","undefined","1","0","42","42","42","0","42","42","42","NA","0","42","NA","NA","0","42","NA","42","0","42","NA","NA","NA","42","0","0","NA","42","42","42","42","42","43","/","Thu Feb 15 15:25:52 2024","The main experiment item","yes","m21-ab-lexicalDecision.osexp","C:\Users\ekealey\Desktop","no","mono","no","18","no","white","no","yes","1080","legacy","42","42","C:/Users/ekealey/Desktop/subject-237.csv","xpyriment","Lentiform Loewenfeld","3.3.11","0","/","NA","NA","NA","NA","space","/","583","NA","NA","NA","NA","94275","583","2","legacy","1024","2","48000","-16","AB_m21","237","odd","FILL_W","GOLF","1929","272307","270553","267235","96216","NA","NA","NA","NA","NA","271055","NA","NA","NA","270052","NA","270021","1940","272507","NA","NA","NA","271095","1930","1930","NA","271678","271703","270021","271054","271075","morph21_Oliver/Morris","38","24811","43","yes","1920","28"
"250","88.63636363636364","88.63636363636364","579.5909090909091","579.5909090909091","black","no","xpyriment","legacy","legacy","0","202","NA","uniform","NA","NA","NA","1","undefined","1","0","43","43","43","0","43","43","43","NA","0","43","NA","NA","0","43","NA","43","0","43","NA","NA","NA","43","0","0","NA","43","43","43","43","43","44","/","Thu Feb 15 15:25:52 2024","The main experiment item","yes","m21-ab-lexicalDecision.osexp","C:\Users\ekealey\Desktop","no","mono","no","18","no","white","no","yes","1080","legacy","43","43","C:/Users/ekealey/Desktop/subject-237.csv","xpyriment","Lentiform Loewenfeld","3.3.11","0","/","NA","NA","NA","NA","space","/","691","NA","NA","NA","NA","94275","691","2","legacy","1024","2","48000","-16","AB_m21","237","odd","CW_L","DEAFNESS","1929","275914","274054","267235","96216","NA","NA","NA","NA","NA","274554","NA","NA","NA","273554","NA","273526","1940","276164","NA","NA","NA","274595","1930","1930","NA","275286","275311","273526","274554","274575","morph21_Oliver/Morris","39","25502","44","yes","1920","39"
"250","88.88888888888889","88.88888888888889","577.9777777777778","577.9777777777778","black","no","xpyriment","legacy","legacy","0","207","NA","uniform","NA","NA","NA","1","undefined","1","0","44","44","44","0","44","44","44","NA","0","44","NA","NA","0","44","NA","44","0","44","NA","NA","NA","44","0","0","NA","44","44","44","44","44","45","/","Thu Feb 15 15:25:52 2024","The main experiment item","yes","m21-ab-lexicalDecision.osexp","C:\Users\ekealey\Desktop","no","mono","no","18","no","white","no","yes","1080","legacy","44","44","C:/Users/ekealey/Desktop/subject-237.csv","xpyriment","Lentiform Loewenfeld","3.3.11","0","/","NA","NA","NA","NA","space","/","507","NA","NA","NA","NA","94275","507","2","legacy","1024","2","48000","-16","AB_m21","237","odd","FILL_W","TREAT","1929","280882","277701","279379","96216","NA","NA","NA","NA","NA","278202","NA","NA","NA","277199","NA","277168","1940","281132","NA","NA","NA","278243","1930","1930","NA","278750","278775","277168","278202","278223","morph21_Oliver/Morris","40","26009","45","yes","1920","48"
"350","89.1304347826087","89.1304347826087","576.304347826087","576.304347826087","black","no","xpyriment","legacy","legacy","0","201","NA","uniform","NA","NA","NA","1","undefined","1","0","45","45","45","0","45","45","45","NA","0","45","NA","NA","0","45","NA","45","0","45","NA","NA","NA","45","0","0","NA","45","45","45","45","45","46","/","Thu Feb 15 15:25:52 2024","The main experiment item","yes","m21-ab-lexicalDecision.osexp","C:\Users\ekealey\Desktop","no","mono","no","18","no","white","no","yes","1080","legacy","45","45","C:/Users/ekealey/Desktop/subject-237.csv","xpyriment","Lentiform Loewenfeld","3.3.11","0","/","NA","NA","NA","NA","space","/","501","NA","NA","NA","NA","94275","501","2","legacy","1024","2","48000","-16","AB_m21","237","odd","CW_S","DULLNESS","1929","284363","282691","279379","96216","NA","NA","NA","NA","NA","283192","NA","NA","NA","282190","NA","282165","1940","284713","NA","NA","NA","283233","1930","1930","NA","283735","283759","282165","283192","283213","morph21_Oliver/Morris","41","26510","46","yes","1920","43"
"300","89.36170212765957","89.36170212765957","575.7021276595744","575.7021276595744","black","no","xpyriment","legacy","legacy","0","205","NA","uniform","NA","NA","NA","1","undefined","1","0","46","46","46","0","46","46","46","NA","0","46","NA","NA","0","46","NA","46","0","46","NA","NA","NA","46","0","0","NA","46","46","46","46","46","47","z","Thu Feb 15 15:25:52 2024","The main experiment item","yes","m21-ab-lexicalDecision.osexp","C:\Users\ekealey\Desktop","no","mono","no","18","no","white","no","yes","1080","legacy","46","46","C:/Users/ekealey/Desktop/subject-237.csv","xpyriment","Lentiform Loewenfeld","3.3.11","0","z","NA","NA","NA","NA","space","z","548","NA","NA","NA","NA","94275","548","2","legacy","1024","2","48000","-16","AB_m21","237","odd","NW_S_SIMP","HEIRIG","1929","288017","286300","279379","96216","NA","NA","NA","NA","NA","286802","NA","NA","NA","285799","NA","285773","1940","288317","NA","NA","NA","286842","1930","1930","NA","287391","287414","285773","286801","286822","morph21_Oliver/Morris","42","27058","47","yes","1920","3"
"300","87.5","87.5","576.8125","576.8125","black","no","xpyriment","legacy","legacy","0","208","NA","uniform","NA","NA","NA","0","undefined","0","0","47","47","47","0","47","47","47","NA","0","47","NA","NA","0","47","NA","47","0","47","NA","NA","NA","47","0","0","NA","47","47","47","47","47","48","z","Thu Feb 15 15:25:52 2024","The main experiment item","yes","m21-ab-lexicalDecision.osexp","C:\Users\ekealey\Desktop","no","mono","no","18","no","white","no","yes","1080","legacy","47","47","C:/Users/ekealey/Desktop/subject-237.csv","xpyriment","Lentiform Loewenfeld","3.3.11","0","/","NA","NA","NA","NA","space","/","629","NA","NA","NA","NA","94275","629","2","legacy","1024","2","48000","-16","AB_m21","237","odd","FILL_NW","DASK","1929","293162","289860","291658","96216","NA","NA","NA","NA","NA","290360","NA","NA","NA","289359","NA","289334","1940","293462","NA","NA","NA","290401","1930","1930","NA","291031","291055","289334","290360","290381","morph21_Oliver/Morris","42","27687","48","yes","1920","12"
"250","87.75510204081633","87.75510204081633","576.2244897959183","576.2244897959183","black","no","xpyriment","legacy","legacy","0","201","NA","uniform","NA","NA","NA","1","undefined","1","0","48","48","48","0","48","48","48","NA","0","48","NA","NA","0","48","NA","48","0","48","NA","NA","NA","48","0","0","NA","48","48","48","48","48","49","/","Thu Feb 15 15:25:52 2024","The main experiment item","yes","m21-ab-lexicalDecision.osexp","C:\Users\ekealey\Desktop","no","mono","no","18","no","white","no","yes","1080","legacy","48","48","C:/Users/ekealey/Desktop/subject-237.csv","xpyriment","Lentiform Loewenfeld","3.3.11","0","/","NA","NA","NA","NA","space","/","548","NA","NA","NA","NA","94275","548","2","legacy","1024","2","48000","-16","AB_m21","237","odd","CW_S","NOTICEABLE","1929","296738","295021","291658","96216","NA","NA","NA","NA","NA","295522","NA","NA","NA","294520","NA","294487","1940","296988","NA","NA","NA","295562","1930","1930","NA","296111","296135","294487","295521","295542","morph21_Oliver/Morris","43","28235","49","yes","1920","3"
"300","88","88","579.14","579.14","black","no","xpyriment","legacy","legacy","0","204","NA","uniform","NA","NA","NA","1","undefined","1","0","49","49","49","0","49","49","49","NA","0","49","NA","NA","0","49","NA","49","0","49","NA","NA","NA","49","0","0","NA","49","49","49","49","49","50","z","Thu Feb 15 15:25:52 2024","The main experiment item","yes","m21-ab-lexicalDecision.osexp","C:\Users\ekealey\Desktop","no","mono","no","18","no","white","no","yes","1080","legacy","49","49","C:/Users/ekealey/Desktop/subject-237.csv","xpyriment","Lentiform Loewenfeld","3.3.11","0","z","NA","NA","NA","NA","space","z","722","NA","NA","NA","NA","94275","722","2","legacy","1024","2","48000","-16","AB_m21","237","odd","NW_L_COMP","ILLIST","1929","300427","298535","291658","96216","NA","NA","NA","NA","NA","299036","NA","NA","NA","298034","NA","298006","1940","300727","NA","NA","NA","299076","1930","1930","NA","299798","299822","298006","299036","299056","morph21_Oliver/Morris","44","28957","50","yes","1920","9"
"300","86.27450980392157","86.27450980392157","577.3137254901961","577.3137254901961","black","no","xpyriment","legacy","legacy","0","201","NA","uniform","NA","NA","NA","0","undefined","0","0","50","50","50","0","50","50","50","NA","0","50","NA","NA","0","50","NA","50","0","50","NA","NA","NA","50","0","0","NA","50","50","50","50","50","51","/","Thu Feb 15 15:25:52 2024","The main experiment item","yes","m21-ab-lexicalDecision.osexp","C:\Users\ekealey\Desktop","no","mono","no","18","no","white","no","yes","1080","legacy","50","50","C:/Users/ekealey/Desktop/subject-237.csv","xpyriment","Lentiform Loewenfeld","3.3.11","0","z","NA","NA","NA","NA","space","z","486","NA","NA","NA","NA","94275","486","2","legacy","1024","2","48000","-16","AB_m21","237","odd","CW_S","RISKY","1929","305437","302274","303933","96216","NA","NA","NA","NA","NA","302775","NA","NA","NA","301773","NA","301741","1940","305737","NA","NA","NA","302816","1930","1930","NA","303303","303328","301741","302775","302796","morph21_Oliver/Morris","44","29443","51","yes","1920","50"
"250","86.53846153846153","86.53846153846153","575.0769230769231","575.0769230769231","black","no","xpyriment","legacy","legacy","0","201","NA","uniform","NA","NA","NA","1","undefined","1","0","51","51","51","0","51","51","51","NA","0","51","NA","NA","0","51","NA","51","0","51","NA","NA","NA","51","0","0","NA","51","51","51","51","51","52","/","Thu Feb 15 15:25:52 2024","The main experiment item","yes","m21-ab-lexicalDecision.osexp","C:\Users\ekealey\Desktop","no","mono","no","18","no","white","no","yes","1080","legacy","51","51","C:/Users/ekealey/Desktop/subject-237.csv","xpyriment","Lentiform Loewenfeld","3.3.11","0","/","NA","NA","NA","NA","space","/","461","NA","NA","NA","NA","94275","461","2","legacy","1024","2","48000","-16","AB_m21","237","odd","CW_S","PLANNER","1929","308940","307309","303933","96216","NA","NA","NA","NA","NA","307809","NA","NA","NA","306809","NA","306781","1940","309190","NA","NA","NA","307849","1930","1930","NA","308311","308336","306781","307809","307829","morph21_Oliver/Morris","45","29904","52","yes","1920","22"
"250","86.79245283018868","86.79245283018868","574.3584905660377","574.3584905660377","black","no","xpyriment","legacy","legacy","0","202","NA","uniform","NA","NA","NA","1","undefined","1","0","52","52","52","0","52","52","52","NA","0","52","NA","NA","0","52","NA","52","0","52","NA","NA","NA","52","0","0","NA","52","52","52","52","52","53","/","Thu Feb 15 15:25:52 2024","The main experiment item","yes","m21-ab-lexicalDecision.osexp","C:\Users\ekealey\Desktop","no","mono","no","18","no","white","no","yes","1080","legacy","52","52","C:/Users/ekealey/Desktop/subject-237.csv","xpyriment","Lentiform Loewenfeld","3.3.11","0","/","NA","NA","NA","NA","space","/","537","NA","NA","NA","NA","94275","537","2","legacy","1024","2","48000","-16","AB_m21","237","odd","CW_L","FLEXIBLE","1929","312442","310736","303933","96216","NA","NA","NA","NA","NA","311237","NA","NA","NA","310234","NA","310208","1940","312692","NA","NA","NA","311277","1930","1930","NA","311815","311839","310208","311237","311257","morph21_Oliver/Morris","46","30441","53","yes","1920","22"
"400","87.03703703703704","87.03703703703704","571.8703703703703","571.8703703703703","black","no","xpyriment","legacy","legacy","0","207","NA","uniform","NA","NA","NA","1","undefined","1","0","53","53","53","0","53","53","53","NA","0","53","NA","NA","0","53","NA","53","0","53","NA","NA","NA","53","0","0","NA","53","53","53","53","53","54","/","Thu Feb 15 15:25:52 2024","The main experiment item","yes","m21-ab-lexicalDecision.osexp","C:\Users\ekealey\Desktop","no","mono","no","18","no","white","no","yes","1080","legacy","53","53","C:/Users/ekealey/Desktop/subject-237.csv","xpyriment","Lentiform Loewenfeld","3.3.11","0","/","NA","NA","NA","NA","space","/","440","NA","NA","NA","NA","94275","440","2","legacy","1024","2","48000","-16","AB_m21","237","odd","FILL_W","QUIT","1929","317385","314273","315882","96216","NA","NA","NA","NA","NA","314774","NA","NA","NA","313773","NA","313746","1940","317785","NA","NA","NA","314814","1930","1930","NA","315255","315278","313746","314774","314794","morph21_Oliver/Morris","47","30881","54","yes","1920","21"
"350","87.27272727272727","87.27272727272727","569.0909090909091","569.0909090909091","black","no","xpyriment","legacy","legacy","0","202","NA","uniform","NA","NA","NA","1","undefined","1","0","54","54","54","0","54","54","54","NA","0","54","NA","NA","0","54","NA","54","0","54","NA","NA","NA","54","0","0","NA","54","54","54","54","54","55","/","Thu Feb 15 15:25:52 2024","The main experiment item","yes","m21-ab-lexicalDecision.osexp","C:\Users\ekealey\Desktop","no","mono","no","18","no","white","no","yes","1080","legacy","54","54","C:/Users/ekealey/Desktop/subject-237.csv","xpyriment","Lentiform Loewenfeld","3.3.11","0","/","NA","NA","NA","NA","space","/","419","NA","NA","NA","NA","94275","419","2","legacy","1024","2","48000","-16","AB_m21","237","odd","CW_L","PUNCHER","1929","320954","319366","315882","96216","NA","NA","NA","NA","NA","319867","NA","NA","NA","318865","NA","318839","1940","321304","NA","NA","NA","319907","1930","1930","NA","320327","320351","318839","319867","319887","morph21_Oliver/Morris","48","31300","55","yes","1920","1"
"300","87.5","87.5","569.7142857142857","569.7142857142857","black","no","xpyriment","legacy","legacy","0","208","NA","uniform","NA","NA","NA","1","undefined","1","0","55","55","55","0","55","55","55","NA","0","55","NA","NA","0","55","NA","55","0","55","NA","NA","NA","55","0","0","NA","55","55","55","55","55","56","z","Thu Feb 15 15:25:52 2024","The main experiment item","yes","m21-ab-lexicalDecision.osexp","C:\Users\ekealey\Desktop","no","mono","no","18","no","white","no","yes","1080","legacy","55","55","C:/Users/ekealey/Desktop/subject-237.csv","xpyriment","Lentiform Loewenfeld","3.3.11","0","z","NA","NA","NA","NA","space","z","604","NA","NA","NA","NA","94275","604","2","legacy","1024","2","48000","-16","AB_m21","237","odd","FILL_NW","KEMT","1929","324636","322861","315882","96216","NA","NA","NA","NA","NA","323361","NA","NA","NA","322360","NA","322331","1940","324936","NA","NA","NA","323402","1930","1930","NA","324006","324032","322331","323361","323382","morph21_Oliver/Morris","49","31904","56","yes","1920","32"
"350","87.71929824561404","87.71929824561404","572.3508771929825","572.3508771929825","black","no","xpyriment","legacy","legacy","0","201","NA","uniform","NA","NA","NA","1","undefined","1","0","56","56","56","0","56","56","56","NA","0","56","NA","NA","0","56","NA","56","0","56","NA","NA","NA","56","0","0","NA","56","56","56","56","56","57","/","Thu Feb 15 15:25:52 2024","The main experiment item","yes","m21-ab-lexicalDecision.osexp","C:\Users\ekealey\Desktop","no","mono","no","18","no","white","no","yes","1080","legacy","56","56","C:/Users/ekealey/Desktop/subject-237.csv","xpyriment","Lentiform Loewenfeld","3.3.11","0","/","NA","NA","NA","NA","space","/","720","NA","NA","NA","NA","94275","720","2","legacy","1024","2","48000","-16","AB_m21","237","odd","CW_S","DENSELY","1929","329876","326481","328373","96216","NA","NA","NA","NA","NA","326981","NA","NA","NA","325980","NA","325950","1940","330226","NA","NA","NA","327022","1930","1930","NA","327742","327769","325950","326981","327002","morph21_Oliver/Morris","50","32624","57","yes","1920","32"
"350","86.20689655172414","86.20689655172414","570.6379310344828","570.6379310344828","black","no","xpyriment","legacy","legacy","0","204","NA","uniform","NA","NA","NA","0","undefined","0","0","57","57","57","0","57","57","57","NA","0","57","NA","NA","0","57","NA","57","0","57","NA","NA","NA","57","0","0","NA","57","57","57","57","57","58","z","Thu Feb 15 15:25:52 2024","The main experiment item","yes","m21-ab-lexicalDecision.osexp","C:\Users\ekealey\Desktop","no","mono","no","18","no","white","no","yes","1080","legacy","57","57","C:/Users/ekealey/Desktop/subject-237.csv","xpyriment","Lentiform Loewenfeld","3.3.11","0","/","NA","NA","NA","NA","space","/","473","NA","NA","NA","NA","94275","473","2","legacy","1024","2","48000","-16","AB_m21","237","odd","NW_L_COMP","AGREELY","1929","333441","331799","328373","96216","NA","NA","NA","NA","NA","332301","NA","NA","NA","331297","NA","331270","1940","333791","NA","NA","NA","332341","1930","1930","NA","332815","332838","331270","332300","332321","morph21_Oliver/Morris","50","33097","58","yes","1920","24"
"400","86.44067796610169","86.44067796610169","569.271186440678","569.271186440678","black","no","xpyriment","legacy","legacy","0","207","NA","uniform","NA","NA","NA","1","undefined","1","0","58","58","58","0","58","58","58","NA","0","58","NA","NA","0","58","NA","58","0","58","NA","NA","NA","58","0","0","NA","58","58","58","58","58","59","/","Thu Feb 15 15:25:52 2024","The main experiment item","yes","m21-ab-lexicalDecision.osexp","C:\Users\ekealey\Desktop","no","mono","no","18","no","white","no","yes","1080","legacy","58","58","C:/Users/ekealey/Desktop/subject-237.csv","xpyriment","Lentiform Loewenfeld","3.3.11","0","/","NA","NA","NA","NA","space","/","490","NA","NA","NA","NA","94275","490","2","legacy","1024","2","48000","-16","AB_m21","237","odd","FILL_W","CHIP","1929","337009","335351","328373","96216","NA","NA","NA","NA","NA","335851","NA","NA","NA","334851","NA","334820","1940","337409","NA","NA","NA","335892","1930","1930","NA","336382","336406","334820","335851","335872","morph21_Oliver/Morris","51","33587","59","yes","1920","11"
"200","86.66666666666667","86.66666666666667","566.5333333333333","566.5333333333333","black","no","xpyriment","legacy","legacy","0","202","NA","uniform","NA","NA","NA","1","undefined","1","0","59","59","59","0","59","59","59","NA","0","59","NA","NA","0","59","NA","59","0","59","NA","NA","NA","59","0","0","NA","59","59","59","59","59","60","/","Thu Feb 15 15:25:52 2024","The main experiment item","yes","m21-ab-lexicalDecision.osexp","C:\Users\ekealey\Desktop","no","mono","no","18","no","white","no","yes","1080","legacy","59","59","C:/Users/ekealey/Desktop/subject-237.csv","xpyriment","Lentiform Loewenfeld","3.3.11","0","/","NA","NA","NA","NA","space","/","405","NA","NA","NA","NA","94275","405","2","legacy","1024","2","48000","-16","AB_m21","237","odd","CW_L","VERBAL","1929","342042","338964","340539","96216","NA","NA","NA","NA","NA","339465","NA","NA","NA","338463","NA","338437","1940","342242","NA","NA","NA","339505","1930","1930","NA","339910","339934","338437","339465","339485","morph21_Oliver/Morris","52","33992","60","yes","1920","50"
"200","86.88524590163935","86.88524590163935","569.0655737704918","569.0655737704918","black","no","xpyriment","legacy","legacy","0","203","NA","uniform","NA","NA","NA","1","undefined","1","0","60","60","60","0","60","60","60","NA","0","60","NA","NA","0","60","NA","60","0","60","NA","NA","NA","60","0","0","NA","60","60","60","60","60","61","z","Thu Feb 15 15:25:52 2024","The main experiment item","yes","m21-ab-lexicalDecision.osexp","C:\Users\ekealey\Desktop","no","mono","no","18","no","white","no","yes","1080","legacy","60","60","C:/Users/ekealey/Desktop/subject-237.csv","xpyriment","Lentiform Loewenfeld","3.3.11","0","z","NA","NA","NA","NA","space","z","721","NA","NA","NA","NA","94275","721","2","legacy","1024","2","48000","-16","AB_m21","237","odd","NW_S_COMP","ELMIST","1929","345689","343799","340539","96216","NA","NA","NA","NA","NA","344301","NA","NA","NA","343296","NA","343270","1940","345889","NA","NA","NA","344341","1930","1930","NA","345063","345086","343269","344301","344321","morph21_Oliver/Morris","53","34713","61","yes","1920","10"
"300","87.09677419354838","87.09677419354838","569.8387096774194","569.8387096774194","black","no","xpyriment","legacy","legacy","0","208","NA","uniform","NA","NA","NA","1","undefined","1","0","61","61","61","0","61","61","61","NA","0","61","NA","NA","0","61","NA","61","0","61","NA","NA","NA","61","0","0","NA","61","61","61","61","61","62","z","Thu Feb 15 15:25:52 2024","The main experiment item","yes","m21-ab-lexicalDecision.osexp","C:\Users\ekealey\Desktop","no","mono","no","18","no","white","no","yes","1080","legacy","61","61","C:/Users/ekealey/Desktop/subject-237.csv","xpyriment","Lentiform Loewenfeld","3.3.11","0","z","NA","NA","NA","NA","space","z","617","NA","NA","NA","NA","94275","617","2","legacy","1024","2","48000","-16","AB_m21","237","odd","FILL_NW","TREMP","1929","349235","347448","340539","96216","NA","NA","NA","NA","NA","347948","NA","NA","NA","346948","NA","346920","1940","349535","NA","NA","NA","347989","1930","1930","NA","348606","348632","346920","347948","347969","morph21_Oliver/Morris","54","35330","62","yes","1920","20"
"300","87.3015873015873","87.3015873015873","570.9047619047619","570.9047619047619","black","no","xpyriment","legacy","legacy","0","203","NA","uniform","NA","NA","NA","1","undefined","1","0","62","62","62","0","62","62","62","NA","0","62","NA","NA","0","62","NA","62","0","62","NA","NA","NA","62","0","0","NA","62","62","62","62","62","63","z","Thu Feb 15 15:25:52 2024","The main experiment item","yes","m21-ab-lexicalDecision.osexp","C:\Users\ekealey\Desktop","no","mono","no","18","no","white","no","yes","1080","legacy","62","62","C:/Users/ekealey/Desktop/subject-237.csv","xpyriment","Lentiform Loewenfeld","3.3.11","0","z","NA","NA","NA","NA","space","z","637","NA","NA","NA","NA","94275","637","2","legacy","1024","2","48000","-16","AB_m21","237","odd","NW_S_COMP","FIGER","1929","354394","351083","352890","96216","NA","NA","NA","NA","NA","351583","NA","NA","NA","350582","NA","350548","1940","354694","NA","NA","NA","351624","1930","1930","NA","352262","352286","350548","351583","351604","morph21_Oliver/Morris","55","35967","63","yes","1920","4"
"200","87.5","87.5","568.34375","568.34375","black","no","xpyriment","legacy","legacy","0","207","NA","uniform","NA","NA","NA","1","undefined","1","0","63","63","63","0","63","63","63","NA","0","63","NA","NA","0","63","NA","63","0","63","NA","NA","NA","63","0","0","NA","63","63","63","63","63","64","/","Thu Feb 15 15:25:52 2024","The main experiment item","yes","m21-ab-lexicalDecision.osexp","C:\Users\ekealey\Desktop","no","mono","no","18","no","white","no","yes","1080","legacy","63","63","C:/Users/ekealey/Desktop/subject-237.csv","xpyriment","Lentiform Loewenfeld","3.3.11","0","/","NA","NA","NA","NA","space","/","407","NA","NA","NA","NA","94275","407","2","legacy","1024","2","48000","-16","AB_m21","237","odd","FILL_W","FLESH","1929","357829","356248","352890","96216","NA","NA","NA","NA","NA","356748","NA","NA","NA","355748","NA","355716","1940","358029","NA","NA","NA","356790","1930","1930","NA","357198","357224","355715","356748","356770","morph21_Oliver/Morris","56","36374","64","yes","1920","32"
"350","87.6923076923077","87.6923076923077","566.4153846153846","566.4153846153846","black","no","xpyriment","legacy","legacy","0","201","NA","uniform","NA","NA","NA","1","undefined","1","0","64","64","64","0","64","64","64","NA","0","64","NA","NA","0","64","NA","64","0","64","NA","NA","NA","64","0","0","NA","64","64","64","64","64","65","/","Thu Feb 15 15:25:52 2024","The main experiment item","yes","m21-ab-lexicalDecision.osexp","C:\Users\ekealey\Desktop","no","mono","no","18","no","white","no","yes","1080","legacy","64","64","C:/Users/ekealey/Desktop/subject-237.csv","xpyriment","Lentiform Loewenfeld","3.3.11","0","/","NA","NA","NA","NA","space","/","443","NA","NA","NA","NA","94275","443","2","legacy","1024","2","48000","-16","AB_m21","237","odd","CW_S","AMAZEMENT","1929","361210","359597","352890","96216","NA","NA","NA","NA","NA","360098","NA","NA","NA","359096","NA","359070","1940","361561","NA","NA","NA","360139","1930","1930","NA","360582","360607","359069","360098","360119","morph21_Oliver/Morris","57","36817","65","yes","1920","39"
"200","87.87878787878788","87.87878787878788","565.2424242424242","565.2424242424242","black","no","xpyriment","legacy","legacy","0","207","NA","uniform","NA","NA","NA","1","undefined","1","0","65","65","65","0","65","65","65","NA","0","65","NA","NA","0","65","NA","65","0","65","NA","NA","NA","65","0","0","NA","65","65","65","65","65","66","/","Thu Feb 15 15:25:52 2024","The main experiment item","yes","m21-ab-lexicalDecision.osexp","C:\Users\ekealey\Desktop","no","mono","no","18","no","white","no","yes","1080","legacy","65","65","C:/Users/ekealey/Desktop/subject-237.csv","xpyriment","Lentiform Loewenfeld","3.3.11","0","/","NA","NA","NA","NA","space","/","489","NA","NA","NA","NA","94275","489","2","legacy","1024","2","48000","-16","AB_m21","237","odd","FILL_W","STALK","1929","366281","363120","364778","96216","NA","NA","NA","NA","NA","363620","NA","NA","NA","362620","NA","362590","1940","366481","NA","NA","NA","363661","1930","1930","NA","364151","364175","362590","363620","363641","morph21_Oliver/Morris","58","37306","66","yes","1920","27"
"250","88.05970149253731","88.05970149253731","565.6567164179105","565.6567164179105","black","no","xpyriment","legacy","legacy","0","205","NA","uniform","NA","NA","NA","1","undefined","1","0","66","66","66","0","66","66","66","NA","0","66","NA","NA","0","66","NA","66","0","66","NA","NA","NA","66","0","0","NA","66","66","66","66","66","67","z","Thu Feb 15 15:25:52 2024","The main experiment item","yes","m21-ab-lexicalDecision.osexp","C:\Users\ekealey\Desktop","no","mono","no","18","no","white","no","yes","1080","legacy","66","66","C:/Users/ekealey/Desktop/subject-237.csv","xpyriment","Lentiform Loewenfeld","3.3.11","0","z","NA","NA","NA","NA","space","z","593","NA","NA","NA","NA","94275","593","2","legacy","1024","2","48000","-16","AB_m21","237","odd","NW_S_SIMP","ZOOMFIL","1929","369778","368017","364778","96216","NA","NA","NA","NA","NA","368517","NA","NA","NA","367517","NA","367487","1940","370028","NA","NA","NA","368557","1930","1930","NA","369151","369175","367487","368517","368537","morph21_Oliver/Morris","59","37899","67","yes","1920","19"
"300","88.23529411764706","88.23529411764706","564.3235294117648","564.3235294117648","black","no","xpyriment","legacy","legacy","0","201","NA","uniform","NA","NA","NA","1","undefined","1","0","67","67","67","0","67","67","67","NA","0","67","NA","NA","0","67","NA","67","0","67","NA","NA","NA","67","0","0","NA","67","67","67","67","67","68","/","Thu Feb 15 15:25:52 2024","The main experiment item","yes","m21-ab-lexicalDecision.osexp","C:\Users\ekealey\Desktop","no","mono","no","18","no","white","no","yes","1080","legacy","67","67","C:/Users/ekealey/Desktop/subject-237.csv","xpyriment","Lentiform Loewenfeld","3.3.11","0","/","NA","NA","NA","NA","space","/","475","NA","NA","NA","NA","94275","475","2","legacy","1024","2","48000","-16","AB_m21","237","odd","CW_S","BUYER","1929","373242","371597","364778","96216","NA","NA","NA","NA","NA","372098","NA","NA","NA","371096","NA","371070","1940","373542","NA","NA","NA","372139","1930","1930","NA","372615","372638","371070","372098","372119","morph21_Oliver/Morris","60","38374","68","yes","1920","21"
"300","88.40579710144928","88.40579710144928","562.8260869565217","562.8260869565217","black","no","xpyriment","legacy","legacy","0","207","NA","uniform","NA","NA","NA","1","undefined","1","0","68","68","68","0","68","68","68","NA","0","68","NA","NA","0","68","NA","68","0","68","NA","NA","NA","68","0","0","NA","68","68","68","68","68","69","/","Thu Feb 15 15:25:52 2024","The main experiment item","yes","m21-ab-lexicalDecision.osexp","C:\Users\ekealey\Desktop","no","mono","no","18","no","white","no","yes","1080","legacy","68","68","C:/Users/ekealey/Desktop/subject-237.csv","xpyriment","Lentiform Loewenfeld","3.3.11","0","/","NA","NA","NA","NA","space","/","461","NA","NA","NA","NA","94275","461","2","legacy","1024","2","48000","-16","AB_m21","237","odd","FILL_W","BLUNT","1929","378217","375085","376714","96216","NA","NA","NA","NA","NA","375585","NA","NA","NA","374585","NA","374552","1940","378517","NA","NA","NA","375625","1930","1930","NA","376086","376111","374552","375585","375605","morph21_Oliver/Morris","61","38835","69","yes","1920","4"
"250","88.57142857142857","88.57142857142857","563.4285714285714","563.4285714285714","black","no","xpyriment","legacy","legacy","0","207","NA","uniform","NA","NA","NA","1","undefined","1","0","69","69","69","0","69","69","69","NA","0","69","NA","NA","0","69","NA","69","0","69","NA","NA","NA","69","0","0","NA","69","69","69","69","69","70","/","Thu Feb 15 15:25:52 2024","The main experiment item","yes","m21-ab-lexicalDecision.osexp","C:\Users\ekealey\Desktop","no","mono","no","18","no","white","no","yes","1080","legacy","69","69","C:/Users/ekealey/Desktop/subject-237.csv","xpyriment","Lentiform Loewenfeld","3.3.11","0","/","NA","NA","NA","NA","space","/","605","NA","NA","NA","NA","94275","605","2","legacy","1024","2","48000","-16","AB_m21","237","odd","FILL_W","SOUGHT","1929","381921","380147","376714","96216","NA","NA","NA","NA","NA","380647","NA","NA","NA","379647","NA","379620","1940","382171","NA","NA","NA","380688","1930","1930","NA","381294","381318","379620","380647","380668","morph21_Oliver/Morris","62","39440","70","yes","1920","40"
"400","88.73239436619718","88.73239436619718","565.8591549295775","565.8591549295775","black","no","xpyriment","legacy","legacy","0","206","NA","uniform","NA","NA","NA","1","undefined","1","0","70","70","70","0","70","70","70","NA","0","70","NA","NA","0","70","NA","70","0","70","NA","NA","NA","70","0","0","NA","70","70","70","70","70","71","z","Thu Feb 15 15:25:52 2024","The main experiment item","yes","m21-ab-lexicalDecision.osexp","C:\Users\ekealey\Desktop","no","mono","no","18","no","white","no","yes","1080","legacy","70","70","C:/Users/ekealey/Desktop/subject-237.csv","xpyriment","Lentiform Loewenfeld","3.3.11","0","z","NA","NA","NA","NA","space","z","736","NA","NA","NA","NA","94275","736","2","legacy","1024","2","48000","-16","AB_m21","237","odd","NW_L_SIMP","VALIDEL","1929","385643","383735","376714","96216","NA","NA","NA","NA","NA","384236","NA","NA","NA","383235","NA","383208","1940","386043","NA","NA","NA","384277","1930","1930","NA","385014","385040","383208","384236","384257","morph21_Oliver/Morris","63","40176","71","yes","1920","23"
"200","88.88888888888889","88.88888888888889","566.0694444444445","566.0694444444445","black","no","xpyriment","legacy","legacy","0","201","NA","uniform","NA","NA","NA","1","undefined","1","0","71","71","71","0","71","71","71","NA","0","71","NA","NA","0","71","NA","71","0","71","NA","NA","NA","71","0","0","NA","71","71","71","71","71","72","/","Thu Feb 15 15:25:52 2024","The main experiment item","yes","m21-ab-lexicalDecision.osexp","C:\Users\ekealey\Desktop","no","mono","no","18","no","white","no","yes","1080","legacy","71","71","C:/Users/ekealey/Desktop/subject-237.csv","xpyriment","Lentiform Loewenfeld","3.3.11","0","/","NA","NA","NA","NA","space","/","581","NA","NA","NA","NA","94275","581","2","legacy","1024","2","48000","-16","AB_m21","237","odd","CW_S","AMUSEMENT","1929","390849","387595","389345","96216","NA","NA","NA","NA","NA","388096","NA","NA","NA","387094","NA","387068","1940","391050","NA","NA","NA","388137","1930","1930","NA","388719","388742","387068","388096","388117","morph21_Oliver/Morris","64","40757","72","yes","1920","38"
"200","89.04109589041096","89.04109589041096","564.6849315068494","564.6849315068494","black","no","xpyriment","legacy","legacy","0","202","NA","uniform","NA","NA","NA","1","undefined","1","0","72","72","72","0","72","72","72","NA","0","72","NA","NA","0","72","NA","72","0","72","NA","NA","NA","72","0","0","NA","72","72","72","72","72","73","/","Thu Feb 15 15:25:52 2024","The main experiment item","yes","m21-ab-lexicalDecision.osexp","C:\Users\ekealey\Desktop","no","mono","no","18","no","white","no","yes","1080","legacy","72","72","C:/Users/ekealey/Desktop/subject-237.csv","xpyriment","Lentiform Loewenfeld","3.3.11","0","/","NA","NA","NA","NA","space","/","465","NA","NA","NA","NA","94275","465","2","legacy","1024","2","48000","-16","AB_m21","237","odd","CW_L","SHAMEFUL","1929","394267","392632","389345","96216","NA","NA","NA","NA","NA","393133","NA","NA","NA","392131","NA","392105","1940","394467","NA","NA","NA","393173","1930","1930","NA","393639","393662","392105","393133","393153","morph21_Oliver/Morris","65","41222","73","yes","1920","19"
"350","89.1891891891892","89.1891891891892","567.581081081081","567.581081081081","black","no","xpyriment","legacy","legacy","0","206","NA","uniform","NA","NA","NA","1","undefined","1","0","73","73","73","0","73","73","73","NA","0","73","NA","NA","0","73","NA","73","0","73","NA","NA","NA","73","0","0","NA","73","73","73","73","73","74","z","Thu Feb 15 15:25:52 2024","The main experiment item","yes","m21-ab-lexicalDecision.osexp","C:\Users\ekealey\Desktop","no","mono","no","18","no","white","no","yes","1080","legacy","73","73","C:/Users/ekealey/Desktop/subject-237.csv","xpyriment","Lentiform Loewenfeld","3.3.11","0","z","NA","NA","NA","NA","space","z","779","NA","NA","NA","NA","94275","779","2","legacy","1024","2","48000","-16","AB_m21","237","odd","NW_L_SIMP","PICKENGE","1929","397987","396037","389345","96216","NA","NA","NA","NA","NA","396539","NA","NA","NA","395536","NA","395508","1940","398337","NA","NA","NA","396579","1930","1930","NA","397359","397384","395508","396538","396559","morph21_Oliver/Morris","66","42001","74","yes","1920","5"
"400","89.33333333333333","89.33333333333333","565.8","565.8","black","no","xpyriment","legacy","legacy","0","202","NA","uniform","NA","NA","NA","undefined","undefined","1","0","74","74","74","0","74","74","74","NA","0","74","NA","NA","0","74","NA","74","0","74","NA","NA","NA","74","0","0","NA","74","74","74","74","74","75","/","Thu Feb 15 15:25:52 2024","The main experiment item","yes","m21-ab-lexicalDecision.osexp","C:\Users\ekealey\Desktop","no","mono","no","18","no","white","no","yes","1080","legacy","74","74","C:/Users/ekealey/Desktop/subject-237.csv","xpyriment","Lentiform Loewenfeld","3.3.11","0","space","space","NA","NA","NA","space","/","12093","12093","NA","NA","NA","94275","434","2","legacy","1024","2","48000","-16","AB_m21","237","odd","CW_L","CONDUCTOR","1929","403035","399925","401532","96216","403440","NA","NA","NA","NA","400426","NA","NA","NA","399424","NA","399397","1940","415534","NA","NA","NA","400467","1930","1930","NA","400902","400927","399397","400426","400447","morph21_Oliver/Morris","67","42435","75","yes","1920","44"
"250","89.47368421052632","89.47368421052632","569.7236842105264","569.7236842105264","black","no","xpyriment","legacy","legacy","0","206","NA","uniform","NA","NA","NA","1","undefined","1","0","75","75","75","0","75","75","75","NA","0","75","NA","NA","0","75","NA","75","0","75","NA","NA","NA","75","0","0","NA","75","75","75","75","75","76","z","Thu Feb 15 15:25:52 2024","The main experiment item","yes","m21-ab-lexicalDecision.osexp","C:\Users\ekealey\Desktop","no","mono","no","18","no","white","no","yes","1080","legacy","75","75","C:/Users/ekealey/Desktop/subject-237.csv","xpyriment","Lentiform Loewenfeld","3.3.11","0","z","space","NA","NA","NA","space","z","864","12093","NA","NA","NA","94275","864","2","legacy","1024","2","48000","-16","AB_m21","237","odd","NW_L_SIMP"," DRESSODY","1929","419153","417121","401532","96216","403440","NA","NA","NA","NA","417622","NA","NA","NA","416621","NA","416591","1940","419403","NA","NA","NA","417662","1930","1930","NA","418527","418550","416591","417622","417642","morph21_Oliver/Morris","68","43299","76","yes","1920","21"
"400","89.6103896103896","89.6103896103896","570.2727272727273","570.2727272727273","black","no","xpyriment","legacy","legacy","0","205","NA","uniform","NA","NA","NA","1","undefined","1","0","76","76","76","0","76","76","76","NA","0","76","NA","NA","0","76","NA","76","0","76","NA","NA","NA","76","0","0","NA","76","76","76","76","76","77","z","Thu Feb 15 15:25:52 2024","The main experiment item","yes","m21-ab-lexicalDecision.osexp","C:\Users\ekealey\Desktop","no","mono","no","18","no","white","no","yes","1080","legacy","76","76","C:/Users/ekealey/Desktop/subject-237.csv","xpyriment","Lentiform Loewenfeld","3.3.11","0","z","space","NA","NA","NA","space","z","612","12093","NA","NA","NA","94275","612","2","legacy","1024","2","48000","-16","AB_m21","237","odd","NW_S_SIMP","AIDIG","1929","422745","420963","401532","96216","403440","NA","NA","NA","NA","421465","NA","NA","NA","420461","NA","420436","1940","423145","NA","NA","NA","421505","1930","1930","NA","422118","422142","420436","421465","421485","morph21_Oliver/Morris","69","43911","77","yes","1920","4"
"250","89.74358974358974","89.74358974358974","568.7948717948718","568.7948717948718","black","no","xpyriment","legacy","legacy","0","204","NA","uniform","NA","NA","NA","1","undefined","1","0","77","77","77","0","77","77","77","NA","0","77","NA","NA","0","77","NA","77","0","77","NA","NA","NA","77","0","0","NA","77","77","77","77","77","78","z","Thu Feb 15 15:25:52 2024","The main experiment item","yes","m21-ab-lexicalDecision.osexp","C:\Users\ekealey\Desktop","no","mono","no","18","no","white","no","yes","1080","legacy","77","77","C:/Users/ekealey/Desktop/subject-237.csv","xpyriment","Lentiform Loewenfeld","3.3.11","0","z","space","NA","NA","NA","space","z","455","12093","NA","NA","NA","94275","455","2","legacy","1024","2","48000","-16","AB_m21","237","odd","NW_L_COMP","STIRANCE","1929","427859","424727","426355","96216","403440","NA","NA","NA","NA","425230","NA","NA","NA","424226","NA","424201","1940","428109","NA","NA","NA","425270","1930","1930","NA","425726","425752","424201","425230","425250","morph21_Oliver/Morris","70","44366","78","yes","1920","1"
"400","89.87341772151899","89.87341772151899","569.9367088607595","569.9367088607595","black","no","xpyriment","legacy","legacy","0","206","NA","uniform","NA","NA","NA","1","undefined","1","0","78","78","78","0","78","78","78","NA","0","78","NA","NA","0","78","NA","78","0","78","NA","NA","NA","78","0","0","NA","78","78","78","78","78","79","z","Thu Feb 15 15:25:52 2024","The main experiment item","yes","m21-ab-lexicalDecision.osexp","C:\Users\ekealey\Desktop","no","mono","no","18","no","white","no","yes","1080","legacy","78","78","C:/Users/ekealey/Desktop/subject-237.csv","xpyriment","Lentiform Loewenfeld","3.3.11","0","z","space","NA","NA","NA","space","z","659","12093","NA","NA","NA","94275","659","2","legacy","1024","2","48000","-16","AB_m21","237","odd","NW_L_SIMP","BLOODEL","1929","431489","429660","426355","96216","403440","NA","NA","NA","NA","430162","NA","NA","NA","429160","NA","429135","1940","431889","NA","NA","NA","430202","1930","1930","NA","430862","430886","429135","430162","430182","morph21_Oliver/Morris","71","45025","79","yes","1920","24"
"400","90","90","570.3125","570.3125","black","no","xpyriment","legacy","legacy","0","202","NA","uniform","NA","NA","NA","1","undefined","1","0","79","79","79","0","79","79","79","NA","0","79","NA","NA","0","79","NA","79","0","79","NA","NA","NA","79","0","0","NA","79","79","79","79","79","80","/","Thu Feb 15 15:25:52 2024","The main experiment item","yes","m21-ab-lexicalDecision.osexp","C:\Users\ekealey\Desktop","no","mono","no","18","no","white","no","yes","1080","legacy","79","79","C:/Users/ekealey/Desktop/subject-237.csv","xpyriment","Lentiform Loewenfeld","3.3.11","0","/","space","NA","NA","NA","space","/","600","12093","NA","NA","NA","94275","600","2","legacy","1024","2","48000","-16","AB_m21","237","odd","CW_L","CLOUDLESS","1929","435209","433441","426355","96216","403440","NA","NA","NA","NA","433941","NA","NA","NA","432941","NA","432912","1940","435609","NA","NA","NA","433982","1930","1930","NA","434582","434606","432912","433941","433962","morph21_Oliver/Morris","72","45625","80","yes","1920","33"
"300","90.12345679012346","90.12345679012346","569.925925925926","569.925925925926","black","no","xpyriment","legacy","legacy","0","202","NA","uniform","NA","NA","NA","1","undefined","1","0","80","80","80","0","80","80","80","NA","0","80","NA","NA","0","80","NA","80","0","80","NA","NA","NA","80","0","0","NA","80","80","80","80","80","81","/","Thu Feb 15 15:25:52 2024","The main experiment item","yes","m21-ab-lexicalDecision.osexp","C:\Users\ekealey\Desktop","no","mono","no","18","no","white","no","yes","1080","legacy","80","80","C:/Users/ekealey/Desktop/subject-237.csv","xpyriment","Lentiform Loewenfeld","3.3.11","0","/","space","NA","NA","NA","space","/","539","12093","NA","NA","NA","94275","539","2","legacy","1024","2","48000","-16","AB_m21","237","odd","CW_L","DAMPISH","1929","440394","437182","438890","96216","403440","NA","NA","NA","NA","437682","NA","NA","NA","436682","NA","436652","1940","440695","NA","NA","NA","437722","1930","1930","NA","438262","438286","436652","437682","437702","morph21_Oliver/Morris","73","46164","81","yes","1920","28"
"300","90.2439024390244","90.2439024390244","570.1585365853658","570.1585365853658","black","no","xpyriment","legacy","legacy","0","206","NA","uniform","NA","NA","NA","1","undefined","1","0","81","81","81","0","81","81","81","NA","0","81","NA","NA","0","81","NA","81","0","81","NA","NA","NA","81","0","0","NA","81","81","81","81","81","82","z","Thu Feb 15 15:25:52 2024","The main experiment item","yes","m21-ab-lexicalDecision.osexp","C:\Users\ekealey\Desktop","no","mono","no","18","no","white","no","yes","1080","legacy","81","81","C:/Users/ekealey/Desktop/subject-237.csv","xpyriment","Lentiform Loewenfeld","3.3.11","0","z","space","NA","NA","NA","space","z","589","12093","NA","NA","NA","94275","589","2","legacy","1024","2","48000","-16","AB_m21","237","odd","NW_L_SIMP","EARILT","1929","444028","442268","438890","96216","403440","NA","NA","NA","NA","442769","NA","NA","NA","441767","NA","441739","1940","444328","NA","NA","NA","442809","1930","1930","NA","443400","443423","441739","442769","442789","morph21_Oliver/Morris","74","46753","82","yes","1920","12"
"350","90.36144578313252","90.36144578313252","569.3253012048193","569.3253012048193","black","no","xpyriment","legacy","legacy","0","202","NA","uniform","NA","NA","NA","1","undefined","1","0","82","82","82","0","82","82","82","NA","0","82","NA","NA","0","82","NA","82","0","82","NA","NA","NA","82","0","0","NA","82","82","82","82","82","83","/","Thu Feb 15 15:25:52 2024","The main experiment item","yes","m21-ab-lexicalDecision.osexp","C:\Users\ekealey\Desktop","no","mono","no","18","no","white","no","yes","1080","legacy","82","82","C:/Users/ekealey/Desktop/subject-237.csv","xpyriment","Lentiform Loewenfeld","3.3.11","0","/","space","NA","NA","NA","space","/","501","12093","NA","NA","NA","94275","501","2","legacy","1024","2","48000","-16","AB_m21","237","odd","CW_L","EDITOR","1929","447553","445885","438890","96216","403440","NA","NA","NA","NA","446385","NA","NA","NA","445384","NA","445356","1940","447903","NA","NA","NA","446425","1930","1930","NA","446926","446950","445356","446385","446405","morph21_Oliver/Morris","75","47254","83","yes","1920","45"
"300","90.47619047619048","90.47619047619048","568.4285714285714","568.4285714285714","black","no","xpyriment","legacy","legacy","0","206","NA","uniform","NA","NA","NA","1","undefined","1","0","83","83","83","0","83","83","83","NA","0","83","NA","NA","0","83","NA","83","0","83","NA","NA","NA","83","0","0","NA","83","83","83","83","83","84","z","Thu Feb 15 15:25:52 2024","The main experiment item","yes","m21-ab-lexicalDecision.osexp","C:\Users\ekealey\Desktop","no","mono","no","18","no","white","no","yes","1080","legacy","83","83","C:/Users/ekealey/Desktop/subject-237.csv","xpyriment","Lentiform Loewenfeld","3.3.11","0","z","space","NA","NA","NA","space","z","494","12093","NA","NA","NA","94275","494","2","legacy","1024","2","48000","-16","AB_m21","237","odd","NW_L_SIMP","PRAYANGE","1929","452657","449491","451153","96216","403440","NA","NA","NA","NA","449991","NA","NA","NA","448991","NA","448966","1940","452957","NA","NA","NA","450032","1930","1930","NA","450527","450550","448966","449991","450012","morph21_Oliver/Morris","76","47748","84","yes","1920","1"
"250","90.58823529411765","90.58823529411765","567.9176470588235","567.9176470588235","black","no","xpyriment","legacy","legacy","0","201","NA","uniform","NA","NA","NA","1","undefined","1","0","84","84","84","0","84","84","84","NA","0","84","NA","NA","0","84","NA","84","0","84","NA","NA","NA","84","0","0","NA","84","84","84","84","84","85","/","Thu Feb 15 15:25:52 2024","The main experiment item","yes","m21-ab-lexicalDecision.osexp","C:\Users\ekealey\Desktop","no","mono","no","18","no","white","no","yes","1080","legacy","84","84","C:/Users/ekealey/Desktop/subject-237.csv","xpyriment","Lentiform Loewenfeld","3.3.11","0","/","space","NA","NA","NA","space","/","525","12093","NA","NA","NA","94275","525","2","legacy","1024","2","48000","-16","AB_m21","237","odd","CW_S","HARMLESS","1929","456186","454491","451153","96216","403440","NA","NA","NA","NA","454991","NA","NA","NA","453991","NA","453962","1940","456436","NA","NA","NA","455032","1930","1930","NA","455558","455582","453962","454991","455012","morph21_Oliver/Morris","77","48273","85","yes","1920","29"
"250","89.53488372093024","89.53488372093024","568.0697674418604","568.0697674418604","black","no","xpyriment","legacy","legacy","0","201","NA","uniform","NA","NA","NA","0","undefined","0","0","85","85","85","0","85","85","85","NA","0","85","NA","NA","0","85","NA","85","0","85","NA","NA","NA","85","0","0","NA","85","85","85","85","85","86","/","Thu Feb 15 15:25:52 2024","The main experiment item","yes","m21-ab-lexicalDecision.osexp","C:\Users\ekealey\Desktop","no","mono","no","18","no","white","no","yes","1080","legacy","85","85","C:/Users/ekealey/Desktop/subject-237.csv","xpyriment","Lentiform Loewenfeld","3.3.11","0","z","space","NA","NA","NA","space","z","581","12093","NA","NA","NA","94275","581","2","legacy","1024","2","48000","-16","AB_m21","237","odd","CW_S","TOSSING","1929","459764","458012","451153","96216","403440","NA","NA","NA","NA","458512","NA","NA","NA","457511","NA","457483","1940","460014","NA","NA","NA","458552","1930","1930","NA","459134","459158","457482","458512","458532","morph21_Oliver/Morris","77","48854","86","yes","1920","26"
"400","89.65517241379311","89.65517241379311","566.9540229885057","566.9540229885057","black","no","xpyriment","legacy","legacy","0","207","NA","uniform","NA","NA","NA","1","undefined","1","0","86","86","86","0","86","86","86","NA","0","86","NA","NA","0","86","NA","86","0","86","NA","NA","NA","86","0","0","NA","86","86","86","86","86","87","/","Thu Feb 15 15:25:52 2024","The main experiment item","yes","m21-ab-lexicalDecision.osexp","C:\Users\ekealey\Desktop","no","mono","no","18","no","white","no","yes","1080","legacy","86","86","C:/Users/ekealey/Desktop/subject-237.csv","xpyriment","Lentiform Loewenfeld","3.3.11","0","/","space","NA","NA","NA","space","/","471","12093","NA","NA","NA","94275","471","2","legacy","1024","2","48000","-16","AB_m21","237","odd","FILL_W","STEEP","1929","464718","461578","463215","96216","403440","NA","NA","NA","NA","462078","NA","NA","NA","461078","NA","461050","1940","465118","NA","NA","NA","462118","1930","1930","NA","462590","462613","461050","462078","462098","morph21_Oliver/Morris","78","49325","87","yes","1920","16"
"400","89.77272727272727","89.77272727272727","567.375","567.375","black","no","xpyriment","legacy","legacy","0","202","NA","uniform","NA","NA","NA","1","undefined","1","0","87","87","87","0","87","87","87","NA","0","87","NA","NA","0","87","NA","87","0","87","NA","NA","NA","87","0","0","NA","87","87","87","87","87","88","/","Thu Feb 15 15:25:52 2024","The main experiment item","yes","m21-ab-lexicalDecision.osexp","C:\Users\ekealey\Desktop","no","mono","no","18","no","white","no","yes","1080","legacy","87","87","C:/Users/ekealey/Desktop/subject-237.csv","xpyriment","Lentiform Loewenfeld","3.3.11","0","/","space","NA","NA","NA","space","/","604","12093","NA","NA","NA","94275","604","2","legacy","1024","2","48000","-16","AB_m21","237","odd","CW_L","SPELLER","1929","468450","466677","463215","96216","403440","NA","NA","NA","NA","467177","NA","NA","NA","466177","NA","466145","1940","468851","NA","NA","NA","467217","1930","1930","NA","467822","467847","466145","467177","467197","morph21_Oliver/Morris","79","49929","88","yes","1920","3"
"200","89.88764044943821","89.88764044943821","567.1011235955057","567.1011235955057","black","no","xpyriment","legacy","legacy","0","202","NA","uniform","NA","NA","NA","1","undefined","1","0","88","88","88","0","88","88","88","NA","0","88","NA","NA","0","88","NA","88","0","88","NA","NA","NA","88","0","0","NA","88","88","88","88","88","89","/","Thu Feb 15 15:25:52 2024","The main experiment item","yes","m21-ab-lexicalDecision.osexp","C:\Users\ekealey\Desktop","no","mono","no","18","no","white","no","yes","1080","legacy","88","88","C:/Users/ekealey/Desktop/subject-237.csv","xpyriment","Lentiform Loewenfeld","3.3.11","0","/","space","NA","NA","NA","space","/","543","12093","NA","NA","NA","94275","543","2","legacy","1024","2","48000","-16","AB_m21","237","odd","CW_L","COLLECTOR","1929","472113","470399","463215","96216","403440","NA","NA","NA","NA","470900","NA","NA","NA","469898","NA","469872","1940","472313","NA","NA","NA","470942","1930","1930","NA","471486","471509","469872","470900","470921","morph21_Oliver/Morris","80","50472","89","yes","1920","46"
"400","90","90","565.8666666666667","565.8666666666667","black","no","xpyriment","legacy","legacy","0","201","NA","uniform","NA","NA","NA","1","undefined","1","0","89","89","89","0","89","89","89","NA","0","89","NA","NA","0","89","NA","89","0","89","NA","NA","NA","89","0","0","NA","89","89","89","89","89","90","/","Thu Feb 15 15:25:52 2024","The main experiment item","yes","m21-ab-lexicalDecision.osexp","C:\Users\ekealey\Desktop","no","mono","no","18","no","white","no","yes","1080","legacy","89","89","C:/Users/ekealey/Desktop/subject-237.csv","xpyriment","Lentiform Loewenfeld","3.3.11","0","/","space","NA","NA","NA","space","/","456","12093","NA","NA","NA","94275","456","2","legacy","1024","2","48000","-16","AB_m21","237","odd","CW_S","RAIDER","1929","477010","473881","475507","96216","403440","NA","NA","NA","NA","474381","NA","NA","NA","473381","NA","473352","1940","477410","NA","NA","NA","474422","1930","1930","NA","474878","474903","473352","474381","474402","morph21_Oliver/Morris","81","50928","90","yes","1920","12"
"200","90.10989010989012","90.10989010989012","565.5714285714286","565.5714285714286","black","no","xpyriment","legacy","legacy","0","201","NA","uniform","NA","NA","NA","1","undefined","1","0","90","90","90","0","90","90","90","NA","0","90","NA","NA","0","90","NA","90","0","90","NA","NA","NA","90","0","0","NA","90","90","90","90","90","91","/","Thu Feb 15 15:25:52 2024","The main experiment item","yes","m21-ab-lexicalDecision.osexp","C:\Users\ekealey\Desktop","no","mono","no","18","no","white","no","yes","1080","legacy","90","90","C:/Users/ekealey/Desktop/subject-237.csv","xpyriment","Lentiform Loewenfeld","3.3.11","0","/","space","NA","NA","NA","space","/","539","12093","NA","NA","NA","94275","539","2","legacy","1024","2","48000","-16","AB_m21","237","odd","CW_S","BOLDNESS","1929","480682","478973","475507","96216","403440","NA","NA","NA","NA","479473","NA","NA","NA","478473","NA","478439","1940","480882","NA","NA","NA","479514","1930","1930","NA","480054","480079","478439","479473","479494","morph21_Oliver/Morris","82","51467","91","yes","1920","41"
"400","89.1304347826087","89.1304347826087","565.3913043478261","565.3913043478261","black","no","xpyriment","legacy","legacy","0","204","NA","uniform","NA","NA","NA","0","undefined","0","0","91","91","91","0","91","91","91","NA","0","91","NA","NA","0","91","NA","91","0","91","NA","NA","NA","91","0","0","NA","91","91","91","91","91","92","z","Thu Feb 15 15:25:52 2024","The main experiment item","yes","m21-ab-lexicalDecision.osexp","C:\Users\ekealey\Desktop","no","mono","no","18","no","white","no","yes","1080","legacy","91","91","C:/Users/ekealey/Desktop/subject-237.csv","xpyriment","Lentiform Loewenfeld","3.3.11","0","/","space","NA","NA","NA","space","/","549","12093","NA","NA","NA","94275","549","2","legacy","1024","2","48000","-16","AB_m21","237","odd","NW_L_COMP","ANGELISH","1929","484162","482442","475507","96216","403440","NA","NA","NA","NA","482943","NA","NA","NA","481941","NA","481914","1940","484562","NA","NA","NA","482984","1930","1930","NA","483534","483558","481914","482943","482963","morph21_Oliver/Morris","82","52016","92","yes","1920","7"
