"ITI","acc","accuracy","average_response_time","avg_rt","background","bidi","canvas_backend","clock_backend","color_backend","compensation","cond_trig","condtrigtime","coordinates","coroutines_cycles","coroutines_duration","coroutines_mean_cycle_duration","correct","correct_instructions_1","correct_new_keyboard_response_1","count_AB_m21","count_ITI","count_blank_screen","count_blink_screen","count_block1","count_break1","count_break2","count_break3_1","count_canvas","count_close_port","count_cond_trigger","count_correct_trigger","count_def_chain","count_end_screen","count_fixation_1","count_getting_started","count_inc_counter","count_instructions_1","count_logger","count_logscript","count_new_inline_script","count_new_inline_script_2","count_new_keyboard_response_1","count_open_port","count_reset_counter_prep","count_reset_counter_run","count_response_trigger_trial","count_responsescreen","count_sequence","count_target_present","count_word_trigger","counter","cresp","datetime","description","disable_garbage_collection","experiment_file","experiment_path","font_bold","font_family","font_italic","font_size","font_underline","foreground","form_clicks","fullscreen","height","keyboard_backend","live_row","live_row_block1","logfile","mouse_backend","opensesame_codename","opensesame_version","repeat_cycle","response","response_break1","response_break2","response_break3_1","response_end_screen","response_instructions_1","response_new_keyboard_response_1","response_time","response_time_break1","response_time_break2","response_time_break3_1","response_time_end_screen","response_time_instructions_1","response_time_new_keyboard_response_1","round_decimals","sampler_backend","sound_buf_size","sound_channels","sound_freq","sound_sample_size","start","subject_nr","subject_parity","targ_type","target","time_AB_m21","time_ITI","time_blank_screen","time_blink_screen","time_block1","time_break1","time_break2","time_break3_1","time_canvas","time_close_port","time_cond_trigger","time_correct_trigger","time_def_chain","time_end_screen","time_fixation_1","time_getting_started","time_inc_counter","time_instructions_1","time_logger","time_logscript","time_new_inline_script","time_new_inline_script_2","time_new_keyboard_response_1","time_open_port","time_reset_counter_prep","time_reset_counter_run","time_response_trigger_trial","time_responsescreen","time_sequence","time_target_present","time_word_trigger","title","total_correct","total_response_time","total_responses","uniform_coordinates","width","word_trig"
"250","0","0","1200","1200","black","no","xpyriment","legacy","legacy","0","202","NA","uniform","NA","NA","NA","0","undefined","0","0","0","0","0","0","0","0","0","NA","0","0","NA","NA","0","0","NA","0","0","0","NA","NA","NA","0","0","0","NA","0","0","0","0","0","1","/","Wed Jul  5 09:40:54 2023","The main experiment item","yes","m21-ab-lexicalDecision.osexp","C:\Users\emoore8\Desktop\m21_vsl-main","no","mono","no","18","no","white","no","yes","1080","legacy","0","0","C:/Users/emoore8/Desktop/m21_vsl-main/subject-213.csv","xpyriment","Lentiform Loewenfeld","3.3.11","0","None","NA","NA","NA","NA","return","None","1200","NA","NA","NA","NA","12257","1200","2","legacy","1024","2","48000","-16","AB_m21","213","odd","CW_L","PUSHER","2253","18746","16375","NA","14521","NA","NA","NA","NA","NA","16876","NA","NA","NA","15873","NA","15816","2262","18996","NA","NA","NA","16917","2254","2254","NA","18117","18140","15814","16876","16897","morph21_Oliver/Morris","0","1200","1","yes","1920","13"
"400","50","50","1001","1001","black","no","xpyriment","legacy","legacy","0","202","NA","uniform","NA","NA","NA","1","undefined","1","0","1","1","1","0","1","1","1","NA","0","1","NA","NA","0","1","NA","1","0","1","NA","NA","NA","1","0","0","NA","1","1","1","1","1","2","/","Wed Jul  5 09:40:54 2023","The main experiment item","yes","m21-ab-lexicalDecision.osexp","C:\Users\emoore8\Desktop\m21_vsl-main","no","mono","no","18","no","white","no","yes","1080","legacy","1","1","C:/Users/emoore8/Desktop/m21_vsl-main/subject-213.csv","xpyriment","Lentiform Loewenfeld","3.3.11","0","/","NA","NA","NA","NA","return","/","802","NA","NA","NA","NA","12257","802","2","legacy","1024","2","48000","-16","AB_m21","213","odd","CW_L","LOCKER","2253","22539","20568","NA","14521","NA","NA","NA","NA","NA","21068","NA","NA","NA","20068","NA","20037","2262","22939","NA","NA","NA","21109","2254","2254","NA","21911","21936","20037","21068","21089","morph21_Oliver/Morris","1","2002","2","yes","1920","8"
"200","66.66666666666667","66.66666666666667","995","995","black","no","xpyriment","legacy","legacy","0","207","NA","uniform","NA","NA","NA","1","undefined","1","0","2","2","2","0","2","2","2","NA","0","2","NA","NA","0","2","NA","2","0","2","NA","NA","NA","2","0","0","NA","2","2","2","2","2","3","/","Wed Jul  5 09:40:54 2023","The main experiment item","yes","m21-ab-lexicalDecision.osexp","C:\Users\emoore8\Desktop\m21_vsl-main","no","mono","no","18","no","white","no","yes","1080","legacy","2","2","C:/Users/emoore8/Desktop/m21_vsl-main/subject-213.csv","xpyriment","Lentiform Loewenfeld","3.3.11","0","/","NA","NA","NA","NA","return","/","983","NA","NA","NA","NA","12257","983","2","legacy","1024","2","48000","-16","AB_m21","213","odd","FILL_W","FLESH","2253","28147","24490","26641","14521","NA","NA","NA","NA","NA","24990","NA","NA","NA","23989","NA","23961","2262","28347","NA","NA","NA","25032","2254","2254","NA","26015","26038","23961","24990","25011","morph21_Oliver/Morris","2","2985","3","yes","1920","32"
"200","75","75","961.75","961.75","black","no","xpyriment","legacy","legacy","0","208","NA","uniform","NA","NA","NA","1","undefined","1","0","3","3","3","0","3","3","3","NA","0","3","NA","NA","0","3","NA","3","0","3","NA","NA","NA","3","0","0","NA","3","3","3","3","3","4","z","Wed Jul  5 09:40:54 2023","The main experiment item","yes","m21-ab-lexicalDecision.osexp","C:\Users\emoore8\Desktop\m21_vsl-main","no","mono","no","18","no","white","no","yes","1080","legacy","3","3","C:/Users/emoore8/Desktop/m21_vsl-main/subject-213.csv","xpyriment","Lentiform Loewenfeld","3.3.11","0","z","NA","NA","NA","NA","return","z","862","NA","NA","NA","NA","12257","862","2","legacy","1024","2","48000","-16","AB_m21","213","odd","FILL_NW","FROT","2253","31918","29881","26641","14521","NA","NA","NA","NA","NA","30383","NA","NA","NA","29380","NA","29355","2262","32118","NA","NA","NA","30425","2254","2254","NA","31288","31314","29355","30383","30404","morph21_Oliver/Morris","3","3847","4","yes","1920","22"
"250","80","80","924.2","924.2","black","no","xpyriment","legacy","legacy","0","201","NA","uniform","NA","NA","NA","1","undefined","1","0","4","4","4","0","4","4","4","NA","0","4","NA","NA","0","4","NA","4","0","4","NA","NA","NA","4","0","0","NA","4","4","4","4","4","5","/","Wed Jul  5 09:40:54 2023","The main experiment item","yes","m21-ab-lexicalDecision.osexp","C:\Users\emoore8\Desktop\m21_vsl-main","no","mono","no","18","no","white","no","yes","1080","legacy","4","4","C:/Users/emoore8/Desktop/m21_vsl-main/subject-213.csv","xpyriment","Lentiform Loewenfeld","3.3.11","0","/","NA","NA","NA","NA","return","/","774","NA","NA","NA","NA","12257","774","2","legacy","1024","2","48000","-16","AB_m21","213","odd","CW_S","TOSSING","2253","35570","33629","26641","14521","NA","NA","NA","NA","NA","34129","NA","NA","NA","33128","NA","33101","2262","35820","NA","NA","NA","34169","2254","2254","NA","34944","34967","33101","34129","34149","morph21_Oliver/Morris","4","4621","5","yes","1920","26"
"300","66.66666666666667","66.66666666666667","891","891","black","no","xpyriment","legacy","legacy","0","204","NA","uniform","NA","NA","NA","0","undefined","0","0","5","5","5","0","5","5","5","NA","0","5","NA","NA","0","5","NA","5","0","5","NA","NA","NA","5","0","0","NA","5","5","5","5","5","6","z","Wed Jul  5 09:40:54 2023","The main experiment item","yes","m21-ab-lexicalDecision.osexp","C:\Users\emoore8\Desktop\m21_vsl-main","no","mono","no","18","no","white","no","yes","1080","legacy","5","5","C:/Users/emoore8/Desktop/m21_vsl-main/subject-213.csv","xpyriment","Lentiform Loewenfeld","3.3.11","0","/","NA","NA","NA","NA","return","/","725","NA","NA","NA","NA","12257","725","2","legacy","1024","2","48000","-16","AB_m21","213","odd","NW_L_COMP","BINDIC","2253","40736","37339","39234","14521","NA","NA","NA","NA","NA","37841","NA","NA","NA","36839","NA","36815","2262","41036","NA","NA","NA","37882","2254","2254","NA","38608","38631","36815","37841","37862","morph21_Oliver/Morris","4","5346","6","yes","1920","22"
"250","57.142857142857146","57.142857142857146","927.8571428571429","927.8571428571429","black","no","xpyriment","legacy","legacy","0","203","NA","uniform","NA","NA","NA","0","undefined","0","0","6","6","6","0","6","6","6","NA","0","6","NA","NA","0","6","NA","6","0","6","NA","NA","NA","6","0","0","NA","6","6","6","6","6","7","z","Wed Jul  5 09:40:54 2023","The main experiment item","yes","m21-ab-lexicalDecision.osexp","C:\Users\emoore8\Desktop\m21_vsl-main","no","mono","no","18","no","white","no","yes","1080","legacy","6","6","C:/Users/emoore8/Desktop/m21_vsl-main/subject-213.csv","xpyriment","Lentiform Loewenfeld","3.3.11","0","/","NA","NA","NA","NA","return","/","1149","NA","NA","NA","NA","12257","1149","2","legacy","1024","2","48000","-16","AB_m21","213","odd","NW_S_COMP","TREASONIZE","2253","44866","42548","39234","14521","NA","NA","NA","NA","NA","43049","NA","NA","NA","42047","NA","42024","2262","45117","NA","NA","NA","43090","2254","2254","NA","44239","44263","42023","43049","43070","morph21_Oliver/Morris","4","6495","7","yes","1920","14"
"250","62.5","62.5","943.125","943.125","black","no","xpyriment","legacy","legacy","0","204","NA","uniform","NA","NA","NA","1","undefined","1","0","7","7","7","0","7","7","7","NA","0","7","NA","NA","0","7","NA","7","0","7","NA","NA","NA","7","0","0","NA","7","7","7","7","7","8","z","Wed Jul  5 09:40:54 2023","The main experiment item","yes","m21-ab-lexicalDecision.osexp","C:\Users\emoore8\Desktop\m21_vsl-main","no","mono","no","18","no","white","no","yes","1080","legacy","7","7","C:/Users/emoore8/Desktop/m21_vsl-main/subject-213.csv","xpyriment","Lentiform Loewenfeld","3.3.11","0","z","NA","NA","NA","NA","return","z","1050","NA","NA","NA","NA","12257","1050","2","legacy","1024","2","48000","-16","AB_m21","213","odd","NW_L_COMP","MUDLY","2253","48851","46632","39234","14521","NA","NA","NA","NA","NA","47133","NA","NA","NA","46132","NA","46104","2262","49101","NA","NA","NA","47173","2254","2254","NA","48223","48248","46104","47133","47153","morph21_Oliver/Morris","5","7545","8","yes","1920","12"
"350","66.66666666666667","66.66666666666667","947.8888888888889","947.8888888888889","black","no","xpyriment","legacy","legacy","0","203","NA","uniform","NA","NA","NA","1","undefined","1","0","8","8","8","0","8","8","8","NA","0","8","NA","NA","0","8","NA","8","0","8","NA","NA","NA","8","0","0","NA","8","8","8","8","8","9","z","Wed Jul  5 09:40:54 2023","The main experiment item","yes","m21-ab-lexicalDecision.osexp","C:\Users\emoore8\Desktop\m21_vsl-main","no","mono","no","18","no","white","no","yes","1080","legacy","8","8","C:/Users/emoore8/Desktop/m21_vsl-main/subject-213.csv","xpyriment","Lentiform Loewenfeld","3.3.11","0","z","NA","NA","NA","NA","return","z","986","NA","NA","NA","NA","12257","986","2","legacy","1024","2","48000","-16","AB_m21","213","odd","NW_S_COMP","WELDIC","2253","54260","50600","52755","14521","NA","NA","NA","NA","NA","51100","NA","NA","NA","50100","NA","50071","2262","54611","NA","NA","NA","51141","2254","2254","NA","52128","52152","50071","51100","51121","morph21_Oliver/Morris","6","8531","9","yes","1920","21"
"200","70","70","968.9","968.9","black","no","xpyriment","legacy","legacy","0","201","NA","uniform","NA","NA","NA","1","undefined","1","0","9","9","9","0","9","9","9","NA","0","9","NA","NA","0","9","NA","9","0","9","NA","NA","NA","9","0","0","NA","9","9","9","9","9","10","/","Wed Jul  5 09:40:54 2023","The main experiment item","yes","m21-ab-lexicalDecision.osexp","C:\Users\emoore8\Desktop\m21_vsl-main","no","mono","no","18","no","white","no","yes","1080","legacy","9","9","C:/Users/emoore8/Desktop/m21_vsl-main/subject-213.csv","xpyriment","Lentiform Loewenfeld","3.3.11","0","/","NA","NA","NA","NA","return","/","1158","NA","NA","NA","NA","12257","1158","2","legacy","1024","2","48000","-16","AB_m21","213","odd","CW_S","LISTENER","2253","58466","56139","52755","14521","NA","NA","NA","NA","NA","56640","NA","NA","NA","55639","NA","55615","2262","58666","NA","NA","NA","56681","2254","2254","NA","57840","57863","55615","56640","56661","morph21_Oliver/Morris","7","9689","10","yes","1920","18"
"400","72.72727272727273","72.72727272727273","967.5454545454545","967.5454545454545","black","no","xpyriment","legacy","legacy","0","201","NA","uniform","NA","NA","NA","1","undefined","1","0","10","10","10","0","10","10","10","NA","0","10","NA","NA","0","10","NA","10","0","10","NA","NA","NA","10","0","0","NA","10","10","10","10","10","11","/","Wed Jul  5 09:40:54 2023","The main experiment item","yes","m21-ab-lexicalDecision.osexp","C:\Users\emoore8\Desktop\m21_vsl-main","no","mono","no","18","no","white","no","yes","1080","legacy","10","10","C:/Users/emoore8/Desktop/m21_vsl-main/subject-213.csv","xpyriment","Lentiform Loewenfeld","3.3.11","0","/","NA","NA","NA","NA","return","/","954","NA","NA","NA","NA","12257","954","2","legacy","1024","2","48000","-16","AB_m21","213","odd","CW_S","EFFORTLESS","2253","62292","60168","52755","14521","NA","NA","NA","NA","NA","60668","NA","NA","NA","59668","NA","59642","2262","62692","NA","NA","NA","60709","2254","2254","NA","61663","61688","59642","60668","60689","morph21_Oliver/Morris","8","10643","11","yes","1920","30"
"250","66.66666666666667","66.66666666666667","986.9166666666666","986.9166666666666","black","no","xpyriment","legacy","legacy","0","204","NA","uniform","NA","NA","NA","0","undefined","0","0","11","11","11","0","11","11","11","NA","0","11","NA","NA","0","11","NA","11","0","11","NA","NA","NA","11","0","0","NA","11","11","11","11","11","12","z","Wed Jul  5 09:40:54 2023","The main experiment item","yes","m21-ab-lexicalDecision.osexp","C:\Users\emoore8\Desktop\m21_vsl-main","no","mono","no","18","no","white","no","yes","1080","legacy","11","11","C:/Users/emoore8/Desktop/m21_vsl-main/subject-213.csv","xpyriment","Lentiform Loewenfeld","3.3.11","0","None","NA","NA","NA","NA","return","None","1200","NA","NA","NA","NA","12257","1200","2","legacy","1024","2","48000","-16","AB_m21","213","odd","NW_L_COMP","BREAKITY","2253","68072","64198","66567","14521","NA","NA","NA","NA","NA","64698","NA","NA","NA","63698","NA","63672","2262","68322","NA","NA","NA","64739","2254","2254","NA","65939","65964","63672","64698","64719","morph21_Oliver/Morris","8","11843","12","yes","1920","23"
"350","69.23076923076923","69.23076923076923","972.4615384615385","972.4615384615385","black","no","xpyriment","legacy","legacy","0","208","NA","uniform","NA","NA","NA","1","undefined","1","0","12","12","12","0","12","12","12","NA","0","12","NA","NA","0","12","NA","12","0","12","NA","NA","NA","12","0","0","NA","12","12","12","12","12","13","z","Wed Jul  5 09:40:54 2023","The main experiment item","yes","m21-ab-lexicalDecision.osexp","C:\Users\emoore8\Desktop\m21_vsl-main","no","mono","no","18","no","white","no","yes","1080","legacy","12","12","C:/Users/emoore8/Desktop/m21_vsl-main/subject-213.csv","xpyriment","Lentiform Loewenfeld","3.3.11","0","z","NA","NA","NA","NA","return","z","799","NA","NA","NA","NA","12257","799","2","legacy","1024","2","48000","-16","AB_m21","213","odd","FILL_NW","HEAS","2253","71812","69842","66567","14521","NA","NA","NA","NA","NA","70343","NA","NA","NA","69341","NA","69319","2262","72162","NA","NA","NA","70384","2254","2254","NA","71183","71208","69319","70343","70364","morph21_Oliver/Morris","9","12642","13","yes","1920","26"
"250","71.42857142857143","71.42857142857143","955.7857142857143","955.7857142857143","black","no","xpyriment","legacy","legacy","0","207","NA","uniform","NA","NA","NA","1","undefined","1","0","13","13","13","0","13","13","13","NA","0","13","NA","NA","0","13","NA","13","0","13","NA","NA","NA","13","0","0","NA","13","13","13","13","13","14","/","Wed Jul  5 09:40:54 2023","The main experiment item","yes","m21-ab-lexicalDecision.osexp","C:\Users\emoore8\Desktop\m21_vsl-main","no","mono","no","18","no","white","no","yes","1080","legacy","13","13","C:/Users/emoore8/Desktop/m21_vsl-main/subject-213.csv","xpyriment","Lentiform Loewenfeld","3.3.11","0","/","NA","NA","NA","NA","return","/","739","NA","NA","NA","NA","12257","739","2","legacy","1024","2","48000","-16","AB_m21","213","odd","FILL_W","SLIM","2253","75603","73695","66567","14521","NA","NA","NA","NA","NA","74195","NA","NA","NA","73195","NA","73168","2262","75854","NA","NA","NA","74236","2254","2254","NA","74976","75000","73168","74195","74216","morph21_Oliver/Morris","10","13381","14","yes","1920","6"
"250","73.33333333333333","73.33333333333333","935.2666666666667","935.2666666666667","black","no","xpyriment","legacy","legacy","0","208","NA","uniform","NA","NA","NA","1","undefined","1","0","14","14","14","0","14","14","14","NA","0","14","NA","NA","0","14","NA","14","0","14","NA","NA","NA","14","0","0","NA","14","14","14","14","14","15","z","Wed Jul  5 09:40:54 2023","The main experiment item","yes","m21-ab-lexicalDecision.osexp","C:\Users\emoore8\Desktop\m21_vsl-main","no","mono","no","18","no","white","no","yes","1080","legacy","14","14","C:/Users/emoore8/Desktop/m21_vsl-main/subject-213.csv","xpyriment","Lentiform Loewenfeld","3.3.11","0","z","NA","NA","NA","NA","return","z","648","NA","NA","NA","NA","12257","648","2","legacy","1024","2","48000","-16","AB_m21","213","odd","FILL_NW","PLAODS","2253","80684","77363","79179","14521","NA","NA","NA","NA","NA","77863","NA","NA","NA","76863","NA","76836","2262","80934","NA","NA","NA","77903","2254","2254","NA","78552","78575","76836","77863","77883","morph21_Oliver/Morris","11","14029","15","yes","1920","37"
"250","75","75","923.875","923.875","black","no","xpyriment","legacy","legacy","0","201","NA","uniform","NA","NA","NA","1","undefined","1","0","15","15","15","0","15","15","15","NA","0","15","NA","NA","0","15","NA","15","0","15","NA","NA","NA","15","0","0","NA","15","15","15","15","15","16","/","Wed Jul  5 09:40:54 2023","The main experiment item","yes","m21-ab-lexicalDecision.osexp","C:\Users\emoore8\Desktop\m21_vsl-main","no","mono","no","18","no","white","no","yes","1080","legacy","15","15","C:/Users/emoore8/Desktop/m21_vsl-main/subject-213.csv","xpyriment","Lentiform Loewenfeld","3.3.11","0","/","NA","NA","NA","NA","return","/","753","NA","NA","NA","NA","12257","753","2","legacy","1024","2","48000","-16","AB_m21","213","odd","CW_S","HARMLESS","2253","84370","82449","79179","14521","NA","NA","NA","NA","NA","82950","NA","NA","NA","81947","NA","81924","2262","84621","NA","NA","NA","82990","2254","2254","NA","83744","83767","81924","82950","82970","morph21_Oliver/Morris","12","14782","16","yes","1920","29"
"350","76.47058823529412","76.47058823529412","908.1176470588235","908.1176470588235","black","no","xpyriment","legacy","legacy","0","208","NA","uniform","NA","NA","NA","1","undefined","1","0","16","16","16","0","16","16","16","NA","0","16","NA","NA","0","16","NA","16","0","16","NA","NA","NA","16","0","0","NA","16","16","16","16","16","17","z","Wed Jul  5 09:40:54 2023","The main experiment item","yes","m21-ab-lexicalDecision.osexp","C:\Users\emoore8\Desktop\m21_vsl-main","no","mono","no","18","no","white","no","yes","1080","legacy","16","16","C:/Users/emoore8/Desktop/m21_vsl-main/subject-213.csv","xpyriment","Lentiform Loewenfeld","3.3.11","0","z","NA","NA","NA","NA","return","z","656","NA","NA","NA","NA","12257","656","2","legacy","1024","2","48000","-16","AB_m21","213","odd","FILL_NW","DELP","2253","88011","86185","79179","14521","NA","NA","NA","NA","NA","86686","NA","NA","NA","85684","NA","85660","2262","88362","NA","NA","NA","86727","2254","2254","NA","87383","87407","85660","86686","86707","morph21_Oliver/Morris","13","15438","17","yes","1920","14"
"350","77.77777777777777","77.77777777777777","890.7777777777778","890.7777777777778","black","no","xpyriment","legacy","legacy","0","202","NA","uniform","NA","NA","NA","1","undefined","1","0","17","17","17","0","17","17","17","NA","0","17","NA","NA","0","17","NA","17","0","17","NA","NA","NA","17","0","0","NA","17","17","17","17","17","18","/","Wed Jul  5 09:40:54 2023","The main experiment item","yes","m21-ab-lexicalDecision.osexp","C:\Users\emoore8\Desktop\m21_vsl-main","no","mono","no","18","no","white","no","yes","1080","legacy","17","17","C:/Users/emoore8/Desktop/m21_vsl-main/subject-213.csv","xpyriment","Lentiform Loewenfeld","3.3.11","0","/","NA","NA","NA","NA","return","/","596","NA","NA","NA","NA","12257","596","2","legacy","1024","2","48000","-16","AB_m21","213","odd","CW_L","BOMBER","2253","93138","89870","91635","14521","NA","NA","NA","NA","NA","90370","NA","NA","NA","89370","NA","89346","2262","93489","NA","NA","NA","90411","2254","2254","NA","91007","91031","89346","90370","90391","morph21_Oliver/Morris","14","16034","18","yes","1920","7"
"350","78.94736842105263","78.94736842105263","879","879","black","no","xpyriment","legacy","legacy","0","201","NA","uniform","NA","NA","NA","1","undefined","1","0","18","18","18","0","18","18","18","NA","0","18","NA","NA","0","18","NA","18","0","18","NA","NA","NA","18","0","0","NA","18","18","18","18","18","19","/","Wed Jul  5 09:40:54 2023","The main experiment item","yes","m21-ab-lexicalDecision.osexp","C:\Users\emoore8\Desktop\m21_vsl-main","no","mono","no","18","no","white","no","yes","1080","legacy","18","18","C:/Users/emoore8/Desktop/m21_vsl-main/subject-213.csv","xpyriment","Lentiform Loewenfeld","3.3.11","0","/","NA","NA","NA","NA","return","/","667","NA","NA","NA","NA","12257","667","2","legacy","1024","2","48000","-16","AB_m21","213","odd","CW_S","CHILLY","2253","96842","95006","91635","14521","NA","NA","NA","NA","NA","95506","NA","NA","NA","94505","NA","94482","2262","97193","NA","NA","NA","95548","2254","2254","NA","96216","96239","94482","95506","95527","morph21_Oliver/Morris","15","16701","19","yes","1920","48"
"250","75","75","871.8","871.8","black","no","xpyriment","legacy","legacy","0","201","NA","uniform","NA","NA","NA","0","undefined","0","0","19","19","19","0","19","19","19","NA","0","19","NA","NA","0","19","NA","19","0","19","NA","NA","NA","19","0","0","NA","19","19","19","19","19","20","/","Wed Jul  5 09:40:54 2023","The main experiment item","yes","m21-ab-lexicalDecision.osexp","C:\Users\emoore8\Desktop\m21_vsl-main","no","mono","no","18","no","white","no","yes","1080","legacy","19","19","C:/Users/emoore8/Desktop/m21_vsl-main/subject-213.csv","xpyriment","Lentiform Loewenfeld","3.3.11","0","z","NA","NA","NA","NA","return","z","735","NA","NA","NA","NA","12257","735","2","legacy","1024","2","48000","-16","AB_m21","213","odd","CW_S","JAILER","2253","100603","98701","91635","14521","NA","NA","NA","NA","NA","99201","NA","NA","NA","98201","NA","98171","2262","100854","NA","NA","NA","99241","2254","2254","NA","99976","100000","98171","99201","99221","morph21_Oliver/Morris","15","17436","20","yes","1920","13"
"300","71.42857142857143","71.42857142857143","857.0952380952381","857.0952380952381","black","no","xpyriment","legacy","legacy","0","208","NA","uniform","NA","NA","NA","0","undefined","0","0","20","20","20","0","20","20","20","NA","0","20","NA","NA","0","20","NA","20","0","20","NA","NA","NA","20","0","0","NA","20","20","20","20","20","21","z","Wed Jul  5 09:40:54 2023","The main experiment item","yes","m21-ab-lexicalDecision.osexp","C:\Users\emoore8\Desktop\m21_vsl-main","no","mono","no","18","no","white","no","yes","1080","legacy","20","20","C:/Users/emoore8/Desktop/m21_vsl-main/subject-213.csv","xpyriment","Lentiform Loewenfeld","3.3.11","0","/","NA","NA","NA","NA","return","/","563","NA","NA","NA","NA","12257","563","2","legacy","1024","2","48000","-16","AB_m21","213","odd","FILL_NW","TREMP","2253","105603","102367","104100","14521","NA","NA","NA","NA","NA","102868","NA","NA","NA","101866","NA","101834","2262","105903","NA","NA","NA","102908","2254","2254","NA","103471","103496","101834","102868","102888","morph21_Oliver/Morris","15","17999","21","yes","1920","20"
"250","68.18181818181819","68.18181818181819","855.3181818181819","855.3181818181819","black","no","xpyriment","legacy","legacy","0","201","NA","uniform","NA","NA","NA","0","undefined","0","0","21","21","21","0","21","21","21","NA","0","21","NA","NA","0","21","NA","21","0","21","NA","NA","NA","21","0","0","NA","21","21","21","21","21","22","/","Wed Jul  5 09:40:54 2023","The main experiment item","yes","m21-ab-lexicalDecision.osexp","C:\Users\emoore8\Desktop\m21_vsl-main","no","mono","no","18","no","white","no","yes","1080","legacy","21","21","C:/Users/emoore8/Desktop/m21_vsl-main/subject-213.csv","xpyriment","Lentiform Loewenfeld","3.3.11","0","z","NA","NA","NA","NA","return","z","818","NA","NA","NA","NA","12257","818","2","legacy","1024","2","48000","-16","AB_m21","213","odd","CW_S","PLANNER","2253","109395","107407","104100","14521","NA","NA","NA","NA","NA","107908","NA","NA","NA","106906","NA","106879","2262","109646","NA","NA","NA","107949","2254","2254","NA","108768","108792","106879","107908","107929","morph21_Oliver/Morris","15","18817","22","yes","1920","22"
"200","69.56521739130434","69.56521739130434","860.7826086956521","860.7826086956521","black","no","xpyriment","legacy","legacy","0","207","NA","uniform","NA","NA","NA","1","undefined","1","0","22","22","22","0","22","22","22","NA","0","22","NA","NA","0","22","NA","22","0","22","NA","NA","NA","22","0","0","NA","22","22","22","22","22","23","/","Wed Jul  5 09:40:54 2023","The main experiment item","yes","m21-ab-lexicalDecision.osexp","C:\Users\emoore8\Desktop\m21_vsl-main","no","mono","no","18","no","white","no","yes","1080","legacy","22","22","C:/Users/emoore8/Desktop/m21_vsl-main/subject-213.csv","xpyriment","Lentiform Loewenfeld","3.3.11","0","/","NA","NA","NA","NA","return","/","981","NA","NA","NA","NA","12257","981","2","legacy","1024","2","48000","-16","AB_m21","213","odd","FILL_W","WRECK","2253","113307","111156","104100","14521","NA","NA","NA","NA","NA","111657","NA","NA","NA","110655","NA","110629","2262","113507","NA","NA","NA","111698","2254","2254","NA","112680","112704","110629","111657","111678","morph21_Oliver/Morris","16","19798","23","yes","1920","13"
"400","70.83333333333333","70.83333333333333","870.125","870.125","black","no","xpyriment","legacy","legacy","0","206","NA","uniform","NA","NA","NA","1","undefined","1","0","23","23","23","0","23","23","23","NA","0","23","NA","NA","0","23","NA","23","0","23","NA","NA","NA","23","0","0","NA","23","23","23","23","23","24","z","Wed Jul  5 09:40:54 2023","The main experiment item","yes","m21-ab-lexicalDecision.osexp","C:\Users\emoore8\Desktop\m21_vsl-main","no","mono","no","18","no","white","no","yes","1080","legacy","23","23","C:/Users/emoore8/Desktop/m21_vsl-main/subject-213.csv","xpyriment","Lentiform Loewenfeld","3.3.11","0","z","NA","NA","NA","NA","return","z","1085","NA","NA","NA","NA","12257","1085","2","legacy","1024","2","48000","-16","AB_m21","213","odd","NW_L_SIMP","CLASSOES","2253","118757","114998","117253","14521","NA","NA","NA","NA","NA","115498","NA","NA","NA","114497","NA","114470","2262","119157","NA","NA","NA","115538","2254","2254","NA","116624","116648","114470","115498","115518","morph21_Oliver/Morris","17","20883","24","yes","1920","18"
"250","72","72","879.32","879.32","black","no","xpyriment","legacy","legacy","0","202","NA","uniform","NA","NA","NA","1","undefined","1","0","24","24","24","0","24","24","24","NA","0","24","NA","NA","0","24","NA","24","0","24","NA","NA","NA","24","0","0","NA","24","24","24","24","24","25","/","Wed Jul  5 09:40:54 2023","The main experiment item","yes","m21-ab-lexicalDecision.osexp","C:\Users\emoore8\Desktop\m21_vsl-main","no","mono","no","18","no","white","no","yes","1080","legacy","24","24","C:/Users/emoore8/Desktop/m21_vsl-main/subject-213.csv","xpyriment","Lentiform Loewenfeld","3.3.11","0","/","NA","NA","NA","NA","return","/","1100","NA","NA","NA","NA","12257","1100","2","legacy","1024","2","48000","-16","AB_m21","213","odd","CW_L","LAUGHING","2253","122938","120671","117253","14521","NA","NA","NA","NA","NA","121171","NA","NA","NA","120169","NA","120141","2262","123188","NA","NA","NA","121211","2254","2254","NA","122311","122335","120141","121171","121191","morph21_Oliver/Morris","18","21983","25","yes","1920","27"
"350","73.07692307692308","73.07692307692308","886.1538461538462","886.1538461538462","black","no","xpyriment","legacy","legacy","0","205","NA","uniform","NA","NA","NA","1","undefined","1","0","25","25","25","0","25","25","25","NA","0","25","NA","NA","0","25","NA","25","0","25","NA","NA","NA","25","0","0","NA","25","25","25","25","25","26","z","Wed Jul  5 09:40:54 2023","The main experiment item","yes","m21-ab-lexicalDecision.osexp","C:\Users\emoore8\Desktop\m21_vsl-main","no","mono","no","18","no","white","no","yes","1080","legacy","25","25","C:/Users/emoore8/Desktop/m21_vsl-main/subject-213.csv","xpyriment","Lentiform Loewenfeld","3.3.11","0","z","NA","NA","NA","NA","return","z","1057","NA","NA","NA","NA","12257","1057","2","legacy","1024","2","48000","-16","AB_m21","213","odd","NW_S_SIMP","ACREMANT","2253","126915","124690","117253","14521","NA","NA","NA","NA","NA","125190","NA","NA","NA","124190","NA","124164","2262","127265","NA","NA","NA","125230","2254","2254","NA","126287","126312","124164","125190","125210","morph21_Oliver/Morris","19","23040","26","yes","1920","16"
"400","74.07407407407408","74.07407407407408","878.6296296296297","878.6296296296297","black","no","xpyriment","legacy","legacy","0","207","NA","uniform","NA","NA","NA","1","undefined","1","0","26","26","26","0","26","26","26","NA","0","26","NA","NA","0","26","NA","26","0","26","NA","NA","NA","26","0","0","NA","26","26","26","26","26","27","/","Wed Jul  5 09:40:54 2023","The main experiment item","yes","m21-ab-lexicalDecision.osexp","C:\Users\emoore8\Desktop\m21_vsl-main","no","mono","no","18","no","white","no","yes","1080","legacy","26","26","C:/Users/emoore8/Desktop/m21_vsl-main/subject-213.csv","xpyriment","Lentiform Loewenfeld","3.3.11","0","/","NA","NA","NA","NA","return","/","683","NA","NA","NA","NA","12257","683","2","legacy","1024","2","48000","-16","AB_m21","213","odd","FILL_W","EAT","2253","132125","128768","130622","14521","NA","NA","NA","NA","NA","129268","NA","NA","NA","128267","NA","128244","2262","132525","NA","NA","NA","129308","2254","2254","NA","129991","130016","128244","129268","129288","morph21_Oliver/Morris","20","23723","27","yes","1920","25"
"300","75","75","885.9285714285714","885.9285714285714","black","no","xpyriment","legacy","legacy","0","202","NA","uniform","NA","NA","NA","1","undefined","1","0","27","27","27","0","27","27","27","NA","0","27","NA","NA","0","27","NA","27","0","27","NA","NA","NA","27","0","0","NA","27","27","27","27","27","28","/","Wed Jul  5 09:40:54 2023","The main experiment item","yes","m21-ab-lexicalDecision.osexp","C:\Users\emoore8\Desktop\m21_vsl-main","no","mono","no","18","no","white","no","yes","1080","legacy","27","27","C:/Users/emoore8/Desktop/m21_vsl-main/subject-213.csv","xpyriment","Lentiform Loewenfeld","3.3.11","0","/","NA","NA","NA","NA","return","/","1083","NA","NA","NA","NA","12257","1083","2","legacy","1024","2","48000","-16","AB_m21","213","odd","CW_L","DOUBTFUL","2253","136285","134031","130622","14521","NA","NA","NA","NA","NA","134531","NA","NA","NA","133531","NA","133503","2262","136585","NA","NA","NA","134572","2254","2254","NA","135656","135681","133503","134531","134552","morph21_Oliver/Morris","21","24806","28","yes","1920","21"
"400","75.86206896551724","75.86206896551724","889.8965517241379","889.8965517241379","black","no","xpyriment","legacy","legacy","0","203","NA","uniform","NA","NA","NA","1","undefined","1","0","28","28","28","0","28","28","28","NA","0","28","NA","NA","0","28","NA","28","0","28","NA","NA","NA","28","0","0","NA","28","28","28","28","28","29","z","Wed Jul  5 09:40:54 2023","The main experiment item","yes","m21-ab-lexicalDecision.osexp","C:\Users\emoore8\Desktop\m21_vsl-main","no","mono","no","18","no","white","no","yes","1080","legacy","28","28","C:/Users/emoore8/Desktop/m21_vsl-main/subject-213.csv","xpyriment","Lentiform Loewenfeld","3.3.11","0","z","NA","NA","NA","NA","return","z","1001","NA","NA","NA","NA","12257","1001","2","legacy","1024","2","48000","-16","AB_m21","213","odd","NW_S_COMP","ALTARIC","2253","140290","138121","130622","14521","NA","NA","NA","NA","NA","138621","NA","NA","NA","137620","NA","137594","2262","140690","NA","NA","NA","138662","2254","2254","NA","139663","139687","137594","138621","138642","morph21_Oliver/Morris","22","25807","29","yes","1920","7"
"300","76.66666666666667","76.66666666666667","887.8333333333334","887.8333333333334","black","no","xpyriment","legacy","legacy","0","201","NA","uniform","NA","NA","NA","1","undefined","1","0","29","29","29","0","29","29","29","NA","0","29","NA","NA","0","29","NA","29","0","29","NA","NA","NA","29","0","0","NA","29","29","29","29","29","30","/","Wed Jul  5 09:40:54 2023","The main experiment item","yes","m21-ab-lexicalDecision.osexp","C:\Users\emoore8\Desktop\m21_vsl-main","no","mono","no","18","no","white","no","yes","1080","legacy","29","29","C:/Users/emoore8/Desktop/m21_vsl-main/subject-213.csv","xpyriment","Lentiform Loewenfeld","3.3.11","0","/","NA","NA","NA","NA","return","/","828","NA","NA","NA","NA","12257","828","2","legacy","1024","2","48000","-16","AB_m21","213","odd","CW_S","BUYER","2253","145721","142212","144213","14521","NA","NA","NA","NA","NA","142714","NA","NA","NA","141711","NA","141687","2262","146021","NA","NA","NA","142755","2254","2254","NA","143584","143609","141687","142714","142734","morph21_Oliver/Morris","23","26635","30","yes","1920","21"
"250","77.41935483870968","77.41935483870968","882.9354838709677","882.9354838709677","black","no","xpyriment","legacy","legacy","0","207","NA","uniform","NA","NA","NA","1","undefined","1","0","30","30","30","0","30","30","30","NA","0","30","NA","NA","0","30","NA","30","0","30","NA","NA","NA","30","0","0","NA","30","30","30","30","30","31","/","Wed Jul  5 09:40:54 2023","The main experiment item","yes","m21-ab-lexicalDecision.osexp","C:\Users\emoore8\Desktop\m21_vsl-main","no","mono","no","18","no","white","no","yes","1080","legacy","30","30","C:/Users/emoore8/Desktop/m21_vsl-main/subject-213.csv","xpyriment","Lentiform Loewenfeld","3.3.11","0","/","NA","NA","NA","NA","return","/","736","NA","NA","NA","NA","12257","736","2","legacy","1024","2","48000","-16","AB_m21","213","odd","FILL_W","SUIT","2253","149459","147553","144213","14521","NA","NA","NA","NA","NA","148055","NA","NA","NA","147050","NA","147026","2262","149709","NA","NA","NA","148095","2254","2254","NA","148831","148856","147026","148055","148075","morph21_Oliver/Morris","24","27371","31","yes","1920","49"
"300","78.125","78.125","881.65625","881.65625","black","no","xpyriment","legacy","legacy","0","201","NA","uniform","NA","NA","NA","1","undefined","1","0","31","31","31","0","31","31","31","NA","0","31","NA","NA","0","31","NA","31","0","31","NA","NA","NA","31","0","0","NA","31","31","31","31","31","32","/","Wed Jul  5 09:40:54 2023","The main experiment item","yes","m21-ab-lexicalDecision.osexp","C:\Users\emoore8\Desktop\m21_vsl-main","no","mono","no","18","no","white","no","yes","1080","legacy","31","31","C:/Users/emoore8/Desktop/m21_vsl-main/subject-213.csv","xpyriment","Lentiform Loewenfeld","3.3.11","0","/","NA","NA","NA","NA","return","/","842","NA","NA","NA","NA","12257","842","2","legacy","1024","2","48000","-16","AB_m21","213","odd","CW_S","INSISTENT","2253","153221","151208","144213","14521","NA","NA","NA","NA","NA","151709","NA","NA","NA","150707","NA","150684","2262","153521","NA","NA","NA","151749","2254","2254","NA","152591","152616","150684","151708","151729","morph21_Oliver/Morris","25","28213","32","yes","1920","9"
"350","78.78787878787878","78.78787878787878","876.6060606060606","876.6060606060606","black","no","xpyriment","legacy","legacy","0","202","NA","uniform","NA","NA","NA","1","undefined","1","0","32","32","32","0","32","32","32","NA","0","32","NA","NA","0","32","NA","32","0","32","NA","NA","NA","32","0","0","NA","32","32","32","32","32","33","/","Wed Jul  5 09:40:54 2023","The main experiment item","yes","m21-ab-lexicalDecision.osexp","C:\Users\emoore8\Desktop\m21_vsl-main","no","mono","no","18","no","white","no","yes","1080","legacy","32","32","C:/Users/emoore8/Desktop/m21_vsl-main/subject-213.csv","xpyriment","Lentiform Loewenfeld","3.3.11","0","/","NA","NA","NA","NA","return","/","715","NA","NA","NA","NA","12257","715","2","legacy","1024","2","48000","-16","AB_m21","213","odd","CW_L","RENTER","2253","158427","155040","156924","14521","NA","NA","NA","NA","NA","155540","NA","NA","NA","154539","NA","154513","2262","158777","NA","NA","NA","155580","2254","2254","NA","156296","156320","154513","155540","155560","morph21_Oliver/Morris","26","28928","33","yes","1920","9"
"400","76.47058823529412","76.47058823529412","874.7647058823529","874.7647058823529","black","no","xpyriment","legacy","legacy","0","207","NA","uniform","NA","NA","NA","0","undefined","0","0","33","33","33","0","33","33","33","NA","0","33","NA","NA","0","33","NA","33","0","33","NA","NA","NA","33","0","0","NA","33","33","33","33","33","34","/","Wed Jul  5 09:40:54 2023","The main experiment item","yes","m21-ab-lexicalDecision.osexp","C:\Users\emoore8\Desktop\m21_vsl-main","no","mono","no","18","no","white","no","yes","1080","legacy","33","33","C:/Users/emoore8/Desktop/m21_vsl-main/subject-213.csv","xpyriment","Lentiform Loewenfeld","3.3.11","0","z","NA","NA","NA","NA","return","z","814","NA","NA","NA","NA","12257","814","2","legacy","1024","2","48000","-16","AB_m21","213","odd","FILL_W","LITHE","2253","162275","160293","156924","14521","NA","NA","NA","NA","NA","160793","NA","NA","NA","159793","NA","159766","2262","162676","NA","NA","NA","160833","2254","2254","NA","161647","161671","159766","160793","160813","morph21_Oliver/Morris","26","29742","34","yes","1920","23"
"200","77.14285714285714","77.14285714285714","882.6285714285714","882.6285714285714","black","no","xpyriment","legacy","legacy","0","206","NA","uniform","NA","NA","NA","1","undefined","1","0","34","34","34","0","34","34","34","NA","0","34","NA","NA","0","34","NA","34","0","34","NA","NA","NA","34","0","0","NA","34","34","34","34","34","35","z","Wed Jul  5 09:40:54 2023","The main experiment item","yes","m21-ab-lexicalDecision.osexp","C:\Users\emoore8\Desktop\m21_vsl-main","no","mono","no","18","no","white","no","yes","1080","legacy","34","34","C:/Users/emoore8/Desktop/m21_vsl-main/subject-213.csv","xpyriment","Lentiform Loewenfeld","3.3.11","0","z","NA","NA","NA","NA","return","z","1150","NA","NA","NA","NA","12257","1150","2","legacy","1024","2","48000","-16","AB_m21","213","odd","NW_L_SIMP","TOWERLA","2253","166493","164172","156924","14521","NA","NA","NA","NA","NA","164672","NA","NA","NA","163671","NA","163649","2262","166693","NA","NA","NA","164713","2254","2254","NA","165864","165889","163649","164672","164693","morph21_Oliver/Morris","27","30892","35","yes","1920","15"
"250","77.77777777777777","77.77777777777777","884.75","884.75","black","no","xpyriment","legacy","legacy","0","204","NA","uniform","NA","NA","NA","1","undefined","1","0","35","35","35","0","35","35","35","NA","0","35","NA","NA","0","35","NA","35","0","35","NA","NA","NA","35","0","0","NA","35","35","35","35","35","36","z","Wed Jul  5 09:40:54 2023","The main experiment item","yes","m21-ab-lexicalDecision.osexp","C:\Users\emoore8\Desktop\m21_vsl-main","no","mono","no","18","no","white","no","yes","1080","legacy","35","35","C:/Users/emoore8/Desktop/m21_vsl-main/subject-213.csv","xpyriment","Lentiform Loewenfeld","3.3.11","0","z","NA","NA","NA","NA","return","z","959","NA","NA","NA","NA","12257","959","2","legacy","1024","2","48000","-16","AB_m21","213","odd","NW_L_COMP","STIRANCE","2253","171828","168195","170323","14521","NA","NA","NA","NA","NA","168696","NA","NA","NA","167695","NA","167669","2262","172078","NA","NA","NA","168736","2254","2254","NA","169696","169720","167668","168696","168716","morph21_Oliver/Morris","28","31851","36","yes","1920","1"
"350","75.67567567567568","75.67567567567568","893.2702702702703","893.2702702702703","black","no","xpyriment","legacy","legacy","0","203","NA","uniform","NA","NA","NA","0","undefined","0","0","36","36","36","0","36","36","36","NA","0","36","NA","NA","0","36","NA","36","0","36","NA","NA","NA","36","0","0","NA","36","36","36","36","36","37","z","Wed Jul  5 09:40:54 2023","The main experiment item","yes","m21-ab-lexicalDecision.osexp","C:\Users\emoore8\Desktop\m21_vsl-main","no","mono","no","18","no","white","no","yes","1080","legacy","36","36","C:/Users/emoore8/Desktop/m21_vsl-main/subject-213.csv","xpyriment","Lentiform Loewenfeld","3.3.11","0","None","NA","NA","NA","NA","return","None","1200","NA","NA","NA","NA","12257","1200","2","legacy","1024","2","48000","-16","AB_m21","213","odd","NW_S_COMP","PRINCEMENT","2253","175969","173602","170323","14521","NA","NA","NA","NA","NA","174102","NA","NA","NA","173102","NA","173073","2262","176319","NA","NA","NA","174143","2254","2254","NA","175343","175366","173073","174102","174123","morph21_Oliver/Morris","28","33051","37","yes","1920","17"
"200","76.3157894736842","76.3157894736842","893.8421052631579","893.8421052631579","black","no","xpyriment","legacy","legacy","0","202","NA","uniform","NA","NA","NA","1","undefined","1","0","37","37","37","0","37","37","37","NA","0","37","NA","NA","0","37","NA","37","0","37","NA","NA","NA","37","0","0","NA","37","37","37","37","37","38","/","Wed Jul  5 09:40:54 2023","The main experiment item","yes","m21-ab-lexicalDecision.osexp","C:\Users\emoore8\Desktop\m21_vsl-main","no","mono","no","18","no","white","no","yes","1080","legacy","37","37","C:/Users/emoore8/Desktop/m21_vsl-main/subject-213.csv","xpyriment","Lentiform Loewenfeld","3.3.11","0","/","NA","NA","NA","NA","return","/","915","NA","NA","NA","NA","12257","915","2","legacy","1024","2","48000","-16","AB_m21","213","odd","CW_L","BOOTLESS","2253","179910","177824","170323","14521","NA","NA","NA","NA","NA","178324","NA","NA","NA","177323","NA","177295","2262","180110","NA","NA","NA","178364","2254","2254","NA","179280","179304","177295","178324","178344","morph21_Oliver/Morris","29","33966","38","yes","1920","32"
"250","76.92307692307692","76.92307692307692","897.2051282051282","897.2051282051282","black","no","xpyriment","legacy","legacy","0","201","NA","uniform","NA","NA","NA","1","undefined","1","0","38","38","38","0","38","38","38","NA","0","38","NA","NA","0","38","NA","38","0","38","NA","NA","NA","38","0","0","NA","38","38","38","38","38","39","/","Wed Jul  5 09:40:54 2023","The main experiment item","yes","m21-ab-lexicalDecision.osexp","C:\Users\emoore8\Desktop\m21_vsl-main","no","mono","no","18","no","white","no","yes","1080","legacy","38","38","C:/Users/emoore8/Desktop/m21_vsl-main/subject-213.csv","xpyriment","Lentiform Loewenfeld","3.3.11","0","/","NA","NA","NA","NA","return","/","1025","NA","NA","NA","NA","12257","1025","2","legacy","1024","2","48000","-16","AB_m21","213","odd","CW_S","SEEKER","2253","185558","181856","184054","14521","NA","NA","NA","NA","NA","182358","NA","NA","NA","181354","NA","181325","2262","185808","NA","NA","NA","182398","2254","2254","NA","183424","183448","181325","182358","182378","morph21_Oliver/Morris","30","34991","39","yes","1920","16"
"400","77.5","77.5","892.2","892.2","black","no","xpyriment","legacy","legacy","0","205","NA","uniform","NA","NA","NA","1","undefined","1","0","39","39","39","0","39","39","39","NA","0","39","NA","NA","0","39","NA","39","0","39","NA","NA","NA","39","0","0","NA","39","39","39","39","39","40","z","Wed Jul  5 09:40:54 2023","The main experiment item","yes","m21-ab-lexicalDecision.osexp","C:\Users\emoore8\Desktop\m21_vsl-main","no","mono","no","18","no","white","no","yes","1080","legacy","39","39","C:/Users/emoore8/Desktop/m21_vsl-main/subject-213.csv","xpyriment","Lentiform Loewenfeld","3.3.11","0","z","NA","NA","NA","NA","return","z","697","NA","NA","NA","NA","12257","697","2","legacy","1024","2","48000","-16","AB_m21","213","odd","NW_S_SIMP","URNILT","2253","189266","187401","184054","14521","NA","NA","NA","NA","NA","187901","NA","NA","NA","186899","NA","186868","2262","189666","NA","NA","NA","187942","2254","2254","NA","188639","188663","186868","187901","187922","morph21_Oliver/Morris","31","35688","40","yes","1920","5"
"200","78.04878048780488","78.04878048780488","896.0487804878048","896.0487804878048","black","no","xpyriment","legacy","legacy","0","205","NA","uniform","NA","NA","NA","1","undefined","1","0","40","40","40","0","40","40","40","NA","0","40","NA","NA","0","40","NA","40","0","40","NA","NA","NA","40","0","0","NA","40","40","40","40","40","41","z","Wed Jul  5 09:40:54 2023","The main experiment item","yes","m21-ab-lexicalDecision.osexp","C:\Users\emoore8\Desktop\m21_vsl-main","no","mono","no","18","no","white","no","yes","1080","legacy","40","40","C:/Users/emoore8/Desktop/m21_vsl-main/subject-213.csv","xpyriment","Lentiform Loewenfeld","3.3.11","0","z","NA","NA","NA","NA","return","z","1050","NA","NA","NA","NA","12257","1050","2","legacy","1024","2","48000","-16","AB_m21","213","odd","NW_S_SIMP","THRILLANGE","2253","193476","191257","184054","14521","NA","NA","NA","NA","NA","191757","NA","NA","NA","190756","NA","190727","2262","193676","NA","NA","NA","191797","2254","2254","NA","192848","192872","190727","191757","191777","morph21_Oliver/Morris","32","36738","41","yes","1920","22"
"350","78.57142857142857","78.57142857142857","895.1428571428571","895.1428571428571","black","no","xpyriment","legacy","legacy","0","202","NA","uniform","NA","NA","NA","1","undefined","1","0","41","41","41","0","41","41","41","NA","0","41","NA","NA","0","41","NA","41","0","41","NA","NA","NA","41","0","0","NA","41","41","41","41","41","42","/","Wed Jul  5 09:40:54 2023","The main experiment item","yes","m21-ab-lexicalDecision.osexp","C:\Users\emoore8\Desktop\m21_vsl-main","no","mono","no","18","no","white","no","yes","1080","legacy","41","41","C:/Users/emoore8/Desktop/m21_vsl-main/subject-213.csv","xpyriment","Lentiform Loewenfeld","3.3.11","0","/","NA","NA","NA","NA","return","/","858","NA","NA","NA","NA","12257","858","2","legacy","1024","2","48000","-16","AB_m21","213","odd","CW_L","GUARDING","2253","198789","195257","197284","14521","NA","NA","NA","NA","NA","195757","NA","NA","NA","194757","NA","194730","2262","199139","NA","NA","NA","195797","2254","2254","NA","196656","196680","194729","195757","195777","morph21_Oliver/Morris","33","37596","42","yes","1920","26"
"300","79.06976744186046","79.06976744186046","890.3023255813954","890.3023255813954","black","no","xpyriment","legacy","legacy","0","202","NA","uniform","NA","NA","NA","1","undefined","1","0","42","42","42","0","42","42","42","NA","0","42","NA","NA","0","42","NA","42","0","42","NA","NA","NA","42","0","0","NA","42","42","42","42","42","43","/","Wed Jul  5 09:40:54 2023","The main experiment item","yes","m21-ab-lexicalDecision.osexp","C:\Users\emoore8\Desktop\m21_vsl-main","no","mono","no","18","no","white","no","yes","1080","legacy","42","42","C:/Users/emoore8/Desktop/m21_vsl-main/subject-213.csv","xpyriment","Lentiform Loewenfeld","3.3.11","0","/","NA","NA","NA","NA","return","/","687","NA","NA","NA","NA","12257","687","2","legacy","1024","2","48000","-16","AB_m21","213","odd","CW_L","WEEDY","2253","202589","200731","197284","14521","NA","NA","NA","NA","NA","201231","NA","NA","NA","200230","NA","200201","2262","202889","NA","NA","NA","201272","2254","2254","NA","201959","201985","200201","201231","201252","morph21_Oliver/Morris","34","38283","43","yes","1920","48"
"250","77.27272727272727","77.27272727272727","884.7954545454545","884.7954545454545","black","no","xpyriment","legacy","legacy","0","203","NA","uniform","NA","NA","NA","0","undefined","0","0","43","43","43","0","43","43","43","NA","0","43","NA","NA","0","43","NA","43","0","43","NA","NA","NA","43","0","0","NA","43","43","43","43","43","44","z","Wed Jul  5 09:40:54 2023","The main experiment item","yes","m21-ab-lexicalDecision.osexp","C:\Users\emoore8\Desktop\m21_vsl-main","no","mono","no","18","no","white","no","yes","1080","legacy","43","43","C:/Users/emoore8/Desktop/m21_vsl-main/subject-213.csv","xpyriment","Lentiform Loewenfeld","3.3.11","0","/","NA","NA","NA","NA","return","/","648","NA","NA","NA","NA","12257","648","2","legacy","1024","2","48000","-16","AB_m21","213","odd","NW_S_COMP","BEERER","2253","206267","204449","197284","14521","NA","NA","NA","NA","NA","204951","NA","NA","NA","203947","NA","203922","2262","206517","NA","NA","NA","204991","2254","2254","NA","205639","205664","203922","204951","204971","morph21_Oliver/Morris","34","38931","44","yes","1920","5"
"400","75.55555555555556","75.55555555555556","884.7777777777778","884.7777777777778","black","no","xpyriment","legacy","legacy","0","206","NA","uniform","NA","NA","NA","0","undefined","0","0","44","44","44","0","44","44","44","NA","0","44","NA","NA","0","44","NA","44","0","44","NA","NA","NA","44","0","0","NA","44","44","44","44","44","45","z","Wed Jul  5 09:40:54 2023","The main experiment item","yes","m21-ab-lexicalDecision.osexp","C:\Users\emoore8\Desktop\m21_vsl-main","no","mono","no","18","no","white","no","yes","1080","legacy","44","44","C:/Users/emoore8/Desktop/m21_vsl-main/subject-213.csv","xpyriment","Lentiform Loewenfeld","3.3.11","0","/","NA","NA","NA","NA","return","/","884","NA","NA","NA","NA","12257","884","2","legacy","1024","2","48000","-16","AB_m21","213","odd","NW_L_SIMP","POORIDY","2253","211629","208068","210122","14521","NA","NA","NA","NA","NA","208570","NA","NA","NA","207567","NA","207540","2262","212029","NA","NA","NA","208611","2254","2254","NA","209496","209519","207540","208570","208591","morph21_Oliver/Morris","34","39815","45","yes","1920","13"
"300","76.08695652173913","76.08695652173913","883","883","black","no","xpyriment","legacy","legacy","0","208","NA","uniform","NA","NA","NA","1","undefined","1","0","45","45","45","0","45","45","45","NA","0","45","NA","NA","0","45","NA","45","0","45","NA","NA","NA","45","0","0","NA","45","45","45","45","45","46","z","Wed Jul  5 09:40:54 2023","The main experiment item","yes","m21-ab-lexicalDecision.osexp","C:\Users\emoore8\Desktop\m21_vsl-main","no","mono","no","18","no","white","no","yes","1080","legacy","45","45","C:/Users/emoore8/Desktop/m21_vsl-main/subject-213.csv","xpyriment","Lentiform Loewenfeld","3.3.11","0","z","NA","NA","NA","NA","return","z","803","NA","NA","NA","NA","12257","803","2","legacy","1024","2","48000","-16","AB_m21","213","odd","FILL_NW","HEEM","2253","215537","213567","210122","14521","NA","NA","NA","NA","NA","214067","NA","NA","NA","213067","NA","213039","2262","215838","NA","NA","NA","214108","2254","2254","NA","214911","214935","213039","214067","214088","morph21_Oliver/Morris","35","40618","46","yes","1920","27"
"200","76.59574468085107","76.59574468085107","876.7021276595744","876.7021276595744","black","no","xpyriment","legacy","legacy","0","202","NA","uniform","NA","NA","NA","1","undefined","1","0","46","46","46","0","46","46","46","NA","0","46","NA","NA","0","46","NA","46","0","46","NA","NA","NA","46","0","0","NA","46","46","46","46","46","47","/","Wed Jul  5 09:40:54 2023","The main experiment item","yes","m21-ab-lexicalDecision.osexp","C:\Users\emoore8\Desktop\m21_vsl-main","no","mono","no","18","no","white","no","yes","1080","legacy","46","46","C:/Users/emoore8/Desktop/m21_vsl-main/subject-213.csv","xpyriment","Lentiform Loewenfeld","3.3.11","0","/","NA","NA","NA","NA","return","/","587","NA","NA","NA","NA","12257","587","2","legacy","1024","2","48000","-16","AB_m21","213","odd","CW_L","SHAMEFUL","2253","219107","217352","210122","14521","NA","NA","NA","NA","NA","217853","NA","NA","NA","216849","NA","216824","2262","219307","NA","NA","NA","217893","2254","2254","NA","218480","218504","216824","217853","217873","morph21_Oliver/Morris","36","41205","47","yes","1920","19"
"400","77.08333333333333","77.08333333333333","873.9791666666666","873.9791666666666","black","no","xpyriment","legacy","legacy","0","204","NA","uniform","NA","NA","NA","1","undefined","1","0","47","47","47","0","47","47","47","NA","0","47","NA","NA","0","47","NA","47","0","47","NA","NA","NA","47","0","0","NA","47","47","47","47","47","48","z","Wed Jul  5 09:40:54 2023","The main experiment item","yes","m21-ab-lexicalDecision.osexp","C:\Users\emoore8\Desktop\m21_vsl-main","no","mono","no","18","no","white","no","yes","1080","legacy","47","47","C:/Users/emoore8/Desktop/m21_vsl-main/subject-213.csv","xpyriment","Lentiform Loewenfeld","3.3.11","0","z","NA","NA","NA","NA","return","z","746","NA","NA","NA","NA","12257","746","2","legacy","1024","2","48000","-16","AB_m21","213","odd","NW_L_COMP","RIPENCE","2253","224241","220824","222738","14521","NA","NA","NA","NA","NA","221325","NA","NA","NA","220324","NA","220299","2262","224641","NA","NA","NA","221365","2254","2254","NA","222112","222135","220299","221325","221345","morph21_Oliver/Morris","37","41951","48","yes","1920","4"
"350","75.51020408163265","75.51020408163265","871.3469387755102","871.3469387755102","black","no","xpyriment","legacy","legacy","0","206","NA","uniform","NA","NA","NA","0","undefined","0","0","48","48","48","0","48","48","48","NA","0","48","NA","NA","0","48","NA","48","0","48","NA","NA","NA","48","0","0","NA","48","48","48","48","48","49","z","Wed Jul  5 09:40:54 2023","The main experiment item","yes","m21-ab-lexicalDecision.osexp","C:\Users\emoore8\Desktop\m21_vsl-main","no","mono","no","18","no","white","no","yes","1080","legacy","48","48","C:/Users/emoore8/Desktop/m21_vsl-main/subject-213.csv","xpyriment","Lentiform Loewenfeld","3.3.11","0","/","NA","NA","NA","NA","return","/","745","NA","NA","NA","NA","12257","745","2","legacy","1024","2","48000","-16","AB_m21","213","odd","NW_L_SIMP","NUTLA","2253","228053","226137","222738","14521","NA","NA","NA","NA","NA","226637","NA","NA","NA","225637","NA","225609","2262","228403","NA","NA","NA","226678","2254","2254","NA","227424","227449","225609","226637","226658","morph21_Oliver/Morris","37","42696","49","yes","1920","14"
"300","76","76","872.1","872.1","black","no","xpyriment","legacy","legacy","0","208","NA","uniform","NA","NA","NA","1","undefined","1","0","49","49","49","0","49","49","49","NA","0","49","NA","NA","0","49","NA","49","0","49","NA","NA","NA","49","0","0","NA","49","49","49","49","49","50","z","Wed Jul  5 09:40:54 2023","The main experiment item","yes","m21-ab-lexicalDecision.osexp","C:\Users\emoore8\Desktop\m21_vsl-main","no","mono","no","18","no","white","no","yes","1080","legacy","49","49","C:/Users/emoore8/Desktop/m21_vsl-main/subject-213.csv","xpyriment","Lentiform Loewenfeld","3.3.11","0","z","NA","NA","NA","NA","return","z","909","NA","NA","NA","NA","12257","909","2","legacy","1024","2","48000","-16","AB_m21","213","odd","FILL_NW","DASK","2253","231986","229908","222738","14521","NA","NA","NA","NA","NA","230409","NA","NA","NA","229406","NA","229383","2262","232286","NA","NA","NA","230450","2254","2254","NA","231360","231383","229383","230409","230430","morph21_Oliver/Morris","38","43605","50","yes","1920","12"
"200","76.47058823529412","76.47058823529412","873.9803921568628","873.9803921568628","black","no","xpyriment","legacy","legacy","0","207","NA","uniform","NA","NA","NA","1","undefined","1","0","50","50","50","0","50","50","50","NA","0","50","NA","NA","0","50","NA","50","0","50","NA","NA","NA","50","0","0","NA","50","50","50","50","50","51","/","Wed Jul  5 09:40:54 2023","The main experiment item","yes","m21-ab-lexicalDecision.osexp","C:\Users\emoore8\Desktop\m21_vsl-main","no","mono","no","18","no","white","no","yes","1080","legacy","50","50","C:/Users/emoore8/Desktop/m21_vsl-main/subject-213.csv","xpyriment","Lentiform Loewenfeld","3.3.11","0","/","NA","NA","NA","NA","return","/","968","NA","NA","NA","NA","12257","968","2","legacy","1024","2","48000","-16","AB_m21","213","odd","FILL_W","BRASS","2253","237444","233802","235939","14521","NA","NA","NA","NA","NA","234302","NA","NA","NA","233302","NA","233272","2262","237644","NA","NA","NA","234343","2254","2254","NA","235312","235336","233272","234302","234323","morph21_Oliver/Morris","39","44573","51","yes","1920","10"
"250","76.92307692307692","76.92307692307692","873.0384615384615","873.0384615384615","black","no","xpyriment","legacy","legacy","0","207","NA","uniform","NA","NA","NA","1","undefined","1","0","51","51","51","0","51","51","51","NA","0","51","NA","NA","0","51","NA","51","0","51","NA","NA","NA","51","0","0","NA","51","51","51","51","51","52","/","Wed Jul  5 09:40:54 2023","The main experiment item","yes","m21-ab-lexicalDecision.osexp","C:\Users\emoore8\Desktop\m21_vsl-main","no","mono","no","18","no","white","no","yes","1080","legacy","51","51","C:/Users/emoore8/Desktop/m21_vsl-main/subject-213.csv","xpyriment","Lentiform Loewenfeld","3.3.11","0","/","NA","NA","NA","NA","return","/","825","NA","NA","NA","NA","12257","825","2","legacy","1024","2","48000","-16","AB_m21","213","odd","FILL_W","TREAT","2253","241157","239162","235939","14521","NA","NA","NA","NA","NA","239662","NA","NA","NA","238660","NA","238634","2262","241407","NA","NA","NA","239702","2254","2254","NA","240528","240553","238634","239662","239682","morph21_Oliver/Morris","40","45398","52","yes","1920","48"
"250","75.47169811320755","75.47169811320755","879.2075471698113","879.2075471698113","black","no","xpyriment","legacy","legacy","0","206","NA","uniform","NA","NA","NA","0","undefined","0","0","52","52","52","0","52","52","52","NA","0","52","NA","NA","0","52","NA","52","0","52","NA","NA","NA","52","0","0","NA","52","52","52","52","52","53","z","Wed Jul  5 09:40:54 2023","The main experiment item","yes","m21-ab-lexicalDecision.osexp","C:\Users\emoore8\Desktop\m21_vsl-main","no","mono","no","18","no","white","no","yes","1080","legacy","52","52","C:/Users/emoore8/Desktop/m21_vsl-main/subject-213.csv","xpyriment","Lentiform Loewenfeld","3.3.11","0","None","NA","NA","NA","NA","return","None","1200","NA","NA","NA","NA","12257","1200","2","legacy","1024","2","48000","-16","AB_m21","213","odd","NW_L_SIMP","SHOOTMANT","2253","245294","242925","235939","14521","NA","NA","NA","NA","NA","243426","NA","NA","NA","242425","NA","242397","2262","245544","NA","NA","NA","243467","2254","2254","NA","244667","244690","242397","243426","243447","morph21_Oliver/Morris","40","46598","53","yes","1920","16"
"400","74.07407407407408","74.07407407407408","882.1111111111111","882.1111111111111","black","no","xpyriment","legacy","legacy","0","203","NA","uniform","NA","NA","NA","0","undefined","0","0","53","53","53","0","53","53","53","NA","0","53","NA","NA","0","53","NA","53","0","53","NA","NA","NA","53","0","0","NA","53","53","53","53","53","54","z","Wed Jul  5 09:40:54 2023","The main experiment item","yes","m21-ab-lexicalDecision.osexp","C:\Users\emoore8\Desktop\m21_vsl-main","no","mono","no","18","no","white","no","yes","1080","legacy","53","53","C:/Users/emoore8/Desktop/m21_vsl-main/subject-213.csv","xpyriment","Lentiform Loewenfeld","3.3.11","0","/","NA","NA","NA","NA","return","/","1036","NA","NA","NA","NA","12257","1036","2","legacy","1024","2","48000","-16","AB_m21","213","odd","NW_S_COMP","TRUENESS","2253","250751","247038","249244","14521","NA","NA","NA","NA","NA","247538","NA","NA","NA","246538","NA","246515","2262","251151","NA","NA","NA","247579","2254","2254","NA","248616","248639","246515","247538","247559","morph21_Oliver/Morris","40","47634","54","yes","1920","15"
"200","74.54545454545455","74.54545454545455","877.8545454545455","877.8545454545455","black","no","xpyriment","legacy","legacy","0","207","NA","uniform","NA","NA","NA","1","undefined","1","0","54","54","54","0","54","54","54","NA","0","54","NA","NA","0","54","NA","54","0","54","NA","NA","NA","54","0","0","NA","54","54","54","54","54","55","/","Wed Jul  5 09:40:54 2023","The main experiment item","yes","m21-ab-lexicalDecision.osexp","C:\Users\emoore8\Desktop\m21_vsl-main","no","mono","no","18","no","white","no","yes","1080","legacy","54","54","C:/Users/emoore8/Desktop/m21_vsl-main/subject-213.csv","xpyriment","Lentiform Loewenfeld","3.3.11","0","/","NA","NA","NA","NA","return","/","648","NA","NA","NA","NA","12257","648","2","legacy","1024","2","48000","-16","AB_m21","213","odd","FILL_W","OLD","2253","254492","252674","249244","14521","NA","NA","NA","NA","NA","253175","NA","NA","NA","252174","NA","252150","2262","254692","NA","NA","NA","253215","2254","2254","NA","253864","253887","252150","253175","253195","morph21_Oliver/Morris","41","48282","55","yes","1920","44"
"200","75","75","880.8035714285714","880.8035714285714","black","no","xpyriment","legacy","legacy","0","201","NA","uniform","NA","NA","NA","1","undefined","1","0","55","55","55","0","55","55","55","NA","0","55","NA","NA","0","55","NA","55","0","55","NA","NA","NA","55","0","0","NA","55","55","55","55","55","56","/","Wed Jul  5 09:40:54 2023","The main experiment item","yes","m21-ab-lexicalDecision.osexp","C:\Users\emoore8\Desktop\m21_vsl-main","no","mono","no","18","no","white","no","yes","1080","legacy","55","55","C:/Users/emoore8/Desktop/m21_vsl-main/subject-213.csv","xpyriment","Lentiform Loewenfeld","3.3.11","0","/","NA","NA","NA","NA","return","/","1043","NA","NA","NA","NA","12257","1043","2","legacy","1024","2","48000","-16","AB_m21","213","odd","CW_S","AMUSEMENT","2253","258403","256192","249244","14521","NA","NA","NA","NA","NA","256693","NA","NA","NA","255692","NA","255666","2262","258603","NA","NA","NA","256733","2254","2254","NA","257776","257800","255666","256692","256713","morph21_Oliver/Morris","42","49325","56","yes","1920","38"
"250","75.43859649122807","75.43859649122807","882.5087719298245","882.5087719298245","black","no","xpyriment","legacy","legacy","0","207","NA","uniform","NA","NA","NA","1","undefined","1","0","56","56","56","0","56","56","56","NA","0","56","NA","NA","0","56","NA","56","0","56","NA","NA","NA","56","0","0","NA","56","56","56","56","56","57","/","Wed Jul  5 09:40:54 2023","The main experiment item","yes","m21-ab-lexicalDecision.osexp","C:\Users\emoore8\Desktop\m21_vsl-main","no","mono","no","18","no","white","no","yes","1080","legacy","56","56","C:/Users/emoore8/Desktop/m21_vsl-main/subject-213.csv","xpyriment","Lentiform Loewenfeld","3.3.11","0","/","NA","NA","NA","NA","return","/","978","NA","NA","NA","NA","12257","978","2","legacy","1024","2","48000","-16","AB_m21","213","odd","FILL_W","PACK","2253","263780","260128","262274","14521","NA","NA","NA","NA","NA","260628","NA","NA","NA","259627","NA","259597","2262","264030","NA","NA","NA","260669","2254","2254","NA","261648","261671","259597","260628","260649","morph21_Oliver/Morris","43","50303","57","yes","1920","41"
"250","75.86206896551724","75.86206896551724","879.9827586206897","879.9827586206897","black","no","xpyriment","legacy","legacy","0","208","NA","uniform","NA","NA","NA","1","undefined","1","0","57","57","57","0","57","57","57","NA","0","57","NA","NA","0","57","NA","57","0","57","NA","NA","NA","57","0","0","NA","57","57","57","57","57","58","z","Wed Jul  5 09:40:54 2023","The main experiment item","yes","m21-ab-lexicalDecision.osexp","C:\Users\emoore8\Desktop\m21_vsl-main","no","mono","no","18","no","white","no","yes","1080","legacy","57","57","C:/Users/emoore8/Desktop/m21_vsl-main/subject-213.csv","xpyriment","Lentiform Loewenfeld","3.3.11","0","z","NA","NA","NA","NA","return","z","736","NA","NA","NA","NA","12257","736","2","legacy","1024","2","48000","-16","AB_m21","213","odd","FILL_NW","POLT","2253","267452","265546","262274","14521","NA","NA","NA","NA","NA","266047","NA","NA","NA","265044","NA","265020","2262","267702","NA","NA","NA","266087","2254","2254","NA","266824","266848","265020","266047","266067","morph21_Oliver/Morris","44","51039","58","yes","1920","38"
"200","76.27118644067797","76.27118644067797","879.0677966101695","879.0677966101695","black","no","xpyriment","legacy","legacy","0","202","NA","uniform","NA","NA","NA","1","undefined","1","0","58","58","58","0","58","58","58","NA","0","58","NA","NA","0","58","NA","58","0","58","NA","NA","NA","58","0","0","NA","58","58","58","58","58","59","/","Wed Jul  5 09:40:54 2023","The main experiment item","yes","m21-ab-lexicalDecision.osexp","C:\Users\emoore8\Desktop\m21_vsl-main","no","mono","no","18","no","white","no","yes","1080","legacy","58","58","C:/Users/emoore8/Desktop/m21_vsl-main/subject-213.csv","xpyriment","Lentiform Loewenfeld","3.3.11","0","/","NA","NA","NA","NA","return","/","826","NA","NA","NA","NA","12257","826","2","legacy","1024","2","48000","-16","AB_m21","213","odd","CW_L","COLLECTOR","2253","271212","269216","262274","14521","NA","NA","NA","NA","NA","269716","NA","NA","NA","268714","NA","268690","2262","271412","NA","NA","NA","269757","2254","2254","NA","270584","270608","268690","269716","269737","morph21_Oliver/Morris","45","51865","59","yes","1920","46"
"200","76.66666666666667","76.66666666666667","877.25","877.25","black","no","xpyriment","legacy","legacy","0","206","NA","uniform","NA","NA","NA","1","undefined","1","0","59","59","59","0","59","59","59","NA","0","59","NA","NA","0","59","NA","59","0","59","NA","NA","NA","59","0","0","NA","59","59","59","59","59","60","z","Wed Jul  5 09:40:54 2023","The main experiment item","yes","m21-ab-lexicalDecision.osexp","C:\Users\emoore8\Desktop\m21_vsl-main","no","mono","no","18","no","white","no","yes","1080","legacy","59","59","C:/Users/emoore8/Desktop/m21_vsl-main/subject-213.csv","xpyriment","Lentiform Loewenfeld","3.3.11","0","z","NA","NA","NA","NA","return","z","770","NA","NA","NA","NA","12257","770","2","legacy","1024","2","48000","-16","AB_m21","213","odd","NW_L_SIMP","GROWILT","2253","276357","272912","274854","14521","NA","NA","NA","NA","NA","273412","NA","NA","NA","272411","NA","272387","2262","276557","NA","NA","NA","273453","2254","2254","NA","274224","274249","272387","273412","273433","morph21_Oliver/Morris","46","52635","60","yes","1920","20"
"350","77.04918032786885","77.04918032786885","876.6065573770492","876.6065573770492","black","no","xpyriment","legacy","legacy","0","207","NA","uniform","NA","NA","NA","1","undefined","1","0","60","60","60","0","60","60","60","NA","0","60","NA","NA","0","60","NA","60","0","60","NA","NA","NA","60","0","0","NA","60","60","60","60","60","61","/","Wed Jul  5 09:40:54 2023","The main experiment item","yes","m21-ab-lexicalDecision.osexp","C:\Users\emoore8\Desktop\m21_vsl-main","no","mono","no","18","no","white","no","yes","1080","legacy","60","60","C:/Users/emoore8/Desktop/m21_vsl-main/subject-213.csv","xpyriment","Lentiform Loewenfeld","3.3.11","0","/","NA","NA","NA","NA","return","/","838","NA","NA","NA","NA","12257","838","2","legacy","1024","2","48000","-16","AB_m21","213","odd","FILL_W","LEAK","2253","280067","278061","274854","14521","NA","NA","NA","NA","NA","278561","NA","NA","NA","277561","NA","277534","2262","280417","NA","NA","NA","278601","2254","2254","NA","279439","279464","277534","278561","278581","morph21_Oliver/Morris","47","53473","61","yes","1920","9"
"300","75.80645161290323","75.80645161290323","878.7741935483871","878.7741935483871","black","no","xpyriment","legacy","legacy","0","206","NA","uniform","NA","NA","NA","0","undefined","0","0","61","61","61","0","61","61","61","NA","0","61","NA","NA","0","61","NA","61","0","61","NA","NA","NA","61","0","0","NA","61","61","61","61","61","62","z","Wed Jul  5 09:40:54 2023","The main experiment item","yes","m21-ab-lexicalDecision.osexp","C:\Users\emoore8\Desktop\m21_vsl-main","no","mono","no","18","no","white","no","yes","1080","legacy","61","61","C:/Users/emoore8/Desktop/m21_vsl-main/subject-213.csv","xpyriment","Lentiform Loewenfeld","3.3.11","0","/","NA","NA","NA","NA","return","/","1011","NA","NA","NA","NA","12257","1011","2","legacy","1024","2","48000","-16","AB_m21","213","odd","NW_L_SIMP","PRAYANGE","2253","284099","281919","274854","14521","NA","NA","NA","NA","NA","282419","NA","NA","NA","281419","NA","281393","2262","284399","NA","NA","NA","282460","2254","2254","NA","283472","283496","281393","282419","282440","morph21_Oliver/Morris","47","54484","62","yes","1920","1"
"300","76.19047619047619","76.19047619047619","880.5555555555555","880.5555555555555","black","no","xpyriment","legacy","legacy","0","208","NA","uniform","NA","NA","NA","1","undefined","1","0","62","62","62","0","62","62","62","NA","0","62","NA","NA","0","62","NA","62","0","62","NA","NA","NA","62","0","0","NA","62","62","62","62","62","63","z","Wed Jul  5 09:40:54 2023","The main experiment item","yes","m21-ab-lexicalDecision.osexp","C:\Users\emoore8\Desktop\m21_vsl-main","no","mono","no","18","no","white","no","yes","1080","legacy","62","62","C:/Users/emoore8/Desktop/m21_vsl-main/subject-213.csv","xpyriment","Lentiform Loewenfeld","3.3.11","0","z","NA","NA","NA","NA","return","z","991","NA","NA","NA","NA","12257","991","2","legacy","1024","2","48000","-16","AB_m21","213","odd","FILL_NW","BAFED","2253","289572","285906","288067","14521","NA","NA","NA","NA","NA","286407","NA","NA","NA","285406","NA","285383","2262","289872","NA","NA","NA","286448","2254","2254","NA","287440","287464","285383","286407","286428","morph21_Oliver/Morris","48","55475","63","yes","1920","1"
"250","76.5625","76.5625","883.484375","883.484375","black","no","xpyriment","legacy","legacy","0","205","NA","uniform","NA","NA","NA","1","undefined","1","0","63","63","63","0","63","63","63","NA","0","63","NA","NA","0","63","NA","63","0","63","NA","NA","NA","63","0","0","NA","63","63","63","63","63","64","z","Wed Jul  5 09:40:54 2023","The main experiment item","yes","m21-ab-lexicalDecision.osexp","C:\Users\emoore8\Desktop\m21_vsl-main","no","mono","no","18","no","white","no","yes","1080","legacy","63","63","C:/Users/emoore8/Desktop/m21_vsl-main/subject-213.csv","xpyriment","Lentiform Loewenfeld","3.3.11","0","z","NA","NA","NA","NA","return","z","1068","NA","NA","NA","NA","12257","1068","2","legacy","1024","2","48000","-16","AB_m21","213","odd","NW_S_SIMP","ZOOMFIL","2253","293627","291390","288067","14521","NA","NA","NA","NA","NA","291891","NA","NA","NA","290889","NA","290863","2262","293878","NA","NA","NA","291931","2254","2254","NA","293000","293024","290863","291891","291911","morph21_Oliver/Morris","49","56543","64","yes","1920","19"
"350","75.38461538461539","75.38461538461539","887.8153846153846","887.8153846153846","black","no","xpyriment","legacy","legacy","0","206","NA","uniform","NA","NA","NA","0","undefined","0","0","64","64","64","0","64","64","64","NA","0","64","NA","NA","0","64","NA","64","0","64","NA","NA","NA","64","0","0","NA","64","64","64","64","64","65","z","Wed Jul  5 09:40:54 2023","The main experiment item","yes","m21-ab-lexicalDecision.osexp","C:\Users\emoore8\Desktop\m21_vsl-main","no","mono","no","18","no","white","no","yes","1080","legacy","64","64","C:/Users/emoore8/Desktop/m21_vsl-main/subject-213.csv","xpyriment","Lentiform Loewenfeld","3.3.11","0","/","NA","NA","NA","NA","return","/","1165","NA","NA","NA","NA","12257","1165","2","legacy","1024","2","48000","-16","AB_m21","213","odd","NW_L_SIMP","WIGITH","2253","297707","295373","288067","14521","NA","NA","NA","NA","NA","295873","NA","NA","NA","294873","NA","294847","2262","298057","NA","NA","NA","295914","2254","2254","NA","297080","297104","294847","295873","295894","morph21_Oliver/Morris","49","57708","65","yes","1920","9"
"350","75.75757575757575","75.75757575757575","891.1515151515151","891.1515151515151","black","no","xpyriment","legacy","legacy","0","202","NA","uniform","NA","NA","NA","1","undefined","1","0","65","65","65","0","65","65","65","NA","0","65","NA","NA","0","65","NA","65","0","65","NA","NA","NA","65","0","0","NA","65","65","65","65","65","66","/","Wed Jul  5 09:40:54 2023","The main experiment item","yes","m21-ab-lexicalDecision.osexp","C:\Users\emoore8\Desktop\m21_vsl-main","no","mono","no","18","no","white","no","yes","1080","legacy","65","65","C:/Users/emoore8/Desktop/m21_vsl-main/subject-213.csv","xpyriment","Lentiform Loewenfeld","3.3.11","0","/","NA","NA","NA","NA","return","/","1108","NA","NA","NA","NA","12257","1108","2","legacy","1024","2","48000","-16","AB_m21","213","odd","CW_L","KICKING","2253","303374","299591","301868","14521","NA","NA","NA","NA","NA","300091","NA","NA","NA","299091","NA","299062","2262","303724","NA","NA","NA","300132","2254","2254","NA","301241","301264","299062","300091","300112","morph21_Oliver/Morris","50","58816","66","yes","1920","23"
"250","76.11940298507463","76.11940298507463","890.0895522388059","890.0895522388059","black","no","xpyriment","legacy","legacy","0","207","NA","uniform","NA","NA","NA","1","undefined","1","0","66","66","66","0","66","66","66","NA","0","66","NA","NA","0","66","NA","66","0","66","NA","NA","NA","66","0","0","NA","66","66","66","66","66","67","/","Wed Jul  5 09:40:54 2023","The main experiment item","yes","m21-ab-lexicalDecision.osexp","C:\Users\emoore8\Desktop\m21_vsl-main","no","mono","no","18","no","white","no","yes","1080","legacy","66","66","C:/Users/emoore8/Desktop/m21_vsl-main/subject-213.csv","xpyriment","Lentiform Loewenfeld","3.3.11","0","/","NA","NA","NA","NA","return","/","820","NA","NA","NA","NA","12257","820","2","legacy","1024","2","48000","-16","AB_m21","213","odd","FILL_W","FIERCE","2253","307234","305246","301868","14521","NA","NA","NA","NA","NA","305746","NA","NA","NA","304745","NA","304720","2262","307484","NA","NA","NA","305787","2254","2254","NA","306608","306631","304720","305746","305767","morph21_Oliver/Morris","51","59636","67","yes","1920","24"
"350","76.47058823529412","76.47058823529412","889.9117647058823","889.9117647058823","black","no","xpyriment","legacy","legacy","0","208","NA","uniform","NA","NA","NA","1","undefined","1","0","67","67","67","0","67","67","67","NA","0","67","NA","NA","0","67","NA","67","0","67","NA","NA","NA","67","0","0","NA","67","67","67","67","67","68","z","Wed Jul  5 09:40:54 2023","The main experiment item","yes","m21-ab-lexicalDecision.osexp","C:\Users\emoore8\Desktop\m21_vsl-main","no","mono","no","18","no","white","no","yes","1080","legacy","67","67","C:/Users/emoore8/Desktop/m21_vsl-main/subject-213.csv","xpyriment","Lentiform Loewenfeld","3.3.11","0","z","NA","NA","NA","NA","return","z","878","NA","NA","NA","NA","12257","878","2","legacy","1024","2","48000","-16","AB_m21","213","odd","FILL_NW","DARF","2253","311043","308996","301868","14521","NA","NA","NA","NA","NA","309496","NA","NA","NA","308494","NA","308468","2262","311393","NA","NA","NA","309537","2254","2254","NA","310417","310440","308468","309496","309517","morph21_Oliver/Morris","52","60514","68","yes","1920","10"
"350","76.81159420289855","76.81159420289855","886.5652173913044","886.5652173913044","black","no","xpyriment","legacy","legacy","0","201","NA","uniform","NA","NA","NA","1","undefined","1","0","68","68","68","0","68","68","68","NA","0","68","NA","NA","0","68","NA","68","0","68","NA","NA","NA","68","0","0","NA","68","68","68","68","68","69","/","Wed Jul  5 09:40:54 2023","The main experiment item","yes","m21-ab-lexicalDecision.osexp","C:\Users\emoore8\Desktop\m21_vsl-main","no","mono","no","18","no","white","no","yes","1080","legacy","68","68","C:/Users/emoore8/Desktop/m21_vsl-main/subject-213.csv","xpyriment","Lentiform Loewenfeld","3.3.11","0","/","NA","NA","NA","NA","return","/","659","NA","NA","NA","NA","12257","659","2","legacy","1024","2","48000","-16","AB_m21","213","odd","CW_S","BOSSY","2253","316243","312911","314739","14521","NA","NA","NA","NA","NA","313413","NA","NA","NA","312409","NA","312386","2262","316593","NA","NA","NA","313453","2254","2254","NA","314112","314136","312386","313412","313433","morph21_Oliver/Morris","53","61173","69","yes","1920","49"
"350","77.14285714285714","77.14285714285714","883.2857142857143","883.2857142857143","black","no","xpyriment","legacy","legacy","0","201","NA","uniform","NA","NA","NA","1","undefined","1","0","69","69","69","0","69","69","69","NA","0","69","NA","NA","0","69","NA","69","0","69","NA","NA","NA","69","0","0","NA","69","69","69","69","69","70","/","Wed Jul  5 09:40:54 2023","The main experiment item","yes","m21-ab-lexicalDecision.osexp","C:\Users\emoore8\Desktop\m21_vsl-main","no","mono","no","18","no","white","no","yes","1080","legacy","69","69","C:/Users/emoore8/Desktop/m21_vsl-main/subject-213.csv","xpyriment","Lentiform Loewenfeld","3.3.11","0","/","NA","NA","NA","NA","return","/","657","NA","NA","NA","NA","12257","657","2","legacy","1024","2","48000","-16","AB_m21","213","odd","CW_S","TEACHER","2253","319919","318090","314739","14521","NA","NA","NA","NA","NA","318590","NA","NA","NA","317590","NA","317564","2262","320269","NA","NA","NA","318631","2254","2254","NA","319289","319315","317564","318590","318611","morph21_Oliver/Morris","54","61830","70","yes","1920","23"
"250","76.05633802816901","76.05633802816901","882.830985915493","882.830985915493","black","no","xpyriment","legacy","legacy","0","206","NA","uniform","NA","NA","NA","0","undefined","0","0","70","70","70","0","70","70","70","NA","0","70","NA","NA","0","70","NA","70","0","70","NA","NA","NA","70","0","0","NA","70","70","70","70","70","71","z","Wed Jul  5 09:40:54 2023","The main experiment item","yes","m21-ab-lexicalDecision.osexp","C:\Users\emoore8\Desktop\m21_vsl-main","no","mono","no","18","no","white","no","yes","1080","legacy","70","70","C:/Users/emoore8/Desktop/m21_vsl-main/subject-213.csv","xpyriment","Lentiform Loewenfeld","3.3.11","0","/","NA","NA","NA","NA","return","/","851","NA","NA","NA","NA","12257","851","2","legacy","1024","2","48000","-16","AB_m21","213","odd","NW_L_SIMP","SMOOTHFIL","2253","323796","321774","314739","14521","NA","NA","NA","NA","NA","322275","NA","NA","NA","321273","NA","321250","2262","324046","NA","NA","NA","322316","2254","2254","NA","323168","323192","321250","322275","322296","morph21_Oliver/Morris","54","62681","71","yes","1920","19"
"250","76.38888888888889","76.38888888888889","883.6527777777778","883.6527777777778","black","no","xpyriment","legacy","legacy","0","201","NA","uniform","NA","NA","NA","1","undefined","1","0","71","71","71","0","71","71","71","NA","0","71","NA","NA","0","71","NA","71","0","71","NA","NA","NA","71","0","0","NA","71","71","71","71","71","72","/","Wed Jul  5 09:40:54 2023","The main experiment item","yes","m21-ab-lexicalDecision.osexp","C:\Users\emoore8\Desktop\m21_vsl-main","no","mono","no","18","no","white","no","yes","1080","legacy","71","71","C:/Users/emoore8/Desktop/m21_vsl-main/subject-213.csv","xpyriment","Lentiform Loewenfeld","3.3.11","0","/","NA","NA","NA","NA","return","/","942","NA","NA","NA","NA","12257","942","2","legacy","1024","2","48000","-16","AB_m21","213","odd","CW_S","HUGELY","2253","329172","325557","327667","14521","NA","NA","NA","NA","NA","326058","NA","NA","NA","325057","NA","325030","2262","329422","NA","NA","NA","326098","2254","2254","NA","327040","327064","325030","326058","326078","morph21_Oliver/Morris","55","63623","72","yes","1920","35"
"300","75.34246575342466","75.34246575342466","887.986301369863","887.986301369863","black","no","xpyriment","legacy","legacy","0","205","NA","uniform","NA","NA","NA","0","undefined","0","0","72","72","72","0","72","72","72","NA","0","72","NA","NA","0","72","NA","72","0","72","NA","NA","NA","72","0","0","NA","72","72","72","72","72","73","z","Wed Jul  5 09:40:54 2023","The main experiment item","yes","m21-ab-lexicalDecision.osexp","C:\Users\emoore8\Desktop\m21_vsl-main","no","mono","no","18","no","white","no","yes","1080","legacy","72","72","C:/Users/emoore8/Desktop/m21_vsl-main/subject-213.csv","xpyriment","Lentiform Loewenfeld","3.3.11","0","None","NA","NA","NA","NA","return","None","1200","NA","NA","NA","NA","12257","1200","2","legacy","1024","2","48000","-16","AB_m21","213","odd","NW_S_SIMP","BOLTOES","2253","333304","330936","327667","14521","NA","NA","NA","NA","NA","331436","NA","NA","NA","330436","NA","330407","2262","333604","NA","NA","NA","331477","2254","2254","NA","332677","332701","330407","331436","331457","morph21_Oliver/Morris","55","64823","73","yes","1920","13"
"200","75.67567567567568","75.67567567567568","887.0945945945946","887.0945945945946","black","no","xpyriment","legacy","legacy","0","202","NA","uniform","NA","NA","NA","1","undefined","1","0","73","73","73","0","73","73","73","NA","0","73","NA","NA","0","73","NA","73","0","73","NA","NA","NA","73","0","0","NA","73","73","73","73","73","74","/","Wed Jul  5 09:40:54 2023","The main experiment item","yes","m21-ab-lexicalDecision.osexp","C:\Users\emoore8\Desktop\m21_vsl-main","no","mono","no","18","no","white","no","yes","1080","legacy","73","73","C:/Users/emoore8/Desktop/m21_vsl-main/subject-213.csv","xpyriment","Lentiform Loewenfeld","3.3.11","0","/","NA","NA","NA","NA","return","/","822","NA","NA","NA","NA","12257","822","2","legacy","1024","2","48000","-16","AB_m21","213","odd","CW_L","BONELESS","2253","337138","335148","327667","14521","NA","NA","NA","NA","NA","335648","NA","NA","NA","334647","NA","334622","2262","337339","NA","NA","NA","335689","2254","2254","NA","336512","336535","334622","335648","335669","morph21_Oliver/Morris","56","65645","74","yes","1920","34"
"350","74.66666666666667","74.66666666666667","891.2666666666667","891.2666666666667","black","no","xpyriment","legacy","legacy","0","204","NA","uniform","NA","NA","NA","undefined","undefined","0","0","74","74","74","0","74","74","74","NA","0","74","NA","NA","0","74","NA","74","0","74","NA","NA","NA","74","0","0","NA","74","74","74","74","74","75","z","Wed Jul  5 09:40:54 2023","The main experiment item","yes","m21-ab-lexicalDecision.osexp","C:\Users\emoore8\Desktop\m21_vsl-main","no","mono","no","18","no","white","no","yes","1080","legacy","74","74","C:/Users/emoore8/Desktop/m21_vsl-main/subject-213.csv","xpyriment","Lentiform Loewenfeld","3.3.11","0","space","space","NA","NA","NA","return","None","15476","15476","NA","NA","NA","12257","1200","2","legacy","1024","2","48000","-16","AB_m21","213","odd","NW_L_COMP","MOUTHIZE","2253","342729","338855","341224","14521","343083","NA","NA","NA","NA","339356","NA","NA","NA","338354","NA","338329","2262","358560","NA","NA","NA","339396","2254","2254","NA","340596","340621","338329","339355","339376","morph21_Oliver/Morris","56","66845","75","yes","1920","11"
"300","73.6842105263158","73.6842105263158","895.328947368421","895.328947368421","black","no","xpyriment","legacy","legacy","0","204","NA","uniform","NA","NA","NA","0","undefined","0","0","75","75","75","0","75","75","75","NA","0","75","NA","NA","0","75","NA","75","0","75","NA","NA","NA","75","0","0","NA","75","75","75","75","75","76","z","Wed Jul  5 09:40:54 2023","The main experiment item","yes","m21-ab-lexicalDecision.osexp","C:\Users\emoore8\Desktop\m21_vsl-main","no","mono","no","18","no","white","no","yes","1080","legacy","75","75","C:/Users/emoore8/Desktop/m21_vsl-main/subject-213.csv","xpyriment","Lentiform Loewenfeld","3.3.11","0","None","space","NA","NA","NA","return","None","1200","15476","NA","NA","NA","12257","1200","2","legacy","1024","2","48000","-16","AB_m21","213","odd","NW_L_COMP","ADDMENT","2253","362460","360092","341224","14521","343083","NA","NA","NA","NA","360592","NA","NA","NA","359591","NA","359563","2262","362760","NA","NA","NA","360633","2254","2254","NA","361833","361857","359563","360592","360613","morph21_Oliver/Morris","56","68045","76","yes","1920","13"
"300","72.72727272727273","72.72727272727273","894.1298701298701","894.1298701298701","black","no","xpyriment","legacy","legacy","0","204","NA","uniform","NA","NA","NA","0","undefined","0","0","76","76","76","0","76","76","76","NA","0","76","NA","NA","0","76","NA","76","0","76","NA","NA","NA","76","0","0","NA","76","76","76","76","76","77","z","Wed Jul  5 09:40:54 2023","The main experiment item","yes","m21-ab-lexicalDecision.osexp","C:\Users\emoore8\Desktop\m21_vsl-main","no","mono","no","18","no","white","no","yes","1080","legacy","76","76","C:/Users/emoore8/Desktop/m21_vsl-main/subject-213.csv","xpyriment","Lentiform Loewenfeld","3.3.11","0","/","space","NA","NA","NA","return","/","803","15476","NA","NA","NA","12257","803","2","legacy","1024","2","48000","-16","AB_m21","213","odd","NW_L_COMP","KINGISM","2253","366244","364272","341224","14521","343083","NA","NA","NA","NA","364772","NA","NA","NA","363772","NA","363749","2262","366544","NA","NA","NA","364812","2254","2254","NA","365616","365640","363749","364772","364792","morph21_Oliver/Morris","56","68848","77","yes","1920","19"
"350","73.07692307692308","73.07692307692308","896.3461538461538","896.3461538461538","black","no","xpyriment","legacy","legacy","0","203","NA","uniform","NA","NA","NA","1","undefined","1","0","77","77","77","0","77","77","77","NA","0","77","NA","NA","0","77","NA","77","0","77","NA","NA","NA","77","0","0","NA","77","77","77","77","77","78","z","Wed Jul  5 09:40:54 2023","The main experiment item","yes","m21-ab-lexicalDecision.osexp","C:\Users\emoore8\Desktop\m21_vsl-main","no","mono","no","18","no","white","no","yes","1080","legacy","77","77","C:/Users/emoore8/Desktop/m21_vsl-main/subject-213.csv","xpyriment","Lentiform Loewenfeld","3.3.11","0","z","space","NA","NA","NA","return","z","1067","15476","NA","NA","NA","12257","1067","2","legacy","1024","2","48000","-16","AB_m21","213","odd","NW_S_COMP","EJECTENCE","2253","371796","368055","370292","14521","343083","NA","NA","NA","NA","368556","NA","NA","NA","367553","NA","367528","2262","372146","NA","NA","NA","368596","2254","2254","NA","369664","369689","367528","368556","368576","morph21_Oliver/Morris","57","69915","78","yes","1920","20"
"200","73.41772151898734","73.41772151898734","896.0759493670886","896.0759493670886","black","no","xpyriment","legacy","legacy","0","208","NA","uniform","NA","NA","NA","1","undefined","1","0","78","78","78","0","78","78","78","NA","0","78","NA","NA","0","78","NA","78","0","78","NA","NA","NA","78","0","0","NA","78","78","78","78","78","79","z","Wed Jul  5 09:40:54 2023","The main experiment item","yes","m21-ab-lexicalDecision.osexp","C:\Users\emoore8\Desktop\m21_vsl-main","no","mono","no","18","no","white","no","yes","1080","legacy","78","78","C:/Users/emoore8/Desktop/m21_vsl-main/subject-213.csv","xpyriment","Lentiform Loewenfeld","3.3.11","0","z","space","NA","NA","NA","return","z","875","15476","NA","NA","NA","12257","875","2","legacy","1024","2","48000","-16","AB_m21","213","odd","FILL_NW","PORDS","2253","375758","373710","370292","14521","343083","NA","NA","NA","NA","374212","NA","NA","NA","373209","NA","373184","2262","375958","NA","NA","NA","374252","2254","2254","NA","375128","375155","373184","374212","374232","morph21_Oliver/Morris","58","70790","79","yes","1920","39"
"300","72.5","72.5","897.15","897.15","black","no","xpyriment","legacy","legacy","0","204","NA","uniform","NA","NA","NA","0","undefined","0","0","79","79","79","0","79","79","79","NA","0","79","NA","NA","0","79","NA","79","0","79","NA","NA","NA","79","0","0","NA","79","79","79","79","79","80","z","Wed Jul  5 09:40:54 2023","The main experiment item","yes","m21-ab-lexicalDecision.osexp","C:\Users\emoore8\Desktop\m21_vsl-main","no","mono","no","18","no","white","no","yes","1080","legacy","79","79","C:/Users/emoore8/Desktop/m21_vsl-main/subject-213.csv","xpyriment","Lentiform Loewenfeld","3.3.11","0","/","space","NA","NA","NA","return","/","982","15476","NA","NA","NA","12257","982","2","legacy","1024","2","48000","-16","AB_m21","213","odd","NW_L_COMP","SHEETER","2253","379611","377460","370292","14521","343083","NA","NA","NA","NA","377960","NA","NA","NA","376959","NA","376934","2262","379911","NA","NA","NA","378001","2254","2254","NA","378984","379008","376934","377960","377981","morph21_Oliver/Morris","58","71772","80","yes","1920","5"
"350","72.8395061728395","72.8395061728395","896.0987654320987","896.0987654320987","black","no","xpyriment","legacy","legacy","0","203","NA","uniform","NA","NA","NA","1","undefined","1","0","80","80","80","0","80","80","80","NA","0","80","NA","NA","0","80","NA","80","0","80","NA","NA","NA","80","0","0","NA","80","80","80","80","80","81","z","Wed Jul  5 09:40:54 2023","The main experiment item","yes","m21-ab-lexicalDecision.osexp","C:\Users\emoore8\Desktop\m21_vsl-main","no","mono","no","18","no","white","no","yes","1080","legacy","80","80","C:/Users/emoore8/Desktop/m21_vsl-main/subject-213.csv","xpyriment","Lentiform Loewenfeld","3.3.11","0","z","space","NA","NA","NA","return","z","812","15476","NA","NA","NA","12257","812","2","legacy","1024","2","48000","-16","AB_m21","213","odd","NW_S_COMP","FIENDISM","2253","384908","381424","383403","14521","343083","NA","NA","NA","NA","381924","NA","NA","NA","380923","NA","380897","2262","385259","NA","NA","NA","381964","2254","2254","NA","382777","382800","380897","381924","381944","morph21_Oliver/Morris","59","72584","81","yes","1920","24"
"350","73.17073170731707","73.17073170731707","892.2073170731708","892.2073170731708","black","no","xpyriment","legacy","legacy","0","202","NA","uniform","NA","NA","NA","1","undefined","1","0","81","81","81","0","81","81","81","NA","0","81","NA","NA","0","81","NA","81","0","81","NA","NA","NA","81","0","0","NA","81","81","81","81","81","82","/","Wed Jul  5 09:40:54 2023","The main experiment item","yes","m21-ab-lexicalDecision.osexp","C:\Users\emoore8\Desktop\m21_vsl-main","no","mono","no","18","no","white","no","yes","1080","legacy","81","81","C:/Users/emoore8/Desktop/m21_vsl-main/subject-213.csv","xpyriment","Lentiform Loewenfeld","3.3.11","0","/","space","NA","NA","NA","return","/","577","15476","NA","NA","NA","12257","577","2","legacy","1024","2","48000","-16","AB_m21","213","odd","CW_L","PARKING","2253","388518","386771","383403","14521","343083","NA","NA","NA","NA","387271","NA","NA","NA","386271","NA","386245","2262","388868","NA","NA","NA","387311","2254","2254","NA","387888","387914","386245","387271","387291","morph21_Oliver/Morris","60","73161","82","yes","1920","25"
"350","73.49397590361446","73.49397590361446","892.0963855421687","892.0963855421687","black","no","xpyriment","legacy","legacy","0","207","NA","uniform","NA","NA","NA","1","undefined","1","0","82","82","82","0","82","82","82","NA","0","82","NA","NA","0","82","NA","82","0","82","NA","NA","NA","82","0","0","NA","82","82","82","82","82","83","/","Wed Jul  5 09:40:54 2023","The main experiment item","yes","m21-ab-lexicalDecision.osexp","C:\Users\emoore8\Desktop\m21_vsl-main","no","mono","no","18","no","white","no","yes","1080","legacy","82","82","C:/Users/emoore8/Desktop/m21_vsl-main/subject-213.csv","xpyriment","Lentiform Loewenfeld","3.3.11","0","/","space","NA","NA","NA","return","/","883","15476","NA","NA","NA","12257","883","2","legacy","1024","2","48000","-16","AB_m21","213","odd","FILL_W","GLOOM","2253","392420","390368","383403","14521","343083","NA","NA","NA","NA","390868","NA","NA","NA","389868","NA","389840","2262","392771","NA","NA","NA","390909","2254","2254","NA","391792","391817","389840","390868","390889","morph21_Oliver/Morris","61","74044","83","yes","1920","14"
"350","73.80952380952381","73.80952380952381","891.7380952380952","891.7380952380952","black","no","xpyriment","legacy","legacy","0","203","NA","uniform","NA","NA","NA","1","undefined","1","0","83","83","83","0","83","83","83","NA","0","83","NA","NA","0","83","NA","83","0","83","NA","NA","NA","83","0","0","NA","83","83","83","83","83","84","z","Wed Jul  5 09:40:54 2023","The main experiment item","yes","m21-ab-lexicalDecision.osexp","C:\Users\emoore8\Desktop\m21_vsl-main","no","mono","no","18","no","white","no","yes","1080","legacy","83","83","C:/Users/emoore8/Desktop/m21_vsl-main/subject-213.csv","xpyriment","Lentiform Loewenfeld","3.3.11","0","z","space","NA","NA","NA","return","z","862","15476","NA","NA","NA","12257","862","2","legacy","1024","2","48000","-16","AB_m21","213","odd","NW_S_COMP","DEBTISH","2253","397813","394276","396307","14521","343083","NA","NA","NA","NA","394776","NA","NA","NA","393776","NA","393752","2262","398163","NA","NA","NA","394817","2254","2254","NA","395680","395704","393752","394776","394797","morph21_Oliver/Morris","62","74906","84","yes","1920","22"
"350","74.11764705882354","74.11764705882354","892.2","892.2","black","no","xpyriment","legacy","legacy","0","206","NA","uniform","NA","NA","NA","1","undefined","1","0","84","84","84","0","84","84","84","NA","0","84","NA","NA","0","84","NA","84","0","84","NA","NA","NA","84","0","0","NA","84","84","84","84","84","85","z","Wed Jul  5 09:40:54 2023","The main experiment item","yes","m21-ab-lexicalDecision.osexp","C:\Users\emoore8\Desktop\m21_vsl-main","no","mono","no","18","no","white","no","yes","1080","legacy","84","84","C:/Users/emoore8/Desktop/m21_vsl-main/subject-213.csv","xpyriment","Lentiform Loewenfeld","3.3.11","0","z","space","NA","NA","NA","return","z","931","15476","NA","NA","NA","12257","931","2","legacy","1024","2","48000","-16","AB_m21","213","odd","NW_L_SIMP","PICKENGE","2253","401771","399672","396307","14521","343083","NA","NA","NA","NA","400172","NA","NA","NA","399171","NA","399142","2262","402121","NA","NA","NA","400213","2254","2254","NA","401145","401168","399142","400172","400193","morph21_Oliver/Morris","63","75837","85","yes","1920","5"
"300","74.4186046511628","74.4186046511628","892.5581395348837","892.5581395348837","black","no","xpyriment","legacy","legacy","0","204","NA","uniform","NA","NA","NA","1","undefined","1","0","85","85","85","0","85","85","85","NA","0","85","NA","NA","0","85","NA","85","0","85","NA","NA","NA","85","0","0","NA","85","85","85","85","85","86","z","Wed Jul  5 09:40:54 2023","The main experiment item","yes","m21-ab-lexicalDecision.osexp","C:\Users\emoore8\Desktop\m21_vsl-main","no","mono","no","18","no","white","no","yes","1080","legacy","85","85","C:/Users/emoore8/Desktop/m21_vsl-main/subject-213.csv","xpyriment","Lentiform Loewenfeld","3.3.11","0","z","space","NA","NA","NA","return","z","923","15476","NA","NA","NA","12257","923","2","legacy","1024","2","48000","-16","AB_m21","213","odd","NW_L_COMP","EMPLOYNESS","2253","405716","403623","396307","14521","343083","NA","NA","NA","NA","404123","NA","NA","NA","403122","NA","403096","2262","406016","NA","NA","NA","404164","2254","2254","NA","405088","405112","403096","404123","404144","morph21_Oliver/Morris","64","76760","86","yes","1920","21"
"200","74.71264367816092","74.71264367816092","890.9770114942529","890.9770114942529","black","no","xpyriment","legacy","legacy","0","208","NA","uniform","NA","NA","NA","1","undefined","1","0","86","86","86","0","86","86","86","NA","0","86","NA","NA","0","86","NA","86","0","86","NA","NA","NA","86","0","0","NA","86","86","86","86","86","87","z","Wed Jul  5 09:40:54 2023","The main experiment item","yes","m21-ab-lexicalDecision.osexp","C:\Users\emoore8\Desktop\m21_vsl-main","no","mono","no","18","no","white","no","yes","1080","legacy","86","86","C:/Users/emoore8/Desktop/m21_vsl-main/subject-213.csv","xpyriment","Lentiform Loewenfeld","3.3.11","0","z","space","NA","NA","NA","return","z","755","15476","NA","NA","NA","12257","755","2","legacy","1024","2","48000","-16","AB_m21","213","odd","FILL_NW","GAIRS","2253","410962","407535","409459","14521","343083","NA","NA","NA","NA","408035","NA","NA","NA","407035","NA","407005","2262","411162","NA","NA","NA","408076","2254","2254","NA","408832","408855","407005","408035","408056","morph21_Oliver/Morris","65","77515","87","yes","1920","23"
"300","75","75","888.0909090909091","888.0909090909091","black","no","xpyriment","legacy","legacy","0","207","NA","uniform","NA","NA","NA","1","undefined","1","0","87","87","87","0","87","87","87","NA","0","87","NA","NA","0","87","NA","87","0","87","NA","NA","NA","87","0","0","NA","87","87","87","87","87","88","/","Wed Jul  5 09:40:54 2023","The main experiment item","yes","m21-ab-lexicalDecision.osexp","C:\Users\emoore8\Desktop\m21_vsl-main","no","mono","no","18","no","white","no","yes","1080","legacy","87","87","C:/Users/emoore8/Desktop/m21_vsl-main/subject-213.csv","xpyriment","Lentiform Loewenfeld","3.3.11","0","/","space","NA","NA","NA","return","/","637","15476","NA","NA","NA","12257","637","2","legacy","1024","2","48000","-16","AB_m21","213","odd","FILL_W","MOURN","2253","414465","412660","409459","14521","343083","NA","NA","NA","NA","413161","NA","NA","NA","412160","NA","412134","2262","414765","NA","NA","NA","413202","2254","2254","NA","413840","413863","412134","413161","413182","morph21_Oliver/Morris","66","78152","88","yes","1920","26"
"300","75.28089887640449","75.28089887640449","884.8202247191011","884.8202247191011","black","no","xpyriment","legacy","legacy","0","205","NA","uniform","NA","NA","NA","1","undefined","1","0","88","88","88","0","88","88","88","NA","0","88","NA","NA","0","88","NA","88","0","88","NA","NA","NA","88","0","0","NA","88","88","88","88","88","89","z","Wed Jul  5 09:40:54 2023","The main experiment item","yes","m21-ab-lexicalDecision.osexp","C:\Users\emoore8\Desktop\m21_vsl-main","no","mono","no","18","no","white","no","yes","1080","legacy","88","88","C:/Users/emoore8/Desktop/m21_vsl-main/subject-213.csv","xpyriment","Lentiform Loewenfeld","3.3.11","0","z","space","NA","NA","NA","return","z","597","15476","NA","NA","NA","12257","597","2","legacy","1024","2","48000","-16","AB_m21","213","odd","NW_S_SIMP","FEVERIME","2253","418026","416261","409459","14521","343083","NA","NA","NA","NA","416761","NA","NA","NA","415761","NA","415734","2262","418326","NA","NA","NA","416802","2254","2254","NA","417400","417423","415734","416761","416782","morph21_Oliver/Morris","67","78749","89","yes","1920","24"
"350","74.44444444444444","74.44444444444444","883.3111111111111","883.3111111111111","black","no","xpyriment","legacy","legacy","0","202","NA","uniform","NA","NA","NA","0","undefined","0","0","89","89","89","0","89","89","89","NA","0","89","NA","NA","0","89","NA","89","0","89","NA","NA","NA","89","0","0","NA","89","89","89","89","89","90","/","Wed Jul  5 09:40:54 2023","The main experiment item","yes","m21-ab-lexicalDecision.osexp","C:\Users\emoore8\Desktop\m21_vsl-main","no","mono","no","18","no","white","no","yes","1080","legacy","89","89","C:/Users/emoore8/Desktop/m21_vsl-main/subject-213.csv","xpyriment","Lentiform Loewenfeld","3.3.11","0","z","space","NA","NA","NA","return","z","749","15476","NA","NA","NA","12257","749","2","legacy","1024","2","48000","-16","AB_m21","213","odd","CW_L","BARKER","2253","423241","419821","421738","14521","343083","NA","NA","NA","NA","420321","NA","NA","NA","419320","NA","419295","2262","423591","NA","NA","NA","420362","2254","2254","NA","421112","421135","419295","420321","420342","morph21_Oliver/Morris","67","79498","90","yes","1920","2"
