"ITI","acc","accuracy","average_response_time","avg_rt","background","bidi","canvas_backend","clock_backend","color_backend","compensation","cond_trig","condtrigtime","coordinates","coroutines_cycles","coroutines_duration","coroutines_mean_cycle_duration","correct","correct_instructions_1","correct_new_keyboard_response_1","count_AB_m21","count_ITI","count_blank_screen","count_blink_screen","count_block1","count_break1","count_break2","count_break3_1","count_canvas","count_close_port","count_cond_trigger","count_correct_trigger","count_def_chain","count_end_screen","count_fixation_1","count_getting_started","count_inc_counter","count_instructions_1","count_logger","count_logscript","count_new_inline_script","count_new_inline_script_2","count_new_keyboard_response_1","count_open_port","count_reset_counter_prep","count_reset_counter_run","count_response_trigger_trial","count_responsescreen","count_sequence","count_target_present","count_word_trigger","counter","cresp","datetime","description","disable_garbage_collection","experiment_file","experiment_path","font_bold","font_family","font_italic","font_size","font_underline","foreground","form_clicks","fullscreen","height","keyboard_backend","live_row","live_row_block1","logfile","mouse_backend","opensesame_codename","opensesame_version","repeat_cycle","response","response_break1","response_break2","response_break3_1","response_end_screen","response_instructions_1","response_new_keyboard_response_1","response_time","response_time_break1","response_time_break2","response_time_break3_1","response_time_end_screen","response_time_instructions_1","response_time_new_keyboard_response_1","round_decimals","sampler_backend","sound_buf_size","sound_channels","sound_freq","sound_sample_size","start","subject_nr","subject_parity","targ_type","target","time_AB_m21","time_ITI","time_blank_screen","time_blink_screen","time_block1","time_break1","time_break2","time_break3_1","time_canvas","time_close_port","time_cond_trigger","time_correct_trigger","time_def_chain","time_end_screen","time_fixation_1","time_getting_started","time_inc_counter","time_instructions_1","time_logger","time_logscript","time_new_inline_script","time_new_inline_script_2","time_new_keyboard_response_1","time_open_port","time_reset_counter_prep","time_reset_counter_run","time_response_trigger_trial","time_responsescreen","time_sequence","time_target_present","time_word_trigger","title","total_correct","total_response_time","total_responses","uniform_coordinates","width","word_trig"
"250","0","0","1200","1200","black","no","xpyriment","legacy","legacy","0","203","NA","uniform","NA","NA","NA","0","undefined","0","0","0","0","0","0","0","0","0","NA","0","0","NA","NA","0","0","NA","0","0","0","NA","NA","NA","0","0","0","NA","0","0","0","0","0","1","z","Mon Feb 12 15:39:42 2024","The main experiment item","yes","m21-ab-lexicalDecision.osexp","C:\Users\ekealey\Desktop","no","mono","no","18","no","white","no","yes","1080","legacy","0","0","C:/Users/ekealey/Desktop/subject-235.csv","xpyriment","Lentiform Loewenfeld","3.3.11","0","None","NA","NA","NA","NA","space","None","1200","NA","NA","NA","NA","60884","1200","2","legacy","1024","2","48000","-16","AB_m21","235","odd","NW_S_COMP","BRANCHER","1975","67205","64837","NA","62870","NA","NA","NA","NA","NA","65337","NA","NA","NA","64335","NA","64302","1985","67455","NA","NA","NA","65378","1976","1976","NA","66578","66602","64301","65337","65358","morph21_Oliver/Morris","0","1200","1","yes","1920","16"
"300","0","0","1200","1200","black","no","xpyriment","legacy","legacy","0","201","NA","uniform","NA","NA","NA","0","undefined","0","0","1","1","1","0","1","1","1","NA","0","1","NA","NA","0","1","NA","1","0","1","NA","NA","NA","1","0","0","NA","1","1","1","1","1","2","/","Mon Feb 12 15:39:42 2024","The main experiment item","yes","m21-ab-lexicalDecision.osexp","C:\Users\ekealey\Desktop","no","mono","no","18","no","white","no","yes","1080","legacy","1","1","C:/Users/ekealey/Desktop/subject-235.csv","xpyriment","Lentiform Loewenfeld","3.3.11","0","None","NA","NA","NA","NA","space","None","1200","NA","NA","NA","NA","60884","1200","2","legacy","1024","2","48000","-16","AB_m21","235","odd","CW_S","INSISTENT","1975","71418","69050","NA","62870","NA","NA","NA","NA","NA","69550","NA","NA","NA","68550","NA","68522","1985","71718","NA","NA","NA","69592","1976","1976","NA","70792","70815","68522","69550","69572","morph21_Oliver/Morris","0","2400","2","yes","1920","9"
"200","0","0","1200","1200","black","no","xpyriment","legacy","legacy","0","208","NA","uniform","NA","NA","NA","0","undefined","0","0","2","2","2","0","2","2","2","NA","0","2","NA","NA","0","2","NA","2","0","2","NA","NA","NA","2","0","0","NA","2","2","2","2","2","3","z","Mon Feb 12 15:39:42 2024","The main experiment item","yes","m21-ab-lexicalDecision.osexp","C:\Users\ekealey\Desktop","no","mono","no","18","no","white","no","yes","1080","legacy","2","2","C:/Users/ekealey/Desktop/subject-235.csv","xpyriment","Lentiform Loewenfeld","3.3.11","0","None","NA","NA","NA","NA","space","None","1200","NA","NA","NA","NA","60884","1200","2","legacy","1024","2","48000","-16","AB_m21","235","odd","FILL_NW","HOITS","1975","77192","73318","75686","62870","NA","NA","NA","NA","NA","73818","NA","NA","NA","72817","NA","72788","1985","77392","NA","NA","NA","73858","1976","1976","NA","75058","75083","72788","73818","73838","morph21_Oliver/Morris","0","3600","3","yes","1920","30"
"300","0","0","1200","1200","black","no","xpyriment","legacy","legacy","0","208","NA","uniform","NA","NA","NA","0","undefined","0","0","3","3","3","0","3","3","3","NA","0","3","NA","NA","0","3","NA","3","0","3","NA","NA","NA","3","0","0","NA","3","3","3","3","3","4","z","Mon Feb 12 15:39:42 2024","The main experiment item","yes","m21-ab-lexicalDecision.osexp","C:\Users\ekealey\Desktop","no","mono","no","18","no","white","no","yes","1080","legacy","3","3","C:/Users/ekealey/Desktop/subject-235.csv","xpyriment","Lentiform Loewenfeld","3.3.11","0","None","NA","NA","NA","NA","space","None","1200","NA","NA","NA","NA","60884","1200","2","legacy","1024","2","48000","-16","AB_m21","235","odd","FILL_NW","VOGS","1975","81372","79002","75686","62870","NA","NA","NA","NA","NA","79502","NA","NA","NA","78501","NA","78474","1985","81672","NA","NA","NA","79542","1976","1976","NA","80742","80768","78474","79502","79522","morph21_Oliver/Morris","0","4800","4","yes","1920","47"
"300","20","20","1153.2","1153.2","black","no","xpyriment","legacy","legacy","0","207","NA","uniform","NA","NA","NA","1","undefined","1","0","4","4","4","0","4","4","4","NA","0","4","NA","NA","0","4","NA","4","0","4","NA","NA","NA","4","0","0","NA","4","4","4","4","4","5","/","Mon Feb 12 15:39:42 2024","The main experiment item","yes","m21-ab-lexicalDecision.osexp","C:\Users\ekealey\Desktop","no","mono","no","18","no","white","no","yes","1080","legacy","4","4","C:/Users/ekealey/Desktop/subject-235.csv","xpyriment","Lentiform Loewenfeld","3.3.11","0","/","NA","NA","NA","NA","space","/","966","NA","NA","NA","NA","60884","966","2","legacy","1024","2","48000","-16","AB_m21","235","odd","FILL_W","MOURN","1975","85408","83273","75686","62870","NA","NA","NA","NA","NA","83773","NA","NA","NA","82772","NA","82745","1985","85708","NA","NA","NA","83815","1976","1976","NA","84782","84805","82745","83773","83794","morph21_Oliver/Morris","1","5766","5","yes","1920","26"
"350","33.333333333333336","33.333333333333336","1083.6666666666667","1083.6666666666667","black","no","xpyriment","legacy","legacy","0","201","NA","uniform","NA","NA","NA","1","undefined","1","0","5","5","5","0","5","5","5","NA","0","5","NA","NA","0","5","NA","5","0","5","NA","NA","NA","5","0","0","NA","5","5","5","5","5","6","/","Mon Feb 12 15:39:42 2024","The main experiment item","yes","m21-ab-lexicalDecision.osexp","C:\Users\ekealey\Desktop","no","mono","no","18","no","white","no","yes","1080","legacy","5","5","C:/Users/ekealey/Desktop/subject-235.csv","xpyriment","Lentiform Loewenfeld","3.3.11","0","/","NA","NA","NA","NA","space","/","736","NA","NA","NA","NA","60884","736","2","legacy","1024","2","48000","-16","AB_m21","235","odd","CW_S","TEACHER","1975","90706","87295","89203","62870","NA","NA","NA","NA","NA","87796","NA","NA","NA","86793","NA","86768","1985","91056","NA","NA","NA","87837","1976","1976","NA","88574","88600","86768","87796","87817","morph21_Oliver/Morris","2","6502","6","yes","1920","23"
"250","42.857142857142854","42.857142857142854","1051","1051","black","no","xpyriment","legacy","legacy","0","206","NA","uniform","NA","NA","NA","1","undefined","1","0","6","6","6","0","6","6","6","NA","0","6","NA","NA","0","6","NA","6","0","6","NA","NA","NA","6","0","0","NA","6","6","6","6","6","7","z","Mon Feb 12 15:39:42 2024","The main experiment item","yes","m21-ab-lexicalDecision.osexp","C:\Users\ekealey\Desktop","no","mono","no","18","no","white","no","yes","1080","legacy","6","6","C:/Users/ekealey/Desktop/subject-235.csv","xpyriment","Lentiform Loewenfeld","3.3.11","0","z","NA","NA","NA","NA","space","z","855","NA","NA","NA","NA","60884","855","2","legacy","1024","2","48000","-16","AB_m21","235","odd","NW_L_SIMP","BEARILT","1975","94667","92641","89203","62870","NA","NA","NA","NA","NA","93141","NA","NA","NA","92141","NA","92112","1985","94917","NA","NA","NA","93182","1976","1976","NA","94038","94061","92112","93141","93162","morph21_Oliver/Morris","3","7357","7","yes","1920","25"
"300","50","50","1022.875","1022.875","black","no","xpyriment","legacy","legacy","0","203","NA","uniform","NA","NA","NA","1","undefined","1","0","7","7","7","0","7","7","7","NA","0","7","NA","NA","0","7","NA","7","0","7","NA","NA","NA","7","0","0","NA","7","7","7","7","7","8","z","Mon Feb 12 15:39:42 2024","The main experiment item","yes","m21-ab-lexicalDecision.osexp","C:\Users\ekealey\Desktop","no","mono","no","18","no","white","no","yes","1080","legacy","7","7","C:/Users/ekealey/Desktop/subject-235.csv","xpyriment","Lentiform Loewenfeld","3.3.11","0","z","NA","NA","NA","NA","space","z","826","NA","NA","NA","NA","60884","826","2","legacy","1024","2","48000","-16","AB_m21","235","odd","NW_S_COMP","CURTITY","1975","98489","96493","89203","62870","NA","NA","NA","NA","NA","96994","NA","NA","NA","95993","NA","95964","1985","98789","NA","NA","NA","97035","1976","1976","NA","97862","97886","95964","96994","97015","morph21_Oliver/Morris","4","8183","8","yes","1920","11"
"350","55.55555555555556","55.55555555555556","981.4444444444445","981.4444444444445","black","no","xpyriment","legacy","legacy","0","207","NA","uniform","NA","NA","NA","1","undefined","1","0","8","8","8","0","8","8","8","NA","0","8","NA","NA","0","8","NA","8","0","8","NA","NA","NA","8","0","0","NA","8","8","8","8","8","9","/","Mon Feb 12 15:39:42 2024","The main experiment item","yes","m21-ab-lexicalDecision.osexp","C:\Users\ekealey\Desktop","no","mono","no","18","no","white","no","yes","1080","legacy","8","8","C:/Users/ekealey/Desktop/subject-235.csv","xpyriment","Lentiform Loewenfeld","3.3.11","0","/","NA","NA","NA","NA","space","/","650","NA","NA","NA","NA","60884","650","2","legacy","1024","2","48000","-16","AB_m21","235","odd","FILL_W","LEAK","1975","103687","100366","102184","62870","NA","NA","NA","NA","NA","100866","NA","NA","NA","99866","NA","99840","1985","104037","NA","NA","NA","100907","1976","1976","NA","101558","101581","99840","100866","100887","morph21_Oliver/Morris","5","8833","9","yes","1920","9"
"300","60","60","948.1","948.1","black","no","xpyriment","legacy","legacy","0","207","NA","uniform","NA","NA","NA","1","undefined","1","0","9","9","9","0","9","9","9","NA","0","9","NA","NA","0","9","NA","9","0","9","NA","NA","NA","9","0","0","NA","9","9","9","9","9","10","/","Mon Feb 12 15:39:42 2024","The main experiment item","yes","m21-ab-lexicalDecision.osexp","C:\Users\ekealey\Desktop","no","mono","no","18","no","white","no","yes","1080","legacy","9","9","C:/Users/ekealey/Desktop/subject-235.csv","xpyriment","Lentiform Loewenfeld","3.3.11","0","/","NA","NA","NA","NA","space","/","648","NA","NA","NA","NA","60884","648","2","legacy","1024","2","48000","-16","AB_m21","235","odd","FILL_W","SICK","1975","107442","105623","102184","62870","NA","NA","NA","NA","NA","106124","NA","NA","NA","105122","NA","105096","1985","107742","NA","NA","NA","106165","1976","1976","NA","106814","106837","105096","106124","106145","morph21_Oliver/Morris","6","9481","10","yes","1920","36"
"250","63.63636363636363","63.63636363636363","936.0909090909091","936.0909090909091","black","no","xpyriment","legacy","legacy","0","204","NA","uniform","NA","NA","NA","1","undefined","1","0","10","10","10","0","10","10","10","NA","0","10","NA","NA","0","10","NA","10","0","10","NA","NA","NA","10","0","0","NA","10","10","10","10","10","11","z","Mon Feb 12 15:39:42 2024","The main experiment item","yes","m21-ab-lexicalDecision.osexp","C:\Users\ekealey\Desktop","no","mono","no","18","no","white","no","yes","1080","legacy","10","10","C:/Users/ekealey/Desktop/subject-235.csv","xpyriment","Lentiform Loewenfeld","3.3.11","0","z","NA","NA","NA","NA","space","z","816","NA","NA","NA","NA","60884","816","2","legacy","1024","2","48000","-16","AB_m21","235","odd","NW_L_COMP","BREAKITY","1975","111376","109390","102184","62870","NA","NA","NA","NA","NA","109892","NA","NA","NA","108890","NA","108865","1985","111626","NA","NA","NA","109933","1976","1976","NA","110749","110773","108865","109892","109913","morph21_Oliver/Morris","7","10297","11","yes","1920","23"
"250","66.66666666666667","66.66666666666667","932.75","932.75","black","no","xpyriment","legacy","legacy","0","207","NA","uniform","NA","NA","NA","1","undefined","1","0","11","11","11","0","11","11","11","NA","0","11","NA","NA","0","11","NA","11","0","11","NA","NA","NA","11","0","0","NA","11","11","11","11","11","12","/","Mon Feb 12 15:39:42 2024","The main experiment item","yes","m21-ab-lexicalDecision.osexp","C:\Users\ekealey\Desktop","no","mono","no","18","no","white","no","yes","1080","legacy","11","11","C:/Users/ekealey/Desktop/subject-235.csv","xpyriment","Lentiform Loewenfeld","3.3.11","0","/","NA","NA","NA","NA","space","/","896","NA","NA","NA","NA","60884","896","2","legacy","1024","2","48000","-16","AB_m21","235","odd","FILL_W","SOUGHT","1975","116784","113217","115280","62870","NA","NA","NA","NA","NA","113717","NA","NA","NA","112717","NA","112689","1985","117034","NA","NA","NA","113757","1976","1976","NA","114654","114677","112689","113717","113737","morph21_Oliver/Morris","8","11193","12","yes","1920","40"
"250","69.23076923076923","69.23076923076923","909.5384615384615","909.5384615384615","black","no","xpyriment","legacy","legacy","0","202","NA","uniform","NA","NA","NA","1","undefined","1","0","12","12","12","0","12","12","12","NA","0","12","NA","NA","0","12","NA","12","0","12","NA","NA","NA","12","0","0","NA","12","12","12","12","12","13","/","Mon Feb 12 15:39:42 2024","The main experiment item","yes","m21-ab-lexicalDecision.osexp","C:\Users\ekealey\Desktop","no","mono","no","18","no","white","no","yes","1080","legacy","12","12","C:/Users/ekealey/Desktop/subject-235.csv","xpyriment","Lentiform Loewenfeld","3.3.11","0","/","NA","NA","NA","NA","space","/","631","NA","NA","NA","NA","60884","631","2","legacy","1024","2","48000","-16","AB_m21","235","odd","CW_L","FLEXIBLE","1975","120425","118624","115280","62870","NA","NA","NA","NA","NA","119125","NA","NA","NA","118124","NA","118099","1985","120675","NA","NA","NA","119166","1976","1976","NA","119797","119821","118099","119125","119146","morph21_Oliver/Morris","9","11824","13","yes","1920","22"
"300","71.42857142857143","71.42857142857143","887","887","black","no","xpyriment","legacy","legacy","0","201","NA","uniform","NA","NA","NA","1","undefined","1","0","13","13","13","0","13","13","13","NA","0","13","NA","NA","0","13","NA","13","0","13","NA","NA","NA","13","0","0","NA","13","13","13","13","13","14","/","Mon Feb 12 15:39:42 2024","The main experiment item","yes","m21-ab-lexicalDecision.osexp","C:\Users\ekealey\Desktop","no","mono","no","18","no","white","no","yes","1080","legacy","13","13","C:/Users/ekealey/Desktop/subject-235.csv","xpyriment","Lentiform Loewenfeld","3.3.11","0","/","NA","NA","NA","NA","space","/","594","NA","NA","NA","NA","60884","594","2","legacy","1024","2","48000","-16","AB_m21","235","odd","CW_S","BUYER","1975","124024","122259","115280","62870","NA","NA","NA","NA","NA","122761","NA","NA","NA","121757","NA","121729","1985","124324","NA","NA","NA","122803","1976","1976","NA","123397","123420","121729","122761","122782","morph21_Oliver/Morris","10","12418","14","yes","1920","21"
"300","73.33333333333333","73.33333333333333","879.8","879.8","black","no","xpyriment","legacy","legacy","0","202","NA","uniform","NA","NA","NA","1","undefined","1","0","14","14","14","0","14","14","14","NA","0","14","NA","NA","0","14","NA","14","0","14","NA","NA","NA","14","0","0","NA","14","14","14","14","14","15","/","Mon Feb 12 15:39:42 2024","The main experiment item","yes","m21-ab-lexicalDecision.osexp","C:\Users\ekealey\Desktop","no","mono","no","18","no","white","no","yes","1080","legacy","14","14","C:/Users/ekealey/Desktop/subject-235.csv","xpyriment","Lentiform Loewenfeld","3.3.11","0","/","NA","NA","NA","NA","space","/","779","NA","NA","NA","NA","60884","779","2","legacy","1024","2","48000","-16","AB_m21","235","odd","CW_L","MADNESS","1975","129361","125910","127857","62870","NA","NA","NA","NA","NA","126410","NA","NA","NA","125410","NA","125382","1985","129661","NA","NA","NA","126450","1976","1976","NA","127229","127253","125382","126410","126430","morph21_Oliver/Morris","11","13197","15","yes","1920","41"
"300","75","75","873.8125","873.8125","black","no","xpyriment","legacy","legacy","0","207","NA","uniform","NA","NA","NA","1","undefined","1","0","15","15","15","0","15","15","15","NA","0","15","NA","NA","0","15","NA","15","0","15","NA","NA","NA","15","0","0","NA","15","15","15","15","15","16","/","Mon Feb 12 15:39:42 2024","The main experiment item","yes","m21-ab-lexicalDecision.osexp","C:\Users\ekealey\Desktop","no","mono","no","18","no","white","no","yes","1080","legacy","15","15","C:/Users/ekealey/Desktop/subject-235.csv","xpyriment","Lentiform Loewenfeld","3.3.11","0","/","NA","NA","NA","NA","space","/","784","NA","NA","NA","NA","60884","784","2","legacy","1024","2","48000","-16","AB_m21","235","odd","FILL_W","BLUNT","1975","133194","131240","127857","62870","NA","NA","NA","NA","NA","131740","NA","NA","NA","130740","NA","130710","1985","133494","NA","NA","NA","131781","1976","1976","NA","132565","132590","130710","131740","131761","morph21_Oliver/Morris","12","13981","16","yes","1920","4"
"400","76.47058823529412","76.47058823529412","862.1764705882352","862.1764705882352","black","no","xpyriment","legacy","legacy","0","207","NA","uniform","NA","NA","NA","1","undefined","1","0","16","16","16","0","16","16","16","NA","0","16","NA","NA","0","16","NA","16","0","16","NA","NA","NA","16","0","0","NA","16","16","16","16","16","17","/","Mon Feb 12 15:39:42 2024","The main experiment item","yes","m21-ab-lexicalDecision.osexp","C:\Users\ekealey\Desktop","no","mono","no","18","no","white","no","yes","1080","legacy","16","16","C:/Users/ekealey/Desktop/subject-235.csv","xpyriment","Lentiform Loewenfeld","3.3.11","0","/","NA","NA","NA","NA","space","/","676","NA","NA","NA","NA","60884","676","2","legacy","1024","2","48000","-16","AB_m21","235","odd","FILL_W","STEEP","1975","136931","135083","127857","62870","NA","NA","NA","NA","NA","135583","NA","NA","NA","134583","NA","134554","1985","137331","NA","NA","NA","135625","1976","1976","NA","136302","136326","134554","135583","135605","morph21_Oliver/Morris","13","14657","17","yes","1920","16"
"300","77.77777777777777","77.77777777777777","862.2777777777778","862.2777777777778","black","no","xpyriment","legacy","legacy","0","206","NA","uniform","NA","NA","NA","1","undefined","1","0","17","17","17","0","17","17","17","NA","0","17","NA","NA","0","17","NA","17","0","17","NA","NA","NA","17","0","0","NA","17","17","17","17","17","18","z","Mon Feb 12 15:39:42 2024","The main experiment item","yes","m21-ab-lexicalDecision.osexp","C:\Users\ekealey\Desktop","no","mono","no","18","no","white","no","yes","1080","legacy","17","17","C:/Users/ekealey/Desktop/subject-235.csv","xpyriment","Lentiform Loewenfeld","3.3.11","0","z","NA","NA","NA","NA","space","z","864","NA","NA","NA","NA","60884","864","2","legacy","1024","2","48000","-16","AB_m21","235","odd","NW_L_SIMP","BANDADY","1975","142467","138927","140962","62870","NA","NA","NA","NA","NA","139429","NA","NA","NA","138424","NA","138400","1985","142767","NA","NA","NA","139469","1976","1976","NA","140333","140357","138400","139428","139449","morph21_Oliver/Morris","14","15521","18","yes","1920","3"
"400","78.94736842105263","78.94736842105263","876.1052631578947","876.1052631578947","black","no","xpyriment","legacy","legacy","0","208","NA","uniform","NA","NA","NA","1","undefined","1","0","18","18","18","0","18","18","18","NA","0","18","NA","NA","0","18","NA","18","0","18","NA","NA","NA","18","0","0","NA","18","18","18","18","18","19","z","Mon Feb 12 15:39:42 2024","The main experiment item","yes","m21-ab-lexicalDecision.osexp","C:\Users\ekealey\Desktop","no","mono","no","18","no","white","no","yes","1080","legacy","18","18","C:/Users/ekealey/Desktop/subject-235.csv","xpyriment","Lentiform Loewenfeld","3.3.11","0","z","NA","NA","NA","NA","space","z","1125","NA","NA","NA","NA","60884","1125","2","legacy","1024","2","48000","-16","AB_m21","235","odd","FILL_NW","FROES","1975","146707","144411","140962","62870","NA","NA","NA","NA","NA","144911","NA","NA","NA","143911","NA","143884","1985","147107","NA","NA","NA","144952","1976","1976","NA","146077","146104","143884","144911","144931","morph21_Oliver/Morris","15","16646","19","yes","1920","21"
"400","80","80","869.6","869.6","black","no","xpyriment","legacy","legacy","0","201","NA","uniform","NA","NA","NA","1","undefined","1","0","19","19","19","0","19","19","19","NA","0","19","NA","NA","0","19","NA","19","0","19","NA","NA","NA","19","0","0","NA","19","19","19","19","19","20","/","Mon Feb 12 15:39:42 2024","The main experiment item","yes","m21-ab-lexicalDecision.osexp","C:\Users\ekealey\Desktop","no","mono","no","18","no","white","no","yes","1080","legacy","19","19","C:/Users/ekealey/Desktop/subject-235.csv","xpyriment","Lentiform Loewenfeld","3.3.11","0","/","NA","NA","NA","NA","space","/","746","NA","NA","NA","NA","60884","746","2","legacy","1024","2","48000","-16","AB_m21","235","odd","CW_S","DIETARY","1975","150634","148717","140962","62870","NA","NA","NA","NA","NA","149217","NA","NA","NA","148217","NA","148189","1985","151034","NA","NA","NA","149259","1976","1976","NA","150005","150031","148189","149217","149239","morph21_Oliver/Morris","16","17392","20","yes","1920","6"
"250","80.95238095238095","80.95238095238095","860.3809523809524","860.3809523809524","black","no","xpyriment","legacy","legacy","0","202","NA","uniform","NA","NA","NA","1","undefined","1","0","20","20","20","0","20","20","20","NA","0","20","NA","NA","0","20","NA","20","0","20","NA","NA","NA","20","0","0","NA","20","20","20","20","20","21","/","Mon Feb 12 15:39:42 2024","The main experiment item","yes","m21-ab-lexicalDecision.osexp","C:\Users\ekealey\Desktop","no","mono","no","18","no","white","no","yes","1080","legacy","20","20","C:/Users/ekealey/Desktop/subject-235.csv","xpyriment","Lentiform Loewenfeld","3.3.11","0","/","NA","NA","NA","NA","space","/","676","NA","NA","NA","NA","60884","676","2","legacy","1024","2","48000","-16","AB_m21","235","odd","CW_L","DANCER","1975","155952","152604","154449","62870","NA","NA","NA","NA","NA","153104","NA","NA","NA","152102","NA","152075","1985","156202","NA","NA","NA","153145","1976","1976","NA","153821","153845","152075","153104","153125","morph21_Oliver/Morris","17","18068","21","yes","1920","11"
"300","81.81818181818181","81.81818181818181","851.4545454545455","851.4545454545455","black","no","xpyriment","legacy","legacy","0","205","NA","uniform","NA","NA","NA","1","undefined","1","0","21","21","21","0","21","21","21","NA","0","21","NA","NA","0","21","NA","21","0","21","NA","NA","NA","21","0","0","NA","21","21","21","21","21","22","z","Mon Feb 12 15:39:42 2024","The main experiment item","yes","m21-ab-lexicalDecision.osexp","C:\Users\ekealey\Desktop","no","mono","no","18","no","white","no","yes","1080","legacy","21","21","C:/Users/ekealey/Desktop/subject-235.csv","xpyriment","Lentiform Loewenfeld","3.3.11","0","z","NA","NA","NA","NA","space","z","664","NA","NA","NA","NA","60884","664","2","legacy","1024","2","48000","-16","AB_m21","235","odd","NW_S_SIMP","SOCKETEL","1975","159609","157777","154449","62870","NA","NA","NA","NA","NA","158277","NA","NA","NA","157277","NA","157248","1985","159909","NA","NA","NA","158317","1976","1976","NA","158982","159005","157248","158277","158297","morph21_Oliver/Morris","18","18732","22","yes","1920","1"
"400","82.6086956521739","82.6086956521739","860.5217391304348","860.5217391304348","black","no","xpyriment","legacy","legacy","0","202","NA","uniform","NA","NA","NA","1","undefined","1","0","22","22","22","0","22","22","22","NA","0","22","NA","NA","0","22","NA","22","0","22","NA","NA","NA","22","0","0","NA","22","22","22","22","22","23","/","Mon Feb 12 15:39:42 2024","The main experiment item","yes","m21-ab-lexicalDecision.osexp","C:\Users\ekealey\Desktop","no","mono","no","18","no","white","no","yes","1080","legacy","22","22","C:/Users/ekealey/Desktop/subject-235.csv","xpyriment","Lentiform Loewenfeld","3.3.11","0","/","NA","NA","NA","NA","space","/","1060","NA","NA","NA","NA","60884","1060","2","legacy","1024","2","48000","-16","AB_m21","235","odd","CW_L","DRYNESS","1975","163706","161476","154449","62870","NA","NA","NA","NA","NA","161977","NA","NA","NA","160976","NA","160948","1985","164106","NA","NA","NA","162017","1976","1976","NA","163078","163102","160948","161977","161997","morph21_Oliver/Morris","19","19792","23","yes","1920","42"
"250","83.33333333333333","83.33333333333333","855.9583333333334","855.9583333333334","black","no","xpyriment","legacy","legacy","0","204","NA","uniform","NA","NA","NA","1","undefined","1","0","23","23","23","0","23","23","23","NA","0","23","NA","NA","0","23","NA","23","0","23","NA","NA","NA","23","0","0","NA","23","23","23","23","23","24","z","Mon Feb 12 15:39:42 2024","The main experiment item","yes","m21-ab-lexicalDecision.osexp","C:\Users\ekealey\Desktop","no","mono","no","18","no","white","no","yes","1080","legacy","23","23","C:/Users/ekealey/Desktop/subject-235.csv","xpyriment","Lentiform Loewenfeld","3.3.11","0","z","NA","NA","NA","NA","space","z","751","NA","NA","NA","NA","60884","751","2","legacy","1024","2","48000","-16","AB_m21","235","odd","NW_L_COMP","MUDLY","1975","169098","165673","167595","62870","NA","NA","NA","NA","NA","166173","NA","NA","NA","165173","NA","165145","1985","169349","NA","NA","NA","166214","1976","1976","NA","166966","166990","165145","166173","166194","morph21_Oliver/Morris","20","20543","24","yes","1920","12"
"400","84","84","861.6","861.6","black","no","xpyriment","legacy","legacy","0","201","NA","uniform","NA","NA","NA","1","undefined","1","0","24","24","24","0","24","24","24","NA","0","24","NA","NA","0","24","NA","24","0","24","NA","NA","NA","24","0","0","NA","24","24","24","24","24","25","/","Mon Feb 12 15:39:42 2024","The main experiment item","yes","m21-ab-lexicalDecision.osexp","C:\Users\ekealey\Desktop","no","mono","no","18","no","white","no","yes","1080","legacy","24","24","C:/Users/ekealey/Desktop/subject-235.csv","xpyriment","Lentiform Loewenfeld","3.3.11","0","/","NA","NA","NA","NA","space","/","997","NA","NA","NA","NA","60884","997","2","legacy","1024","2","48000","-16","AB_m21","235","odd","CW_S","WIDOWED","1975","173138","170971","167595","62870","NA","NA","NA","NA","NA","171472","NA","NA","NA","170470","NA","170443","1985","173538","NA","NA","NA","171512","1976","1976","NA","172509","172534","170443","171472","171492","morph21_Oliver/Morris","21","21540","25","yes","1920","7"
"200","84.61538461538461","84.61538461538461","864.0769230769231","864.0769230769231","black","no","xpyriment","legacy","legacy","0","208","NA","uniform","NA","NA","NA","1","undefined","1","0","25","25","25","0","25","25","25","NA","0","25","NA","NA","0","25","NA","25","0","25","NA","NA","NA","25","0","0","NA","25","25","25","25","25","26","z","Mon Feb 12 15:39:42 2024","The main experiment item","yes","m21-ab-lexicalDecision.osexp","C:\Users\ekealey\Desktop","no","mono","no","18","no","white","no","yes","1080","legacy","25","25","C:/Users/ekealey/Desktop/subject-235.csv","xpyriment","Lentiform Loewenfeld","3.3.11","0","z","NA","NA","NA","NA","space","z","926","NA","NA","NA","NA","60884","926","2","legacy","1024","2","48000","-16","AB_m21","235","odd","FILL_NW","BLAYS","1975","177227","175129","167595","62870","NA","NA","NA","NA","NA","175630","NA","NA","NA","174628","NA","174603","1985","177427","NA","NA","NA","175671","1976","1976","NA","176597","176622","174603","175630","175651","morph21_Oliver/Morris","22","22466","26","yes","1920","8"
"200","85.18518518518519","85.18518518518519","863.7407407407408","863.7407407407408","black","no","xpyriment","legacy","legacy","0","205","NA","uniform","NA","NA","NA","1","undefined","1","0","26","26","26","0","26","26","26","NA","0","26","NA","NA","0","26","NA","26","0","26","NA","NA","NA","26","0","0","NA","26","26","26","26","26","27","z","Mon Feb 12 15:39:42 2024","The main experiment item","yes","m21-ab-lexicalDecision.osexp","C:\Users\ekealey\Desktop","no","mono","no","18","no","white","no","yes","1080","legacy","26","26","C:/Users/ekealey/Desktop/subject-235.csv","xpyriment","Lentiform Loewenfeld","3.3.11","0","z","NA","NA","NA","NA","space","z","855","NA","NA","NA","NA","60884","855","2","legacy","1024","2","48000","-16","AB_m21","235","odd","NW_S_SIMP","NULLITH","1975","182513","178985","181008","62870","NA","NA","NA","NA","NA","179485","NA","NA","NA","178485","NA","178459","1985","182713","NA","NA","NA","179526","1976","1976","NA","180381","180405","178459","179485","179506","morph21_Oliver/Morris","23","23321","27","yes","1920","23"
"200","82.14285714285714","82.14285714285714","875.75","875.75","black","no","xpyriment","legacy","legacy","0","203","NA","uniform","NA","NA","NA","0","undefined","0","0","27","27","27","0","27","27","27","NA","0","27","NA","NA","0","27","NA","27","0","27","NA","NA","NA","27","0","0","NA","27","27","27","27","27","28","z","Mon Feb 12 15:39:42 2024","The main experiment item","yes","m21-ab-lexicalDecision.osexp","C:\Users\ekealey\Desktop","no","mono","no","18","no","white","no","yes","1080","legacy","27","27","C:/Users/ekealey/Desktop/subject-235.csv","xpyriment","Lentiform Loewenfeld","3.3.11","0","None","NA","NA","NA","NA","space","None","1200","NA","NA","NA","NA","60884","1200","2","legacy","1024","2","48000","-16","AB_m21","235","odd","NW_S_COMP","HAPPENANCE","1975","186675","184306","181008","62870","NA","NA","NA","NA","NA","184807","NA","NA","NA","183806","NA","183779","1985","186875","NA","NA","NA","184848","1976","1976","NA","186048","186071","183779","184807","184827","morph21_Oliver/Morris","23","24521","28","yes","1920","2"
"400","82.75862068965517","82.75862068965517","885.2758620689655","885.2758620689655","black","no","xpyriment","legacy","legacy","0","205","NA","uniform","NA","NA","NA","1","undefined","1","0","28","28","28","0","28","28","28","NA","0","28","NA","NA","0","28","NA","28","0","28","NA","NA","NA","28","0","0","NA","28","28","28","28","28","29","z","Mon Feb 12 15:39:42 2024","The main experiment item","yes","m21-ab-lexicalDecision.osexp","C:\Users\ekealey\Desktop","no","mono","no","18","no","white","no","yes","1080","legacy","28","28","C:/Users/ekealey/Desktop/subject-235.csv","xpyriment","Lentiform Loewenfeld","3.3.11","0","z","NA","NA","NA","NA","space","z","1152","NA","NA","NA","NA","60884","1152","2","legacy","1024","2","48000","-16","AB_m21","235","odd","NW_S_SIMP","URNILT","1975","190817","188495","181008","62870","NA","NA","NA","NA","NA","188997","NA","NA","NA","187992","NA","187966","1985","191217","NA","NA","NA","189037","1976","1976","NA","190190","190214","187966","188997","189017","morph21_Oliver/Morris","24","25673","29","yes","1920","5"
"250","83.33333333333333","83.33333333333333","884.1","884.1","black","no","xpyriment","legacy","legacy","0","201","NA","uniform","NA","NA","NA","1","undefined","1","0","29","29","29","0","29","29","29","NA","0","29","NA","NA","0","29","NA","29","0","29","NA","NA","NA","29","0","0","NA","29","29","29","29","29","30","/","Mon Feb 12 15:39:42 2024","The main experiment item","yes","m21-ab-lexicalDecision.osexp","C:\Users\ekealey\Desktop","no","mono","no","18","no","white","no","yes","1080","legacy","29","29","C:/Users/ekealey/Desktop/subject-235.csv","xpyriment","Lentiform Loewenfeld","3.3.11","0","/","NA","NA","NA","NA","space","/","850","NA","NA","NA","NA","60884","850","2","legacy","1024","2","48000","-16","AB_m21","235","odd","CW_S","GRIMLY","1975","196345","192822","194841","62870","NA","NA","NA","NA","NA","193322","NA","NA","NA","192321","NA","192297","1985","196595","NA","NA","NA","193363","1976","1976","NA","194214","194237","192297","193322","193343","morph21_Oliver/Morris","25","26523","30","yes","1920","31"
"250","83.87096774193549","83.87096774193549","887.7741935483871","887.7741935483871","black","no","xpyriment","legacy","legacy","0","202","NA","uniform","NA","NA","NA","1","undefined","1","0","30","30","30","0","30","30","30","NA","0","30","NA","NA","0","30","NA","30","0","30","NA","NA","NA","30","0","0","NA","30","30","30","30","30","31","/","Mon Feb 12 15:39:42 2024","The main experiment item","yes","m21-ab-lexicalDecision.osexp","C:\Users\ekealey\Desktop","no","mono","no","18","no","white","no","yes","1080","legacy","30","30","C:/Users/ekealey/Desktop/subject-235.csv","xpyriment","Lentiform Loewenfeld","3.3.11","0","/","NA","NA","NA","NA","space","/","998","NA","NA","NA","NA","60884","998","2","legacy","1024","2","48000","-16","AB_m21","235","odd","CW_L","DEAFNESS","1975","200384","198218","194841","62870","NA","NA","NA","NA","NA","198718","NA","NA","NA","197717","NA","197692","1985","200634","NA","NA","NA","198759","1976","1976","NA","199758","199781","197692","198718","198739","morph21_Oliver/Morris","26","27521","31","yes","1920","39"
"200","84.375","84.375","880.90625","880.90625","black","no","xpyriment","legacy","legacy","0","201","NA","uniform","NA","NA","NA","1","undefined","1","0","31","31","31","0","31","31","31","NA","0","31","NA","NA","0","31","NA","31","0","31","NA","NA","NA","31","0","0","NA","31","31","31","31","31","32","/","Mon Feb 12 15:39:42 2024","The main experiment item","yes","m21-ab-lexicalDecision.osexp","C:\Users\ekealey\Desktop","no","mono","no","18","no","white","no","yes","1080","legacy","31","31","C:/Users/ekealey/Desktop/subject-235.csv","xpyriment","Lentiform Loewenfeld","3.3.11","0","/","NA","NA","NA","NA","space","/","668","NA","NA","NA","NA","60884","668","2","legacy","1024","2","48000","-16","AB_m21","235","odd","CW_S","BOLDNESS","1975","204080","202243","194841","62870","NA","NA","NA","NA","NA","202743","NA","NA","NA","201743","NA","201716","1985","204280","NA","NA","NA","202785","1976","1976","NA","203453","203477","201716","202743","202764","morph21_Oliver/Morris","27","28189","32","yes","1920","41"
"200","84.84848484848484","84.84848484848484","876.1212121212121","876.1212121212121","black","no","xpyriment","legacy","legacy","0","203","NA","uniform","NA","NA","NA","1","undefined","1","0","32","32","32","0","32","32","32","NA","0","32","NA","NA","0","32","NA","32","0","32","NA","NA","NA","32","0","0","NA","32","32","32","32","32","33","z","Mon Feb 12 15:39:42 2024","The main experiment item","yes","m21-ab-lexicalDecision.osexp","C:\Users\ekealey\Desktop","no","mono","no","18","no","white","no","yes","1080","legacy","32","32","C:/Users/ekealey/Desktop/subject-235.csv","xpyriment","Lentiform Loewenfeld","3.3.11","0","z","NA","NA","NA","NA","space","z","723","NA","NA","NA","NA","60884","723","2","legacy","1024","2","48000","-16","AB_m21","235","odd","NW_S_COMP","PILLIZE","1975","209249","205854","207746","62870","NA","NA","NA","NA","NA","206354","NA","NA","NA","205353","NA","205325","1985","209449","NA","NA","NA","206394","1976","1976","NA","207118","207143","205325","206354","206374","morph21_Oliver/Morris","28","28912","33","yes","1920","13"
"300","85.29411764705883","85.29411764705883","873.3823529411765","873.3823529411765","black","no","xpyriment","legacy","legacy","0","206","NA","uniform","NA","NA","NA","1","undefined","1","0","33","33","33","0","33","33","33","NA","0","33","NA","NA","0","33","NA","33","0","33","NA","NA","NA","33","0","0","NA","33","33","33","33","33","34","z","Mon Feb 12 15:39:42 2024","The main experiment item","yes","m21-ab-lexicalDecision.osexp","C:\Users\ekealey\Desktop","no","mono","no","18","no","white","no","yes","1080","legacy","33","33","C:/Users/ekealey/Desktop/subject-235.csv","xpyriment","Lentiform Loewenfeld","3.3.11","0","z","NA","NA","NA","NA","space","z","783","NA","NA","NA","NA","60884","783","2","legacy","1024","2","48000","-16","AB_m21","235","odd","NW_L_SIMP","LONGNELS","1975","212984","211031","207746","62870","NA","NA","NA","NA","NA","211533","NA","NA","NA","210531","NA","210500","1985","213284","NA","NA","NA","211574","1976","1976","NA","212357","212381","210500","211533","211554","morph21_Oliver/Morris","29","29695","34","yes","1920","17"
"250","85.71428571428571","85.71428571428571","868.0571428571428","868.0571428571428","black","no","xpyriment","legacy","legacy","0","202","NA","uniform","NA","NA","NA","1","undefined","1","0","34","34","34","0","34","34","34","NA","0","34","NA","NA","0","34","NA","34","0","34","NA","NA","NA","34","0","0","NA","34","34","34","34","34","35","/","Mon Feb 12 15:39:42 2024","The main experiment item","yes","m21-ab-lexicalDecision.osexp","C:\Users\ekealey\Desktop","no","mono","no","18","no","white","no","yes","1080","legacy","34","34","C:/Users/ekealey/Desktop/subject-235.csv","xpyriment","Lentiform Loewenfeld","3.3.11","0","/","NA","NA","NA","NA","space","/","687","NA","NA","NA","NA","60884","687","2","legacy","1024","2","48000","-16","AB_m21","235","odd","CW_L","STRIKER","1975","216706","214850","207746","62870","NA","NA","NA","NA","NA","215350","NA","NA","NA","214349","NA","214319","1985","216957","NA","NA","NA","215390","1976","1976","NA","216078","216103","214319","215350","215370","morph21_Oliver/Morris","30","30382","35","yes","1920","17"
"350","86.11111111111111","86.11111111111111","866.0277777777778","866.0277777777778","black","no","xpyriment","legacy","legacy","0","203","NA","uniform","NA","NA","NA","1","undefined","1","0","35","35","35","0","35","35","35","NA","0","35","NA","NA","0","35","NA","35","0","35","NA","NA","NA","35","0","0","NA","35","35","35","35","35","36","z","Mon Feb 12 15:39:42 2024","The main experiment item","yes","m21-ab-lexicalDecision.osexp","C:\Users\ekealey\Desktop","no","mono","no","18","no","white","no","yes","1080","legacy","35","35","C:/Users/ekealey/Desktop/subject-235.csv","xpyriment","Lentiform Loewenfeld","3.3.11","0","z","NA","NA","NA","NA","space","z","795","NA","NA","NA","NA","60884","795","2","legacy","1024","2","48000","-16","AB_m21","235","odd","NW_S_COMP","PRINCEMENT","1975","222002","218533","220499","62870","NA","NA","NA","NA","NA","219034","NA","NA","NA","218032","NA","218005","1985","222352","NA","NA","NA","219074","1976","1976","NA","219870","219893","218005","219034","219054","morph21_Oliver/Morris","31","31177","36","yes","1920","17"
"250","86.48648648648648","86.48648648648648","871.1891891891892","871.1891891891892","black","no","xpyriment","legacy","legacy","0","203","NA","uniform","NA","NA","NA","1","undefined","1","0","36","36","36","0","36","36","36","NA","0","36","NA","NA","0","36","NA","36","0","36","NA","NA","NA","36","0","0","NA","36","36","36","36","36","37","z","Mon Feb 12 15:39:42 2024","The main experiment item","yes","m21-ab-lexicalDecision.osexp","C:\Users\ekealey\Desktop","no","mono","no","18","no","white","no","yes","1080","legacy","36","36","C:/Users/ekealey/Desktop/subject-235.csv","xpyriment","Lentiform Loewenfeld","3.3.11","0","z","NA","NA","NA","NA","space","z","1057","NA","NA","NA","NA","60884","1057","2","legacy","1024","2","48000","-16","AB_m21","235","odd","NW_S_COMP","BEERER","1975","226164","223933","220499","62870","NA","NA","NA","NA","NA","224434","NA","NA","NA","223431","NA","223404","1985","226414","NA","NA","NA","224475","1976","1976","NA","225533","225559","223404","224434","224455","morph21_Oliver/Morris","32","32234","37","yes","1920","5"
"350","86.84210526315789","86.84210526315789","863.578947368421","863.578947368421","black","no","xpyriment","legacy","legacy","0","202","NA","uniform","NA","NA","NA","1","undefined","1","0","37","37","37","0","37","37","37","NA","0","37","NA","NA","0","37","NA","37","0","37","NA","NA","NA","37","0","0","NA","37","37","37","37","37","38","/","Mon Feb 12 15:39:42 2024","The main experiment item","yes","m21-ab-lexicalDecision.osexp","C:\Users\ekealey\Desktop","no","mono","no","18","no","white","no","yes","1080","legacy","37","37","C:/Users/ekealey/Desktop/subject-235.csv","xpyriment","Lentiform Loewenfeld","3.3.11","0","/","NA","NA","NA","NA","space","/","582","NA","NA","NA","NA","60884","582","2","legacy","1024","2","48000","-16","AB_m21","235","odd","CW_L","HUNTER","1975","229737","227986","220499","62870","NA","NA","NA","NA","NA","228486","NA","NA","NA","227485","NA","227456","1985","230087","NA","NA","NA","228527","1976","1976","NA","229110","229133","227456","228486","228507","morph21_Oliver/Morris","33","32816","38","yes","1920","10"
"200","87.17948717948718","87.17948717948718","858.7179487179487","858.7179487179487","black","no","xpyriment","legacy","legacy","0","207","NA","uniform","NA","NA","NA","1","undefined","1","0","38","38","38","0","38","38","38","NA","0","38","NA","NA","0","38","NA","38","0","38","NA","NA","NA","38","0","0","NA","38","38","38","38","38","39","/","Mon Feb 12 15:39:42 2024","The main experiment item","yes","m21-ab-lexicalDecision.osexp","C:\Users\ekealey\Desktop","no","mono","no","18","no","white","no","yes","1080","legacy","38","38","C:/Users/ekealey/Desktop/subject-235.csv","xpyriment","Lentiform Loewenfeld","3.3.11","0","/","NA","NA","NA","NA","space","/","674","NA","NA","NA","NA","60884","674","2","legacy","1024","2","48000","-16","AB_m21","235","odd","FILL_W","STALK","1975","235023","231677","233520","62870","NA","NA","NA","NA","NA","232178","NA","NA","NA","231177","NA","231149","1985","235223","NA","NA","NA","232218","1976","1976","NA","232893","232917","231149","232178","232198","morph21_Oliver/Morris","34","33490","39","yes","1920","27"
"250","87.5","87.5","855.475","855.475","black","no","xpyriment","legacy","legacy","0","201","NA","uniform","NA","NA","NA","1","undefined","1","0","39","39","39","0","39","39","39","NA","0","39","NA","NA","0","39","NA","39","0","39","NA","NA","NA","39","0","0","NA","39","39","39","39","39","40","/","Mon Feb 12 15:39:42 2024","The main experiment item","yes","m21-ab-lexicalDecision.osexp","C:\Users\ekealey\Desktop","no","mono","no","18","no","white","no","yes","1080","legacy","39","39","C:/Users/ekealey/Desktop/subject-235.csv","xpyriment","Lentiform Loewenfeld","3.3.11","0","/","NA","NA","NA","NA","space","/","729","NA","NA","NA","NA","60884","729","2","legacy","1024","2","48000","-16","AB_m21","235","odd","CW_S","AWARENESS","1975","238713","236816","233520","62870","NA","NA","NA","NA","NA","237316","NA","NA","NA","236316","NA","236288","1985","238963","NA","NA","NA","237356","1976","1976","NA","238086","238110","236288","237316","237336","morph21_Oliver/Morris","35","34219","40","yes","1920","44"
"200","87.8048780487805","87.8048780487805","854.8048780487804","854.8048780487804","black","no","xpyriment","legacy","legacy","0","207","NA","uniform","NA","NA","NA","1","undefined","1","0","40","40","40","0","40","40","40","NA","0","40","NA","NA","0","40","NA","40","0","40","NA","NA","NA","40","0","0","NA","40","40","40","40","40","41","/","Mon Feb 12 15:39:42 2024","The main experiment item","yes","m21-ab-lexicalDecision.osexp","C:\Users\ekealey\Desktop","no","mono","no","18","no","white","no","yes","1080","legacy","40","40","C:/Users/ekealey/Desktop/subject-235.csv","xpyriment","Lentiform Loewenfeld","3.3.11","0","/","NA","NA","NA","NA","space","/","828","NA","NA","NA","NA","60884","828","2","legacy","1024","2","48000","-16","AB_m21","235","odd","FILL_W","SAVE","1975","242530","240532","233520","62870","NA","NA","NA","NA","NA","241033","NA","NA","NA","240031","NA","240005","1985","242731","NA","NA","NA","241073","1976","1976","NA","241901","241926","240005","241033","241053","morph21_Oliver/Morris","36","35047","41","yes","1920","46"
"250","88.0952380952381","88.0952380952381","853.7142857142857","853.7142857142857","black","no","xpyriment","legacy","legacy","0","208","NA","uniform","NA","NA","NA","1","undefined","1","0","41","41","41","0","41","41","41","NA","0","41","NA","NA","0","41","NA","41","0","41","NA","NA","NA","41","0","0","NA","41","41","41","41","41","42","z","Mon Feb 12 15:39:42 2024","The main experiment item","yes","m21-ab-lexicalDecision.osexp","C:\Users\ekealey\Desktop","no","mono","no","18","no","white","no","yes","1080","legacy","41","41","C:/Users/ekealey/Desktop/subject-235.csv","xpyriment","Lentiform Loewenfeld","3.3.11","0","z","NA","NA","NA","NA","space","z","809","NA","NA","NA","NA","60884","809","2","legacy","1024","2","48000","-16","AB_m21","235","odd","FILL_NW","PIFTH","1975","247796","244311","246291","62870","NA","NA","NA","NA","NA","244811","NA","NA","NA","243811","NA","243783","1985","248046","NA","NA","NA","244852","1976","1976","NA","245661","245685","243782","244811","244832","morph21_Oliver/Morris","37","35856","42","yes","1920","36"
"300","88.37209302325581","88.37209302325581","853.2790697674419","853.2790697674419","black","no","xpyriment","legacy","legacy","0","202","NA","uniform","NA","NA","NA","1","undefined","1","0","42","42","42","0","42","42","42","NA","0","42","NA","NA","0","42","NA","42","0","42","NA","NA","NA","42","0","0","NA","42","42","42","42","42","43","/","Mon Feb 12 15:39:42 2024","The main experiment item","yes","m21-ab-lexicalDecision.osexp","C:\Users\ekealey\Desktop","no","mono","no","18","no","white","no","yes","1080","legacy","42","42","C:/Users/ekealey/Desktop/subject-235.csv","xpyriment","Lentiform Loewenfeld","3.3.11","0","/","NA","NA","NA","NA","space","/","835","NA","NA","NA","NA","60884","835","2","legacy","1024","2","48000","-16","AB_m21","235","odd","CW_L","COMPOSER","1975","251682","249676","246291","62870","NA","NA","NA","NA","NA","250176","NA","NA","NA","249176","NA","249146","1985","251982","NA","NA","NA","250218","1976","1976","NA","251054","251078","249146","250176","250197","morph21_Oliver/Morris","38","36691","43","yes","1920","6"
"300","86.36363636363636","86.36363636363636","861.1590909090909","861.1590909090909","black","no","xpyriment","legacy","legacy","0","206","NA","uniform","NA","NA","NA","0","undefined","0","0","43","43","43","0","43","43","43","NA","0","43","NA","NA","0","43","NA","43","0","43","NA","NA","NA","43","0","0","NA","43","43","43","43","43","44","z","Mon Feb 12 15:39:42 2024","The main experiment item","yes","m21-ab-lexicalDecision.osexp","C:\Users\ekealey\Desktop","no","mono","no","18","no","white","no","yes","1080","legacy","43","43","C:/Users/ekealey/Desktop/subject-235.csv","xpyriment","Lentiform Loewenfeld","3.3.11","0","None","NA","NA","NA","NA","space","None","1200","NA","NA","NA","NA","60884","1200","2","legacy","1024","2","48000","-16","AB_m21","235","odd","NW_L_SIMP","BEGENGE","1975","255937","253566","246291","62870","NA","NA","NA","NA","NA","254067","NA","NA","NA","253064","NA","253039","1985","256238","NA","NA","NA","254108","1976","1976","NA","255308","255334","253039","254067","254088","morph21_Oliver/Morris","38","37891","44","yes","1920","4"
"200","86.66666666666667","86.66666666666667","855.4222222222222","855.4222222222222","black","no","xpyriment","legacy","legacy","0","207","NA","uniform","NA","NA","NA","1","undefined","1","0","44","44","44","0","44","44","44","NA","0","44","NA","NA","0","44","NA","44","0","44","NA","NA","NA","44","0","0","NA","44","44","44","44","44","45","/","Mon Feb 12 15:39:42 2024","The main experiment item","yes","m21-ab-lexicalDecision.osexp","C:\Users\ekealey\Desktop","no","mono","no","18","no","white","no","yes","1080","legacy","44","44","C:/Users/ekealey/Desktop/subject-235.csv","xpyriment","Lentiform Loewenfeld","3.3.11","0","/","NA","NA","NA","NA","space","/","603","NA","NA","NA","NA","60884","603","2","legacy","1024","2","48000","-16","AB_m21","235","odd","FILL_W","TAX","1975","261079","257806","259576","62870","NA","NA","NA","NA","NA","258306","NA","NA","NA","257306","NA","257279","1985","261279","NA","NA","NA","258346","1976","1976","NA","258949","258973","257279","258306","258326","morph21_Oliver/Morris","39","38494","45","yes","1920","45"
"200","86.95652173913044","86.95652173913044","849.6086956521739","849.6086956521739","black","no","xpyriment","legacy","legacy","0","208","NA","uniform","NA","NA","NA","1","undefined","1","0","45","45","45","0","45","45","45","NA","0","45","NA","NA","0","45","NA","45","0","45","NA","NA","NA","45","0","0","NA","45","45","45","45","45","46","z","Mon Feb 12 15:39:42 2024","The main experiment item","yes","m21-ab-lexicalDecision.osexp","C:\Users\ekealey\Desktop","no","mono","no","18","no","white","no","yes","1080","legacy","45","45","C:/Users/ekealey/Desktop/subject-235.csv","xpyriment","Lentiform Loewenfeld","3.3.11","0","z","NA","NA","NA","NA","space","z","588","NA","NA","NA","NA","60884","588","2","legacy","1024","2","48000","-16","AB_m21","235","odd","FILL_NW","GILN","1975","264635","262875","259576","62870","NA","NA","NA","NA","NA","263376","NA","NA","NA","262374","NA","262347","1985","264835","NA","NA","NA","263416","1976","1976","NA","264005","264031","262346","263376","263396","morph21_Oliver/Morris","40","39082","46","yes","1920","25"
"400","87.23404255319149","87.23404255319149","844","844","black","no","xpyriment","legacy","legacy","0","201","NA","uniform","NA","NA","NA","1","undefined","1","0","46","46","46","0","46","46","46","NA","0","46","NA","NA","0","46","NA","46","0","46","NA","NA","NA","46","0","0","NA","46","46","46","46","46","47","/","Mon Feb 12 15:39:42 2024","The main experiment item","yes","m21-ab-lexicalDecision.osexp","C:\Users\ekealey\Desktop","no","mono","no","18","no","white","no","yes","1080","legacy","46","46","C:/Users/ekealey/Desktop/subject-235.csv","xpyriment","Lentiform Loewenfeld","3.3.11","0","/","NA","NA","NA","NA","space","/","586","NA","NA","NA","NA","60884","586","2","legacy","1024","2","48000","-16","AB_m21","235","odd","CW_S","EFFORTLESS","1975","268196","266438","259576","62870","NA","NA","NA","NA","NA","266939","NA","NA","NA","265937","NA","265909","1985","268596","NA","NA","NA","266979","1976","1976","NA","267565","267592","265909","266939","266959","morph21_Oliver/Morris","41","39668","47","yes","1920","30"
"250","87.5","87.5","839.4375","839.4375","black","no","xpyriment","legacy","legacy","0","207","NA","uniform","NA","NA","NA","1","undefined","1","0","47","47","47","0","47","47","47","NA","0","47","NA","NA","0","47","NA","47","0","47","NA","NA","NA","47","0","0","NA","47","47","47","47","47","48","/","Mon Feb 12 15:39:42 2024","The main experiment item","yes","m21-ab-lexicalDecision.osexp","C:\Users\ekealey\Desktop","no","mono","no","18","no","white","no","yes","1080","legacy","47","47","C:/Users/ekealey/Desktop/subject-235.csv","xpyriment","Lentiform Loewenfeld","3.3.11","0","/","NA","NA","NA","NA","space","/","625","NA","NA","NA","NA","60884","625","2","legacy","1024","2","48000","-16","AB_m21","235","odd","FILL_W","TASTE","1975","273479","270183","271976","62870","NA","NA","NA","NA","NA","270683","NA","NA","NA","269683","NA","269655","1985","273729","NA","NA","NA","270723","1976","1976","NA","271349","271373","269655","270683","270703","morph21_Oliver/Morris","42","40293","48","yes","1920","34"
"300","87.75510204081633","87.75510204081633","839.6326530612245","839.6326530612245","black","no","xpyriment","legacy","legacy","0","201","NA","uniform","NA","NA","NA","1","undefined","1","0","48","48","48","0","48","48","48","NA","0","48","NA","NA","0","48","NA","48","0","48","NA","NA","NA","48","0","0","NA","48","48","48","48","48","49","/","Mon Feb 12 15:39:42 2024","The main experiment item","yes","m21-ab-lexicalDecision.osexp","C:\Users\ekealey\Desktop","no","mono","no","18","no","white","no","yes","1080","legacy","48","48","C:/Users/ekealey/Desktop/subject-235.csv","xpyriment","Lentiform Loewenfeld","3.3.11","0","/","NA","NA","NA","NA","space","/","849","NA","NA","NA","NA","60884","849","2","legacy","1024","2","48000","-16","AB_m21","235","odd","CW_S","MAGICAL","1975","277337","275319","271976","62870","NA","NA","NA","NA","NA","275820","NA","NA","NA","274818","NA","274790","1985","277637","NA","NA","NA","275860","1976","1976","NA","276709","276734","274790","275820","275840","morph21_Oliver/Morris","43","41142","49","yes","1920","4"
"400","88","88","842.38","842.38","black","no","xpyriment","legacy","legacy","0","202","NA","uniform","NA","NA","NA","1","undefined","1","0","49","49","49","0","49","49","49","NA","0","49","NA","NA","0","49","NA","49","0","49","NA","NA","NA","49","0","0","NA","49","49","49","49","49","50","/","Mon Feb 12 15:39:42 2024","The main experiment item","yes","m21-ab-lexicalDecision.osexp","C:\Users\ekealey\Desktop","no","mono","no","18","no","white","no","yes","1080","legacy","49","49","C:/Users/ekealey/Desktop/subject-235.csv","xpyriment","Lentiform Loewenfeld","3.3.11","0","/","NA","NA","NA","NA","space","/","977","NA","NA","NA","NA","60884","977","2","legacy","1024","2","48000","-16","AB_m21","235","odd","CW_L","CLOUDLESS","1975","281362","279215","271976","62870","NA","NA","NA","NA","NA","279715","NA","NA","NA","278714","NA","278685","1985","281762","NA","NA","NA","279756","1976","1976","NA","280734","280758","278685","279715","279736","morph21_Oliver/Morris","44","42119","50","yes","1920","33"
"200","88.23529411764706","88.23529411764706","838.9803921568628","838.9803921568628","black","no","xpyriment","legacy","legacy","0","203","NA","uniform","NA","NA","NA","1","undefined","1","0","50","50","50","0","50","50","50","NA","0","50","NA","NA","0","50","NA","50","0","50","NA","NA","NA","50","0","0","NA","50","50","50","50","50","51","z","Mon Feb 12 15:39:42 2024","The main experiment item","yes","m21-ab-lexicalDecision.osexp","C:\Users\ekealey\Desktop","no","mono","no","18","no","white","no","yes","1080","legacy","50","50","C:/Users/ekealey/Desktop/subject-235.csv","xpyriment","Lentiform Loewenfeld","3.3.11","0","z","NA","NA","NA","NA","space","z","669","NA","NA","NA","NA","60884","669","2","legacy","1024","2","48000","-16","AB_m21","235","odd","NW_S_COMP","ADOPTILP","1975","286697","283353","285191","62870","NA","NA","NA","NA","NA","283854","NA","NA","NA","282852","NA","282828","1985","286897","NA","NA","NA","283895","1976","1976","NA","284565","284588","282828","283854","283875","morph21_Oliver/Morris","45","42788","51","yes","1920","19"
"200","88.46153846153847","88.46153846153847","835.1538461538462","835.1538461538462","black","no","xpyriment","legacy","legacy","0","207","NA","uniform","NA","NA","NA","1","undefined","1","0","51","51","51","0","51","51","51","NA","0","51","NA","NA","0","51","NA","51","0","51","NA","NA","NA","51","0","0","NA","51","51","51","51","51","52","/","Mon Feb 12 15:39:42 2024","The main experiment item","yes","m21-ab-lexicalDecision.osexp","C:\Users\ekealey\Desktop","no","mono","no","18","no","white","no","yes","1080","legacy","51","51","C:/Users/ekealey/Desktop/subject-235.csv","xpyriment","Lentiform Loewenfeld","3.3.11","0","/","NA","NA","NA","NA","space","/","640","NA","NA","NA","NA","60884","640","2","legacy","1024","2","48000","-16","AB_m21","235","odd","FILL_W","OLD","1975","290289","288480","285191","62870","NA","NA","NA","NA","NA","288980","NA","NA","NA","287980","NA","287948","1985","290489","NA","NA","NA","289021","1976","1976","NA","289662","289685","287948","288980","289001","morph21_Oliver/Morris","46","43428","52","yes","1920","44"
"200","86.79245283018868","86.79245283018868","830.1698113207547","830.1698113207547","black","no","xpyriment","legacy","legacy","0","208","NA","uniform","NA","NA","NA","0","undefined","0","0","52","52","52","0","52","52","52","NA","0","52","NA","NA","0","52","NA","52","0","52","NA","NA","NA","52","0","0","NA","52","52","52","52","52","53","z","Mon Feb 12 15:39:42 2024","The main experiment item","yes","m21-ab-lexicalDecision.osexp","C:\Users\ekealey\Desktop","no","mono","no","18","no","white","no","yes","1080","legacy","52","52","C:/Users/ekealey/Desktop/subject-235.csv","xpyriment","Lentiform Loewenfeld","3.3.11","0","/","NA","NA","NA","NA","space","/","571","NA","NA","NA","NA","60884","571","2","legacy","1024","2","48000","-16","AB_m21","235","odd","FILL_NW","FALONS","1975","293808","292067","285191","62870","NA","NA","NA","NA","NA","292569","NA","NA","NA","291567","NA","291540","1985","294008","NA","NA","NA","292609","1976","1976","NA","293181","293204","291540","292569","292589","morph21_Oliver/Morris","46","43999","53","yes","1920","19"
"400","85.18518518518519","85.18518518518519","828.3518518518518","828.3518518518518","black","no","xpyriment","legacy","legacy","0","204","NA","uniform","NA","NA","NA","0","undefined","0","0","53","53","53","0","53","53","53","NA","0","53","NA","NA","0","53","NA","53","0","53","NA","NA","NA","53","0","0","NA","53","53","53","53","53","54","z","Mon Feb 12 15:39:42 2024","The main experiment item","yes","m21-ab-lexicalDecision.osexp","C:\Users\ekealey\Desktop","no","mono","no","18","no","white","no","yes","1080","legacy","53","53","C:/Users/ekealey/Desktop/subject-235.csv","xpyriment","Lentiform Loewenfeld","3.3.11","0","/","NA","NA","NA","NA","space","/","732","NA","NA","NA","NA","60884","732","2","legacy","1024","2","48000","-16","AB_m21","235","odd","NW_L_COMP","COLDITY","1975","299008","295604","297503","62870","NA","NA","NA","NA","NA","296104","NA","NA","NA","295103","NA","295076","1985","299408","NA","NA","NA","296144","1976","1976","NA","296877","296900","295076","296104","296124","morph21_Oliver/Morris","46","44731","54","yes","1920","10"
"400","85.45454545454545","85.45454545454545","829.4","829.4","black","no","xpyriment","legacy","legacy","0","206","NA","uniform","NA","NA","NA","1","undefined","1","0","54","54","54","0","54","54","54","NA","0","54","NA","NA","0","54","NA","54","0","54","NA","NA","NA","54","0","0","NA","54","54","54","54","54","55","z","Mon Feb 12 15:39:42 2024","The main experiment item","yes","m21-ab-lexicalDecision.osexp","C:\Users\ekealey\Desktop","no","mono","no","18","no","white","no","yes","1080","legacy","54","54","C:/Users/ekealey/Desktop/subject-235.csv","xpyriment","Lentiform Loewenfeld","3.3.11","0","z","NA","NA","NA","NA","space","z","886","NA","NA","NA","NA","60884","886","2","legacy","1024","2","48000","-16","AB_m21","235","odd","NW_L_SIMP","POORIDY","1975","303034","300977","297503","62870","NA","NA","NA","NA","NA","301478","NA","NA","NA","300477","NA","300445","1985","303434","NA","NA","NA","301518","1976","1976","NA","302405","302429","300445","301478","301498","morph21_Oliver/Morris","47","45617","55","yes","1920","13"
"400","85.71428571428571","85.71428571428571","825.7142857142857","825.7142857142857","black","no","xpyriment","legacy","legacy","0","201","NA","uniform","NA","NA","NA","1","undefined","1","0","55","55","55","0","55","55","55","NA","0","55","NA","NA","0","55","NA","55","0","55","NA","NA","NA","55","0","0","NA","55","55","55","55","55","56","/","Mon Feb 12 15:39:42 2024","The main experiment item","yes","m21-ab-lexicalDecision.osexp","C:\Users\ekealey\Desktop","no","mono","no","18","no","white","no","yes","1080","legacy","55","55","C:/Users/ekealey/Desktop/subject-235.csv","xpyriment","Lentiform Loewenfeld","3.3.11","0","/","NA","NA","NA","NA","space","/","623","NA","NA","NA","NA","60884","623","2","legacy","1024","2","48000","-16","AB_m21","235","odd","CW_S","AVOIDABLE","1975","306793","305000","297503","62870","NA","NA","NA","NA","NA","305501","NA","NA","NA","304496","NA","304470","1985","307193","NA","NA","NA","305541","1976","1976","NA","306165","306189","304470","305501","305521","morph21_Oliver/Morris","48","46240","56","yes","1920","2"
"400","85.96491228070175","85.96491228070175","821.8947368421053","821.8947368421053","black","no","xpyriment","legacy","legacy","0","208","NA","uniform","NA","NA","NA","1","undefined","1","0","56","56","56","0","56","56","56","NA","0","56","NA","NA","0","56","NA","56","0","56","NA","NA","NA","56","0","0","NA","56","56","56","56","56","57","z","Mon Feb 12 15:39:42 2024","The main experiment item","yes","m21-ab-lexicalDecision.osexp","C:\Users\ekealey\Desktop","no","mono","no","18","no","white","no","yes","1080","legacy","56","56","C:/Users/ekealey/Desktop/subject-235.csv","xpyriment","Lentiform Loewenfeld","3.3.11","0","z","NA","NA","NA","NA","space","z","608","NA","NA","NA","NA","60884","608","2","legacy","1024","2","48000","-16","AB_m21","235","odd","FILL_NW","CORG","1975","312039","308758","310537","62870","NA","NA","NA","NA","NA","309260","NA","NA","NA","308258","NA","308233","1985","312439","NA","NA","NA","309300","1976","1976","NA","309909","309934","308233","309260","309280","morph21_Oliver/Morris","49","46848","57","yes","1920","7"
"250","84.48275862068965","84.48275862068965","823.948275862069","823.948275862069","black","no","xpyriment","legacy","legacy","0","204","NA","uniform","NA","NA","NA","0","undefined","0","0","57","57","57","0","57","57","57","NA","0","57","NA","NA","0","57","NA","57","0","57","NA","NA","NA","57","0","0","NA","57","57","57","57","57","58","z","Mon Feb 12 15:39:42 2024","The main experiment item","yes","m21-ab-lexicalDecision.osexp","C:\Users\ekealey\Desktop","no","mono","no","18","no","white","no","yes","1080","legacy","57","57","C:/Users/ekealey/Desktop/subject-235.csv","xpyriment","Lentiform Loewenfeld","3.3.11","0","/","NA","NA","NA","NA","space","/","941","NA","NA","NA","NA","60884","941","2","legacy","1024","2","48000","-16","AB_m21","235","odd","NW_L_COMP","FREENESS","1975","316112","314002","310537","62870","NA","NA","NA","NA","NA","314503","NA","NA","NA","313501","NA","313468","1985","316362","NA","NA","NA","314543","1976","1976","NA","315485","315509","313468","314503","314523","morph21_Oliver/Morris","49","47789","58","yes","1920","15"
"200","84.7457627118644","84.7457627118644","822.8983050847457","822.8983050847457","black","no","xpyriment","legacy","legacy","0","204","NA","uniform","NA","NA","NA","1","undefined","1","0","58","58","58","0","58","58","58","NA","0","58","NA","NA","0","58","NA","58","0","58","NA","NA","NA","58","0","0","NA","58","58","58","58","58","59","z","Mon Feb 12 15:39:42 2024","The main experiment item","yes","m21-ab-lexicalDecision.osexp","C:\Users\ekealey\Desktop","no","mono","no","18","no","white","no","yes","1080","legacy","58","58","C:/Users/ekealey/Desktop/subject-235.csv","xpyriment","Lentiform Loewenfeld","3.3.11","0","z","NA","NA","NA","NA","space","z","762","NA","NA","NA","NA","60884","762","2","legacy","1024","2","48000","-16","AB_m21","235","odd","NW_L_COMP","GASFUL","1975","319880","317950","310537","62870","NA","NA","NA","NA","NA","318451","NA","NA","NA","317449","NA","317420","1985","320080","NA","NA","NA","318491","1976","1976","NA","319254","319277","317420","318451","318471","morph21_Oliver/Morris","50","48551","59","yes","1920","6"
"300","85","85","822.45","822.45","black","no","xpyriment","legacy","legacy","0","206","NA","uniform","NA","NA","NA","1","undefined","1","0","59","59","59","0","59","59","59","NA","0","59","NA","NA","0","59","NA","59","0","59","NA","NA","NA","59","0","0","NA","59","59","59","59","59","60","z","Mon Feb 12 15:39:42 2024","The main experiment item","yes","m21-ab-lexicalDecision.osexp","C:\Users\ekealey\Desktop","no","mono","no","18","no","white","no","yes","1080","legacy","59","59","C:/Users/ekealey/Desktop/subject-235.csv","xpyriment","Lentiform Loewenfeld","3.3.11","0","z","NA","NA","NA","NA","space","z","796","NA","NA","NA","NA","60884","796","2","legacy","1024","2","48000","-16","AB_m21","235","odd","NW_L_SIMP","PRAYANGE","1975","325121","321652","323617","62870","NA","NA","NA","NA","NA","322152","NA","NA","NA","321151","NA","321128","1985","325421","NA","NA","NA","322193","1976","1976","NA","322990","323014","321127","322152","322173","morph21_Oliver/Morris","51","49347","60","yes","1920","1"
"400","85.24590163934427","85.24590163934427","819.8032786885246","819.8032786885246","black","no","xpyriment","legacy","legacy","0","205","NA","uniform","NA","NA","NA","1","undefined","1","0","60","60","60","0","60","60","60","NA","0","60","NA","NA","0","60","NA","60","0","60","NA","NA","NA","60","0","0","NA","60","60","60","60","60","61","z","Mon Feb 12 15:39:42 2024","The main experiment item","yes","m21-ab-lexicalDecision.osexp","C:\Users\ekealey\Desktop","no","mono","no","18","no","white","no","yes","1080","legacy","60","60","C:/Users/ekealey/Desktop/subject-235.csv","xpyriment","Lentiform Loewenfeld","3.3.11","0","z","NA","NA","NA","NA","space","z","661","NA","NA","NA","NA","60884","661","2","legacy","1024","2","48000","-16","AB_m21","235","odd","NW_S_SIMP","AIDIG","1975","328839","327010","323617","62870","NA","NA","NA","NA","NA","327511","NA","NA","NA","326510","NA","326480","1985","329239","NA","NA","NA","327551","1976","1976","NA","328213","328236","326480","327511","327531","morph21_Oliver/Morris","52","50008","61","yes","1920","4"
"200","85.48387096774194","85.48387096774194","815.6774193548387","815.6774193548387","black","no","xpyriment","legacy","legacy","0","208","NA","uniform","NA","NA","NA","1","undefined","1","0","61","61","61","0","61","61","61","NA","0","61","NA","NA","0","61","NA","61","0","61","NA","NA","NA","61","0","0","NA","61","61","61","61","61","62","z","Mon Feb 12 15:39:42 2024","The main experiment item","yes","m21-ab-lexicalDecision.osexp","C:\Users\ekealey\Desktop","no","mono","no","18","no","white","no","yes","1080","legacy","61","61","C:/Users/ekealey/Desktop/subject-235.csv","xpyriment","Lentiform Loewenfeld","3.3.11","0","z","NA","NA","NA","NA","space","z","564","NA","NA","NA","NA","60884","564","2","legacy","1024","2","48000","-16","AB_m21","235","odd","FILL_NW","VUNKS","1975","332536","330804","323617","62870","NA","NA","NA","NA","NA","331304","NA","NA","NA","330303","NA","330275","1985","332736","NA","NA","NA","331344","1976","1976","NA","331909","331933","330275","331304","331324","morph21_Oliver/Morris","53","50572","62","yes","1920","49"
"200","85.71428571428571","85.71428571428571","810.4761904761905","810.4761904761905","black","no","xpyriment","legacy","legacy","0","201","NA","uniform","NA","NA","NA","1","undefined","1","0","62","62","62","0","62","62","62","NA","0","62","NA","NA","0","62","NA","62","0","62","NA","NA","NA","62","0","0","NA","62","62","62","62","62","63","/","Mon Feb 12 15:39:42 2024","The main experiment item","yes","m21-ab-lexicalDecision.osexp","C:\Users\ekealey\Desktop","no","mono","no","18","no","white","no","yes","1080","legacy","62","62","C:/Users/ekealey/Desktop/subject-235.csv","xpyriment","Lentiform Loewenfeld","3.3.11","0","/","NA","NA","NA","NA","space","/","488","NA","NA","NA","NA","60884","488","2","legacy","1024","2","48000","-16","AB_m21","235","odd","CW_S","ENJOYMENT","1975","337489","334327","335986","62870","NA","NA","NA","NA","NA","334829","NA","NA","NA","333825","NA","333797","1985","337689","NA","NA","NA","334869","1976","1976","NA","335358","335382","333797","334828","334849","morph21_Oliver/Morris","54","51060","63","yes","1920","40"
"350","84.375","84.375","814.21875","814.21875","black","no","xpyriment","legacy","legacy","0","201","NA","uniform","NA","NA","NA","0","undefined","0","0","63","63","63","0","63","63","63","NA","0","63","NA","NA","0","63","NA","63","0","63","NA","NA","NA","63","0","0","NA","63","63","63","63","63","64","/","Mon Feb 12 15:39:42 2024","The main experiment item","yes","m21-ab-lexicalDecision.osexp","C:\Users\ekealey\Desktop","no","mono","no","18","no","white","no","yes","1080","legacy","63","63","C:/Users/ekealey/Desktop/subject-235.csv","xpyriment","Lentiform Loewenfeld","3.3.11","0","z","NA","NA","NA","NA","space","z","1050","NA","NA","NA","NA","60884","1050","2","legacy","1024","2","48000","-16","AB_m21","235","odd","CW_S","DENSELY","1975","341480","339261","335986","62870","NA","NA","NA","NA","NA","339761","NA","NA","NA","338760","NA","338733","1985","341830","NA","NA","NA","339802","1976","1976","NA","340853","340877","338733","339761","339782","morph21_Oliver/Morris","54","52110","64","yes","1920","32"
"300","84.61538461538461","84.61538461538461","814.3230769230769","814.3230769230769","black","no","xpyriment","legacy","legacy","0","205","NA","uniform","NA","NA","NA","1","undefined","1","0","64","64","64","0","64","64","64","NA","0","64","NA","NA","0","64","NA","64","0","64","NA","NA","NA","64","0","0","NA","64","64","64","64","64","65","z","Mon Feb 12 15:39:42 2024","The main experiment item","yes","m21-ab-lexicalDecision.osexp","C:\Users\ekealey\Desktop","no","mono","no","18","no","white","no","yes","1080","legacy","64","64","C:/Users/ekealey/Desktop/subject-235.csv","xpyriment","Lentiform Loewenfeld","3.3.11","0","z","NA","NA","NA","NA","space","z","821","NA","NA","NA","NA","60884","821","2","legacy","1024","2","48000","-16","AB_m21","235","odd","NW_S_SIMP","HELMETOES","1975","345402","343411","335986","62870","NA","NA","NA","NA","NA","343912","NA","NA","NA","342910","NA","342882","1985","345703","NA","NA","NA","343952","1976","1976","NA","344773","344799","342882","343912","343932","morph21_Oliver/Morris","55","52931","65","yes","1920","14"
"350","84.84848484848484","84.84848484848484","812.0757575757576","812.0757575757576","black","no","xpyriment","legacy","legacy","0","206","NA","uniform","NA","NA","NA","1","undefined","1","0","65","65","65","0","65","65","65","NA","0","65","NA","NA","0","65","NA","65","0","65","NA","NA","NA","65","0","0","NA","65","65","65","65","65","66","z","Mon Feb 12 15:39:42 2024","The main experiment item","yes","m21-ab-lexicalDecision.osexp","C:\Users\ekealey\Desktop","no","mono","no","18","no","white","no","yes","1080","legacy","65","65","C:/Users/ekealey/Desktop/subject-235.csv","xpyriment","Lentiform Loewenfeld","3.3.11","0","z","NA","NA","NA","NA","space","z","666","NA","NA","NA","NA","60884","666","2","legacy","1024","2","48000","-16","AB_m21","235","odd","NW_L_SIMP","WIGITH","1975","350641","347301","349137","62870","NA","NA","NA","NA","NA","347803","NA","NA","NA","346799","NA","346774","1985","350991","NA","NA","NA","347843","1976","1976","NA","348509","348534","346774","347803","347823","morph21_Oliver/Morris","56","53597","66","yes","1920","9"
"300","85.07462686567165","85.07462686567165","808.6417910447761","808.6417910447761","black","no","xpyriment","legacy","legacy","0","207","NA","uniform","NA","NA","NA","1","undefined","1","0","66","66","66","0","66","66","66","NA","0","66","NA","NA","0","66","NA","66","0","66","NA","NA","NA","66","0","0","NA","66","66","66","66","66","67","/","Mon Feb 12 15:39:42 2024","The main experiment item","yes","m21-ab-lexicalDecision.osexp","C:\Users\ekealey\Desktop","no","mono","no","18","no","white","no","yes","1080","legacy","66","66","C:/Users/ekealey/Desktop/subject-235.csv","xpyriment","Lentiform Loewenfeld","3.3.11","0","/","NA","NA","NA","NA","space","/","582","NA","NA","NA","NA","60884","582","2","legacy","1024","2","48000","-16","AB_m21","235","odd","FILL_W","BOX","1975","354329","352579","349137","62870","NA","NA","NA","NA","NA","353079","NA","NA","NA","352079","NA","352049","1985","354629","NA","NA","NA","353119","1976","1976","NA","353701","353725","352049","353079","353099","morph21_Oliver/Morris","57","54179","67","yes","1920","42"
"300","85.29411764705883","85.29411764705883","808.2941176470588","808.2941176470588","black","no","xpyriment","legacy","legacy","0","204","NA","uniform","NA","NA","NA","1","undefined","1","0","67","67","67","0","67","67","67","NA","0","67","NA","NA","0","67","NA","67","0","67","NA","NA","NA","67","0","0","NA","67","67","67","67","67","68","z","Mon Feb 12 15:39:42 2024","The main experiment item","yes","m21-ab-lexicalDecision.osexp","C:\Users\ekealey\Desktop","no","mono","no","18","no","white","no","yes","1080","legacy","67","67","C:/Users/ekealey/Desktop/subject-235.csv","xpyriment","Lentiform Loewenfeld","3.3.11","0","z","NA","NA","NA","NA","space","z","785","NA","NA","NA","NA","60884","785","2","legacy","1024","2","48000","-16","AB_m21","235","odd","NW_L_COMP","FELLOWOUS","1975","358169","356215","349137","62870","NA","NA","NA","NA","NA","356715","NA","NA","NA","355714","NA","355684","1985","358469","NA","NA","NA","356755","1976","1976","NA","357541","357566","355684","356715","356735","morph21_Oliver/Morris","58","54964","68","yes","1920","17"
"300","85.5072463768116","85.5072463768116","807.0289855072464","807.0289855072464","black","no","xpyriment","legacy","legacy","0","206","NA","uniform","NA","NA","NA","1","undefined","1","0","68","68","68","0","68","68","68","NA","0","68","NA","NA","0","68","NA","68","0","68","NA","NA","NA","68","0","0","NA","68","68","68","68","68","69","z","Mon Feb 12 15:39:42 2024","The main experiment item","yes","m21-ab-lexicalDecision.osexp","C:\Users\ekealey\Desktop","no","mono","no","18","no","white","no","yes","1080","legacy","68","68","C:/Users/ekealey/Desktop/subject-235.csv","xpyriment","Lentiform Loewenfeld","3.3.11","0","z","NA","NA","NA","NA","space","z","721","NA","NA","NA","NA","60884","721","2","legacy","1024","2","48000","-16","AB_m21","235","odd","NW_L_SIMP","EARILT","1975","363455","360062","361952","62870","NA","NA","NA","NA","NA","360563","NA","NA","NA","359560","NA","359536","1985","363755","NA","NA","NA","360604","1976","1976","NA","361326","361349","359536","360563","360584","morph21_Oliver/Morris","59","55685","69","yes","1920","12"
"350","85.71428571428571","85.71428571428571","805.2428571428571","805.2428571428571","black","no","xpyriment","legacy","legacy","0","205","NA","uniform","NA","NA","NA","1","undefined","1","0","69","69","69","0","69","69","69","NA","0","69","NA","NA","0","69","NA","69","0","69","NA","NA","NA","69","0","0","NA","69","69","69","69","69","70","z","Mon Feb 12 15:39:42 2024","The main experiment item","yes","m21-ab-lexicalDecision.osexp","C:\Users\ekealey\Desktop","no","mono","no","18","no","white","no","yes","1080","legacy","69","69","C:/Users/ekealey/Desktop/subject-235.csv","xpyriment","Lentiform Loewenfeld","3.3.11","0","z","NA","NA","NA","NA","space","z","682","NA","NA","NA","NA","60884","682","2","legacy","1024","2","48000","-16","AB_m21","235","odd","NW_S_SIMP","ACREMANT","1975","367184","365332","361952","62870","NA","NA","NA","NA","NA","365833","NA","NA","NA","364830","NA","364801","1985","367534","NA","NA","NA","365874","1976","1976","NA","366557","366581","364801","365833","365854","morph21_Oliver/Morris","60","56367","70","yes","1920","16"
"200","84.50704225352112","84.50704225352112","810.8028169014085","810.8028169014085","black","no","xpyriment","legacy","legacy","0","201","NA","uniform","NA","NA","NA","0","undefined","0","0","70","70","70","0","70","70","70","NA","0","70","NA","NA","0","70","NA","70","0","70","NA","NA","NA","70","0","0","NA","70","70","70","70","70","71","/","Mon Feb 12 15:39:42 2024","The main experiment item","yes","m21-ab-lexicalDecision.osexp","C:\Users\ekealey\Desktop","no","mono","no","18","no","white","no","yes","1080","legacy","70","70","C:/Users/ekealey/Desktop/subject-235.csv","xpyriment","Lentiform Loewenfeld","3.3.11","0","None","NA","NA","NA","NA","space","None","1200","NA","NA","NA","NA","60884","1200","2","legacy","1024","2","48000","-16","AB_m21","235","odd","CW_S","CAMPAIGNER","1975","371476","369107","361952","62870","NA","NA","NA","NA","NA","369608","NA","NA","NA","368607","NA","368578","1985","371676","NA","NA","NA","369648","1976","1976","NA","370848","370872","368578","369608","369628","morph21_Oliver/Morris","60","57567","71","yes","1920","15"
"300","84.72222222222223","84.72222222222223","810.1111111111111","810.1111111111111","black","no","xpyriment","legacy","legacy","0","204","NA","uniform","NA","NA","NA","1","undefined","1","0","71","71","71","0","71","71","71","NA","0","71","NA","NA","0","71","NA","71","0","71","NA","NA","NA","71","0","0","NA","71","71","71","71","71","72","z","Mon Feb 12 15:39:42 2024","The main experiment item","yes","m21-ab-lexicalDecision.osexp","C:\Users\ekealey\Desktop","no","mono","no","18","no","white","no","yes","1080","legacy","71","71","C:/Users/ekealey/Desktop/subject-235.csv","xpyriment","Lentiform Loewenfeld","3.3.11","0","z","NA","NA","NA","NA","space","z","761","NA","NA","NA","NA","60884","761","2","legacy","1024","2","48000","-16","AB_m21","235","odd","NW_L_COMP","BINDIC","1975","376680","373246","375176","62870","NA","NA","NA","NA","NA","373747","NA","NA","NA","372746","NA","372717","1985","376980","NA","NA","NA","373787","1976","1976","NA","374549","374573","372717","373746","373767","morph21_Oliver/Morris","61","58328","72","yes","1920","22"
"350","84.93150684931507","84.93150684931507","811.7808219178082","811.7808219178082","black","no","xpyriment","legacy","legacy","0","206","NA","uniform","NA","NA","NA","1","undefined","1","0","72","72","72","0","72","72","72","NA","0","72","NA","NA","0","72","NA","72","0","72","NA","NA","NA","72","0","0","NA","72","72","72","72","72","73","z","Mon Feb 12 15:39:42 2024","The main experiment item","yes","m21-ab-lexicalDecision.osexp","C:\Users\ekealey\Desktop","no","mono","no","18","no","white","no","yes","1080","legacy","72","72","C:/Users/ekealey/Desktop/subject-235.csv","xpyriment","Lentiform Loewenfeld","3.3.11","0","z","NA","NA","NA","NA","space","z","932","NA","NA","NA","NA","60884","932","2","legacy","1024","2","48000","-16","AB_m21","235","odd","NW_L_SIMP","PICKENGE","1975","380658","378555","375176","62870","NA","NA","NA","NA","NA","379055","NA","NA","NA","378055","NA","378022","1985","381008","NA","NA","NA","379096","1976","1976","NA","380029","380053","378022","379055","379076","morph21_Oliver/Morris","62","59260","73","yes","1920","5"
"400","83.78378378378379","83.78378378378379","813.0945945945946","813.0945945945946","black","no","xpyriment","legacy","legacy","0","208","NA","uniform","NA","NA","NA","0","undefined","0","0","73","73","73","0","73","73","73","NA","0","73","NA","NA","0","73","NA","73","0","73","NA","NA","NA","73","0","0","NA","73","73","73","73","73","74","z","Mon Feb 12 15:39:42 2024","The main experiment item","yes","m21-ab-lexicalDecision.osexp","C:\Users\ekealey\Desktop","no","mono","no","18","no","white","no","yes","1080","legacy","73","73","C:/Users/ekealey/Desktop/subject-235.csv","xpyriment","Lentiform Loewenfeld","3.3.11","0","/","NA","NA","NA","NA","space","/","909","NA","NA","NA","NA","60884","909","2","legacy","1024","2","48000","-16","AB_m21","235","odd","FILL_NW","BUTE","1975","384666","382586","375176","62870","NA","NA","NA","NA","NA","383087","NA","NA","NA","382086","NA","382056","1985","385066","NA","NA","NA","383127","1976","1976","NA","384037","384063","382056","383087","383107","morph21_Oliver/Morris","62","60169","74","yes","1920","5"
"200","82.66666666666667","82.66666666666667","816.16","816.16","black","no","xpyriment","legacy","legacy","0","205","NA","uniform","NA","NA","NA","undefined","undefined","0","0","74","74","74","0","74","74","74","NA","0","74","NA","NA","0","74","NA","74","0","74","NA","NA","NA","74","0","0","NA","74","74","74","74","74","75","z","Mon Feb 12 15:39:42 2024","The main experiment item","yes","m21-ab-lexicalDecision.osexp","C:\Users\ekealey\Desktop","no","mono","no","18","no","white","no","yes","1080","legacy","74","74","C:/Users/ekealey/Desktop/subject-235.csv","xpyriment","Lentiform Loewenfeld","3.3.11","0","space","space","NA","NA","NA","space","/","12743","12743","NA","NA","NA","60884","1043","2","legacy","1024","2","48000","-16","AB_m21","235","odd","NW_S_SIMP","OPPOSEMANT","1975","390369","386653","388865","62870","390573","NA","NA","NA","NA","387153","NA","NA","NA","386153","NA","386128","1985","403317","NA","NA","NA","387194","1976","1976","NA","388237","388262","386128","387153","387174","morph21_Oliver/Morris","62","61212","75","yes","1920","8"
"350","82.89473684210526","82.89473684210526","818.1578947368421","818.1578947368421","black","no","xpyriment","legacy","legacy","0","207","NA","uniform","NA","NA","NA","1","undefined","1","0","75","75","75","0","75","75","75","NA","0","75","NA","NA","0","75","NA","75","0","75","NA","NA","NA","75","0","0","NA","75","75","75","75","75","76","/","Mon Feb 12 15:39:42 2024","The main experiment item","yes","m21-ab-lexicalDecision.osexp","C:\Users\ekealey\Desktop","no","mono","no","18","no","white","no","yes","1080","legacy","75","75","C:/Users/ekealey/Desktop/subject-235.csv","xpyriment","Lentiform Loewenfeld","3.3.11","0","/","space","NA","NA","NA","space","/","968","12743","NA","NA","NA","60884","968","2","legacy","1024","2","48000","-16","AB_m21","235","odd","FILL_W","FAINT","1975","407041","404903","388865","62870","390573","NA","NA","NA","NA","405403","NA","NA","NA","404403","NA","404376","1985","407391","NA","NA","NA","405444","1976","1976","NA","406413","406438","404375","405403","405423","morph21_Oliver/Morris","63","62180","76","yes","1920","31"
"300","83.11688311688312","83.11688311688312","817.9090909090909","817.9090909090909","black","no","xpyriment","legacy","legacy","0","208","NA","uniform","NA","NA","NA","1","undefined","1","0","76","76","76","0","76","76","76","NA","0","76","NA","NA","0","76","NA","76","0","76","NA","NA","NA","76","0","0","NA","76","76","76","76","76","77","z","Mon Feb 12 15:39:42 2024","The main experiment item","yes","m21-ab-lexicalDecision.osexp","C:\Users\ekealey\Desktop","no","mono","no","18","no","white","no","yes","1080","legacy","76","76","C:/Users/ekealey/Desktop/subject-235.csv","xpyriment","Lentiform Loewenfeld","3.3.11","0","z","space","NA","NA","NA","space","z","799","12743","NA","NA","NA","60884","799","2","legacy","1024","2","48000","-16","AB_m21","235","odd","FILL_NW","SCURE","1975","410943","408976","388865","62870","390573","NA","NA","NA","NA","409477","NA","NA","NA","408476","NA","408448","1985","411244","NA","NA","NA","409517","1976","1976","NA","410316","410340","408448","409476","409497","morph21_Oliver/Morris","64","62979","77","yes","1920","41"
"300","83.33333333333333","83.33333333333333","819.0897435897435","819.0897435897435","black","no","xpyriment","legacy","legacy","0","205","NA","uniform","NA","NA","NA","1","undefined","1","0","77","77","77","0","77","77","77","NA","0","77","NA","NA","0","77","NA","77","0","77","NA","NA","NA","77","0","0","NA","77","77","77","77","77","78","z","Mon Feb 12 15:39:42 2024","The main experiment item","yes","m21-ab-lexicalDecision.osexp","C:\Users\ekealey\Desktop","no","mono","no","18","no","white","no","yes","1080","legacy","77","77","C:/Users/ekealey/Desktop/subject-235.csv","xpyriment","Lentiform Loewenfeld","3.3.11","0","z","space","NA","NA","NA","space","z","910","12743","NA","NA","NA","60884","910","2","legacy","1024","2","48000","-16","AB_m21","235","odd","NW_S_SIMP","YIELDILT","1975","416409","412825","414904","62870","390573","NA","NA","NA","NA","413324","NA","NA","NA","412325","NA","412297","1985","416709","NA","NA","NA","413366","1976","1976","NA","414277","414301","412297","413324","413346","morph21_Oliver/Morris","65","63889","78","yes","1920","20"
"200","83.54430379746836","83.54430379746836","817.3417721518987","817.3417721518987","black","no","xpyriment","legacy","legacy","0","204","NA","uniform","NA","NA","NA","1","undefined","1","0","78","78","78","0","78","78","78","NA","0","78","NA","NA","0","78","NA","78","0","78","NA","NA","NA","78","0","0","NA","78","78","78","78","78","79","z","Mon Feb 12 15:39:42 2024","The main experiment item","yes","m21-ab-lexicalDecision.osexp","C:\Users\ekealey\Desktop","no","mono","no","18","no","white","no","yes","1080","legacy","78","78","C:/Users/ekealey/Desktop/subject-235.csv","xpyriment","Lentiform Loewenfeld","3.3.11","0","z","space","NA","NA","NA","space","z","681","12743","NA","NA","NA","60884","681","2","legacy","1024","2","48000","-16","AB_m21","235","odd","NW_L_COMP","PITCHORY","1975","420144","418293","414904","62870","390573","NA","NA","NA","NA","418794","NA","NA","NA","417792","NA","417762","1985","420344","NA","NA","NA","418835","1976","1976","NA","419517","419541","417762","418794","418815","morph21_Oliver/Morris","66","64570","79","yes","1920","25"
"300","83.75","83.75","814.9","814.9","black","no","xpyriment","legacy","legacy","0","205","NA","uniform","NA","NA","NA","1","undefined","1","0","79","79","79","0","79","79","79","NA","0","79","NA","NA","0","79","NA","79","0","79","NA","NA","NA","79","0","0","NA","79","79","79","79","79","80","z","Mon Feb 12 15:39:42 2024","The main experiment item","yes","m21-ab-lexicalDecision.osexp","C:\Users\ekealey\Desktop","no","mono","no","18","no","white","no","yes","1080","legacy","79","79","C:/Users/ekealey/Desktop/subject-235.csv","xpyriment","Lentiform Loewenfeld","3.3.11","0","z","space","NA","NA","NA","space","z","622","12743","NA","NA","NA","60884","622","2","legacy","1024","2","48000","-16","AB_m21","235","odd","NW_S_SIMP","WARNODY","1975","423713","421921","414904","62870","390573","NA","NA","NA","NA","422422","NA","NA","NA","421421","NA","421392","1985","424013","NA","NA","NA","422462","1976","1976","NA","423085","423109","421392","422421","422442","morph21_Oliver/Morris","67","65192","80","yes","1920","12"
"400","83.95061728395062","83.95061728395062","814.8518518518518","814.8518518518518","black","no","xpyriment","legacy","legacy","0","208","NA","uniform","NA","NA","NA","1","undefined","1","0","80","80","80","0","80","80","80","NA","0","80","NA","NA","0","80","NA","80","0","80","NA","NA","NA","80","0","0","NA","80","80","80","80","80","81","z","Mon Feb 12 15:39:42 2024","The main experiment item","yes","m21-ab-lexicalDecision.osexp","C:\Users\ekealey\Desktop","no","mono","no","18","no","white","no","yes","1080","legacy","80","80","C:/Users/ekealey/Desktop/subject-235.csv","xpyriment","Lentiform Loewenfeld","3.3.11","0","z","space","NA","NA","NA","space","z","811","12743","NA","NA","NA","60884","811","2","legacy","1024","2","48000","-16","AB_m21","235","odd","FILL_NW","ULNS","1975","429107","425620","427602","62870","390573","NA","NA","NA","NA","426120","NA","NA","NA","425120","NA","425095","1985","429507","NA","NA","NA","426161","1976","1976","NA","426973","426998","425095","426120","426141","morph21_Oliver/Morris","68","66003","81","yes","1920","45"
"250","84.14634146341463","84.14634146341463","813.8414634146342","813.8414634146342","black","no","xpyriment","legacy","legacy","0","208","NA","uniform","NA","NA","NA","1","undefined","1","0","81","81","81","0","81","81","81","NA","0","81","NA","NA","0","81","NA","81","0","81","NA","NA","NA","81","0","0","NA","81","81","81","81","81","82","z","Mon Feb 12 15:39:42 2024","The main experiment item","yes","m21-ab-lexicalDecision.osexp","C:\Users\ekealey\Desktop","no","mono","no","18","no","white","no","yes","1080","legacy","81","81","C:/Users/ekealey/Desktop/subject-235.csv","xpyriment","Lentiform Loewenfeld","3.3.11","0","z","space","NA","NA","NA","space","z","732","12743","NA","NA","NA","60884","732","2","legacy","1024","2","48000","-16","AB_m21","235","odd","FILL_NW","LOLDS","1975","433016","431116","427602","62870","390573","NA","NA","NA","NA","431616","NA","NA","NA","430615","NA","430587","1985","433266","NA","NA","NA","431657","1976","1976","NA","432390","432413","430587","431616","431637","morph21_Oliver/Morris","69","66735","82","yes","1920","34"
"300","84.33734939759036","84.33734939759036","812.6987951807229","812.6987951807229","black","no","xpyriment","legacy","legacy","0","207","NA","uniform","NA","NA","NA","1","undefined","1","0","82","82","82","0","82","82","82","NA","0","82","NA","NA","0","82","NA","82","0","82","NA","NA","NA","82","0","0","NA","82","82","82","82","82","83","/","Mon Feb 12 15:39:42 2024","The main experiment item","yes","m21-ab-lexicalDecision.osexp","C:\Users\ekealey\Desktop","no","mono","no","18","no","white","no","yes","1080","legacy","82","82","C:/Users/ekealey/Desktop/subject-235.csv","xpyriment","Lentiform Loewenfeld","3.3.11","0","/","space","NA","NA","NA","space","/","719","12743","NA","NA","NA","60884","719","2","legacy","1024","2","48000","-16","AB_m21","235","odd","FILL_W","BALD","1975","436730","434840","427602","62870","390573","NA","NA","NA","NA","435340","NA","NA","NA","434340","NA","434312","1985","437031","NA","NA","NA","435381","1976","1976","NA","436101","436126","434312","435340","435361","morph21_Oliver/Morris","70","67454","83","yes","1920","3"
"350","84.52380952380952","84.52380952380952","810.6428571428571","810.6428571428571","black","no","xpyriment","legacy","legacy","0","202","NA","uniform","NA","NA","NA","1","undefined","1","0","83","83","83","0","83","83","83","NA","0","83","NA","NA","0","83","NA","83","0","83","NA","NA","NA","83","0","0","NA","83","83","83","83","83","84","/","Mon Feb 12 15:39:42 2024","The main experiment item","yes","m21-ab-lexicalDecision.osexp","C:\Users\ekealey\Desktop","no","mono","no","18","no","white","no","yes","1080","legacy","83","83","C:/Users/ekealey/Desktop/subject-235.csv","xpyriment","Lentiform Loewenfeld","3.3.11","0","/","space","NA","NA","NA","space","/","640","12743","NA","NA","NA","60884","640","2","legacy","1024","2","48000","-16","AB_m21","235","odd","CW_L","RENTER","1975","441928","438614","440424","62870","390573","NA","NA","NA","NA","439114","NA","NA","NA","438114","NA","438085","1985","442278","NA","NA","NA","439156","1976","1976","NA","439797","439820","438085","439114","439136","morph21_Oliver/Morris","71","68094","84","yes","1920","9"
"300","84.70588235294117","84.70588235294117","810.4235294117647","810.4235294117647","black","no","xpyriment","legacy","legacy","0","202","NA","uniform","NA","NA","NA","1","undefined","1","0","84","84","84","0","84","84","84","NA","0","84","NA","NA","0","84","NA","84","0","84","NA","NA","NA","84","0","0","NA","84","84","84","84","84","85","/","Mon Feb 12 15:39:42 2024","The main experiment item","yes","m21-ab-lexicalDecision.osexp","C:\Users\ekealey\Desktop","no","mono","no","18","no","white","no","yes","1080","legacy","84","84","C:/Users/ekealey/Desktop/subject-235.csv","xpyriment","Lentiform Loewenfeld","3.3.11","0","/","space","NA","NA","NA","space","/","792","12743","NA","NA","NA","60884","792","2","legacy","1024","2","48000","-16","AB_m21","235","odd","CW_L","DAMPISH","1975","445840","443879","440424","62870","390573","NA","NA","NA","NA","444379","NA","NA","NA","443378","NA","443349","1985","446140","NA","NA","NA","444420","1976","1976","NA","445213","445237","443349","444379","444400","morph21_Oliver/Morris","72","68886","85","yes","1920","28"
"300","84.88372093023256","84.88372093023256","809.5813953488372","809.5813953488372","black","no","xpyriment","legacy","legacy","0","202","NA","uniform","NA","NA","NA","1","undefined","1","0","85","85","85","0","85","85","85","NA","0","85","NA","NA","0","85","NA","85","0","85","NA","NA","NA","85","0","0","NA","85","85","85","85","85","86","/","Mon Feb 12 15:39:42 2024","The main experiment item","yes","m21-ab-lexicalDecision.osexp","C:\Users\ekealey\Desktop","no","mono","no","18","no","white","no","yes","1080","legacy","85","85","C:/Users/ekealey/Desktop/subject-235.csv","xpyriment","Lentiform Loewenfeld","3.3.11","0","/","space","NA","NA","NA","space","/","738","12743","NA","NA","NA","60884","738","2","legacy","1024","2","48000","-16","AB_m21","235","odd","CW_L","DOUBTFUL","1975","449647","447741","440424","62870","390573","NA","NA","NA","NA","448241","NA","NA","NA","447240","NA","447213","1985","449947","NA","NA","NA","448282","1976","1976","NA","449021","449044","447213","448241","448262","morph21_Oliver/Morris","73","69624","86","yes","1920","21"
"250","85.05747126436782","85.05747126436782","806.0229885057471","806.0229885057471","black","no","xpyriment","legacy","legacy","0","207","NA","uniform","NA","NA","NA","1","undefined","1","0","86","86","86","0","86","86","86","NA","0","86","NA","NA","0","86","NA","86","0","86","NA","NA","NA","86","0","0","NA","86","86","86","86","86","87","/","Mon Feb 12 15:39:42 2024","The main experiment item","yes","m21-ab-lexicalDecision.osexp","C:\Users\ekealey\Desktop","no","mono","no","18","no","white","no","yes","1080","legacy","86","86","C:/Users/ekealey/Desktop/subject-235.csv","xpyriment","Lentiform Loewenfeld","3.3.11","0","/","space","NA","NA","NA","space","/","500","12743","NA","NA","NA","60884","500","2","legacy","1024","2","48000","-16","AB_m21","235","odd","FILL_W","PREACH","1975","454705","451531","453202","62870","390573","NA","NA","NA","NA","452032","NA","NA","NA","451029","NA","451004","1985","454955","NA","NA","NA","452072","1976","1976","NA","452573","452597","451004","452032","452052","morph21_Oliver/Morris","74","70124","87","yes","1920","7"
"400","85.22727272727273","85.22727272727273","807.9318181818181","807.9318181818181","black","no","xpyriment","legacy","legacy","0","207","NA","uniform","NA","NA","NA","1","undefined","1","0","87","87","87","0","87","87","87","NA","0","87","NA","NA","0","87","NA","87","0","87","NA","NA","NA","87","0","0","NA","87","87","87","87","87","88","/","Mon Feb 12 15:39:42 2024","The main experiment item","yes","m21-ab-lexicalDecision.osexp","C:\Users\ekealey\Desktop","no","mono","no","18","no","white","no","yes","1080","legacy","87","87","C:/Users/ekealey/Desktop/subject-235.csv","xpyriment","Lentiform Loewenfeld","3.3.11","0","/","space","NA","NA","NA","space","/","974","12743","NA","NA","NA","60884","974","2","legacy","1024","2","48000","-16","AB_m21","235","odd","FILL_W","LITHE","1975","458698","456553","453202","62870","390573","NA","NA","NA","NA","457053","NA","NA","NA","456052","NA","456024","1985","459098","NA","NA","NA","457094","1976","1976","NA","458069","458093","456024","457053","457074","morph21_Oliver/Morris","75","71098","88","yes","1920","23"
"350","85.3932584269663","85.3932584269663","805.2696629213483","805.2696629213483","black","no","xpyriment","legacy","legacy","0","202","NA","uniform","NA","NA","NA","1","undefined","1","0","88","88","88","0","88","88","88","NA","0","88","NA","NA","0","88","NA","88","0","88","NA","NA","NA","88","0","0","NA","88","88","88","88","88","89","/","Mon Feb 12 15:39:42 2024","The main experiment item","yes","m21-ab-lexicalDecision.osexp","C:\Users\ekealey\Desktop","no","mono","no","18","no","white","no","yes","1080","legacy","88","88","C:/Users/ekealey/Desktop/subject-235.csv","xpyriment","Lentiform Loewenfeld","3.3.11","0","/","space","NA","NA","NA","space","/","571","12743","NA","NA","NA","60884","571","2","legacy","1024","2","48000","-16","AB_m21","235","odd","CW_L","SWIMMER","1975","462416","460675","453202","62870","390573","NA","NA","NA","NA","461176","NA","NA","NA","460175","NA","460147","1985","462766","NA","NA","NA","461217","1976","1976","NA","461788","461813","460147","461176","461196","morph21_Oliver/Morris","76","71669","89","yes","1920","5"
"200","85.55555555555556","85.55555555555556","805.5777777777778","805.5777777777778","black","no","xpyriment","legacy","legacy","0","203","NA","uniform","NA","NA","NA","1","undefined","1","0","89","89","89","0","89","89","89","NA","0","89","NA","NA","0","89","NA","89","0","89","NA","NA","NA","89","0","0","NA","89","89","89","89","89","90","z","Mon Feb 12 15:39:42 2024","The main experiment item","yes","m21-ab-lexicalDecision.osexp","C:\Users\ekealey\Desktop","no","mono","no","18","no","white","no","yes","1080","legacy","89","89","C:/Users/ekealey/Desktop/subject-235.csv","xpyriment","Lentiform Loewenfeld","3.3.11","0","z","space","NA","NA","NA","space","z","833","12743","NA","NA","NA","60884","833","2","legacy","1024","2","48000","-16","AB_m21","235","odd","NW_S_COMP","ANTISM","1975","467866","464358","466361","62870","390573","NA","NA","NA","NA","464859","NA","NA","NA","463857","NA","463830","1985","468066","NA","NA","NA","464899","1976","1976","NA","465733","465756","463830","464859","464879","morph21_Oliver/Morris","77","72502","90","yes","1920","8"
"350","85.71428571428571","85.71428571428571","802.7692307692307","802.7692307692307","black","no","xpyriment","legacy","legacy","0","201","NA","uniform","NA","NA","NA","1","undefined","1","0","90","90","90","0","90","90","90","NA","0","90","NA","NA","0","90","NA","90","0","90","NA","NA","NA","90","0","0","NA","90","90","90","90","90","91","/","Mon Feb 12 15:39:42 2024","The main experiment item","yes","m21-ab-lexicalDecision.osexp","C:\Users\ekealey\Desktop","no","mono","no","18","no","white","no","yes","1080","legacy","90","90","C:/Users/ekealey/Desktop/subject-235.csv","xpyriment","Lentiform Loewenfeld","3.3.11","0","/","space","NA","NA","NA","space","/","550","12743","NA","NA","NA","60884","550","2","legacy","1024","2","48000","-16","AB_m21","235","odd","CW_S","BOSSY","1975","471409","469689","466361","62870","390573","NA","NA","NA","NA","470190","NA","NA","NA","469188","NA","469165","1985","471759","NA","NA","NA","470230","1976","1976","NA","470781","470805","469164","470189","470210","morph21_Oliver/Morris","78","73052","91","yes","1920","49"
"300","85.8695652173913","85.8695652173913","804.4673913043479","804.4673913043479","black","no","xpyriment","legacy","legacy","0","208","NA","uniform","NA","NA","NA","1","undefined","1","0","91","91","91","0","91","91","91","NA","0","91","NA","NA","0","91","NA","91","0","91","NA","NA","NA","91","0","0","NA","91","91","91","91","91","92","z","Mon Feb 12 15:39:42 2024","The main experiment item","yes","m21-ab-lexicalDecision.osexp","C:\Users\ekealey\Desktop","no","mono","no","18","no","white","no","yes","1080","legacy","91","91","C:/Users/ekealey/Desktop/subject-235.csv","xpyriment","Lentiform Loewenfeld","3.3.11","0","z","space","NA","NA","NA","space","z","959","12743","NA","NA","NA","60884","959","2","legacy","1024","2","48000","-16","AB_m21","235","odd","FILL_NW","DULKS","1975","475448","473320","466361","62870","390573","NA","NA","NA","NA","473820","NA","NA","NA","472820","NA","472793","1985","475748","NA","NA","NA","473861","1976","1976","NA","474821","474845","472793","473820","473841","morph21_Oliver/Morris","79","74011","92","yes","1920","18"
"300","86.02150537634408","86.02150537634408","803.5913978494624","803.5913978494624","black","no","xpyriment","legacy","legacy","0","205","NA","uniform","NA","NA","NA","1","undefined","1","0","92","92","92","0","92","92","92","NA","0","92","NA","NA","0","92","NA","92","0","92","NA","NA","NA","92","0","0","NA","92","92","92","92","92","93","z","Mon Feb 12 15:39:42 2024","The main experiment item","yes","m21-ab-lexicalDecision.osexp","C:\Users\ekealey\Desktop","no","mono","no","18","no","white","no","yes","1080","legacy","92","92","C:/Users/ekealey/Desktop/subject-235.csv","xpyriment","Lentiform Loewenfeld","3.3.11","0","z","space","NA","NA","NA","space","z","723","12743","NA","NA","NA","60884","723","2","legacy","1024","2","48000","-16","AB_m21","235","odd","NW_S_SIMP","BOLTOES","1975","480728","477331","479224","62870","390573","NA","NA","NA","NA","477833","NA","NA","NA","476828","NA","476802","1985","481028","NA","NA","NA","477873","1976","1976","NA","478597","478621","476802","477832","477853","morph21_Oliver/Morris","80","74734","93","yes","1920","13"
