"ITI","acc","accuracy","average_response_time","avg_rt","background","bidi","canvas_backend","clock_backend","color_backend","compensation","cond_trig","condtrigtime","coordinates","coroutines_cycles","coroutines_duration","coroutines_mean_cycle_duration","correct","correct_instructions_1","correct_new_keyboard_response_1","count_AB_m21","count_ITI","count_blank_screen","count_blink_screen","count_block1","count_break1","count_break2","count_break3_1","count_canvas","count_close_port","count_cond_trigger","count_correct_trigger","count_def_chain","count_end_screen","count_fixation_1","count_getting_started","count_inc_counter","count_instructions_1","count_logger","count_logscript","count_new_inline_script","count_new_inline_script_2","count_new_keyboard_response_1","count_open_port","count_reset_counter_prep","count_reset_counter_run","count_response_trigger_trial","count_responsescreen","count_sequence","count_target_present","count_word_trigger","counter","cresp","datetime","description","disable_garbage_collection","experiment_file","experiment_path","font_bold","font_family","font_italic","font_size","font_underline","foreground","form_clicks","fullscreen","height","keyboard_backend","live_row","live_row_block1","logfile","mouse_backend","opensesame_codename","opensesame_version","repeat_cycle","response","response_break1","response_break2","response_break3_1","response_end_screen","response_instructions_1","response_new_keyboard_response_1","response_time","response_time_break1","response_time_break2","response_time_break3_1","response_time_end_screen","response_time_instructions_1","response_time_new_keyboard_response_1","round_decimals","sampler_backend","sound_buf_size","sound_channels","sound_freq","sound_sample_size","start","subject_nr","subject_parity","targ_type","target","time_AB_m21","time_ITI","time_blank_screen","time_blink_screen","time_block1","time_break1","time_break2","time_break3_1","time_canvas","time_close_port","time_cond_trigger","time_correct_trigger","time_def_chain","time_end_screen","time_fixation_1","time_getting_started","time_inc_counter","time_instructions_1","time_logger","time_logscript","time_new_inline_script","time_new_inline_script_2","time_new_keyboard_response_1","time_open_port","time_reset_counter_prep","time_reset_counter_run","time_response_trigger_trial","time_responsescreen","time_sequence","time_target_present","time_word_trigger","title","total_correct","total_response_time","total_responses","uniform_coordinates","width","word_trig"
"250","0","0","1200","1200","black","no","xpyriment","legacy","legacy","0","202","NA","uniform","NA","NA","NA","0","undefined","0","0","0","0","0","0","0","0","0","NA","0","0","NA","NA","0","0","NA","0","0","0","NA","NA","NA","0","0","0","NA","0","0","0","0","0","1","/","Mon Jun 26 09:35:40 2023","The main experiment item","yes","m21-ab-lexicalDecision.osexp","C:\Users\emoore8\Desktop\m21_vsl-main","no","mono","no","18","no","white","no","yes","1080","legacy","0","0","C:/Users/emoore8/Desktop/m21_vsl-main/subject-209.csv","xpyriment","Lentiform Loewenfeld","3.3.11","0","None","NA","NA","NA","NA","space","None","1200","NA","NA","NA","NA","29088","1200","2","legacy","1024","2","48000","-16","AB_m21","209","odd","CW_L","CREAMY","1768","35009","32640","NA","30869","NA","NA","NA","NA","NA","33140","NA","NA","NA","32139","NA","32103","1779","35259","NA","NA","NA","33182","1768","1768","NA","34382","34406","32103","33140","33161","morph21_Oliver/Morris","0","1200","1","yes","1920","49"
"400","0","0","1200","1200","black","no","xpyriment","legacy","legacy","0","202","NA","uniform","NA","NA","NA","0","undefined","0","0","1","1","1","0","1","1","1","NA","0","1","NA","NA","0","1","NA","1","0","1","NA","NA","NA","1","0","0","NA","1","1","1","1","1","2","/","Mon Jun 26 09:35:40 2023","The main experiment item","yes","m21-ab-lexicalDecision.osexp","C:\Users\emoore8\Desktop\m21_vsl-main","no","mono","no","18","no","white","no","yes","1080","legacy","1","1","C:/Users/emoore8/Desktop/m21_vsl-main/subject-209.csv","xpyriment","Lentiform Loewenfeld","3.3.11","0","None","NA","NA","NA","NA","space","None","1200","NA","NA","NA","NA","29088","1200","2","legacy","1024","2","48000","-16","AB_m21","209","odd","CW_L","FAITHFUL","1768","39159","36789","NA","30869","NA","NA","NA","NA","NA","37290","NA","NA","NA","36288","NA","36264","1779","39559","NA","NA","NA","37330","1768","1768","NA","38530","38555","36264","37290","37310","morph21_Oliver/Morris","0","2400","2","yes","1920","20"
"400","33.333333333333336","33.333333333333336","1078.6666666666667","1078.6666666666667","black","no","xpyriment","legacy","legacy","0","208","NA","uniform","NA","NA","NA","1","undefined","1","0","2","2","2","0","2","2","2","NA","0","2","NA","NA","0","2","NA","2","0","2","NA","NA","NA","2","0","0","NA","2","2","2","2","2","3","z","Mon Jun 26 09:35:40 2023","The main experiment item","yes","m21-ab-lexicalDecision.osexp","C:\Users\emoore8\Desktop\m21_vsl-main","no","mono","no","18","no","white","no","yes","1080","legacy","2","2","C:/Users/emoore8/Desktop/m21_vsl-main/subject-209.csv","xpyriment","Lentiform Loewenfeld","3.3.11","0","z","NA","NA","NA","NA","space","z","836","NA","NA","NA","NA","29088","836","2","legacy","1024","2","48000","-16","AB_m21","209","odd","FILL_NW","ULNS","1768","44600","41089","43096","30869","NA","NA","NA","NA","NA","41591","NA","NA","NA","40587","NA","40564","1779","45000","NA","NA","NA","41631","1768","1768","NA","42467","42492","40564","41591","41611","morph21_Oliver/Morris","1","3236","3","yes","1920","45"
"250","25","25","1109","1109","black","no","xpyriment","legacy","legacy","0","207","NA","uniform","NA","NA","NA","0","undefined","0","0","3","3","3","0","3","3","3","NA","0","3","NA","NA","0","3","NA","3","0","3","NA","NA","NA","3","0","0","NA","3","3","3","3","3","4","/","Mon Jun 26 09:35:40 2023","The main experiment item","yes","m21-ab-lexicalDecision.osexp","C:\Users\emoore8\Desktop\m21_vsl-main","no","mono","no","18","no","white","no","yes","1080","legacy","3","3","C:/Users/emoore8/Desktop/m21_vsl-main/subject-209.csv","xpyriment","Lentiform Loewenfeld","3.3.11","0","None","NA","NA","NA","NA","space","None","1200","NA","NA","NA","NA","29088","1200","2","legacy","1024","2","48000","-16","AB_m21","209","odd","FILL_W","WEAVE","1768","48893","46522","43096","30869","NA","NA","NA","NA","NA","47024","NA","NA","NA","46021","NA","45995","1779","49143","NA","NA","NA","47064","1768","1768","NA","48264","48289","45995","47024","47044","morph21_Oliver/Morris","1","4436","4","yes","1920","12"
"300","40","40","1056.6","1056.6","black","no","xpyriment","legacy","legacy","0","201","NA","uniform","NA","NA","NA","1","undefined","1","0","4","4","4","0","4","4","4","NA","0","4","NA","NA","0","4","NA","4","0","4","NA","NA","NA","4","0","0","NA","4","4","4","4","4","5","/","Mon Jun 26 09:35:40 2023","The main experiment item","yes","m21-ab-lexicalDecision.osexp","C:\Users\emoore8\Desktop\m21_vsl-main","no","mono","no","18","no","white","no","yes","1080","legacy","4","4","C:/Users/emoore8/Desktop/m21_vsl-main/subject-209.csv","xpyriment","Lentiform Loewenfeld","3.3.11","0","/","NA","NA","NA","NA","space","/","847","NA","NA","NA","NA","29088","847","2","legacy","1024","2","48000","-16","AB_m21","209","odd","CW_S","GUILTY","1768","52663","50647","43096","30869","NA","NA","NA","NA","NA","51147","NA","NA","NA","50146","NA","50123","1779","52963","NA","NA","NA","51188","1768","1768","NA","52036","52059","50123","51147","51168","morph21_Oliver/Morris","2","5283","5","yes","1920","34"
"350","33.333333333333336","33.333333333333336","1080.5","1080.5","black","no","xpyriment","legacy","legacy","0","203","NA","uniform","NA","NA","NA","0","undefined","0","0","5","5","5","0","5","5","5","NA","0","5","NA","NA","0","5","NA","5","0","5","NA","NA","NA","5","0","0","NA","5","5","5","5","5","6","z","Mon Jun 26 09:35:40 2023","The main experiment item","yes","m21-ab-lexicalDecision.osexp","C:\Users\emoore8\Desktop\m21_vsl-main","no","mono","no","18","no","white","no","yes","1080","legacy","5","5","C:/Users/emoore8/Desktop/m21_vsl-main/subject-209.csv","xpyriment","Lentiform Loewenfeld","3.3.11","0","None","NA","NA","NA","NA","space","None","1200","NA","NA","NA","NA","29088","1200","2","legacy","1024","2","48000","-16","AB_m21","209","odd","NW_S_COMP","HEIGHTENCE","1768","58336","54460","56831","30869","NA","NA","NA","NA","NA","54962","NA","NA","NA","53958","NA","53934","1779","58686","NA","NA","NA","55002","1768","1768","NA","56202","56227","53934","54962","54982","morph21_Oliver/Morris","2","6483","6","yes","1920","18"
"350","42.857142857142854","42.857142857142854","1043.4285714285713","1043.4285714285713","black","no","xpyriment","legacy","legacy","0","201","NA","uniform","NA","NA","NA","1","undefined","1","0","6","6","6","0","6","6","6","NA","0","6","NA","NA","0","6","NA","6","0","6","NA","NA","NA","6","0","0","NA","6","6","6","6","6","7","/","Mon Jun 26 09:35:40 2023","The main experiment item","yes","m21-ab-lexicalDecision.osexp","C:\Users\emoore8\Desktop\m21_vsl-main","no","mono","no","18","no","white","no","yes","1080","legacy","6","6","C:/Users/emoore8/Desktop/m21_vsl-main/subject-209.csv","xpyriment","Lentiform Loewenfeld","3.3.11","0","/","NA","NA","NA","NA","space","/","821","NA","NA","NA","NA","29088","821","2","legacy","1024","2","48000","-16","AB_m21","209","odd","CW_S","DENSELY","1768","62183","60193","56831","30869","NA","NA","NA","NA","NA","60694","NA","NA","NA","59691","NA","59666","1779","62533","NA","NA","NA","60735","1768","1768","NA","61556","61580","59666","60694","60714","morph21_Oliver/Morris","3","7304","7","yes","1920","32"
"350","50","50","995.75","995.75","black","no","xpyriment","legacy","legacy","0","206","NA","uniform","NA","NA","NA","1","undefined","1","0","7","7","7","0","7","7","7","NA","0","7","NA","NA","0","7","NA","7","0","7","NA","NA","NA","7","0","0","NA","7","7","7","7","7","8","z","Mon Jun 26 09:35:40 2023","The main experiment item","yes","m21-ab-lexicalDecision.osexp","C:\Users\emoore8\Desktop\m21_vsl-main","no","mono","no","18","no","white","no","yes","1080","legacy","7","7","C:/Users/emoore8/Desktop/m21_vsl-main/subject-209.csv","xpyriment","Lentiform Loewenfeld","3.3.11","0","z","NA","NA","NA","NA","space","z","662","NA","NA","NA","NA","29088","662","2","legacy","1024","2","48000","-16","AB_m21","209","odd","NW_L_SIMP","NUTLA","1768","65878","64048","56831","30869","NA","NA","NA","NA","NA","64549","NA","NA","NA","63548","NA","63525","1779","66228","NA","NA","NA","64589","1768","1768","NA","65252","65275","63524","64548","64569","morph21_Oliver/Morris","4","7966","8","yes","1920","14"
"250","55.55555555555556","55.55555555555556","958.2222222222222","958.2222222222222","black","no","xpyriment","legacy","legacy","0","201","NA","uniform","NA","NA","NA","1","undefined","1","0","8","8","8","0","8","8","8","NA","0","8","NA","NA","0","8","NA","8","0","8","NA","NA","NA","8","0","0","NA","8","8","8","8","8","9","/","Mon Jun 26 09:35:40 2023","The main experiment item","yes","m21-ab-lexicalDecision.osexp","C:\Users\emoore8\Desktop\m21_vsl-main","no","mono","no","18","no","white","no","yes","1080","legacy","8","8","C:/Users/emoore8/Desktop/m21_vsl-main/subject-209.csv","xpyriment","Lentiform Loewenfeld","3.3.11","0","/","NA","NA","NA","NA","space","/","658","NA","NA","NA","NA","29088","658","2","legacy","1024","2","48000","-16","AB_m21","209","odd","CW_S","COSTLY","1768","71064","67734","69561","30869","NA","NA","NA","NA","NA","68234","NA","NA","NA","67233","NA","67207","1779","71315","NA","NA","NA","68274","1768","1768","NA","68932","68957","67207","68234","68254","morph21_Oliver/Morris","5","8624","9","yes","1920","36"
"400","60","60","933","933","black","no","xpyriment","legacy","legacy","0","208","NA","uniform","NA","NA","NA","1","undefined","1","0","9","9","9","0","9","9","9","NA","0","9","NA","NA","0","9","NA","9","0","9","NA","NA","NA","9","0","0","NA","9","9","9","9","9","10","z","Mon Jun 26 09:35:40 2023","The main experiment item","yes","m21-ab-lexicalDecision.osexp","C:\Users\emoore8\Desktop\m21_vsl-main","no","mono","no","18","no","white","no","yes","1080","legacy","9","9","C:/Users/emoore8/Desktop/m21_vsl-main/subject-209.csv","xpyriment","Lentiform Loewenfeld","3.3.11","0","z","NA","NA","NA","NA","space","z","706","NA","NA","NA","NA","29088","706","2","legacy","1024","2","48000","-16","AB_m21","209","odd","FILL_NW","GIKE","1768","74697","72821","69561","30869","NA","NA","NA","NA","NA","73321","NA","NA","NA","72321","NA","72298","1779","75097","NA","NA","NA","73362","1768","1768","NA","74068","74092","72298","73321","73342","morph21_Oliver/Morris","6","9330","10","yes","1920","24"
"250","63.63636363636363","63.63636363636363","896","896","black","no","xpyriment","legacy","legacy","0","207","NA","uniform","NA","NA","NA","1","undefined","1","0","10","10","10","0","10","10","10","NA","0","10","NA","NA","0","10","NA","10","0","10","NA","NA","NA","10","0","0","NA","10","10","10","10","10","11","/","Mon Jun 26 09:35:40 2023","The main experiment item","yes","m21-ab-lexicalDecision.osexp","C:\Users\emoore8\Desktop\m21_vsl-main","no","mono","no","18","no","white","no","yes","1080","legacy","10","10","C:/Users/emoore8/Desktop/m21_vsl-main/subject-209.csv","xpyriment","Lentiform Loewenfeld","3.3.11","0","/","NA","NA","NA","NA","space","/","526","NA","NA","NA","NA","29088","526","2","legacy","1024","2","48000","-16","AB_m21","209","odd","FILL_W","COOK","1768","78296","76601","69561","30869","NA","NA","NA","NA","NA","77101","NA","NA","NA","76101","NA","76076","1779","78546","NA","NA","NA","77141","1768","1768","NA","77667","77692","76076","77101","77121","morph21_Oliver/Morris","7","9856","11","yes","1920","38"
"400","66.66666666666667","66.66666666666667","893","893","black","no","xpyriment","legacy","legacy","0","206","NA","uniform","NA","NA","NA","1","undefined","1","0","11","11","11","0","11","11","11","NA","0","11","NA","NA","0","11","NA","11","0","11","NA","NA","NA","11","0","0","NA","11","11","11","11","11","12","z","Mon Jun 26 09:35:40 2023","The main experiment item","yes","m21-ab-lexicalDecision.osexp","C:\Users\emoore8\Desktop\m21_vsl-main","no","mono","no","18","no","white","no","yes","1080","legacy","11","11","C:/Users/emoore8/Desktop/m21_vsl-main/subject-209.csv","xpyriment","Lentiform Loewenfeld","3.3.11","0","z","NA","NA","NA","NA","space","z","860","NA","NA","NA","NA","29088","860","2","legacy","1024","2","48000","-16","AB_m21","209","odd","NW_L_SIMP","BLOODEL","1768","83584","80050","82079","30869","NA","NA","NA","NA","NA","80550","NA","NA","NA","79550","NA","79527","1779","83984","NA","NA","NA","80591","1768","1768","NA","81452","81475","79527","80550","80571","morph21_Oliver/Morris","8","10716","12","yes","1920","24"
"350","69.23076923076923","69.23076923076923","869.6923076923077","869.6923076923077","black","no","xpyriment","legacy","legacy","0","202","NA","uniform","NA","NA","NA","1","undefined","1","0","12","12","12","0","12","12","12","NA","0","12","NA","NA","0","12","NA","12","0","12","NA","NA","NA","12","0","0","NA","12","12","12","12","12","13","/","Mon Jun 26 09:35:40 2023","The main experiment item","yes","m21-ab-lexicalDecision.osexp","C:\Users\emoore8\Desktop\m21_vsl-main","no","mono","no","18","no","white","no","yes","1080","legacy","12","12","C:/Users/emoore8/Desktop/m21_vsl-main/subject-209.csv","xpyriment","Lentiform Loewenfeld","3.3.11","0","/","NA","NA","NA","NA","space","/","590","NA","NA","NA","NA","29088","590","2","legacy","1024","2","48000","-16","AB_m21","209","odd","CW_L","BOMBER","1768","87264","85505","82079","30869","NA","NA","NA","NA","NA","86005","NA","NA","NA","85005","NA","84978","1779","87614","NA","NA","NA","86045","1768","1768","NA","86635","86660","84978","86005","86025","morph21_Oliver/Morris","9","11306","13","yes","1920","7"
"350","64.28571428571429","64.28571428571429","862.7142857142857","862.7142857142857","black","no","xpyriment","legacy","legacy","0","204","NA","uniform","NA","NA","NA","0","undefined","0","0","13","13","13","0","13","13","13","NA","0","13","NA","NA","0","13","NA","13","0","13","NA","NA","NA","13","0","0","NA","13","13","13","13","13","14","z","Mon Jun 26 09:35:40 2023","The main experiment item","yes","m21-ab-lexicalDecision.osexp","C:\Users\emoore8\Desktop\m21_vsl-main","no","mono","no","18","no","white","no","yes","1080","legacy","13","13","C:/Users/emoore8/Desktop/m21_vsl-main/subject-209.csv","xpyriment","Lentiform Loewenfeld","3.3.11","0","/","NA","NA","NA","NA","space","/","772","NA","NA","NA","NA","29088","772","2","legacy","1024","2","48000","-16","AB_m21","209","odd","NW_L_COMP","AGREELY","1768","91064","89121","82079","30869","NA","NA","NA","NA","NA","89623","NA","NA","NA","88619","NA","88597","1779","91415","NA","NA","NA","89663","1768","1768","NA","90436","90461","88597","89623","89643","morph21_Oliver/Morris","9","12078","14","yes","1920","24"
"350","66.66666666666667","66.66666666666667","884.5333333333333","884.5333333333333","black","no","xpyriment","legacy","legacy","0","203","NA","uniform","NA","NA","NA","1","undefined","1","0","14","14","14","0","14","14","14","NA","0","14","NA","NA","0","14","NA","14","0","14","NA","NA","NA","14","0","0","NA","14","14","14","14","14","15","z","Mon Jun 26 09:35:40 2023","The main experiment item","yes","m21-ab-lexicalDecision.osexp","C:\Users\emoore8\Desktop\m21_vsl-main","no","mono","no","18","no","white","no","yes","1080","legacy","14","14","C:/Users/emoore8/Desktop/m21_vsl-main/subject-209.csv","xpyriment","Lentiform Loewenfeld","3.3.11","0","z","NA","NA","NA","NA","space","z","1190","NA","NA","NA","NA","29088","1190","2","legacy","1024","2","48000","-16","AB_m21","209","odd","NW_S_COMP","HUMIDOUS","1768","96786","92920","95279","30869","NA","NA","NA","NA","NA","93420","NA","NA","NA","92420","NA","92397","1779","97136","NA","NA","NA","93461","1768","1768","NA","94651","94676","92397","93420","93441","morph21_Oliver/Morris","10","13268","15","yes","1920","25"
"350","68.75","68.75","873.1875","873.1875","black","no","xpyriment","legacy","legacy","0","208","NA","uniform","NA","NA","NA","1","undefined","1","0","15","15","15","0","15","15","15","NA","0","15","NA","NA","0","15","NA","15","0","15","NA","NA","NA","15","0","0","NA","15","15","15","15","15","16","z","Mon Jun 26 09:35:40 2023","The main experiment item","yes","m21-ab-lexicalDecision.osexp","C:\Users\emoore8\Desktop\m21_vsl-main","no","mono","no","18","no","white","no","yes","1080","legacy","15","15","C:/Users/emoore8/Desktop/m21_vsl-main/subject-209.csv","xpyriment","Lentiform Loewenfeld","3.3.11","0","z","NA","NA","NA","NA","space","z","703","NA","NA","NA","NA","29088","703","2","legacy","1024","2","48000","-16","AB_m21","209","odd","FILL_NW","KRAISE","1768","100519","98646","95279","30869","NA","NA","NA","NA","NA","99146","NA","NA","NA","98146","NA","98118","1779","100869","NA","NA","NA","99188","1768","1768","NA","99892","99915","98118","99146","99168","morph21_Oliver/Morris","11","13971","16","yes","1920","33"
"300","70.58823529411765","70.58823529411765","873.9411764705883","873.9411764705883","black","no","xpyriment","legacy","legacy","0","201","NA","uniform","NA","NA","NA","1","undefined","1","0","16","16","16","0","16","16","16","NA","0","16","NA","NA","0","16","NA","16","0","16","NA","NA","NA","16","0","0","NA","16","16","16","16","16","17","/","Mon Jun 26 09:35:40 2023","The main experiment item","yes","m21-ab-lexicalDecision.osexp","C:\Users\emoore8\Desktop\m21_vsl-main","no","mono","no","18","no","white","no","yes","1080","legacy","16","16","C:/Users/emoore8/Desktop/m21_vsl-main/subject-209.csv","xpyriment","Lentiform Loewenfeld","3.3.11","0","/","NA","NA","NA","NA","space","/","886","NA","NA","NA","NA","29088","886","2","legacy","1024","2","48000","-16","AB_m21","209","odd","CW_S","DETECTABLE","1768","104462","102409","95279","30869","NA","NA","NA","NA","NA","102909","NA","NA","NA","101908","NA","101881","1779","104762","NA","NA","NA","102949","1768","1768","NA","103836","103859","101881","102909","102929","morph21_Oliver/Morris","12","14857","17","yes","1920","1"
"200","72.22222222222223","72.22222222222223","870.4444444444445","870.4444444444445","black","no","xpyriment","legacy","legacy","0","204","NA","uniform","NA","NA","NA","1","undefined","1","0","17","17","17","0","17","17","17","NA","0","17","NA","NA","0","17","NA","17","0","17","NA","NA","NA","17","0","0","NA","17","17","17","17","17","18","z","Mon Jun 26 09:35:40 2023","The main experiment item","yes","m21-ab-lexicalDecision.osexp","C:\Users\emoore8\Desktop\m21_vsl-main","no","mono","no","18","no","white","no","yes","1080","legacy","17","17","C:/Users/emoore8/Desktop/m21_vsl-main/subject-209.csv","xpyriment","Lentiform Loewenfeld","3.3.11","0","z","NA","NA","NA","NA","space","z","811","NA","NA","NA","NA","29088","811","2","legacy","1024","2","48000","-16","AB_m21","209","odd","NW_L_COMP","PITCHORY","1768","109783","106299","108278","30869","NA","NA","NA","NA","NA","106799","NA","NA","NA","105799","NA","105771","1779","109983","NA","NA","NA","106840","1768","1768","NA","107651","107675","105771","106799","106820","morph21_Oliver/Morris","13","15668","18","yes","1920","25"
"300","73.6842105263158","73.6842105263158","879.5263157894736","879.5263157894736","black","no","xpyriment","legacy","legacy","0","201","NA","uniform","NA","NA","NA","1","undefined","1","0","18","18","18","0","18","18","18","NA","0","18","NA","NA","0","18","NA","18","0","18","NA","NA","NA","18","0","0","NA","18","18","18","18","18","19","/","Mon Jun 26 09:35:40 2023","The main experiment item","yes","m21-ab-lexicalDecision.osexp","C:\Users\emoore8\Desktop\m21_vsl-main","no","mono","no","18","no","white","no","yes","1080","legacy","18","18","C:/Users/emoore8/Desktop/m21_vsl-main/subject-209.csv","xpyriment","Lentiform Loewenfeld","3.3.11","0","/","NA","NA","NA","NA","space","/","1043","NA","NA","NA","NA","29088","1043","2","legacy","1024","2","48000","-16","AB_m21","209","odd","CW_S","INSISTENT","1768","113703","111491","108278","30869","NA","NA","NA","NA","NA","111992","NA","NA","NA","110990","NA","110968","1779","114003","NA","NA","NA","112033","1768","1768","NA","113076","113100","110968","111992","112013","morph21_Oliver/Morris","14","16711","19","yes","1920","9"
"300","75","75","888.45","888.45","black","no","xpyriment","legacy","legacy","0","206","NA","uniform","NA","NA","NA","1","undefined","1","0","19","19","19","0","19","19","19","NA","0","19","NA","NA","0","19","NA","19","0","19","NA","NA","NA","19","0","0","NA","19","19","19","19","19","20","z","Mon Jun 26 09:35:40 2023","The main experiment item","yes","m21-ab-lexicalDecision.osexp","C:\Users\emoore8\Desktop\m21_vsl-main","no","mono","no","18","no","white","no","yes","1080","legacy","19","19","C:/Users/emoore8/Desktop/m21_vsl-main/subject-209.csv","xpyriment","Lentiform Loewenfeld","3.3.11","0","z","NA","NA","NA","NA","space","z","1058","NA","NA","NA","NA","29088","1058","2","legacy","1024","2","48000","-16","AB_m21","209","odd","NW_L_SIMP","TAXFIL","1768","117742","115516","108278","30869","NA","NA","NA","NA","NA","116016","NA","NA","NA","115015","NA","114991","1779","118042","NA","NA","NA","116057","1768","1768","NA","117115","117139","114991","116016","116037","morph21_Oliver/Morris","15","17769","20","yes","1920","6"
"200","71.42857142857143","71.42857142857143","890.5238095238095","890.5238095238095","black","no","xpyriment","legacy","legacy","0","203","NA","uniform","NA","NA","NA","0","undefined","0","0","20","20","20","0","20","20","20","NA","0","20","NA","NA","0","20","NA","20","0","20","NA","NA","NA","20","0","0","NA","20","20","20","20","20","21","z","Mon Jun 26 09:35:40 2023","The main experiment item","yes","m21-ab-lexicalDecision.osexp","C:\Users\emoore8\Desktop\m21_vsl-main","no","mono","no","18","no","white","no","yes","1080","legacy","20","20","C:/Users/emoore8/Desktop/m21_vsl-main/subject-209.csv","xpyriment","Lentiform Loewenfeld","3.3.11","0","/","NA","NA","NA","NA","space","/","932","NA","NA","NA","NA","29088","932","2","legacy","1024","2","48000","-16","AB_m21","209","odd","NW_S_COMP","ANTISM","1768","123154","119547","121648","30869","NA","NA","NA","NA","NA","120048","NA","NA","NA","119047","NA","119023","1779","123354","NA","NA","NA","120088","1768","1768","NA","121020","121045","119023","120048","120068","morph21_Oliver/Morris","15","18701","21","yes","1920","8"
"300","72.72727272727273","72.72727272727273","903.9090909090909","903.9090909090909","black","no","xpyriment","legacy","legacy","0","205","NA","uniform","NA","NA","NA","1","undefined","1","0","21","21","21","0","21","21","21","NA","0","21","NA","NA","0","21","NA","21","0","21","NA","NA","NA","21","0","0","NA","21","21","21","21","21","22","z","Mon Jun 26 09:35:40 2023","The main experiment item","yes","m21-ab-lexicalDecision.osexp","C:\Users\emoore8\Desktop\m21_vsl-main","no","mono","no","18","no","white","no","yes","1080","legacy","21","21","C:/Users/emoore8/Desktop/m21_vsl-main/subject-209.csv","xpyriment","Lentiform Loewenfeld","3.3.11","0","z","NA","NA","NA","NA","space","z","1185","NA","NA","NA","NA","29088","1185","2","legacy","1024","2","48000","-16","AB_m21","209","odd","NW_S_SIMP","TILTADY","1768","127222","124868","121648","30869","NA","NA","NA","NA","NA","125370","NA","NA","NA","124367","NA","124339","1779","127523","NA","NA","NA","125410","1768","1768","NA","126596","126619","124339","125370","125390","morph21_Oliver/Morris","16","19886","22","yes","1920","17"
"350","73.91304347826087","73.91304347826087","896.0434782608696","896.0434782608696","black","no","xpyriment","legacy","legacy","0","206","NA","uniform","NA","NA","NA","1","undefined","1","0","22","22","22","0","22","22","22","NA","0","22","NA","NA","0","22","NA","22","0","22","NA","NA","NA","22","0","0","NA","22","22","22","22","22","23","z","Mon Jun 26 09:35:40 2023","The main experiment item","yes","m21-ab-lexicalDecision.osexp","C:\Users\emoore8\Desktop\m21_vsl-main","no","mono","no","18","no","white","no","yes","1080","legacy","22","22","C:/Users/emoore8/Desktop/m21_vsl-main/subject-209.csv","xpyriment","Lentiform Loewenfeld","3.3.11","0","z","NA","NA","NA","NA","space","z","723","NA","NA","NA","NA","29088","723","2","legacy","1024","2","48000","-16","AB_m21","209","odd","NW_L_SIMP","HABITIG","1768","130912","129019","121648","30869","NA","NA","NA","NA","NA","129520","NA","NA","NA","128519","NA","128496","1779","131262","NA","NA","NA","129561","1768","1768","NA","130284","130309","128496","129520","129541","morph21_Oliver/Morris","17","20609","23","yes","1920","7"
"250","70.83333333333333","70.83333333333333","908.7083333333334","908.7083333333334","black","no","xpyriment","legacy","legacy","0","208","NA","uniform","NA","NA","NA","0","undefined","0","0","23","23","23","0","23","23","23","NA","0","23","NA","NA","0","23","NA","23","0","23","NA","NA","NA","23","0","0","NA","23","23","23","23","23","24","z","Mon Jun 26 09:35:40 2023","The main experiment item","yes","m21-ab-lexicalDecision.osexp","C:\Users\emoore8\Desktop\m21_vsl-main","no","mono","no","18","no","white","no","yes","1080","legacy","23","23","C:/Users/emoore8/Desktop/m21_vsl-main/subject-209.csv","xpyriment","Lentiform Loewenfeld","3.3.11","0","None","NA","NA","NA","NA","space","None","1200","NA","NA","NA","NA","29088","1200","2","legacy","1024","2","48000","-16","AB_m21","209","odd","FILL_NW","LOLDS","1768","136637","132764","135133","30869","NA","NA","NA","NA","NA","133264","NA","NA","NA","132262","NA","132237","1779","136887","NA","NA","NA","133304","1768","1768","NA","134504","134529","132237","133264","133284","morph21_Oliver/Morris","17","21809","24","yes","1920","34"
"250","72","72","902.4","902.4","black","no","xpyriment","legacy","legacy","0","207","NA","uniform","NA","NA","NA","1","undefined","1","0","24","24","24","0","24","24","24","NA","0","24","NA","NA","0","24","NA","24","0","24","NA","NA","NA","24","0","0","NA","24","24","24","24","24","25","/","Mon Jun 26 09:35:40 2023","The main experiment item","yes","m21-ab-lexicalDecision.osexp","C:\Users\emoore8\Desktop\m21_vsl-main","no","mono","no","18","no","white","no","yes","1080","legacy","24","24","C:/Users/emoore8/Desktop/m21_vsl-main/subject-209.csv","xpyriment","Lentiform Loewenfeld","3.3.11","0","/","NA","NA","NA","NA","space","/","751","NA","NA","NA","NA","29088","751","2","legacy","1024","2","48000","-16","AB_m21","209","odd","FILL_W","PACK","1768","140375","138456","135133","30869","NA","NA","NA","NA","NA","138957","NA","NA","NA","137954","NA","137930","1779","140625","NA","NA","NA","138997","1768","1768","NA","139748","139772","137930","138957","138977","morph21_Oliver/Morris","18","22560","25","yes","1920","41"
"250","73.07692307692308","73.07692307692308","891.8461538461538","891.8461538461538","black","no","xpyriment","legacy","legacy","0","201","NA","uniform","NA","NA","NA","1","undefined","1","0","25","25","25","0","25","25","25","NA","0","25","NA","NA","0","25","NA","25","0","25","NA","NA","NA","25","0","0","NA","25","25","25","25","25","26","/","Mon Jun 26 09:35:40 2023","The main experiment item","yes","m21-ab-lexicalDecision.osexp","C:\Users\emoore8\Desktop\m21_vsl-main","no","mono","no","18","no","white","no","yes","1080","legacy","25","25","C:/Users/emoore8/Desktop/m21_vsl-main/subject-209.csv","xpyriment","Lentiform Loewenfeld","3.3.11","0","/","NA","NA","NA","NA","space","/","628","NA","NA","NA","NA","29088","628","2","legacy","1024","2","48000","-16","AB_m21","209","odd","CW_S","MOSSY","1768","143942","142146","135133","30869","NA","NA","NA","NA","NA","142646","NA","NA","NA","141646","NA","141623","1779","144192","NA","NA","NA","142687","1768","1768","NA","143316","143339","141623","142646","142667","morph21_Oliver/Morris","19","23188","26","yes","1920","47"
"200","74.07407407407408","74.07407407407408","882.9629629629629","882.9629629629629","black","no","xpyriment","legacy","legacy","0","205","NA","uniform","NA","NA","NA","1","undefined","1","0","26","26","26","0","26","26","26","NA","0","26","NA","NA","0","26","NA","26","0","26","NA","NA","NA","26","0","0","NA","26","26","26","26","26","27","z","Mon Jun 26 09:35:40 2023","The main experiment item","yes","m21-ab-lexicalDecision.osexp","C:\Users\emoore8\Desktop\m21_vsl-main","no","mono","no","18","no","white","no","yes","1080","legacy","26","26","C:/Users/emoore8/Desktop/m21_vsl-main/subject-209.csv","xpyriment","Lentiform Loewenfeld","3.3.11","0","z","NA","NA","NA","NA","space","z","652","NA","NA","NA","NA","29088","652","2","legacy","1024","2","48000","-16","AB_m21","209","odd","NW_S_SIMP","GUMFIL","1768","149023","145696","147519","30869","NA","NA","NA","NA","NA","146198","NA","NA","NA","145195","NA","145171","1779","149223","NA","NA","NA","146239","1768","1768","NA","146892","146915","145171","146198","146219","morph21_Oliver/Morris","20","23840","27","yes","1920","2"
"250","71.42857142857143","71.42857142857143","875.8214285714286","875.8214285714286","black","no","xpyriment","legacy","legacy","0","208","NA","uniform","NA","NA","NA","0","undefined","0","0","27","27","27","0","27","27","27","NA","0","27","NA","NA","0","27","NA","27","0","27","NA","NA","NA","27","0","0","NA","27","27","27","27","27","28","z","Mon Jun 26 09:35:40 2023","The main experiment item","yes","m21-ab-lexicalDecision.osexp","C:\Users\emoore8\Desktop\m21_vsl-main","no","mono","no","18","no","white","no","yes","1080","legacy","27","27","C:/Users/emoore8/Desktop/m21_vsl-main/subject-209.csv","xpyriment","Lentiform Loewenfeld","3.3.11","0","/","NA","NA","NA","NA","space","/","683","NA","NA","NA","NA","29088","683","2","legacy","1024","2","48000","-16","AB_m21","209","odd","FILL_NW","DOWED","1768","152600","150747","147519","30869","NA","NA","NA","NA","NA","151248","NA","NA","NA","150247","NA","150215","1779","152850","NA","NA","NA","151288","1768","1768","NA","151972","151996","150215","151247","151268","morph21_Oliver/Morris","20","24523","28","yes","1920","16"
"200","68.96551724137932","68.96551724137932","880.5862068965517","880.5862068965517","black","no","xpyriment","legacy","legacy","0","203","NA","uniform","NA","NA","NA","0","undefined","0","0","28","28","28","0","28","28","28","NA","0","28","NA","NA","0","28","NA","28","0","28","NA","NA","NA","28","0","0","NA","28","28","28","28","28","29","z","Mon Jun 26 09:35:40 2023","The main experiment item","yes","m21-ab-lexicalDecision.osexp","C:\Users\emoore8\Desktop\m21_vsl-main","no","mono","no","18","no","white","no","yes","1080","legacy","28","28","C:/Users/emoore8/Desktop/m21_vsl-main/subject-209.csv","xpyriment","Lentiform Loewenfeld","3.3.11","0","/","NA","NA","NA","NA","space","/","1014","NA","NA","NA","NA","29088","1014","2","legacy","1024","2","48000","-16","AB_m21","209","odd","NW_S_COMP","DUMBITY","1768","156527","154343","147519","30869","NA","NA","NA","NA","NA","154843","NA","NA","NA","153842","NA","153815","1779","156727","NA","NA","NA","154885","1768","1768","NA","155900","155924","153815","154843","154865","morph21_Oliver/Morris","20","25537","29","yes","1920","12"
"200","70","70","871.2","871.2","black","no","xpyriment","legacy","legacy","0","207","NA","uniform","NA","NA","NA","1","undefined","1","0","29","29","29","0","29","29","29","NA","0","29","NA","NA","0","29","NA","29","0","29","NA","NA","NA","29","0","0","NA","29","29","29","29","29","30","/","Mon Jun 26 09:35:40 2023","The main experiment item","yes","m21-ab-lexicalDecision.osexp","C:\Users\emoore8\Desktop\m21_vsl-main","no","mono","no","18","no","white","no","yes","1080","legacy","29","29","C:/Users/emoore8/Desktop/m21_vsl-main/subject-209.csv","xpyriment","Lentiform Loewenfeld","3.3.11","0","/","NA","NA","NA","NA","space","/","599","NA","NA","NA","NA","29088","599","2","legacy","1024","2","48000","-16","AB_m21","209","odd","FILL_W","TAX","1768","161503","158231","159999","30869","NA","NA","NA","NA","NA","158732","NA","NA","NA","157729","NA","157704","1779","161703","NA","NA","NA","158772","1768","1768","NA","159371","159396","157704","158732","158752","morph21_Oliver/Morris","21","26136","30","yes","1920","45"
"350","70.96774193548387","70.96774193548387","862.8387096774194","862.8387096774194","black","no","xpyriment","legacy","legacy","0","201","NA","uniform","NA","NA","NA","1","undefined","1","0","30","30","30","0","30","30","30","NA","0","30","NA","NA","0","30","NA","30","0","30","NA","NA","NA","30","0","0","NA","30","30","30","30","30","31","/","Mon Jun 26 09:35:40 2023","The main experiment item","yes","m21-ab-lexicalDecision.osexp","C:\Users\emoore8\Desktop\m21_vsl-main","no","mono","no","18","no","white","no","yes","1080","legacy","30","30","C:/Users/emoore8/Desktop/m21_vsl-main/subject-209.csv","xpyriment","Lentiform Loewenfeld","3.3.11","0","/","NA","NA","NA","NA","space","/","612","NA","NA","NA","NA","29088","612","2","legacy","1024","2","48000","-16","AB_m21","209","odd","CW_S","BOSSY","1768","164983","163202","159999","30869","NA","NA","NA","NA","NA","163702","NA","NA","NA","162701","NA","162676","1779","165333","NA","NA","NA","163743","1768","1768","NA","164356","164379","162676","163702","163723","morph21_Oliver/Morris","22","26748","31","yes","1920","49"
"200","71.875","71.875","854.71875","854.71875","black","no","xpyriment","legacy","legacy","0","204","NA","uniform","NA","NA","NA","1","undefined","1","0","31","31","31","0","31","31","31","NA","0","31","NA","NA","0","31","NA","31","0","31","NA","NA","NA","31","0","0","NA","31","31","31","31","31","32","z","Mon Jun 26 09:35:40 2023","The main experiment item","yes","m21-ab-lexicalDecision.osexp","C:\Users\emoore8\Desktop\m21_vsl-main","no","mono","no","18","no","white","no","yes","1080","legacy","31","31","C:/Users/emoore8/Desktop/m21_vsl-main/subject-209.csv","xpyriment","Lentiform Loewenfeld","3.3.11","0","z","NA","NA","NA","NA","space","z","603","NA","NA","NA","NA","29088","603","2","legacy","1024","2","48000","-16","AB_m21","209","odd","NW_L_COMP","FLIPORY","1768","168607","166836","159999","30869","NA","NA","NA","NA","NA","167336","NA","NA","NA","166335","NA","166309","1779","168807","NA","NA","NA","167376","1768","1768","NA","167979","168004","166309","167336","167356","morph21_Oliver/Morris","23","27351","32","yes","1920","16"
"400","72.72727272727273","72.72727272727273","850.7575757575758","850.7575757575758","black","no","xpyriment","legacy","legacy","0","201","NA","uniform","NA","NA","NA","1","undefined","1","0","32","32","32","0","32","32","32","NA","0","32","NA","NA","0","32","NA","32","0","32","NA","NA","NA","32","0","0","NA","32","32","32","32","32","33","/","Mon Jun 26 09:35:40 2023","The main experiment item","yes","m21-ab-lexicalDecision.osexp","C:\Users\emoore8\Desktop\m21_vsl-main","no","mono","no","18","no","white","no","yes","1080","legacy","32","32","C:/Users/emoore8/Desktop/m21_vsl-main/subject-209.csv","xpyriment","Lentiform Loewenfeld","3.3.11","0","/","NA","NA","NA","NA","space","/","724","NA","NA","NA","NA","29088","724","2","legacy","1024","2","48000","-16","AB_m21","209","odd","CW_S","RAIDER","1768","173709","170315","172206","30869","NA","NA","NA","NA","NA","170815","NA","NA","NA","169815","NA","169792","1779","174109","NA","NA","NA","170855","1768","1768","NA","171579","171603","169792","170815","170835","morph21_Oliver/Morris","24","28075","33","yes","1920","12"
"200","73.52941176470588","73.52941176470588","847.9705882352941","847.9705882352941","black","no","xpyriment","legacy","legacy","0","201","NA","uniform","NA","NA","NA","1","undefined","1","0","33","33","33","0","33","33","33","NA","0","33","NA","NA","0","33","NA","33","0","33","NA","NA","NA","33","0","0","NA","33","33","33","33","33","34","/","Mon Jun 26 09:35:40 2023","The main experiment item","yes","m21-ab-lexicalDecision.osexp","C:\Users\emoore8\Desktop\m21_vsl-main","no","mono","no","18","no","white","no","yes","1080","legacy","33","33","C:/Users/emoore8/Desktop/m21_vsl-main/subject-209.csv","xpyriment","Lentiform Loewenfeld","3.3.11","0","/","NA","NA","NA","NA","space","/","756","NA","NA","NA","NA","29088","756","2","legacy","1024","2","48000","-16","AB_m21","209","odd","CW_S","ANGELIC","1768","177535","175611","172206","30869","NA","NA","NA","NA","NA","176111","NA","NA","NA","175111","NA","175083","1779","177735","NA","NA","NA","176151","1768","1768","NA","176908","176931","175083","176110","176131","morph21_Oliver/Morris","25","28831","34","yes","1920","25"
"300","71.42857142857143","71.42857142857143","840.8285714285714","840.8285714285714","black","no","xpyriment","legacy","legacy","0","208","NA","uniform","NA","NA","NA","0","undefined","0","0","34","34","34","0","34","34","34","NA","0","34","NA","NA","0","34","NA","34","0","34","NA","NA","NA","34","0","0","NA","34","34","34","34","34","35","z","Mon Jun 26 09:35:40 2023","The main experiment item","yes","m21-ab-lexicalDecision.osexp","C:\Users\emoore8\Desktop\m21_vsl-main","no","mono","no","18","no","white","no","yes","1080","legacy","34","34","C:/Users/emoore8/Desktop/m21_vsl-main/subject-209.csv","xpyriment","Lentiform Loewenfeld","3.3.11","0","/","NA","NA","NA","NA","space","/","598","NA","NA","NA","NA","29088","598","2","legacy","1024","2","48000","-16","AB_m21","209","odd","FILL_NW","DASK","1768","181000","179232","172206","30869","NA","NA","NA","NA","NA","179733","NA","NA","NA","178731","NA","178705","1779","181300","NA","NA","NA","179773","1768","1768","NA","180371","180396","178705","179733","179753","morph21_Oliver/Morris","25","29429","35","yes","1920","12"
"250","69.44444444444444","69.44444444444444","850.8055555555555","850.8055555555555","black","no","xpyriment","legacy","legacy","0","203","NA","uniform","NA","NA","NA","0","undefined","0","0","35","35","35","0","35","35","35","NA","0","35","NA","NA","0","35","NA","35","0","35","NA","NA","NA","35","0","0","NA","35","35","35","35","35","36","z","Mon Jun 26 09:35:40 2023","The main experiment item","yes","m21-ab-lexicalDecision.osexp","C:\Users\emoore8\Desktop\m21_vsl-main","no","mono","no","18","no","white","no","yes","1080","legacy","35","35","C:/Users/emoore8/Desktop/m21_vsl-main/subject-209.csv","xpyriment","Lentiform Loewenfeld","3.3.11","0","None","NA","NA","NA","NA","space","None","1200","NA","NA","NA","NA","29088","1200","2","legacy","1024","2","48000","-16","AB_m21","209","odd","NW_S_COMP","LIDARY","1768","186684","182812","185179","30869","NA","NA","NA","NA","NA","183312","NA","NA","NA","182312","NA","182283","1779","186934","NA","NA","NA","183353","1768","1768","NA","184553","184576","182283","183312","183333","morph21_Oliver/Morris","25","30629","36","yes","1920","3"
"300","70.27027027027027","70.27027027027027","843.1621621621622","843.1621621621622","black","no","xpyriment","legacy","legacy","0","207","NA","uniform","NA","NA","NA","1","undefined","1","0","36","36","36","0","36","36","36","NA","0","36","NA","NA","0","36","NA","36","0","36","NA","NA","NA","36","0","0","NA","36","36","36","36","36","37","/","Mon Jun 26 09:35:40 2023","The main experiment item","yes","m21-ab-lexicalDecision.osexp","C:\Users\emoore8\Desktop\m21_vsl-main","no","mono","no","18","no","white","no","yes","1080","legacy","36","36","C:/Users/emoore8/Desktop/m21_vsl-main/subject-209.csv","xpyriment","Lentiform Loewenfeld","3.3.11","0","/","NA","NA","NA","NA","space","/","568","NA","NA","NA","NA","29088","568","2","legacy","1024","2","48000","-16","AB_m21","209","odd","FILL_W","MOURN","1768","190201","188464","185179","30869","NA","NA","NA","NA","NA","188964","NA","NA","NA","187963","NA","187937","1779","190501","NA","NA","NA","189004","1768","1768","NA","189572","189596","187937","188964","188984","morph21_Oliver/Morris","26","31197","37","yes","1920","26"
"300","71.05263157894737","71.05263157894737","844.2894736842105","844.2894736842105","black","no","xpyriment","legacy","legacy","0","205","NA","uniform","NA","NA","NA","1","undefined","1","0","37","37","37","0","37","37","37","NA","0","37","NA","NA","0","37","NA","37","0","37","NA","NA","NA","37","0","0","NA","37","37","37","37","37","38","z","Mon Jun 26 09:35:40 2023","The main experiment item","yes","m21-ab-lexicalDecision.osexp","C:\Users\emoore8\Desktop\m21_vsl-main","no","mono","no","18","no","white","no","yes","1080","legacy","37","37","C:/Users/emoore8/Desktop/m21_vsl-main/subject-209.csv","xpyriment","Lentiform Loewenfeld","3.3.11","0","z","NA","NA","NA","NA","space","z","886","NA","NA","NA","NA","29088","886","2","legacy","1024","2","48000","-16","AB_m21","209","odd","NW_S_SIMP","SOCKETEL","1768","194057","192001","185179","30869","NA","NA","NA","NA","NA","192501","NA","NA","NA","191500","NA","191474","1779","194357","NA","NA","NA","192541","1768","1768","NA","193427","193452","191474","192501","192521","morph21_Oliver/Morris","27","32083","38","yes","1920","1"
"200","71.7948717948718","71.7948717948718","845.9230769230769","845.9230769230769","black","no","xpyriment","legacy","legacy","0","204","NA","uniform","NA","NA","NA","1","undefined","1","0","38","38","38","0","38","38","38","NA","0","38","NA","NA","0","38","NA","38","0","38","NA","NA","NA","38","0","0","NA","38","38","38","38","38","39","z","Mon Jun 26 09:35:40 2023","The main experiment item","yes","m21-ab-lexicalDecision.osexp","C:\Users\emoore8\Desktop\m21_vsl-main","no","mono","no","18","no","white","no","yes","1080","legacy","38","38","C:/Users/emoore8/Desktop/m21_vsl-main/subject-209.csv","xpyriment","Lentiform Loewenfeld","3.3.11","0","z","NA","NA","NA","NA","space","z","908","NA","NA","NA","NA","29088","908","2","legacy","1024","2","48000","-16","AB_m21","209","odd","NW_L_COMP","GASFUL","1768","199466","195882","197961","30869","NA","NA","NA","NA","NA","196383","NA","NA","NA","195381","NA","195350","1779","199666","NA","NA","NA","196424","1768","1768","NA","197332","197356","195350","196383","196404","morph21_Oliver/Morris","28","32991","39","yes","1920","6"
"200","72.5","72.5","840.2","840.2","black","no","xpyriment","legacy","legacy","0","207","NA","uniform","NA","NA","NA","1","undefined","1","0","39","39","39","0","39","39","39","NA","0","39","NA","NA","0","39","NA","39","0","39","NA","NA","NA","39","0","0","NA","39","39","39","39","39","40","/","Mon Jun 26 09:35:40 2023","The main experiment item","yes","m21-ab-lexicalDecision.osexp","C:\Users\emoore8\Desktop\m21_vsl-main","no","mono","no","18","no","white","no","yes","1080","legacy","39","39","C:/Users/emoore8/Desktop/m21_vsl-main/subject-209.csv","xpyriment","Lentiform Loewenfeld","3.3.11","0","/","NA","NA","NA","NA","space","/","617","NA","NA","NA","NA","29088","617","2","legacy","1024","2","48000","-16","AB_m21","209","odd","FILL_W","BRASS","1768","202966","201181","197961","30869","NA","NA","NA","NA","NA","201681","NA","NA","NA","200681","NA","200652","1779","203166","NA","NA","NA","201722","1768","1768","NA","202340","202363","200651","201681","201702","morph21_Oliver/Morris","29","33608","40","yes","1920","10"
"300","73.17073170731707","73.17073170731707","835.219512195122","835.219512195122","black","no","xpyriment","legacy","legacy","0","202","NA","uniform","NA","NA","NA","1","undefined","1","0","40","40","40","0","40","40","40","NA","0","40","NA","NA","0","40","NA","40","0","40","NA","NA","NA","40","0","0","NA","40","40","40","40","40","41","/","Mon Jun 26 09:35:40 2023","The main experiment item","yes","m21-ab-lexicalDecision.osexp","C:\Users\emoore8\Desktop\m21_vsl-main","no","mono","no","18","no","white","no","yes","1080","legacy","40","40","C:/Users/emoore8/Desktop/m21_vsl-main/subject-209.csv","xpyriment","Lentiform Loewenfeld","3.3.11","0","/","NA","NA","NA","NA","space","/","636","NA","NA","NA","NA","29088","636","2","legacy","1024","2","48000","-16","AB_m21","209","odd","CW_L","DOUBTFUL","1768","206487","204681","197961","30869","NA","NA","NA","NA","NA","205182","NA","NA","NA","204180","NA","204154","1779","206787","NA","NA","NA","205223","1768","1768","NA","205859","205883","204154","205182","205203","morph21_Oliver/Morris","30","34244","41","yes","1920","21"
"350","73.80952380952381","73.80952380952381","829.6904761904761","829.6904761904761","black","no","xpyriment","legacy","legacy","0","202","NA","uniform","NA","NA","NA","1","undefined","1","0","41","41","41","0","41","41","41","NA","0","41","NA","NA","0","41","NA","41","0","41","NA","NA","NA","41","0","0","NA","41","41","41","41","41","42","/","Mon Jun 26 09:35:40 2023","The main experiment item","yes","m21-ab-lexicalDecision.osexp","C:\Users\emoore8\Desktop\m21_vsl-main","no","mono","no","18","no","white","no","yes","1080","legacy","41","41","C:/Users/emoore8/Desktop/m21_vsl-main/subject-209.csv","xpyriment","Lentiform Loewenfeld","3.3.11","0","/","NA","NA","NA","NA","space","/","603","NA","NA","NA","NA","29088","603","2","legacy","1024","2","48000","-16","AB_m21","209","odd","CW_L","RENTER","1768","211574","208300","210071","30869","NA","NA","NA","NA","NA","208800","NA","NA","NA","207798","NA","207772","1779","211924","NA","NA","NA","208841","1768","1768","NA","209444","209468","207772","208800","208821","morph21_Oliver/Morris","31","34847","42","yes","1920","9"
"400","74.4186046511628","74.4186046511628","824.7674418604652","824.7674418604652","black","no","xpyriment","legacy","legacy","0","201","NA","uniform","NA","NA","NA","1","undefined","1","0","42","42","42","0","42","42","42","NA","0","42","NA","NA","0","42","NA","42","0","42","NA","NA","NA","42","0","0","NA","42","42","42","42","42","43","/","Mon Jun 26 09:35:40 2023","The main experiment item","yes","m21-ab-lexicalDecision.osexp","C:\Users\emoore8\Desktop\m21_vsl-main","no","mono","no","18","no","white","no","yes","1080","legacy","42","42","C:/Users/emoore8/Desktop/m21_vsl-main/subject-209.csv","xpyriment","Lentiform Loewenfeld","3.3.11","0","/","NA","NA","NA","NA","space","/","618","NA","NA","NA","NA","29088","618","2","legacy","1024","2","48000","-16","AB_m21","209","odd","CW_S","DESIGN","1768","215215","213428","210071","30869","NA","NA","NA","NA","NA","213929","NA","NA","NA","212928","NA","212902","1779","215616","NA","NA","NA","213969","1768","1768","NA","214588","214612","212902","213929","213949","morph21_Oliver/Morris","32","35465","43","yes","1920","19"
"200","72.72727272727273","72.72727272727273","833.2954545454545","833.2954545454545","black","no","xpyriment","legacy","legacy","0","203","NA","uniform","NA","NA","NA","0","undefined","0","0","43","43","43","0","43","43","43","NA","0","43","NA","NA","0","43","NA","43","0","43","NA","NA","NA","43","0","0","NA","43","43","43","43","43","44","z","Mon Jun 26 09:35:40 2023","The main experiment item","yes","m21-ab-lexicalDecision.osexp","C:\Users\emoore8\Desktop\m21_vsl-main","no","mono","no","18","no","white","no","yes","1080","legacy","43","43","C:/Users/emoore8/Desktop/m21_vsl-main/subject-209.csv","xpyriment","Lentiform Loewenfeld","3.3.11","0","None","NA","NA","NA","NA","space","None","1200","NA","NA","NA","NA","29088","1200","2","legacy","1024","2","48000","-16","AB_m21","209","odd","NW_S_COMP","MELTANCE","1768","219482","217114","210071","30869","NA","NA","NA","NA","NA","217614","NA","NA","NA","216614","NA","216586","1779","219682","NA","NA","NA","217655","1768","1768","NA","218855","218879","216586","217614","217635","morph21_Oliver/Morris","32","36665","44","yes","1920","1"
"350","73.33333333333333","73.33333333333333","836.4888888888889","836.4888888888889","black","no","xpyriment","legacy","legacy","0","203","NA","uniform","NA","NA","NA","1","undefined","1","0","44","44","44","0","44","44","44","NA","0","44","NA","NA","0","44","NA","44","0","44","NA","NA","NA","44","0","0","NA","44","44","44","44","44","45","z","Mon Jun 26 09:35:40 2023","The main experiment item","yes","m21-ab-lexicalDecision.osexp","C:\Users\emoore8\Desktop\m21_vsl-main","no","mono","no","18","no","white","no","yes","1080","legacy","44","44","C:/Users/emoore8/Desktop/m21_vsl-main/subject-209.csv","xpyriment","Lentiform Loewenfeld","3.3.11","0","z","NA","NA","NA","NA","space","z","977","NA","NA","NA","NA","29088","977","2","legacy","1024","2","48000","-16","AB_m21","209","odd","NW_S_COMP","FIENDISM","1768","224841","221188","223335","30869","NA","NA","NA","NA","NA","221689","NA","NA","NA","220686","NA","220663","1779","225191","NA","NA","NA","221730","1768","1768","NA","222708","222732","220663","221689","221710","morph21_Oliver/Morris","33","37642","45","yes","1920","24"
"200","73.91304347826087","73.91304347826087","834.3260869565217","834.3260869565217","black","no","xpyriment","legacy","legacy","0","207","NA","uniform","NA","NA","NA","1","undefined","1","0","45","45","45","0","45","45","45","NA","0","45","NA","NA","0","45","NA","45","0","45","NA","NA","NA","45","0","0","NA","45","45","45","45","45","46","/","Mon Jun 26 09:35:40 2023","The main experiment item","yes","m21-ab-lexicalDecision.osexp","C:\Users\emoore8\Desktop\m21_vsl-main","no","mono","no","18","no","white","no","yes","1080","legacy","45","45","C:/Users/emoore8/Desktop/m21_vsl-main/subject-209.csv","xpyriment","Lentiform Loewenfeld","3.3.11","0","/","NA","NA","NA","NA","space","/","737","NA","NA","NA","NA","29088","737","2","legacy","1024","2","48000","-16","AB_m21","209","odd","FILL_W","WRECK","1768","228615","226710","223335","30869","NA","NA","NA","NA","NA","227210","NA","NA","NA","226209","NA","226180","1779","228815","NA","NA","NA","227251","1768","1768","NA","227988","228012","226180","227210","227231","morph21_Oliver/Morris","34","38379","46","yes","1920","13"
"300","74.46808510638297","74.46808510638297","833.9574468085107","833.9574468085107","black","no","xpyriment","legacy","legacy","0","202","NA","uniform","NA","NA","NA","1","undefined","1","0","46","46","46","0","46","46","46","NA","0","46","NA","NA","0","46","NA","46","0","46","NA","NA","NA","46","0","0","NA","46","46","46","46","46","47","/","Mon Jun 26 09:35:40 2023","The main experiment item","yes","m21-ab-lexicalDecision.osexp","C:\Users\emoore8\Desktop\m21_vsl-main","no","mono","no","18","no","white","no","yes","1080","legacy","46","46","C:/Users/emoore8/Desktop/m21_vsl-main/subject-209.csv","xpyriment","Lentiform Loewenfeld","3.3.11","0","/","NA","NA","NA","NA","space","/","817","NA","NA","NA","NA","29088","817","2","legacy","1024","2","48000","-16","AB_m21","209","odd","CW_L","HEATER","1768","232302","230317","223335","30869","NA","NA","NA","NA","NA","230817","NA","NA","NA","229816","NA","229792","1779","232602","NA","NA","NA","230858","1768","1768","NA","231676","231699","229792","230817","230838","morph21_Oliver/Morris","35","39196","47","yes","1920","16"
"250","75","75","836.7916666666666","836.7916666666666","black","no","xpyriment","legacy","legacy","0","201","NA","uniform","NA","NA","NA","1","undefined","1","0","47","47","47","0","47","47","47","NA","0","47","NA","NA","0","47","NA","47","0","47","NA","NA","NA","47","0","0","NA","47","47","47","47","47","48","/","Mon Jun 26 09:35:40 2023","The main experiment item","yes","m21-ab-lexicalDecision.osexp","C:\Users\emoore8\Desktop\m21_vsl-main","no","mono","no","18","no","white","no","yes","1080","legacy","47","47","C:/Users/emoore8/Desktop/m21_vsl-main/subject-209.csv","xpyriment","Lentiform Loewenfeld","3.3.11","0","/","NA","NA","NA","NA","space","/","970","NA","NA","NA","NA","29088","970","2","legacy","1024","2","48000","-16","AB_m21","209","odd","CW_S","GRIMLY","1768","237794","234148","236287","30869","NA","NA","NA","NA","NA","234648","NA","NA","NA","233648","NA","233621","1779","238044","NA","NA","NA","234689","1768","1768","NA","235660","235683","233621","234648","234669","morph21_Oliver/Morris","36","40166","48","yes","1920","31"
"400","75.51020408163265","75.51020408163265","834.7755102040817","834.7755102040817","black","no","xpyriment","legacy","legacy","0","208","NA","uniform","NA","NA","NA","1","undefined","1","0","48","48","48","0","48","48","48","NA","0","48","NA","NA","0","48","NA","48","0","48","NA","NA","NA","48","0","0","NA","48","48","48","48","48","49","z","Mon Jun 26 09:35:40 2023","The main experiment item","yes","m21-ab-lexicalDecision.osexp","C:\Users\emoore8\Desktop\m21_vsl-main","no","mono","no","18","no","white","no","yes","1080","legacy","48","48","C:/Users/emoore8/Desktop/m21_vsl-main/subject-209.csv","xpyriment","Lentiform Loewenfeld","3.3.11","0","z","NA","NA","NA","NA","space","z","738","NA","NA","NA","NA","29088","738","2","legacy","1024","2","48000","-16","AB_m21","209","odd","FILL_NW","BORMS","1768","241472","239566","236287","30869","NA","NA","NA","NA","NA","240066","NA","NA","NA","239066","NA","239038","1779","241872","NA","NA","NA","240106","1768","1768","NA","240844","240869","239038","240066","240086","morph21_Oliver/Morris","37","40904","49","yes","1920","50"
"350","74","74","835.66","835.66","black","no","xpyriment","legacy","legacy","0","203","NA","uniform","NA","NA","NA","0","undefined","0","0","49","49","49","0","49","49","49","NA","0","49","NA","NA","0","49","NA","49","0","49","NA","NA","NA","49","0","0","NA","49","49","49","49","49","50","z","Mon Jun 26 09:35:40 2023","The main experiment item","yes","m21-ab-lexicalDecision.osexp","C:\Users\emoore8\Desktop\m21_vsl-main","no","mono","no","18","no","white","no","yes","1080","legacy","49","49","C:/Users/emoore8/Desktop/m21_vsl-main/subject-209.csv","xpyriment","Lentiform Loewenfeld","3.3.11","0","/","NA","NA","NA","NA","space","/","879","NA","NA","NA","NA","29088","879","2","legacy","1024","2","48000","-16","AB_m21","209","odd","NW_S_COMP","EJECTENCE","1768","245447","243401","236287","30869","NA","NA","NA","NA","NA","243901","NA","NA","NA","242899","NA","242873","1779","245798","NA","NA","NA","243941","1768","1768","NA","244821","244844","242873","243901","243921","morph21_Oliver/Morris","37","41783","50","yes","1920","20"
"400","74.50980392156863","74.50980392156863","831.1372549019608","831.1372549019608","black","no","xpyriment","legacy","legacy","0","202","NA","uniform","NA","NA","NA","1","undefined","1","0","50","50","50","0","50","50","50","NA","0","50","NA","NA","0","50","NA","50","0","50","NA","NA","NA","50","0","0","NA","50","50","50","50","50","51","/","Mon Jun 26 09:35:40 2023","The main experiment item","yes","m21-ab-lexicalDecision.osexp","C:\Users\emoore8\Desktop\m21_vsl-main","no","mono","no","18","no","white","no","yes","1080","legacy","50","50","C:/Users/emoore8/Desktop/m21_vsl-main/subject-209.csv","xpyriment","Lentiform Loewenfeld","3.3.11","0","/","NA","NA","NA","NA","space","/","605","NA","NA","NA","NA","29088","605","2","legacy","1024","2","48000","-16","AB_m21","209","odd","CW_L","QUIETLY","1768","250576","247297","249073","30869","NA","NA","NA","NA","NA","247797","NA","NA","NA","246795","NA","246771","1779","250976","NA","NA","NA","247839","1768","1768","NA","248444","248469","246771","247797","247818","morph21_Oliver/Morris","38","42388","51","yes","1920","36"
"350","73.07692307692308","73.07692307692308","838.2307692307693","838.2307692307693","black","no","xpyriment","legacy","legacy","0","203","NA","uniform","NA","NA","NA","0","undefined","0","0","51","51","51","0","51","51","51","NA","0","51","NA","NA","0","51","NA","51","0","51","NA","NA","NA","51","0","0","NA","51","51","51","51","51","52","z","Mon Jun 26 09:35:40 2023","The main experiment item","yes","m21-ab-lexicalDecision.osexp","C:\Users\emoore8\Desktop\m21_vsl-main","no","mono","no","18","no","white","no","yes","1080","legacy","51","51","C:/Users/emoore8/Desktop/m21_vsl-main/subject-209.csv","xpyriment","Lentiform Loewenfeld","3.3.11","0","None","NA","NA","NA","NA","space","None","1200","NA","NA","NA","NA","29088","1200","2","legacy","1024","2","48000","-16","AB_m21","209","odd","NW_S_COMP","DEBTISH","1768","254849","252481","249073","30869","NA","NA","NA","NA","NA","252981","NA","NA","NA","251981","NA","251954","1779","255199","NA","NA","NA","253023","1768","1768","NA","254223","254246","251954","252981","253003","morph21_Oliver/Morris","38","43588","52","yes","1920","22"
"400","73.58490566037736","73.58490566037736","833.4528301886793","833.4528301886793","black","no","xpyriment","legacy","legacy","0","207","NA","uniform","NA","NA","NA","1","undefined","1","0","52","52","52","0","52","52","52","NA","0","52","NA","NA","0","52","NA","52","0","52","NA","NA","NA","52","0","0","NA","52","52","52","52","52","53","/","Mon Jun 26 09:35:40 2023","The main experiment item","yes","m21-ab-lexicalDecision.osexp","C:\Users\emoore8\Desktop\m21_vsl-main","no","mono","no","18","no","white","no","yes","1080","legacy","52","52","C:/Users/emoore8/Desktop/m21_vsl-main/subject-209.csv","xpyriment","Lentiform Loewenfeld","3.3.11","0","/","NA","NA","NA","NA","space","/","585","NA","NA","NA","NA","29088","585","2","legacy","1024","2","48000","-16","AB_m21","209","odd","FILL_W","DRUNK","1768","258536","256783","249073","30869","NA","NA","NA","NA","NA","257283","NA","NA","NA","256283","NA","256251","1779","258936","NA","NA","NA","257323","1768","1768","NA","257908","257933","256251","257283","257303","morph21_Oliver/Morris","39","44173","53","yes","1920","19"
"200","74.07407407407408","74.07407407407408","829.9074074074074","829.9074074074074","black","no","xpyriment","legacy","legacy","0","202","NA","uniform","NA","NA","NA","1","undefined","1","0","53","53","53","0","53","53","53","NA","0","53","NA","NA","0","53","NA","53","0","53","NA","NA","NA","53","0","0","NA","53","53","53","53","53","54","/","Mon Jun 26 09:35:40 2023","The main experiment item","yes","m21-ab-lexicalDecision.osexp","C:\Users\emoore8\Desktop\m21_vsl-main","no","mono","no","18","no","white","no","yes","1080","legacy","53","53","C:/Users/emoore8/Desktop/m21_vsl-main/subject-209.csv","xpyriment","Lentiform Loewenfeld","3.3.11","0","/","NA","NA","NA","NA","space","/","642","NA","NA","NA","NA","29088","642","2","legacy","1024","2","48000","-16","AB_m21","209","odd","CW_L","SAILOR","1768","263824","260509","262320","30869","NA","NA","NA","NA","NA","261010","NA","NA","NA","260009","NA","259979","1779","264024","NA","NA","NA","261050","1768","1768","NA","261692","261716","259979","261010","261030","morph21_Oliver/Morris","40","44815","54","yes","1920","43"
"250","74.54545454545455","74.54545454545455","827.1818181818181","827.1818181818181","black","no","xpyriment","legacy","legacy","0","205","NA","uniform","NA","NA","NA","1","undefined","1","0","54","54","54","0","54","54","54","NA","0","54","NA","NA","0","54","NA","54","0","54","NA","NA","NA","54","0","0","NA","54","54","54","54","54","55","z","Mon Jun 26 09:35:40 2023","The main experiment item","yes","m21-ab-lexicalDecision.osexp","C:\Users\emoore8\Desktop\m21_vsl-main","no","mono","no","18","no","white","no","yes","1080","legacy","54","54","C:/Users/emoore8/Desktop/m21_vsl-main/subject-209.csv","xpyriment","Lentiform Loewenfeld","3.3.11","0","z","NA","NA","NA","NA","space","z","680","NA","NA","NA","NA","29088","680","2","legacy","1024","2","48000","-16","AB_m21","209","odd","NW_S_SIMP","DIGODY","1768","267383","265535","262320","30869","NA","NA","NA","NA","NA","266036","NA","NA","NA","265034","NA","265009","1779","267633","NA","NA","NA","266076","1768","1768","NA","266757","266780","265008","266036","266056","morph21_Oliver/Morris","41","45495","55","yes","1920","11"
"250","75","75","830.0535714285714","830.0535714285714","black","no","xpyriment","legacy","legacy","0","202","NA","uniform","NA","NA","NA","1","undefined","1","0","55","55","55","0","55","55","55","NA","0","55","NA","NA","0","55","NA","55","0","55","NA","NA","NA","55","0","0","NA","55","55","55","55","55","56","/","Mon Jun 26 09:35:40 2023","The main experiment item","yes","m21-ab-lexicalDecision.osexp","C:\Users\emoore8\Desktop\m21_vsl-main","no","mono","no","18","no","white","no","yes","1080","legacy","55","55","C:/Users/emoore8/Desktop/m21_vsl-main/subject-209.csv","xpyriment","Lentiform Loewenfeld","3.3.11","0","/","NA","NA","NA","NA","space","/","988","NA","NA","NA","NA","29088","988","2","legacy","1024","2","48000","-16","AB_m21","209","odd","CW_L","EXCITEMENT","1768","271296","269139","262320","30869","NA","NA","NA","NA","NA","269639","NA","NA","NA","268639","NA","268613","1779","271546","NA","NA","NA","269679","1768","1768","NA","270668","270693","268613","269639","269659","morph21_Oliver/Morris","42","46483","56","yes","1920","38"
"350","75.43859649122807","75.43859649122807","827.1929824561404","827.1929824561404","black","no","xpyriment","legacy","legacy","0","207","NA","uniform","NA","NA","NA","1","undefined","1","0","56","56","56","0","56","56","56","NA","0","56","NA","NA","0","56","NA","56","0","56","NA","NA","NA","56","0","0","NA","56","56","56","56","56","57","/","Mon Jun 26 09:35:40 2023","The main experiment item","yes","m21-ab-lexicalDecision.osexp","C:\Users\emoore8\Desktop\m21_vsl-main","no","mono","no","18","no","white","no","yes","1080","legacy","56","56","C:/Users/emoore8/Desktop/m21_vsl-main/subject-209.csv","xpyriment","Lentiform Loewenfeld","3.3.11","0","/","NA","NA","NA","NA","space","/","667","NA","NA","NA","NA","29088","667","2","legacy","1024","2","48000","-16","AB_m21","209","odd","FILL_W","BRISK","1768","276415","273075","274912","30869","NA","NA","NA","NA","NA","273576","NA","NA","NA","272575","NA","272543","1779","276765","NA","NA","NA","273616","1768","1768","NA","274284","274308","272543","273576","273596","morph21_Oliver/Morris","43","47150","57","yes","1920","8"
"300","75.86206896551724","75.86206896551724","825","825","black","no","xpyriment","legacy","legacy","0","204","NA","uniform","NA","NA","NA","1","undefined","1","0","57","57","57","0","57","57","57","NA","0","57","NA","NA","0","57","NA","57","0","57","NA","NA","NA","57","0","0","NA","57","57","57","57","57","58","z","Mon Jun 26 09:35:40 2023","The main experiment item","yes","m21-ab-lexicalDecision.osexp","C:\Users\emoore8\Desktop\m21_vsl-main","no","mono","no","18","no","white","no","yes","1080","legacy","57","57","C:/Users/emoore8/Desktop/m21_vsl-main/subject-209.csv","xpyriment","Lentiform Loewenfeld","3.3.11","0","z","NA","NA","NA","NA","space","z","700","NA","NA","NA","NA","29088","700","2","legacy","1024","2","48000","-16","AB_m21","209","odd","NW_L_COMP","BINDIC","1768","280134","278264","274912","30869","NA","NA","NA","NA","NA","278765","NA","NA","NA","277762","NA","277737","1779","280435","NA","NA","NA","278807","1768","1768","NA","279508","279531","277737","278765","278786","morph21_Oliver/Morris","44","47850","58","yes","1920","22"
"350","76.27118644067797","76.27118644067797","825.4406779661017","825.4406779661017","black","no","xpyriment","legacy","legacy","0","203","NA","uniform","NA","NA","NA","1","undefined","1","0","58","58","58","0","58","58","58","NA","0","58","NA","NA","0","58","NA","58","0","58","NA","NA","NA","58","0","0","NA","58","58","58","58","58","59","z","Mon Jun 26 09:35:40 2023","The main experiment item","yes","m21-ab-lexicalDecision.osexp","C:\Users\emoore8\Desktop\m21_vsl-main","no","mono","no","18","no","white","no","yes","1080","legacy","58","58","C:/Users/emoore8/Desktop/m21_vsl-main/subject-209.csv","xpyriment","Lentiform Loewenfeld","3.3.11","0","z","NA","NA","NA","NA","space","z","851","NA","NA","NA","NA","29088","851","2","legacy","1024","2","48000","-16","AB_m21","209","odd","NW_S_COMP","WELDIC","1768","283951","281932","274912","30869","NA","NA","NA","NA","NA","282433","NA","NA","NA","281431","NA","281404","1779","284301","NA","NA","NA","282473","1768","1768","NA","283325","283348","281404","282433","282453","morph21_Oliver/Morris","45","48701","59","yes","1920","21"
"350","76.66666666666667","76.66666666666667","821.1833333333333","821.1833333333333","black","no","xpyriment","legacy","legacy","0","201","NA","uniform","NA","NA","NA","1","undefined","1","0","59","59","59","0","59","59","59","NA","0","59","NA","NA","0","59","NA","59","0","59","NA","NA","NA","59","0","0","NA","59","59","59","59","59","60","/","Mon Jun 26 09:35:40 2023","The main experiment item","yes","m21-ab-lexicalDecision.osexp","C:\Users\emoore8\Desktop\m21_vsl-main","no","mono","no","18","no","white","no","yes","1080","legacy","59","59","C:/Users/emoore8/Desktop/m21_vsl-main/subject-209.csv","xpyriment","Lentiform Loewenfeld","3.3.11","0","/","NA","NA","NA","NA","space","/","570","NA","NA","NA","NA","29088","570","2","legacy","1024","2","48000","-16","AB_m21","209","odd","CW_S","TEACHER","1768","289166","285922","287663","30869","NA","NA","NA","NA","NA","286424","NA","NA","NA","285422","NA","285397","1779","289516","NA","NA","NA","286465","1768","1768","NA","287035","287060","285397","286424","286445","morph21_Oliver/Morris","46","49271","60","yes","1920","23"
"400","77.04918032786885","77.04918032786885","825.7704918032787","825.7704918032787","black","no","xpyriment","legacy","legacy","0","201","NA","uniform","NA","NA","NA","1","undefined","1","0","60","60","60","0","60","60","60","NA","0","60","NA","NA","0","60","NA","60","0","60","NA","NA","NA","60","0","0","NA","60","60","60","60","60","61","/","Mon Jun 26 09:35:40 2023","The main experiment item","yes","m21-ab-lexicalDecision.osexp","C:\Users\emoore8\Desktop\m21_vsl-main","no","mono","no","18","no","white","no","yes","1080","legacy","60","60","C:/Users/emoore8/Desktop/m21_vsl-main/subject-209.csv","xpyriment","Lentiform Loewenfeld","3.3.11","0","/","NA","NA","NA","NA","space","/","1101","NA","NA","NA","NA","29088","1101","2","legacy","1024","2","48000","-16","AB_m21","209","odd","CW_S","EFFORTLESS","1768","293279","291009","287663","30869","NA","NA","NA","NA","NA","291510","NA","NA","NA","290509","NA","290482","1779","293679","NA","NA","NA","291550","1768","1768","NA","292652","292676","290482","291509","291530","morph21_Oliver/Morris","47","50372","61","yes","1920","30"
"250","77.41935483870968","77.41935483870968","826.741935483871","826.741935483871","black","no","xpyriment","legacy","legacy","0","202","NA","uniform","NA","NA","NA","1","undefined","1","0","61","61","61","0","61","61","61","NA","0","61","NA","NA","0","61","NA","61","0","61","NA","NA","NA","61","0","0","NA","61","61","61","61","61","62","/","Mon Jun 26 09:35:40 2023","The main experiment item","yes","m21-ab-lexicalDecision.osexp","C:\Users\emoore8\Desktop\m21_vsl-main","no","mono","no","18","no","white","no","yes","1080","legacy","61","61","C:/Users/emoore8/Desktop/m21_vsl-main/subject-209.csv","xpyriment","Lentiform Loewenfeld","3.3.11","0","/","NA","NA","NA","NA","space","/","886","NA","NA","NA","NA","29088","886","2","legacy","1024","2","48000","-16","AB_m21","209","odd","CW_L","DEAFNESS","1768","297239","295184","287663","30869","NA","NA","NA","NA","NA","295684","NA","NA","NA","294682","NA","294660","1779","297489","NA","NA","NA","295725","1768","1768","NA","296612","296635","294660","295684","295705","morph21_Oliver/Morris","48","51258","62","yes","1920","39"
"200","76.19047619047619","76.19047619047619","832.6666666666666","832.6666666666666","black","no","xpyriment","legacy","legacy","0","205","NA","uniform","NA","NA","NA","0","undefined","0","0","62","62","62","0","62","62","62","NA","0","62","NA","NA","0","62","NA","62","0","62","NA","NA","NA","62","0","0","NA","62","62","62","62","62","63","z","Mon Jun 26 09:35:40 2023","The main experiment item","yes","m21-ab-lexicalDecision.osexp","C:\Users\emoore8\Desktop\m21_vsl-main","no","mono","no","18","no","white","no","yes","1080","legacy","62","62","C:/Users/emoore8/Desktop/m21_vsl-main/subject-209.csv","xpyriment","Lentiform Loewenfeld","3.3.11","0","None","NA","NA","NA","NA","space","None","1200","NA","NA","NA","NA","29088","1200","2","legacy","1024","2","48000","-16","AB_m21","209","odd","NW_S_SIMP","OPPOSEMANT","1768","302873","298999","301368","30869","NA","NA","NA","NA","NA","299499","NA","NA","NA","298498","NA","298472","1779","303073","NA","NA","NA","299540","1768","1768","NA","300740","300765","298472","299499","299520","morph21_Oliver/Morris","48","52458","63","yes","1920","8"
"300","75","75","832.9375","832.9375","black","no","xpyriment","legacy","legacy","0","204","NA","uniform","NA","NA","NA","0","undefined","0","0","63","63","63","0","63","63","63","NA","0","63","NA","NA","0","63","NA","63","0","63","NA","NA","NA","63","0","0","NA","63","63","63","63","63","64","z","Mon Jun 26 09:35:40 2023","The main experiment item","yes","m21-ab-lexicalDecision.osexp","C:\Users\emoore8\Desktop\m21_vsl-main","no","mono","no","18","no","white","no","yes","1080","legacy","63","63","C:/Users/emoore8/Desktop/m21_vsl-main/subject-209.csv","xpyriment","Lentiform Loewenfeld","3.3.11","0","/","NA","NA","NA","NA","space","/","850","NA","NA","NA","NA","29088","850","2","legacy","1024","2","48000","-16","AB_m21","209","odd","NW_L_COMP","ILLIST","1768","306607","304588","301368","30869","NA","NA","NA","NA","NA","305090","NA","NA","NA","304087","NA","304060","1779","306907","NA","NA","NA","305130","1768","1768","NA","305980","306004","304060","305090","305110","morph21_Oliver/Morris","48","53308","64","yes","1920","9"
"400","75.38461538461539","75.38461538461539","831.0615384615385","831.0615384615385","black","no","xpyriment","legacy","legacy","0","202","NA","uniform","NA","NA","NA","1","undefined","1","0","64","64","64","0","64","64","64","NA","0","64","NA","NA","0","64","NA","64","0","64","NA","NA","NA","64","0","0","NA","64","64","64","64","64","65","/","Mon Jun 26 09:35:40 2023","The main experiment item","yes","m21-ab-lexicalDecision.osexp","C:\Users\emoore8\Desktop\m21_vsl-main","no","mono","no","18","no","white","no","yes","1080","legacy","64","64","C:/Users/emoore8/Desktop/m21_vsl-main/subject-209.csv","xpyriment","Lentiform Loewenfeld","3.3.11","0","/","NA","NA","NA","NA","space","/","711","NA","NA","NA","NA","29088","711","2","legacy","1024","2","48000","-16","AB_m21","209","odd","CW_L","COOLING","1768","310296","308415","301368","30869","NA","NA","NA","NA","NA","308915","NA","NA","NA","307915","NA","307892","1779","310696","NA","NA","NA","308956","1768","1768","NA","309668","309693","307892","308915","308936","morph21_Oliver/Morris","49","54019","65","yes","1920","24"
"250","75.75757575757575","75.75757575757575","830.6363636363636","830.6363636363636","black","no","xpyriment","legacy","legacy","0","201","NA","uniform","NA","NA","NA","1","undefined","1","0","65","65","65","0","65","65","65","NA","0","65","NA","NA","0","65","NA","65","0","65","NA","NA","NA","65","0","0","NA","65","65","65","65","65","66","/","Mon Jun 26 09:35:40 2023","The main experiment item","yes","m21-ab-lexicalDecision.osexp","C:\Users\emoore8\Desktop\m21_vsl-main","no","mono","no","18","no","white","no","yes","1080","legacy","65","65","C:/Users/emoore8/Desktop/m21_vsl-main/subject-209.csv","xpyriment","Lentiform Loewenfeld","3.3.11","0","/","NA","NA","NA","NA","space","/","803","NA","NA","NA","NA","29088","803","2","legacy","1024","2","48000","-16","AB_m21","209","odd","CW_S","NOTICEABLE","1768","315680","312204","314176","30869","NA","NA","NA","NA","NA","312704","NA","NA","NA","311703","NA","311672","1779","315930","NA","NA","NA","312745","1768","1768","NA","313549","313573","311672","312704","312725","morph21_Oliver/Morris","50","54822","66","yes","1920","3"
"300","76.11940298507463","76.11940298507463","825.9104477611941","825.9104477611941","black","no","xpyriment","legacy","legacy","0","207","NA","uniform","NA","NA","NA","1","undefined","1","0","66","66","66","0","66","66","66","NA","0","66","NA","NA","0","66","NA","66","0","66","NA","NA","NA","66","0","0","NA","66","66","66","66","66","67","/","Mon Jun 26 09:35:40 2023","The main experiment item","yes","m21-ab-lexicalDecision.osexp","C:\Users\emoore8\Desktop\m21_vsl-main","no","mono","no","18","no","white","no","yes","1080","legacy","66","66","C:/Users/emoore8/Desktop/m21_vsl-main/subject-209.csv","xpyriment","Lentiform Loewenfeld","3.3.11","0","/","NA","NA","NA","NA","space","/","514","NA","NA","NA","NA","29088","514","2","legacy","1024","2","48000","-16","AB_m21","209","odd","FILL_W","SICK","1768","319128","317444","314176","30869","NA","NA","NA","NA","NA","317944","NA","NA","NA","316943","NA","316915","1779","319428","NA","NA","NA","317985","1768","1768","NA","318500","318523","316915","317944","317965","morph21_Oliver/Morris","51","55336","67","yes","1920","36"
"250","76.47058823529412","76.47058823529412","830.0735294117648","830.0735294117648","black","no","xpyriment","legacy","legacy","0","206","NA","uniform","NA","NA","NA","1","undefined","1","0","67","67","67","0","67","67","67","NA","0","67","NA","NA","0","67","NA","67","0","67","NA","NA","NA","67","0","0","NA","67","67","67","67","67","68","z","Mon Jun 26 09:35:40 2023","The main experiment item","yes","m21-ab-lexicalDecision.osexp","C:\Users\emoore8\Desktop\m21_vsl-main","no","mono","no","18","no","white","no","yes","1080","legacy","67","67","C:/Users/emoore8/Desktop/m21_vsl-main/subject-209.csv","xpyriment","Lentiform Loewenfeld","3.3.11","0","z","NA","NA","NA","NA","space","z","1109","NA","NA","NA","NA","29088","1109","2","legacy","1024","2","48000","-16","AB_m21","209","odd","NW_L_SIMP","SMOOTHFIL","1768","323207","320929","314176","30869","NA","NA","NA","NA","NA","321430","NA","NA","NA","320429","NA","320404","1779","323457","NA","NA","NA","321471","1768","1768","NA","322580","322604","320404","321430","321451","morph21_Oliver/Morris","52","56445","68","yes","1920","19"
"350","76.81159420289855","76.81159420289855","827.5507246376811","827.5507246376811","black","no","xpyriment","legacy","legacy","0","207","NA","uniform","NA","NA","NA","1","undefined","1","0","68","68","68","0","68","68","68","NA","0","68","NA","NA","0","68","NA","68","0","68","NA","NA","NA","68","0","0","NA","68","68","68","68","68","69","/","Mon Jun 26 09:35:40 2023","The main experiment item","yes","m21-ab-lexicalDecision.osexp","C:\Users\emoore8\Desktop\m21_vsl-main","no","mono","no","18","no","white","no","yes","1080","legacy","68","68","C:/Users/emoore8/Desktop/m21_vsl-main/subject-209.csv","xpyriment","Lentiform Loewenfeld","3.3.11","0","/","NA","NA","NA","NA","space","/","656","NA","NA","NA","NA","29088","656","2","legacy","1024","2","48000","-16","AB_m21","209","odd","FILL_W","LEAK","1768","328278","324951","326775","30869","NA","NA","NA","NA","NA","325451","NA","NA","NA","324450","NA","324428","1779","328628","NA","NA","NA","325492","1768","1768","NA","326148","326172","324428","325451","325472","morph21_Oliver/Morris","53","57101","69","yes","1920","9"
"200","75.71428571428571","75.71428571428571","826.7285714285714","826.7285714285714","black","no","xpyriment","legacy","legacy","0","205","NA","uniform","NA","NA","NA","0","undefined","0","0","69","69","69","0","69","69","69","NA","0","69","NA","NA","0","69","NA","69","0","69","NA","NA","NA","69","0","0","NA","69","69","69","69","69","70","z","Mon Jun 26 09:35:40 2023","The main experiment item","yes","m21-ab-lexicalDecision.osexp","C:\Users\emoore8\Desktop\m21_vsl-main","no","mono","no","18","no","white","no","yes","1080","legacy","69","69","C:/Users/emoore8/Desktop/m21_vsl-main/subject-209.csv","xpyriment","Lentiform Loewenfeld","3.3.11","0","/","NA","NA","NA","NA","space","/","770","NA","NA","NA","NA","29088","770","2","legacy","1024","2","48000","-16","AB_m21","209","odd","NW_S_SIMP","NULLITH","1768","332070","330132","326775","30869","NA","NA","NA","NA","NA","330633","NA","NA","NA","329631","NA","329605","1779","332270","NA","NA","NA","330673","1768","1768","NA","331444","331467","329605","330633","330653","morph21_Oliver/Morris","53","57871","70","yes","1920","23"
"350","76.05633802816901","76.05633802816901","823.6338028169014","823.6338028169014","black","no","xpyriment","legacy","legacy","0","207","NA","uniform","NA","NA","NA","1","undefined","1","0","70","70","70","0","70","70","70","NA","0","70","NA","NA","0","70","NA","70","0","70","NA","NA","NA","70","0","0","NA","70","70","70","70","70","71","/","Mon Jun 26 09:35:40 2023","The main experiment item","yes","m21-ab-lexicalDecision.osexp","C:\Users\emoore8\Desktop\m21_vsl-main","no","mono","no","18","no","white","no","yes","1080","legacy","70","70","C:/Users/emoore8/Desktop/m21_vsl-main/subject-209.csv","xpyriment","Lentiform Loewenfeld","3.3.11","0","/","NA","NA","NA","NA","space","/","607","NA","NA","NA","NA","29088","607","2","legacy","1024","2","48000","-16","AB_m21","209","odd","FILL_W","LIFT","1768","335543","333768","326775","30869","NA","NA","NA","NA","NA","334268","NA","NA","NA","333266","NA","333240","1779","335893","NA","NA","NA","334308","1768","1768","NA","334916","334940","333240","334268","334288","morph21_Oliver/Morris","54","58478","71","yes","1920","39"
"200","76.38888888888889","76.38888888888889","823.9583333333334","823.9583333333334","black","no","xpyriment","legacy","legacy","0","205","NA","uniform","NA","NA","NA","1","undefined","1","0","71","71","71","0","71","71","71","NA","0","71","NA","NA","0","71","NA","71","0","71","NA","NA","NA","71","0","0","NA","71","71","71","71","71","72","z","Mon Jun 26 09:35:40 2023","The main experiment item","yes","m21-ab-lexicalDecision.osexp","C:\Users\emoore8\Desktop\m21_vsl-main","no","mono","no","18","no","white","no","yes","1080","legacy","71","71","C:/Users/emoore8/Desktop/m21_vsl-main/subject-209.csv","xpyriment","Lentiform Loewenfeld","3.3.11","0","z","NA","NA","NA","NA","space","z","847","NA","NA","NA","NA","29088","847","2","legacy","1024","2","48000","-16","AB_m21","209","odd","NW_S_SIMP","JAWLA","1768","340919","337399","339415","30869","NA","NA","NA","NA","NA","337901","NA","NA","NA","336898","NA","336872","1779","341120","NA","NA","NA","337941","1768","1768","NA","338788","338812","336872","337901","337921","morph21_Oliver/Morris","55","59325","72","yes","1920","7"
"350","76.71232876712328","76.71232876712328","823.4794520547945","823.4794520547945","black","no","xpyriment","legacy","legacy","0","208","NA","uniform","NA","NA","NA","1","undefined","1","0","72","72","72","0","72","72","72","NA","0","72","NA","NA","0","72","NA","72","0","72","NA","NA","NA","72","0","0","NA","72","72","72","72","72","73","z","Mon Jun 26 09:35:40 2023","The main experiment item","yes","m21-ab-lexicalDecision.osexp","C:\Users\emoore8\Desktop\m21_vsl-main","no","mono","no","18","no","white","no","yes","1080","legacy","72","72","C:/Users/emoore8/Desktop/m21_vsl-main/subject-209.csv","xpyriment","Lentiform Loewenfeld","3.3.11","0","z","NA","NA","NA","NA","space","z","789","NA","NA","NA","NA","29088","789","2","legacy","1024","2","48000","-16","AB_m21","209","odd","FILL_NW","BLANTH","1768","344583","342624","339415","30869","NA","NA","NA","NA","NA","343125","NA","NA","NA","342123","NA","342099","1779","344933","NA","NA","NA","343166","1768","1768","NA","343956","343979","342099","343125","343146","morph21_Oliver/Morris","56","60114","73","yes","1920","3"
"250","77.02702702702703","77.02702702702703","820.8783783783783","820.8783783783783","black","no","xpyriment","legacy","legacy","0","207","NA","uniform","NA","NA","NA","1","undefined","1","0","73","73","73","0","73","73","73","NA","0","73","NA","NA","0","73","NA","73","0","73","NA","NA","NA","73","0","0","NA","73","73","73","73","73","74","/","Mon Jun 26 09:35:40 2023","The main experiment item","yes","m21-ab-lexicalDecision.osexp","C:\Users\emoore8\Desktop\m21_vsl-main","no","mono","no","18","no","white","no","yes","1080","legacy","73","73","C:/Users/emoore8/Desktop/m21_vsl-main/subject-209.csv","xpyriment","Lentiform Loewenfeld","3.3.11","0","/","NA","NA","NA","NA","space","/","631","NA","NA","NA","NA","29088","631","2","legacy","1024","2","48000","-16","AB_m21","209","odd","FILL_W","SHIP","1768","348239","346440","339415","30869","NA","NA","NA","NA","NA","346941","NA","NA","NA","345939","NA","345913","1779","348489","NA","NA","NA","346981","1768","1768","NA","347612","347636","345913","346941","346961","morph21_Oliver/Morris","57","60745","74","yes","1920","37"
"200","77.33333333333333","77.33333333333333","818.1466666666666","818.1466666666666","black","no","xpyriment","legacy","legacy","0","208","NA","uniform","NA","NA","NA","undefined","undefined","1","0","74","74","74","0","74","74","74","NA","0","74","NA","NA","0","74","NA","74","0","74","NA","NA","NA","74","0","0","NA","74","74","74","74","74","75","z","Mon Jun 26 09:35:40 2023","The main experiment item","yes","m21-ab-lexicalDecision.osexp","C:\Users\emoore8\Desktop\m21_vsl-main","no","mono","no","18","no","white","no","yes","1080","legacy","74","74","C:/Users/emoore8/Desktop/m21_vsl-main/subject-209.csv","xpyriment","Lentiform Loewenfeld","3.3.11","0","space","space","NA","NA","NA","space","z","7709","7709","NA","NA","NA","29088","616","2","legacy","1024","2","48000","-16","AB_m21","209","odd","FILL_NW","GILN","1768","353289","350000","351785","30869","353494","NA","NA","NA","NA","350500","NA","NA","NA","349500","NA","349473","1779","361204","NA","NA","NA","350540","1768","1768","NA","351156","351180","349473","350500","350520","morph21_Oliver/Morris","58","61361","75","yes","1920","25"
"300","77.63157894736842","77.63157894736842","818.7763157894736","818.7763157894736","black","no","xpyriment","legacy","legacy","0","208","NA","uniform","NA","NA","NA","1","undefined","1","0","75","75","75","0","75","75","75","NA","0","75","NA","NA","0","75","NA","75","0","75","NA","NA","NA","75","0","0","NA","75","75","75","75","75","76","z","Mon Jun 26 09:35:40 2023","The main experiment item","yes","m21-ab-lexicalDecision.osexp","C:\Users\emoore8\Desktop\m21_vsl-main","no","mono","no","18","no","white","no","yes","1080","legacy","75","75","C:/Users/emoore8/Desktop/m21_vsl-main/subject-209.csv","xpyriment","Lentiform Loewenfeld","3.3.11","0","z","space","NA","NA","NA","space","z","866","7709","NA","NA","NA","29088","866","2","legacy","1024","2","48000","-16","AB_m21","209","odd","FILL_NW","SCURE","1768","364775","362742","351785","30869","353494","NA","NA","NA","NA","363242","NA","NA","NA","362242","NA","362215","1779","365075","NA","NA","NA","363282","1768","1768","NA","364148","364172","362215","363242","363262","morph21_Oliver/Morris","59","62227","76","yes","1920","41"
"200","77.92207792207792","77.92207792207792","817.5324675324675","817.5324675324675","black","no","xpyriment","legacy","legacy","0","201","NA","uniform","NA","NA","NA","1","undefined","1","0","76","76","76","0","76","76","76","NA","0","76","NA","NA","0","76","NA","76","0","76","NA","NA","NA","76","0","0","NA","76","76","76","76","76","77","/","Mon Jun 26 09:35:40 2023","The main experiment item","yes","m21-ab-lexicalDecision.osexp","C:\Users\emoore8\Desktop\m21_vsl-main","no","mono","no","18","no","white","no","yes","1080","legacy","76","76","C:/Users/emoore8/Desktop/m21_vsl-main/subject-209.csv","xpyriment","Lentiform Loewenfeld","3.3.11","0","/","space","NA","NA","NA","space","/","723","7709","NA","NA","NA","29088","723","2","legacy","1024","2","48000","-16","AB_m21","209","odd","CW_S","BOLDNESS","1768","368490","366595","351785","30869","353494","NA","NA","NA","NA","367096","NA","NA","NA","366094","NA","366069","1779","368690","NA","NA","NA","367136","1768","1768","NA","367860","367885","366069","367095","367116","morph21_Oliver/Morris","60","62950","77","yes","1920","41"
"250","78.2051282051282","78.2051282051282","816.2948717948718","816.2948717948718","black","no","xpyriment","legacy","legacy","0","201","NA","uniform","NA","NA","NA","1","undefined","1","0","77","77","77","0","77","77","77","NA","0","77","NA","NA","0","77","NA","77","0","77","NA","NA","NA","77","0","0","NA","77","77","77","77","77","78","/","Mon Jun 26 09:35:40 2023","The main experiment item","yes","m21-ab-lexicalDecision.osexp","C:\Users\emoore8\Desktop\m21_vsl-main","no","mono","no","18","no","white","no","yes","1080","legacy","77","77","C:/Users/emoore8/Desktop/m21_vsl-main/subject-209.csv","xpyriment","Lentiform Loewenfeld","3.3.11","0","/","space","NA","NA","NA","space","/","721","7709","NA","NA","NA","29088","721","2","legacy","1024","2","48000","-16","AB_m21","209","odd","CW_S","PEAKING","1768","373582","370190","372079","30869","353494","NA","NA","NA","NA","370691","NA","NA","NA","369689","NA","369664","1779","373832","NA","NA","NA","370731","1768","1768","NA","371453","371476","369664","370690","370711","morph21_Oliver/Morris","61","63671","78","yes","1920","28"
"350","78.48101265822785","78.48101265822785","814.2784810126582","814.2784810126582","black","no","xpyriment","legacy","legacy","0","201","NA","uniform","NA","NA","NA","1","undefined","1","0","78","78","78","0","78","78","78","NA","0","78","NA","NA","0","78","NA","78","0","78","NA","NA","NA","78","0","0","NA","78","78","78","78","78","79","/","Mon Jun 26 09:35:40 2023","The main experiment item","yes","m21-ab-lexicalDecision.osexp","C:\Users\emoore8\Desktop\m21_vsl-main","no","mono","no","18","no","white","no","yes","1080","legacy","78","78","C:/Users/emoore8/Desktop/m21_vsl-main/subject-209.csv","xpyriment","Lentiform Loewenfeld","3.3.11","0","/","space","NA","NA","NA","space","/","657","7709","NA","NA","NA","29088","657","2","legacy","1024","2","48000","-16","AB_m21","209","odd","CW_S","AMAZEMENT","1768","377161","375332","372079","30869","353494","NA","NA","NA","NA","375833","NA","NA","NA","374831","NA","374806","1779","377511","NA","NA","NA","375874","1768","1768","NA","376532","376557","374806","375833","375854","morph21_Oliver/Morris","62","64328","79","yes","1920","39"
"300","78.75","78.75","815.175","815.175","black","no","xpyriment","legacy","legacy","0","208","NA","uniform","NA","NA","NA","1","undefined","1","0","79","79","79","0","79","79","79","NA","0","79","NA","NA","0","79","NA","79","0","79","NA","NA","NA","79","0","0","NA","79","79","79","79","79","80","z","Mon Jun 26 09:35:40 2023","The main experiment item","yes","m21-ab-lexicalDecision.osexp","C:\Users\emoore8\Desktop\m21_vsl-main","no","mono","no","18","no","white","no","yes","1080","legacy","79","79","C:/Users/emoore8/Desktop/m21_vsl-main/subject-209.csv","xpyriment","Lentiform Loewenfeld","3.3.11","0","z","space","NA","NA","NA","space","z","886","7709","NA","NA","NA","29088","886","2","legacy","1024","2","48000","-16","AB_m21","209","odd","FILL_NW","HEEM","1768","381072","379017","372079","30869","353494","NA","NA","NA","NA","379517","NA","NA","NA","378517","NA","378493","1779","381372","NA","NA","NA","379558","1768","1768","NA","380444","380468","378493","379517","379538","morph21_Oliver/Morris","63","65214","80","yes","1920","27"
"400","79.01234567901234","79.01234567901234","818.2469135802469","818.2469135802469","black","no","xpyriment","legacy","legacy","0","206","NA","uniform","NA","NA","NA","1","undefined","1","0","80","80","80","0","80","80","80","NA","0","80","NA","NA","0","80","NA","80","0","80","NA","NA","NA","80","0","0","NA","80","80","80","80","80","81","z","Mon Jun 26 09:35:40 2023","The main experiment item","yes","m21-ab-lexicalDecision.osexp","C:\Users\emoore8\Desktop\m21_vsl-main","no","mono","no","18","no","white","no","yes","1080","legacy","80","80","C:/Users/emoore8/Desktop/m21_vsl-main/subject-209.csv","xpyriment","Lentiform Loewenfeld","3.3.11","0","z","space","NA","NA","NA","space","z","1064","7709","NA","NA","NA","29088","1064","2","legacy","1024","2","48000","-16","AB_m21","209","odd","NW_L_SIMP","VALIDEL","1768","386634","382893","385130","30869","353494","NA","NA","NA","NA","383395","NA","NA","NA","382393","NA","382368","1779","387034","NA","NA","NA","383435","1768","1768","NA","384500","384525","382368","383395","383415","morph21_Oliver/Morris","64","66278","81","yes","1920","23"
"400","79.26829268292683","79.26829268292683","816.6341463414634","816.6341463414634","black","no","xpyriment","legacy","legacy","0","207","NA","uniform","NA","NA","NA","1","undefined","1","0","81","81","81","0","81","81","81","NA","0","81","NA","NA","0","81","NA","81","0","81","NA","NA","NA","81","0","0","NA","81","81","81","81","81","82","/","Mon Jun 26 09:35:40 2023","The main experiment item","yes","m21-ab-lexicalDecision.osexp","C:\Users\emoore8\Desktop\m21_vsl-main","no","mono","no","18","no","white","no","yes","1080","legacy","81","81","C:/Users/emoore8/Desktop/m21_vsl-main/subject-209.csv","xpyriment","Lentiform Loewenfeld","3.3.11","0","/","space","NA","NA","NA","space","/","686","7709","NA","NA","NA","29088","686","2","legacy","1024","2","48000","-16","AB_m21","209","odd","FILL_W","CEASE","1768","390415","388560","385130","30869","353494","NA","NA","NA","NA","389061","NA","NA","NA","388058","NA","388033","1779","390815","NA","NA","NA","389102","1768","1768","NA","389789","389812","388033","389061","389082","morph21_Oliver/Morris","65","66964","82","yes","1920","18"
"250","79.51807228915662","79.51807228915662","815.7831325301205","815.7831325301205","black","no","xpyriment","legacy","legacy","0","201","NA","uniform","NA","NA","NA","1","undefined","1","0","82","82","82","0","82","82","82","NA","0","82","NA","NA","0","82","NA","82","0","82","NA","NA","NA","82","0","0","NA","82","82","82","82","82","83","/","Mon Jun 26 09:35:40 2023","The main experiment item","yes","m21-ab-lexicalDecision.osexp","C:\Users\emoore8\Desktop\m21_vsl-main","no","mono","no","18","no","white","no","yes","1080","legacy","82","82","C:/Users/emoore8/Desktop/m21_vsl-main/subject-209.csv","xpyriment","Lentiform Loewenfeld","3.3.11","0","/","space","NA","NA","NA","space","/","746","7709","NA","NA","NA","29088","746","2","legacy","1024","2","48000","-16","AB_m21","209","odd","CW_S","TOSSING","1768","394226","392310","385130","30869","353494","NA","NA","NA","NA","392810","NA","NA","NA","391810","NA","391782","1779","394476","NA","NA","NA","392850","1768","1768","NA","393597","393621","391782","392810","392830","morph21_Oliver/Morris","66","67710","83","yes","1920","26"
"300","79.76190476190476","79.76190476190476","813.297619047619","813.297619047619","black","no","xpyriment","legacy","legacy","0","201","NA","uniform","NA","NA","NA","1","undefined","1","0","83","83","83","0","83","83","83","NA","0","83","NA","NA","0","83","NA","83","0","83","NA","NA","NA","83","0","0","NA","83","83","83","83","83","84","/","Mon Jun 26 09:35:40 2023","The main experiment item","yes","m21-ab-lexicalDecision.osexp","C:\Users\emoore8\Desktop\m21_vsl-main","no","mono","no","18","no","white","no","yes","1080","legacy","83","83","C:/Users/emoore8/Desktop/m21_vsl-main/subject-209.csv","xpyriment","Lentiform Loewenfeld","3.3.11","0","/","space","NA","NA","NA","space","/","607","7709","NA","NA","NA","29088","607","2","legacy","1024","2","48000","-16","AB_m21","209","odd","CW_S","RISKY","1768","399303","396022","397800","30869","353494","NA","NA","NA","NA","396523","NA","NA","NA","395520","NA","395493","1779","399603","NA","NA","NA","396564","1768","1768","NA","397172","397197","395493","396523","396544","morph21_Oliver/Morris","67","68317","84","yes","1920","50"
"350","80","80","810.1529411764706","810.1529411764706","black","no","xpyriment","legacy","legacy","0","202","NA","uniform","NA","NA","NA","1","undefined","1","0","84","84","84","0","84","84","84","NA","0","84","NA","NA","0","84","NA","84","0","84","NA","NA","NA","84","0","0","NA","84","84","84","84","84","85","/","Mon Jun 26 09:35:40 2023","The main experiment item","yes","m21-ab-lexicalDecision.osexp","C:\Users\emoore8\Desktop\m21_vsl-main","no","mono","no","18","no","white","no","yes","1080","legacy","84","84","C:/Users/emoore8/Desktop/m21_vsl-main/subject-209.csv","xpyriment","Lentiform Loewenfeld","3.3.11","0","/","space","NA","NA","NA","space","/","546","7709","NA","NA","NA","29088","546","2","legacy","1024","2","48000","-16","AB_m21","209","odd","CW_L","JUMPING","1768","402815","401099","397800","30869","353494","NA","NA","NA","NA","401600","NA","NA","NA","400598","NA","400572","1779","403166","NA","NA","NA","401641","1768","1768","NA","402188","402212","400572","401600","401621","morph21_Oliver/Morris","68","68863","85","yes","1920","30"
"300","80.23255813953489","80.23255813953489","809.8372093023256","809.8372093023256","black","no","xpyriment","legacy","legacy","0","207","NA","uniform","NA","NA","NA","1","undefined","1","0","85","85","85","0","85","85","85","NA","0","85","NA","NA","0","85","NA","85","0","85","NA","NA","NA","85","0","0","NA","85","85","85","85","85","86","/","Mon Jun 26 09:35:40 2023","The main experiment item","yes","m21-ab-lexicalDecision.osexp","C:\Users\emoore8\Desktop\m21_vsl-main","no","mono","no","18","no","white","no","yes","1080","legacy","85","85","C:/Users/emoore8/Desktop/m21_vsl-main/subject-209.csv","xpyriment","Lentiform Loewenfeld","3.3.11","0","/","space","NA","NA","NA","space","/","783","7709","NA","NA","NA","29088","783","2","legacy","1024","2","48000","-16","AB_m21","209","odd","FILL_W","BALD","1768","406615","404664","397800","30869","353494","NA","NA","NA","NA","405164","NA","NA","NA","404163","NA","404137","1779","406915","NA","NA","NA","405204","1768","1768","NA","405988","406012","404137","405164","405184","morph21_Oliver/Morris","69","69646","86","yes","1920","3"
"200","80.45977011494253","80.45977011494253","807.5977011494252","807.5977011494252","black","no","xpyriment","legacy","legacy","0","201","NA","uniform","NA","NA","NA","1","undefined","1","0","86","86","86","0","86","86","86","NA","0","86","NA","NA","0","86","NA","86","0","86","NA","NA","NA","86","0","0","NA","86","86","86","86","86","87","/","Mon Jun 26 09:35:40 2023","The main experiment item","yes","m21-ab-lexicalDecision.osexp","C:\Users\emoore8\Desktop\m21_vsl-main","no","mono","no","18","no","white","no","yes","1080","legacy","86","86","C:/Users/emoore8/Desktop/m21_vsl-main/subject-209.csv","xpyriment","Lentiform Loewenfeld","3.3.11","0","/","space","NA","NA","NA","space","/","615","7709","NA","NA","NA","29088","615","2","legacy","1024","2","48000","-16","AB_m21","209","odd","CW_S","LOCALLY","1768","411719","408432","410215","30869","353494","NA","NA","NA","NA","408932","NA","NA","NA","407930","NA","407899","1779","411920","NA","NA","NA","408973","1768","1768","NA","409589","409612","407899","408932","408953","morph21_Oliver/Morris","70","70261","87","yes","1920","37"
"400","79.54545454545455","79.54545454545455","805.9886363636364","805.9886363636364","black","no","xpyriment","legacy","legacy","0","204","NA","uniform","NA","NA","NA","0","undefined","0","0","87","87","87","0","87","87","87","NA","0","87","NA","NA","0","87","NA","87","0","87","NA","NA","NA","87","0","0","NA","87","87","87","87","87","88","z","Mon Jun 26 09:35:40 2023","The main experiment item","yes","m21-ab-lexicalDecision.osexp","C:\Users\emoore8\Desktop\m21_vsl-main","no","mono","no","18","no","white","no","yes","1080","legacy","87","87","C:/Users/emoore8/Desktop/m21_vsl-main/subject-209.csv","xpyriment","Lentiform Loewenfeld","3.3.11","0","/","space","NA","NA","NA","space","/","666","7709","NA","NA","NA","29088","666","2","legacy","1024","2","48000","-16","AB_m21","209","odd","NW_L_COMP","ANGELISH","1768","415247","413413","410215","30869","353494","NA","NA","NA","NA","413914","NA","NA","NA","412913","NA","412884","1779","415648","NA","NA","NA","413954","1768","1768","NA","414621","414644","412884","413914","413934","morph21_Oliver/Morris","70","70927","88","yes","1920","7"
"400","78.65168539325843","78.65168539325843","810.4157303370787","810.4157303370787","black","no","xpyriment","legacy","legacy","0","205","NA","uniform","NA","NA","NA","0","undefined","0","0","88","88","88","0","88","88","88","NA","0","88","NA","NA","0","88","NA","88","0","88","NA","NA","NA","88","0","0","NA","88","88","88","88","88","89","z","Mon Jun 26 09:35:40 2023","The main experiment item","yes","m21-ab-lexicalDecision.osexp","C:\Users\emoore8\Desktop\m21_vsl-main","no","mono","no","18","no","white","no","yes","1080","legacy","88","88","C:/Users/emoore8/Desktop/m21_vsl-main/subject-209.csv","xpyriment","Lentiform Loewenfeld","3.3.11","0","None","space","NA","NA","NA","space","None","1200","7709","NA","NA","NA","29088","1200","2","legacy","1024","2","48000","-16","AB_m21","209","odd","NW_S_SIMP","ADVERTISELA","1768","419524","417154","410215","30869","353494","NA","NA","NA","NA","417655","NA","NA","NA","416652","NA","416629","1779","419924","NA","NA","NA","417696","1768","1768","NA","418896","418921","416629","417655","417676","morph21_Oliver/Morris","70","72127","89","yes","1920","25"
"300","78.88888888888889","78.88888888888889","807.9333333333333","807.9333333333333","black","no","xpyriment","legacy","legacy","0","207","NA","uniform","NA","NA","NA","1","undefined","1","0","89","89","89","0","89","89","89","NA","0","89","NA","NA","0","89","NA","89","0","89","NA","NA","NA","89","0","0","NA","89","89","89","89","89","90","/","Mon Jun 26 09:35:40 2023","The main experiment item","yes","m21-ab-lexicalDecision.osexp","C:\Users\emoore8\Desktop\m21_vsl-main","no","mono","no","18","no","white","no","yes","1080","legacy","89","89","C:/Users/emoore8/Desktop/m21_vsl-main/subject-209.csv","xpyriment","Lentiform Loewenfeld","3.3.11","0","/","space","NA","NA","NA","space","/","587","7709","NA","NA","NA","29088","587","2","legacy","1024","2","48000","-16","AB_m21","209","odd","FILL_W","BAKE","1768","424701","421442","423198","30869","353494","NA","NA","NA","NA","421942","NA","NA","NA","420941","NA","420911","1779","425001","NA","NA","NA","421984","1768","1768","NA","422572","422595","420911","421942","421964","morph21_Oliver/Morris","71","72714","90","yes","1920","29"
