"ITI","acc","accuracy","average_response_time","avg_rt","background","bidi","canvas_backend","clock_backend","color_backend","compensation","cond_trig","condtrigtime","coordinates","coroutines_cycles","coroutines_duration","coroutines_mean_cycle_duration","correct","correct_instructions_1","correct_new_keyboard_response_1","count_AB_m21","count_ITI","count_blank_screen","count_blink_screen","count_block1","count_break1","count_break2","count_break3_1","count_canvas","count_close_port","count_cond_trigger","count_correct_trigger","count_def_chain","count_end_screen","count_fixation_1","count_getting_started","count_inc_counter","count_instructions_1","count_logger","count_logscript","count_new_inline_script","count_new_inline_script_2","count_new_keyboard_response_1","count_open_port","count_reset_counter_prep","count_reset_counter_run","count_response_trigger_trial","count_responsescreen","count_sequence","count_target_present","count_word_trigger","counter","cresp","datetime","description","disable_garbage_collection","experiment_file","experiment_path","font_bold","font_family","font_italic","font_size","font_underline","foreground","form_clicks","fullscreen","height","keyboard_backend","live_row","live_row_block1","logfile","mouse_backend","opensesame_codename","opensesame_version","repeat_cycle","response","response_break1","response_break2","response_break3_1","response_end_screen","response_instructions_1","response_new_keyboard_response_1","response_time","response_time_break1","response_time_break2","response_time_break3_1","response_time_end_screen","response_time_instructions_1","response_time_new_keyboard_response_1","round_decimals","sampler_backend","sound_buf_size","sound_channels","sound_freq","sound_sample_size","start","subject_nr","subject_parity","targ_type","target","time_AB_m21","time_ITI","time_blank_screen","time_blink_screen","time_block1","time_break1","time_break2","time_break3_1","time_canvas","time_close_port","time_cond_trigger","time_correct_trigger","time_def_chain","time_end_screen","time_fixation_1","time_getting_started","time_inc_counter","time_instructions_1","time_logger","time_logscript","time_new_inline_script","time_new_inline_script_2","time_new_keyboard_response_1","time_open_port","time_reset_counter_prep","time_reset_counter_run","time_response_trigger_trial","time_responsescreen","time_sequence","time_target_present","time_word_trigger","title","total_correct","total_response_time","total_responses","uniform_coordinates","width","word_trig"
"200","0","0","1200","1200","black","no","xpyriment","legacy","legacy","0","208","NA","uniform","NA","NA","NA","0","undefined","0","0","0","0","0","0","0","0","0","NA","0","0","NA","NA","0","0","NA","0","0","0","NA","NA","NA","0","0","0","NA","0","0","0","0","0","1","z","Wed Nov 29 15:11:52 2023","The main experiment item","yes","m21-ab-lexicalDecision.osexp","C:\Users\ekealey\Desktop","no","mono","no","18","no","white","no","yes","1080","legacy","0","0","C:/Users/ekealey/Desktop/subject-229.csv","xpyriment","Lentiform Loewenfeld","3.3.11","0","None","NA","NA","NA","NA","space","None","1200","NA","NA","NA","NA","27382","1200","2","legacy","1024","2","48000","-16","AB_m21","229","odd","FILL_NW","PORDS","2331","34058","31691","NA","29727","NA","NA","NA","NA","NA","32192","NA","NA","NA","31190","NA","31157","2344","34258","NA","NA","NA","32232","2331","2331","NA","33432","33455","31156","32192","32212","morph21_Oliver/Morris","0","1200","1","yes","1920","39"
"200","50","50","1143","1143","black","no","xpyriment","legacy","legacy","0","207","NA","uniform","NA","NA","NA","1","undefined","1","0","1","1","1","0","1","1","1","NA","0","1","NA","NA","0","1","NA","1","0","1","NA","NA","NA","1","0","0","NA","1","1","1","1","1","2","/","Wed Nov 29 15:11:52 2023","The main experiment item","yes","m21-ab-lexicalDecision.osexp","C:\Users\ekealey\Desktop","no","mono","no","18","no","white","no","yes","1080","legacy","1","1","C:/Users/ekealey/Desktop/subject-229.csv","xpyriment","Lentiform Loewenfeld","3.3.11","0","/","NA","NA","NA","NA","space","/","1086","NA","NA","NA","NA","27382","1086","2","legacy","1024","2","48000","-16","AB_m21","229","odd","FILL_W","FLOAT","2331","38084","35827","NA","29727","NA","NA","NA","NA","NA","36327","NA","NA","NA","35325","NA","35293","2344","38284","NA","NA","NA","36368","2331","2331","NA","37454","37480","35293","36327","36348","morph21_Oliver/Morris","1","2286","2","yes","1920","30"
"250","33.333333333333336","33.333333333333336","1162","1162","black","no","xpyriment","legacy","legacy","0","208","NA","uniform","NA","NA","NA","0","undefined","0","0","2","2","2","0","2","2","2","NA","0","2","NA","NA","0","2","NA","2","0","2","NA","NA","NA","2","0","0","NA","2","2","2","2","2","3","z","Wed Nov 29 15:11:52 2023","The main experiment item","yes","m21-ab-lexicalDecision.osexp","C:\Users\ekealey\Desktop","no","mono","no","18","no","white","no","yes","1080","legacy","2","2","C:/Users/ekealey/Desktop/subject-229.csv","xpyriment","Lentiform Loewenfeld","3.3.11","0","None","NA","NA","NA","NA","space","None","1200","NA","NA","NA","NA","27382","1200","2","legacy","1024","2","48000","-16","AB_m21","229","odd","FILL_NW","PHEEKS","2331","43757","39885","42252","29727","NA","NA","NA","NA","NA","40385","NA","NA","NA","39385","NA","39357","2344","44007","NA","NA","NA","40426","2331","2331","NA","41626","41649","39357","40385","40406","morph21_Oliver/Morris","1","3486","3","yes","1920","35"
"250","25","25","1165.75","1165.75","black","no","xpyriment","legacy","legacy","0","204","NA","uniform","NA","NA","NA","0","undefined","0","0","3","3","3","0","3","3","3","NA","0","3","NA","NA","0","3","NA","3","0","3","NA","NA","NA","3","0","0","NA","3","3","3","3","3","4","z","Wed Nov 29 15:11:52 2023","The main experiment item","yes","m21-ab-lexicalDecision.osexp","C:\Users\ekealey\Desktop","no","mono","no","18","no","white","no","yes","1080","legacy","3","3","C:/Users/ekealey/Desktop/subject-229.csv","xpyriment","Lentiform Loewenfeld","3.3.11","0","/","NA","NA","NA","NA","space","/","1177","NA","NA","NA","NA","27382","1177","2","legacy","1024","2","48000","-16","AB_m21","229","odd","NW_L_COMP","FREENESS","2331","47996","45647","42252","29727","NA","NA","NA","NA","NA","46148","NA","NA","NA","45146","NA","45119","2344","48246","NA","NA","NA","46188","2331","2331","NA","47366","47390","45119","46148","46168","morph21_Oliver/Morris","1","4663","4","yes","1920","15"
"200","40","40","1150.4","1150.4","black","no","xpyriment","legacy","legacy","0","208","NA","uniform","NA","NA","NA","1","undefined","1","0","4","4","4","0","4","4","4","NA","0","4","NA","NA","0","4","NA","4","0","4","NA","NA","NA","4","0","0","NA","4","4","4","4","4","5","z","Wed Nov 29 15:11:52 2023","The main experiment item","yes","m21-ab-lexicalDecision.osexp","C:\Users\ekealey\Desktop","no","mono","no","18","no","white","no","yes","1080","legacy","4","4","C:/Users/ekealey/Desktop/subject-229.csv","xpyriment","Lentiform Loewenfeld","3.3.11","0","z","NA","NA","NA","NA","space","z","1089","NA","NA","NA","NA","27382","1089","2","legacy","1024","2","48000","-16","AB_m21","229","odd","FILL_NW","CINDS","2331","52064","49807","42252","29727","NA","NA","NA","NA","NA","50308","NA","NA","NA","49306","NA","49281","2344","52265","NA","NA","NA","50348","2331","2331","NA","51438","51461","49281","50308","50328","morph21_Oliver/Morris","2","5752","5","yes","1920","6"
"300","33.333333333333336","33.333333333333336","1158.6666666666667","1158.6666666666667","black","no","xpyriment","legacy","legacy","0","205","NA","uniform","NA","NA","NA","0","undefined","0","0","5","5","5","0","5","5","5","NA","0","5","NA","NA","0","5","NA","5","0","5","NA","NA","NA","5","0","0","NA","5","5","5","5","5","6","z","Wed Nov 29 15:11:52 2023","The main experiment item","yes","m21-ab-lexicalDecision.osexp","C:\Users\ekealey\Desktop","no","mono","no","18","no","white","no","yes","1080","legacy","5","5","C:/Users/ekealey/Desktop/subject-229.csv","xpyriment","Lentiform Loewenfeld","3.3.11","0","None","NA","NA","NA","NA","space","None","1200","NA","NA","NA","NA","27382","1200","2","legacy","1024","2","48000","-16","AB_m21","229","odd","NW_S_SIMP","SOCKETEL","2331","57711","53837","56205","29727","NA","NA","NA","NA","NA","54337","NA","NA","NA","53337","NA","53312","2344","58011","NA","NA","NA","54378","2331","2331","NA","55578","55601","53312","54337","54358","morph21_Oliver/Morris","2","6952","6","yes","1920","1"
"200","28.571428571428573","28.571428571428573","1164.5714285714287","1164.5714285714287","black","no","xpyriment","legacy","legacy","0","203","NA","uniform","NA","NA","NA","0","undefined","0","0","6","6","6","0","6","6","6","NA","0","6","NA","NA","0","6","NA","6","0","6","NA","NA","NA","6","0","0","NA","6","6","6","6","6","7","z","Wed Nov 29 15:11:52 2023","The main experiment item","yes","m21-ab-lexicalDecision.osexp","C:\Users\ekealey\Desktop","no","mono","no","18","no","white","no","yes","1080","legacy","6","6","C:/Users/ekealey/Desktop/subject-229.csv","xpyriment","Lentiform Loewenfeld","3.3.11","0","None","NA","NA","NA","NA","space","None","1200","NA","NA","NA","NA","27382","1200","2","legacy","1024","2","48000","-16","AB_m21","229","odd","NW_S_COMP","DUMBITY","2331","61969","59601","56205","29727","NA","NA","NA","NA","NA","60102","NA","NA","NA","59100","NA","59074","2344","62170","NA","NA","NA","60142","2331","2331","NA","61342","61366","59074","60102","60122","morph21_Oliver/Morris","2","8152","7","yes","1920","12"
"350","25","25","1169","1169","black","no","xpyriment","legacy","legacy","0","206","NA","uniform","NA","NA","NA","0","undefined","0","0","7","7","7","0","7","7","7","NA","0","7","NA","NA","0","7","NA","7","0","7","NA","NA","NA","7","0","0","NA","7","7","7","7","7","8","z","Wed Nov 29 15:11:52 2023","The main experiment item","yes","m21-ab-lexicalDecision.osexp","C:\Users\ekealey\Desktop","no","mono","no","18","no","white","no","yes","1080","legacy","7","7","C:/Users/ekealey/Desktop/subject-229.csv","xpyriment","Lentiform Loewenfeld","3.3.11","0","None","NA","NA","NA","NA","space","None","1200","NA","NA","NA","NA","27382","1200","2","legacy","1024","2","48000","-16","AB_m21","229","odd","NW_L_SIMP","WIGITH","2331","66104","63735","56205","29727","NA","NA","NA","NA","NA","64236","NA","NA","NA","63233","NA","63205","2344","66455","NA","NA","NA","64277","2331","2331","NA","65477","65501","63205","64236","64257","morph21_Oliver/Morris","2","9352","8","yes","1920","9"
"200","33.333333333333336","33.333333333333336","1104.5555555555557","1104.5555555555557","black","no","xpyriment","legacy","legacy","0","207","NA","uniform","NA","NA","NA","1","undefined","1","0","8","8","8","0","8","8","8","NA","0","8","NA","NA","0","8","NA","8","0","8","NA","NA","NA","8","0","0","NA","8","8","8","8","8","9","/","Wed Nov 29 15:11:52 2023","The main experiment item","yes","m21-ab-lexicalDecision.osexp","C:\Users\ekealey\Desktop","no","mono","no","18","no","white","no","yes","1080","legacy","8","8","C:/Users/ekealey/Desktop/subject-229.csv","xpyriment","Lentiform Loewenfeld","3.3.11","0","/","NA","NA","NA","NA","space","/","589","NA","NA","NA","NA","27382","589","2","legacy","1024","2","48000","-16","AB_m21","229","odd","FILL_W","LEGAL","2331","71284","68019","69780","29727","NA","NA","NA","NA","NA","68520","NA","NA","NA","67519","NA","67491","2344","71484","NA","NA","NA","68561","2331","2331","NA","69150","69175","67491","68520","68541","morph21_Oliver/Morris","3","9941","9","yes","1920","35"
"400","40","40","1087","1087","black","no","xpyriment","legacy","legacy","0","208","NA","uniform","NA","NA","NA","1","undefined","1","0","9","9","9","0","9","9","9","NA","0","9","NA","NA","0","9","NA","9","0","9","NA","NA","NA","9","0","0","NA","9","9","9","9","9","10","z","Wed Nov 29 15:11:52 2023","The main experiment item","yes","m21-ab-lexicalDecision.osexp","C:\Users\ekealey\Desktop","no","mono","no","18","no","white","no","yes","1080","legacy","9","9","C:/Users/ekealey/Desktop/subject-229.csv","xpyriment","Lentiform Loewenfeld","3.3.11","0","z","NA","NA","NA","NA","space","z","929","NA","NA","NA","NA","27382","929","2","legacy","1024","2","48000","-16","AB_m21","229","odd","FILL_NW","BALFS","2331","75152","73054","69780","29727","NA","NA","NA","NA","NA","73555","NA","NA","NA","72553","NA","72521","2344","75552","NA","NA","NA","73596","2331","2331","NA","74525","74549","72521","73555","73575","morph21_Oliver/Morris","4","10870","10","yes","1920","2"
"200","36.36363636363637","36.36363636363637","1097.2727272727273","1097.2727272727273","black","no","xpyriment","legacy","legacy","0","204","NA","uniform","NA","NA","NA","0","undefined","0","0","10","10","10","0","10","10","10","NA","0","10","NA","NA","0","10","NA","10","0","10","NA","NA","NA","10","0","0","NA","10","10","10","10","10","11","z","Wed Nov 29 15:11:52 2023","The main experiment item","yes","m21-ab-lexicalDecision.osexp","C:\Users\ekealey\Desktop","no","mono","no","18","no","white","no","yes","1080","legacy","10","10","C:/Users/ekealey/Desktop/subject-229.csv","xpyriment","Lentiform Loewenfeld","3.3.11","0","None","NA","NA","NA","NA","space","None","1200","NA","NA","NA","NA","27382","1200","2","legacy","1024","2","48000","-16","AB_m21","229","odd","NW_L_COMP","PITCHORY","2331","79468","77101","69780","29727","NA","NA","NA","NA","NA","77601","NA","NA","NA","76601","NA","76574","2344","79669","NA","NA","NA","77642","2331","2331","NA","78842","78865","76574","77601","77622","morph21_Oliver/Morris","4","12070","11","yes","1920","25"
"250","41.666666666666664","41.666666666666664","1061.25","1061.25","black","no","xpyriment","legacy","legacy","0","202","NA","uniform","NA","NA","NA","1","undefined","1","0","11","11","11","0","11","11","11","NA","0","11","NA","NA","0","11","NA","11","0","11","NA","NA","NA","11","0","0","NA","11","11","11","11","11","12","/","Wed Nov 29 15:11:52 2023","The main experiment item","yes","m21-ab-lexicalDecision.osexp","C:\Users\ekealey\Desktop","no","mono","no","18","no","white","no","yes","1080","legacy","11","11","C:/Users/ekealey/Desktop/subject-229.csv","xpyriment","Lentiform Loewenfeld","3.3.11","0","/","NA","NA","NA","NA","space","/","665","NA","NA","NA","NA","27382","665","2","legacy","1024","2","48000","-16","AB_m21","229","odd","CW_L","DREAMER","2331","84562","81224","83058","29727","NA","NA","NA","NA","NA","81724","NA","NA","NA","80724","NA","80695","2344","84812","NA","NA","NA","81765","2331","2331","NA","82430","82455","80695","81724","81745","morph21_Oliver/Morris","5","12735","12","yes","1920","12"
"300","46.15384615384615","46.15384615384615","1062.2307692307693","1062.2307692307693","black","no","xpyriment","legacy","legacy","0","206","NA","uniform","NA","NA","NA","1","undefined","1","0","12","12","12","0","12","12","12","NA","0","12","NA","NA","0","12","NA","12","0","12","NA","NA","NA","12","0","0","NA","12","12","12","12","12","13","z","Wed Nov 29 15:11:52 2023","The main experiment item","yes","m21-ab-lexicalDecision.osexp","C:\Users\ekealey\Desktop","no","mono","no","18","no","white","no","yes","1080","legacy","12","12","C:/Users/ekealey/Desktop/subject-229.csv","xpyriment","Lentiform Loewenfeld","3.3.11","0","z","NA","NA","NA","NA","space","z","1074","NA","NA","NA","NA","27382","1074","2","legacy","1024","2","48000","-16","AB_m21","229","odd","NW_L_SIMP","EARILT","2331","88625","86382","83058","29727","NA","NA","NA","NA","NA","86882","NA","NA","NA","85882","NA","85853","2344","88925","NA","NA","NA","86923","2331","2331","NA","87998","88022","85853","86882","86903","morph21_Oliver/Morris","6","13809","13","yes","1920","12"
"350","50","50","1035.0714285714287","1035.0714285714287","black","no","xpyriment","legacy","legacy","0","201","NA","uniform","NA","NA","NA","1","undefined","1","0","13","13","13","0","13","13","13","NA","0","13","NA","NA","0","13","NA","13","0","13","NA","NA","NA","13","0","0","NA","13","13","13","13","13","14","/","Wed Nov 29 15:11:52 2023","The main experiment item","yes","m21-ab-lexicalDecision.osexp","C:\Users\ekealey\Desktop","no","mono","no","18","no","white","no","yes","1080","legacy","13","13","C:/Users/ekealey/Desktop/subject-229.csv","xpyriment","Lentiform Loewenfeld","3.3.11","0","/","NA","NA","NA","NA","space","/","682","NA","NA","NA","NA","27382","682","2","legacy","1024","2","48000","-16","AB_m21","229","odd","CW_S","BOSSY","2331","92338","90487","83058","29727","NA","NA","NA","NA","NA","90987","NA","NA","NA","89987","NA","89959","2344","92688","NA","NA","NA","91027","2331","2331","NA","91709","91734","89959","90987","91007","morph21_Oliver/Morris","7","14491","14","yes","1920","49"
"300","46.666666666666664","46.666666666666664","1046.0666666666666","1046.0666666666666","black","no","xpyriment","legacy","legacy","0","205","NA","uniform","NA","NA","NA","0","undefined","0","0","14","14","14","0","14","14","14","NA","0","14","NA","NA","0","14","NA","14","0","14","NA","NA","NA","14","0","0","NA","14","14","14","14","14","15","z","Wed Nov 29 15:11:52 2023","The main experiment item","yes","m21-ab-lexicalDecision.osexp","C:\Users\ekealey\Desktop","no","mono","no","18","no","white","no","yes","1080","legacy","14","14","C:/Users/ekealey/Desktop/subject-229.csv","xpyriment","Lentiform Loewenfeld","3.3.11","0","None","NA","NA","NA","NA","space","None","1200","NA","NA","NA","NA","27382","1200","2","legacy","1024","2","48000","-16","AB_m21","229","odd","NW_S_SIMP","NEXTNELS","2331","98141","94268","96635","29727","NA","NA","NA","NA","NA","94768","NA","NA","NA","93768","NA","93738","2344","98441","NA","NA","NA","94808","2331","2331","NA","96008","96031","93738","94768","94788","morph21_Oliver/Morris","7","15691","15","yes","1920","9"
"400","50","50","1026.3125","1026.3125","black","no","xpyriment","legacy","legacy","0","201","NA","uniform","NA","NA","NA","1","undefined","1","0","15","15","15","0","15","15","15","NA","0","15","NA","NA","0","15","NA","15","0","15","NA","NA","NA","15","0","0","NA","15","15","15","15","15","16","/","Wed Nov 29 15:11:52 2023","The main experiment item","yes","m21-ab-lexicalDecision.osexp","C:\Users\ekealey\Desktop","no","mono","no","18","no","white","no","yes","1080","legacy","15","15","C:/Users/ekealey/Desktop/subject-229.csv","xpyriment","Lentiform Loewenfeld","3.3.11","0","/","NA","NA","NA","NA","space","/","730","NA","NA","NA","NA","27382","730","2","legacy","1024","2","48000","-16","AB_m21","229","odd","CW_S","EFFORTLESS","2331","101930","100032","96635","29727","NA","NA","NA","NA","NA","100532","NA","NA","NA","99532","NA","99506","2344","102330","NA","NA","NA","100572","2331","2331","NA","101302","101326","99506","100532","100552","morph21_Oliver/Morris","8","16421","16","yes","1920","30"
"250","52.94117647058823","52.94117647058823","1000.5882352941177","1000.5882352941177","black","no","xpyriment","legacy","legacy","0","201","NA","uniform","NA","NA","NA","1","undefined","1","0","16","16","16","0","16","16","16","NA","0","16","NA","NA","0","16","NA","16","0","16","NA","NA","NA","16","0","0","NA","16","16","16","16","16","17","/","Wed Nov 29 15:11:52 2023","The main experiment item","yes","m21-ab-lexicalDecision.osexp","C:\Users\ekealey\Desktop","no","mono","no","18","no","white","no","yes","1080","legacy","16","16","C:/Users/ekealey/Desktop/subject-229.csv","xpyriment","Lentiform Loewenfeld","3.3.11","0","/","NA","NA","NA","NA","space","/","589","NA","NA","NA","NA","27382","589","2","legacy","1024","2","48000","-16","AB_m21","229","odd","CW_S","TUTORING","2331","105673","103915","96635","29727","NA","NA","NA","NA","NA","104416","NA","NA","NA","103413","NA","103387","2344","105924","NA","NA","NA","104457","2331","2331","NA","105046","105070","103387","104416","104437","morph21_Oliver/Morris","9","17010","17","yes","1920","27"
"400","55.55555555555556","55.55555555555556","983.9444444444445","983.9444444444445","black","no","xpyriment","legacy","legacy","0","202","NA","uniform","NA","NA","NA","1","undefined","1","0","17","17","17","0","17","17","17","NA","0","17","NA","NA","0","17","NA","17","0","17","NA","NA","NA","17","0","0","NA","17","17","17","17","17","18","/","Wed Nov 29 15:11:52 2023","The main experiment item","yes","m21-ab-lexicalDecision.osexp","C:\Users\ekealey\Desktop","no","mono","no","18","no","white","no","yes","1080","legacy","17","17","C:/Users/ekealey/Desktop/subject-229.csv","xpyriment","Lentiform Loewenfeld","3.3.11","0","/","NA","NA","NA","NA","space","/","701","NA","NA","NA","NA","27382","701","2","legacy","1024","2","48000","-16","AB_m21","229","odd","CW_L","BLINDNESS","2331","110884","107507","109381","29727","NA","NA","NA","NA","NA","108009","NA","NA","NA","107005","NA","106980","2344","111284","NA","NA","NA","108049","2331","2331","NA","108750","108775","106980","108009","108029","morph21_Oliver/Morris","10","17711","18","yes","1920","40"
"350","52.63157894736842","52.63157894736842","995.3157894736842","995.3157894736842","black","no","xpyriment","legacy","legacy","0","203","NA","uniform","NA","NA","NA","0","undefined","0","0","18","18","18","0","18","18","18","NA","0","18","NA","NA","0","18","NA","18","0","18","NA","NA","NA","18","0","0","NA","18","18","18","18","18","19","z","Wed Nov 29 15:11:52 2023","The main experiment item","yes","m21-ab-lexicalDecision.osexp","C:\Users\ekealey\Desktop","no","mono","no","18","no","white","no","yes","1080","legacy","18","18","C:/Users/ekealey/Desktop/subject-229.csv","xpyriment","Lentiform Loewenfeld","3.3.11","0","None","NA","NA","NA","NA","space","None","1200","NA","NA","NA","NA","27382","1200","2","legacy","1024","2","48000","-16","AB_m21","229","odd","NW_S_COMP","FIENDISM","2331","115213","112843","109381","29727","NA","NA","NA","NA","NA","113344","NA","NA","NA","112341","NA","112307","2344","115563","NA","NA","NA","113384","2331","2331","NA","114584","114608","112307","113344","113364","morph21_Oliver/Morris","10","18911","19","yes","1920","24"
"300","50","50","1005.55","1005.55","black","no","xpyriment","legacy","legacy","0","204","NA","uniform","NA","NA","NA","0","undefined","0","0","19","19","19","0","19","19","19","NA","0","19","NA","NA","0","19","NA","19","0","19","NA","NA","NA","19","0","0","NA","19","19","19","19","19","20","z","Wed Nov 29 15:11:52 2023","The main experiment item","yes","m21-ab-lexicalDecision.osexp","C:\Users\ekealey\Desktop","no","mono","no","18","no","white","no","yes","1080","legacy","19","19","C:/Users/ekealey/Desktop/subject-229.csv","xpyriment","Lentiform Loewenfeld","3.3.11","0","None","NA","NA","NA","NA","space","None","1200","NA","NA","NA","NA","27382","1200","2","legacy","1024","2","48000","-16","AB_m21","229","odd","NW_L_COMP","ILLIST","2331","119496","117127","109381","29727","NA","NA","NA","NA","NA","117628","NA","NA","NA","116626","NA","116596","2344","119796","NA","NA","NA","117668","2331","2331","NA","118868","118893","116596","117628","117648","morph21_Oliver/Morris","10","20111","20","yes","1920","9"
"350","52.38095238095238","52.38095238095238","1011.1428571428571","1011.1428571428571","black","no","xpyriment","legacy","legacy","0","208","NA","uniform","NA","NA","NA","1","undefined","1","0","20","20","20","0","20","20","20","NA","0","20","NA","NA","0","20","NA","20","0","20","NA","NA","NA","20","0","0","NA","20","20","20","20","20","21","z","Wed Nov 29 15:11:52 2023","The main experiment item","yes","m21-ab-lexicalDecision.osexp","C:\Users\ekealey\Desktop","no","mono","no","18","no","white","no","yes","1080","legacy","20","20","C:/Users/ekealey/Desktop/subject-229.csv","xpyriment","Lentiform Loewenfeld","3.3.11","0","z","NA","NA","NA","NA","space","z","1123","NA","NA","NA","NA","27382","1123","2","legacy","1024","2","48000","-16","AB_m21","229","odd","FILL_NW","DARF","2331","125188","121389","123683","29727","NA","NA","NA","NA","NA","121889","NA","NA","NA","120888","NA","120859","2344","125538","NA","NA","NA","121930","2331","2331","NA","123053","123079","120859","121889","121909","morph21_Oliver/Morris","11","21234","21","yes","1920","10"
"250","54.54545454545455","54.54545454545455","990.3181818181819","990.3181818181819","black","no","xpyriment","legacy","legacy","0","207","NA","uniform","NA","NA","NA","1","undefined","1","0","21","21","21","0","21","21","21","NA","0","21","NA","NA","0","21","NA","21","0","21","NA","NA","NA","21","0","0","NA","21","21","21","21","21","22","/","Wed Nov 29 15:11:52 2023","The main experiment item","yes","m21-ab-lexicalDecision.osexp","C:\Users\ekealey\Desktop","no","mono","no","18","no","white","no","yes","1080","legacy","21","21","C:/Users/ekealey/Desktop/subject-229.csv","xpyriment","Lentiform Loewenfeld","3.3.11","0","/","NA","NA","NA","NA","space","/","553","NA","NA","NA","NA","27382","553","2","legacy","1024","2","48000","-16","AB_m21","229","odd","FILL_W","PACK","2331","128866","127142","123683","29727","NA","NA","NA","NA","NA","127644","NA","NA","NA","126640","NA","126615","2344","129116","NA","NA","NA","127685","2331","2331","NA","128239","128262","126615","127644","127665","morph21_Oliver/Morris","12","21787","22","yes","1920","41"
"400","56.52173913043478","56.52173913043478","976","976","black","no","xpyriment","legacy","legacy","0","202","NA","uniform","NA","NA","NA","1","undefined","1","0","22","22","22","0","22","22","22","NA","0","22","NA","NA","0","22","NA","22","0","22","NA","NA","NA","22","0","0","NA","22","22","22","22","22","23","/","Wed Nov 29 15:11:52 2023","The main experiment item","yes","m21-ab-lexicalDecision.osexp","C:\Users\ekealey\Desktop","no","mono","no","18","no","white","no","yes","1080","legacy","22","22","C:/Users/ekealey/Desktop/subject-229.csv","xpyriment","Lentiform Loewenfeld","3.3.11","0","/","NA","NA","NA","NA","space","/","661","NA","NA","NA","NA","27382","661","2","legacy","1024","2","48000","-16","AB_m21","229","odd","CW_L","WRONGLY","2331","132507","130672","123683","29727","NA","NA","NA","NA","NA","131175","NA","NA","NA","130171","NA","130136","2344","132907","NA","NA","NA","131216","2331","2331","NA","131878","131902","130136","131175","131196","morph21_Oliver/Morris","13","22448","23","yes","1920","37"
"300","58.333333333333336","58.333333333333336","962.25","962.25","black","no","xpyriment","legacy","legacy","0","201","NA","uniform","NA","NA","NA","1","undefined","1","0","23","23","23","0","23","23","23","NA","0","23","NA","NA","0","23","NA","23","0","23","NA","NA","NA","23","0","0","NA","23","23","23","23","23","24","/","Wed Nov 29 15:11:52 2023","The main experiment item","yes","m21-ab-lexicalDecision.osexp","C:\Users\ekealey\Desktop","no","mono","no","18","no","white","no","yes","1080","legacy","23","23","C:/Users/ekealey/Desktop/subject-229.csv","xpyriment","Lentiform Loewenfeld","3.3.11","0","/","NA","NA","NA","NA","space","/","646","NA","NA","NA","NA","27382","646","2","legacy","1024","2","48000","-16","AB_m21","229","odd","CW_S","DESTROYER","2331","137807","134490","136304","29727","NA","NA","NA","NA","NA","134991","NA","NA","NA","133988","NA","133956","2344","138107","NA","NA","NA","135031","2331","2331","NA","135678","135701","133956","134991","135011","morph21_Oliver/Morris","14","23094","24","yes","1920","14"
"250","56","56","971.76","971.76","black","no","xpyriment","legacy","legacy","0","201","NA","uniform","NA","NA","NA","0","undefined","0","0","24","24","24","0","24","24","24","NA","0","24","NA","NA","0","24","NA","24","0","24","NA","NA","NA","24","0","0","NA","24","24","24","24","24","25","/","Wed Nov 29 15:11:52 2023","The main experiment item","yes","m21-ab-lexicalDecision.osexp","C:\Users\ekealey\Desktop","no","mono","no","18","no","white","no","yes","1080","legacy","24","24","C:/Users/ekealey/Desktop/subject-229.csv","xpyriment","Lentiform Loewenfeld","3.3.11","0","None","NA","NA","NA","NA","space","None","1200","NA","NA","NA","NA","27382","1200","2","legacy","1024","2","48000","-16","AB_m21","229","odd","CW_S","HUGELY","2331","142050","139680","136304","29727","NA","NA","NA","NA","NA","140181","NA","NA","NA","139179","NA","139147","2344","142300","NA","NA","NA","140221","2331","2331","NA","141421","141446","139146","140181","140201","morph21_Oliver/Morris","14","24294","25","yes","1920","35"
"350","57.69230769230769","57.69230769230769","967.5","967.5","black","no","xpyriment","legacy","legacy","0","202","NA","uniform","NA","NA","NA","1","undefined","1","0","25","25","25","0","25","25","25","NA","0","25","NA","NA","0","25","NA","25","0","25","NA","NA","NA","25","0","0","NA","25","25","25","25","25","26","/","Wed Nov 29 15:11:52 2023","The main experiment item","yes","m21-ab-lexicalDecision.osexp","C:\Users\ekealey\Desktop","no","mono","no","18","no","white","no","yes","1080","legacy","25","25","C:/Users/ekealey/Desktop/subject-229.csv","xpyriment","Lentiform Loewenfeld","3.3.11","0","/","NA","NA","NA","NA","space","/","861","NA","NA","NA","NA","27382","861","2","legacy","1024","2","48000","-16","AB_m21","229","odd","CW_L","BOMBER","2331","145897","143867","136304","29727","NA","NA","NA","NA","NA","144367","NA","NA","NA","143367","NA","143337","2344","146247","NA","NA","NA","144408","2331","2331","NA","145270","145294","143337","144367","144388","morph21_Oliver/Morris","15","25155","26","yes","1920","7"
"300","59.25925925925926","59.25925925925926","964.8148148148148","964.8148148148148","black","no","xpyriment","legacy","legacy","0","208","NA","uniform","NA","NA","NA","1","undefined","1","0","26","26","26","0","26","26","26","NA","0","26","NA","NA","0","26","NA","26","0","26","NA","NA","NA","26","0","0","NA","26","26","26","26","26","27","z","Wed Nov 29 15:11:52 2023","The main experiment item","yes","m21-ab-lexicalDecision.osexp","C:\Users\ekealey\Desktop","no","mono","no","18","no","white","no","yes","1080","legacy","26","26","C:/Users/ekealey/Desktop/subject-229.csv","xpyriment","Lentiform Loewenfeld","3.3.11","0","z","NA","NA","NA","NA","space","z","895","NA","NA","NA","NA","27382","895","2","legacy","1024","2","48000","-16","AB_m21","229","odd","FILL_NW","BAFED","2331","151381","147808","149875","29727","NA","NA","NA","NA","NA","148309","NA","NA","NA","147306","NA","147281","2344","151681","NA","NA","NA","148350","2331","2331","NA","149246","149270","147281","148309","148330","morph21_Oliver/Morris","16","26050","27","yes","1920","1"
"400","57.142857142857146","57.142857142857146","973.2142857142857","973.2142857142857","black","no","xpyriment","legacy","legacy","0","203","NA","uniform","NA","NA","NA","0","undefined","0","0","27","27","27","0","27","27","27","NA","0","27","NA","NA","0","27","NA","27","0","27","NA","NA","NA","27","0","0","NA","27","27","27","27","27","28","z","Wed Nov 29 15:11:52 2023","The main experiment item","yes","m21-ab-lexicalDecision.osexp","C:\Users\ekealey\Desktop","no","mono","no","18","no","white","no","yes","1080","legacy","27","27","C:/Users/ekealey/Desktop/subject-229.csv","xpyriment","Lentiform Loewenfeld","3.3.11","0","None","NA","NA","NA","NA","space","None","1200","NA","NA","NA","NA","27382","1200","2","legacy","1024","2","48000","-16","AB_m21","229","odd","NW_S_COMP","ALTARIC","2331","155644","153273","149875","29727","NA","NA","NA","NA","NA","153775","NA","NA","NA","152773","NA","152746","2344","156044","NA","NA","NA","153815","2331","2331","NA","155015","155039","152746","153774","153795","morph21_Oliver/Morris","16","27250","28","yes","1920","7"
"250","58.62068965517241","58.62068965517241","970.1034482758621","970.1034482758621","black","no","xpyriment","legacy","legacy","0","208","NA","uniform","NA","NA","NA","1","undefined","1","0","28","28","28","0","28","28","28","NA","0","28","NA","NA","0","28","NA","28","0","28","NA","NA","NA","28","0","0","NA","28","28","28","28","28","29","z","Wed Nov 29 15:11:52 2023","The main experiment item","yes","m21-ab-lexicalDecision.osexp","C:\Users\ekealey\Desktop","no","mono","no","18","no","white","no","yes","1080","legacy","28","28","C:/Users/ekealey/Desktop/subject-229.csv","xpyriment","Lentiform Loewenfeld","3.3.11","0","z","NA","NA","NA","NA","space","z","883","NA","NA","NA","NA","27382","883","2","legacy","1024","2","48000","-16","AB_m21","229","odd","FILL_NW","LOLDS","2331","159664","157610","149875","29727","NA","NA","NA","NA","NA","158113","NA","NA","NA","157108","NA","157084","2344","159914","NA","NA","NA","158154","2331","2331","NA","159037","159061","157084","158113","158134","morph21_Oliver/Morris","17","28133","29","yes","1920","34"
"200","60","60","959.8","959.8","black","no","xpyriment","legacy","legacy","0","207","NA","uniform","NA","NA","NA","1","undefined","1","0","29","29","29","0","29","29","29","NA","0","29","NA","NA","0","29","NA","29","0","29","NA","NA","NA","29","0","0","NA","29","29","29","29","29","30","/","Wed Nov 29 15:11:52 2023","The main experiment item","yes","m21-ab-lexicalDecision.osexp","C:\Users\ekealey\Desktop","no","mono","no","18","no","white","no","yes","1080","legacy","29","29","C:/Users/ekealey/Desktop/subject-229.csv","xpyriment","Lentiform Loewenfeld","3.3.11","0","/","NA","NA","NA","NA","space","/","661","NA","NA","NA","NA","27382","661","2","legacy","1024","2","48000","-16","AB_m21","229","odd","FILL_W","BRASS","2331","164800","161467","163297","29727","NA","NA","NA","NA","NA","161968","NA","NA","NA","160967","NA","160936","2344","165001","NA","NA","NA","162009","2331","2331","NA","162670","162694","160936","161968","161989","morph21_Oliver/Morris","18","28794","30","yes","1920","10"
"400","61.29032258064516","61.29032258064516","952.3225806451613","952.3225806451613","black","no","xpyriment","legacy","legacy","0","208","NA","uniform","NA","NA","NA","1","undefined","1","0","30","30","30","0","30","30","30","NA","0","30","NA","NA","0","30","NA","30","0","30","NA","NA","NA","30","0","0","NA","30","30","30","30","30","31","z","Wed Nov 29 15:11:52 2023","The main experiment item","yes","m21-ab-lexicalDecision.osexp","C:\Users\ekealey\Desktop","no","mono","no","18","no","white","no","yes","1080","legacy","30","30","C:/Users/ekealey/Desktop/subject-229.csv","xpyriment","Lentiform Loewenfeld","3.3.11","0","z","NA","NA","NA","NA","space","z","728","NA","NA","NA","NA","27382","728","2","legacy","1024","2","48000","-16","AB_m21","229","odd","FILL_NW","HEND","2331","168488","166592","163297","29727","NA","NA","NA","NA","NA","167092","NA","NA","NA","166092","NA","166063","2344","168888","NA","NA","NA","167133","2331","2331","NA","167861","167885","166062","167092","167113","morph21_Oliver/Morris","19","29522","31","yes","1920","28"
"400","62.5","62.5","954.03125","954.03125","black","no","xpyriment","legacy","legacy","0","206","NA","uniform","NA","NA","NA","1","undefined","1","0","31","31","31","0","31","31","31","NA","0","31","NA","NA","0","31","NA","31","0","31","NA","NA","NA","31","0","0","NA","31","31","31","31","31","32","z","Wed Nov 29 15:11:52 2023","The main experiment item","yes","m21-ab-lexicalDecision.osexp","C:\Users\ekealey\Desktop","no","mono","no","18","no","white","no","yes","1080","legacy","31","31","C:/Users/ekealey/Desktop/subject-229.csv","xpyriment","Lentiform Loewenfeld","3.3.11","0","z","NA","NA","NA","NA","space","z","1007","NA","NA","NA","NA","27382","1007","2","legacy","1024","2","48000","-16","AB_m21","229","odd","NW_L_SIMP","POORIDY","2331","172651","170473","163297","29727","NA","NA","NA","NA","NA","170974","NA","NA","NA","169972","NA","169947","2344","173051","NA","NA","NA","171014","2331","2331","NA","172022","172048","169947","170973","170994","morph21_Oliver/Morris","20","30529","32","yes","1920","13"
"200","63.63636363636363","63.63636363636363","949.060606060606","949.060606060606","black","no","xpyriment","legacy","legacy","0","202","NA","uniform","NA","NA","NA","1","undefined","1","0","32","32","32","0","32","32","32","NA","0","32","NA","NA","0","32","NA","32","0","32","NA","NA","NA","32","0","0","NA","32","32","32","32","32","33","/","Wed Nov 29 15:11:52 2023","The main experiment item","yes","m21-ab-lexicalDecision.osexp","C:\Users\ekealey\Desktop","no","mono","no","18","no","white","no","yes","1080","legacy","32","32","C:/Users/ekealey/Desktop/subject-229.csv","xpyriment","Lentiform Loewenfeld","3.3.11","0","/","NA","NA","NA","NA","space","/","790","NA","NA","NA","NA","27382","790","2","legacy","1024","2","48000","-16","AB_m21","229","odd","CW_L","BOOTLESS","2331","178089","174626","176586","29727","NA","NA","NA","NA","NA","175127","NA","NA","NA","174125","NA","174097","2344","178289","NA","NA","NA","175167","2331","2331","NA","175958","175983","174097","175127","175147","morph21_Oliver/Morris","21","31319","33","yes","1920","32"
"250","61.76470588235294","61.76470588235294","956.4411764705883","956.4411764705883","black","no","xpyriment","legacy","legacy","0","208","NA","uniform","NA","NA","NA","0","undefined","0","0","33","33","33","0","33","33","33","NA","0","33","NA","NA","0","33","NA","33","0","33","NA","NA","NA","33","0","0","NA","33","33","33","33","33","34","z","Wed Nov 29 15:11:52 2023","The main experiment item","yes","m21-ab-lexicalDecision.osexp","C:\Users\ekealey\Desktop","no","mono","no","18","no","white","no","yes","1080","legacy","33","33","C:/Users/ekealey/Desktop/subject-229.csv","xpyriment","Lentiform Loewenfeld","3.3.11","0","None","NA","NA","NA","NA","space","None","1200","NA","NA","NA","NA","27382","1200","2","legacy","1024","2","48000","-16","AB_m21","229","odd","FILL_NW","POLT","2331","182218","179847","176586","29727","NA","NA","NA","NA","NA","180349","NA","NA","NA","179346","NA","179310","2344","182469","NA","NA","NA","180389","2331","2331","NA","181589","181615","179310","180349","180369","morph21_Oliver/Morris","21","32519","34","yes","1920","38"
"250","60","60","956.8","956.8","black","no","xpyriment","legacy","legacy","0","208","NA","uniform","NA","NA","NA","0","undefined","0","0","34","34","34","0","34","34","34","NA","0","34","NA","NA","0","34","NA","34","0","34","NA","NA","NA","34","0","0","NA","34","34","34","34","34","35","z","Wed Nov 29 15:11:52 2023","The main experiment item","yes","m21-ab-lexicalDecision.osexp","C:\Users\ekealey\Desktop","no","mono","no","18","no","white","no","yes","1080","legacy","34","34","C:/Users/ekealey/Desktop/subject-229.csv","xpyriment","Lentiform Loewenfeld","3.3.11","0","/","NA","NA","NA","NA","space","/","969","NA","NA","NA","NA","27382","969","2","legacy","1024","2","48000","-16","AB_m21","229","odd","FILL_NW","DOWED","2331","186161","184023","176586","29727","NA","NA","NA","NA","NA","184523","NA","NA","NA","183523","NA","183494","2344","186411","NA","NA","NA","184564","2331","2331","NA","185534","185558","183494","184523","184544","morph21_Oliver/Morris","21","33488","35","yes","1920","16"
"300","58.333333333333336","58.333333333333336","963.5555555555555","963.5555555555555","black","no","xpyriment","legacy","legacy","0","206","NA","uniform","NA","NA","NA","0","undefined","0","0","35","35","35","0","35","35","35","NA","0","35","NA","NA","0","35","NA","35","0","35","NA","NA","NA","35","0","0","NA","35","35","35","35","35","36","z","Wed Nov 29 15:11:52 2023","The main experiment item","yes","m21-ab-lexicalDecision.osexp","C:\Users\ekealey\Desktop","no","mono","no","18","no","white","no","yes","1080","legacy","35","35","C:/Users/ekealey/Desktop/subject-229.csv","xpyriment","Lentiform Loewenfeld","3.3.11","0","None","NA","NA","NA","NA","space","None","1200","NA","NA","NA","NA","27382","1200","2","legacy","1024","2","48000","-16","AB_m21","229","odd","NW_L_SIMP","ELBOWILM","2331","191862","187988","190357","29727","NA","NA","NA","NA","NA","188488","NA","NA","NA","187488","NA","187459","2344","192162","NA","NA","NA","188529","2331","2331","NA","189729","189753","187459","188488","188509","morph21_Oliver/Morris","21","34688","36","yes","1920","10"
"350","59.45945945945946","59.45945945945946","956","956","black","no","xpyriment","legacy","legacy","0","202","NA","uniform","NA","NA","NA","1","undefined","1","0","36","36","36","0","36","36","36","NA","0","36","NA","NA","0","36","NA","36","0","36","NA","NA","NA","36","0","0","NA","36","36","36","36","36","37","/","Wed Nov 29 15:11:52 2023","The main experiment item","yes","m21-ab-lexicalDecision.osexp","C:\Users\ekealey\Desktop","no","mono","no","18","no","white","no","yes","1080","legacy","36","36","C:/Users/ekealey/Desktop/subject-229.csv","xpyriment","Lentiform Loewenfeld","3.3.11","0","/","NA","NA","NA","NA","space","/","684","NA","NA","NA","NA","27382","684","2","legacy","1024","2","48000","-16","AB_m21","229","odd","CW_L","EDITOR","2331","195610","193756","190357","29727","NA","NA","NA","NA","NA","194256","NA","NA","NA","193256","NA","193229","2344","195961","NA","NA","NA","194297","2331","2331","NA","194982","195005","193229","194256","194277","morph21_Oliver/Morris","22","35372","37","yes","1920","45"
"250","57.89473684210526","57.89473684210526","962.421052631579","962.421052631579","black","no","xpyriment","legacy","legacy","0","208","NA","uniform","NA","NA","NA","0","undefined","0","0","37","37","37","0","37","37","37","NA","0","37","NA","NA","0","37","NA","37","0","37","NA","NA","NA","37","0","0","NA","37","37","37","37","37","38","z","Wed Nov 29 15:11:52 2023","The main experiment item","yes","m21-ab-lexicalDecision.osexp","C:\Users\ekealey\Desktop","no","mono","no","18","no","white","no","yes","1080","legacy","37","37","C:/Users/ekealey/Desktop/subject-229.csv","xpyriment","Lentiform Loewenfeld","3.3.11","0","None","NA","NA","NA","NA","space","None","1200","NA","NA","NA","NA","27382","1200","2","legacy","1024","2","48000","-16","AB_m21","229","odd","FILL_NW","PIFTH","2331","199932","197564","190357","29727","NA","NA","NA","NA","NA","198065","NA","NA","NA","197063","NA","197035","2344","200182","NA","NA","NA","198105","2331","2331","NA","199305","199329","197035","198065","198085","morph21_Oliver/Morris","22","36572","38","yes","1920","36"
"300","58.97435897435897","58.97435897435897","951.5384615384615","951.5384615384615","black","no","xpyriment","legacy","legacy","0","201","NA","uniform","NA","NA","NA","1","undefined","1","0","38","38","38","0","38","38","38","NA","0","38","NA","NA","0","38","NA","38","0","38","NA","NA","NA","38","0","0","NA","38","38","38","38","38","39","/","Wed Nov 29 15:11:52 2023","The main experiment item","yes","m21-ab-lexicalDecision.osexp","C:\Users\ekealey\Desktop","no","mono","no","18","no","white","no","yes","1080","legacy","38","38","C:/Users/ekealey/Desktop/subject-229.csv","xpyriment","Lentiform Loewenfeld","3.3.11","0","/","NA","NA","NA","NA","space","/","538","NA","NA","NA","NA","27382","538","2","legacy","1024","2","48000","-16","AB_m21","229","odd","CW_S","BUYER","2331","204980","201766","203475","29727","NA","NA","NA","NA","NA","202267","NA","NA","NA","201265","NA","201236","2344","205280","NA","NA","NA","202307","2331","2331","NA","202845","202869","201236","202267","202287","morph21_Oliver/Morris","23","37110","39","yes","1920","21"
"400","60","60","948.15","948.15","black","no","xpyriment","legacy","legacy","0","205","NA","uniform","NA","NA","NA","1","undefined","1","0","39","39","39","0","39","39","39","NA","0","39","NA","NA","0","39","NA","39","0","39","NA","NA","NA","39","0","0","NA","39","39","39","39","39","40","z","Wed Nov 29 15:11:52 2023","The main experiment item","yes","m21-ab-lexicalDecision.osexp","C:\Users\ekealey\Desktop","no","mono","no","18","no","white","no","yes","1080","legacy","39","39","C:/Users/ekealey/Desktop/subject-229.csv","xpyriment","Lentiform Loewenfeld","3.3.11","0","z","NA","NA","NA","NA","space","z","816","NA","NA","NA","NA","27382","816","2","legacy","1024","2","48000","-16","AB_m21","229","odd","NW_S_SIMP","URNILT","2331","208850","206864","203475","29727","NA","NA","NA","NA","NA","207365","NA","NA","NA","206363","NA","206335","2344","209250","NA","NA","NA","207405","2331","2331","NA","208221","208247","206335","207365","207385","morph21_Oliver/Morris","24","37926","40","yes","1920","5"
"250","60.97560975609756","60.97560975609756","950.2682926829268","950.2682926829268","black","no","xpyriment","legacy","legacy","0","206","NA","uniform","NA","NA","NA","1","undefined","1","0","40","40","40","0","40","40","40","NA","0","40","NA","NA","0","40","NA","40","0","40","NA","NA","NA","40","0","0","NA","40","40","40","40","40","41","z","Wed Nov 29 15:11:52 2023","The main experiment item","yes","m21-ab-lexicalDecision.osexp","C:\Users\ekealey\Desktop","no","mono","no","18","no","white","no","yes","1080","legacy","40","40","C:/Users/ekealey/Desktop/subject-229.csv","xpyriment","Lentiform Loewenfeld","3.3.11","0","z","NA","NA","NA","NA","space","z","1035","NA","NA","NA","NA","27382","1035","2","legacy","1024","2","48000","-16","AB_m21","229","odd","NW_L_SIMP"," DRESSODY","2331","213050","210842","203475","29727","NA","NA","NA","NA","NA","211345","NA","NA","NA","210340","NA","210316","2344","213300","NA","NA","NA","211385","2331","2331","NA","212421","212447","210316","211345","211365","morph21_Oliver/Morris","25","38961","41","yes","1920","21"
"300","61.904761904761905","61.904761904761905","953.8333333333334","953.8333333333334","black","no","xpyriment","legacy","legacy","0","203","NA","uniform","NA","NA","NA","1","undefined","1","0","41","41","41","0","41","41","41","NA","0","41","NA","NA","0","41","NA","41","0","41","NA","NA","NA","41","0","0","NA","41","41","41","41","41","42","z","Wed Nov 29 15:11:52 2023","The main experiment item","yes","m21-ab-lexicalDecision.osexp","C:\Users\ekealey\Desktop","no","mono","no","18","no","white","no","yes","1080","legacy","41","41","C:/Users/ekealey/Desktop/subject-229.csv","xpyriment","Lentiform Loewenfeld","3.3.11","0","z","NA","NA","NA","NA","space","z","1100","NA","NA","NA","NA","27382","1100","2","legacy","1024","2","48000","-16","AB_m21","229","odd","NW_S_COMP","CURTITY","2331","218644","214867","217137","29727","NA","NA","NA","NA","NA","215369","NA","NA","NA","214367","NA","214337","2344","218944","NA","NA","NA","215409","2331","2331","NA","216509","216533","214337","215368","215389","morph21_Oliver/Morris","26","40061","42","yes","1920","11"
"200","62.7906976744186","62.7906976744186","946.5348837209302","946.5348837209302","black","no","xpyriment","legacy","legacy","0","202","NA","uniform","NA","NA","NA","1","undefined","1","0","42","42","42","0","42","42","42","NA","0","42","NA","NA","0","42","NA","42","0","42","NA","NA","NA","42","0","0","NA","42","42","42","42","42","43","/","Wed Nov 29 15:11:52 2023","The main experiment item","yes","m21-ab-lexicalDecision.osexp","C:\Users\ekealey\Desktop","no","mono","no","18","no","white","no","yes","1080","legacy","42","42","C:/Users/ekealey/Desktop/subject-229.csv","xpyriment","Lentiform Loewenfeld","3.3.11","0","/","NA","NA","NA","NA","space","/","640","NA","NA","NA","NA","27382","640","2","legacy","1024","2","48000","-16","AB_m21","229","odd","CW_L","SHAMEFUL","2331","222321","220512","217137","29727","NA","NA","NA","NA","NA","221013","NA","NA","NA","220010","NA","219979","2344","222521","NA","NA","NA","221053","2331","2331","NA","221694","221717","219979","221013","221033","morph21_Oliver/Morris","27","40701","43","yes","1920","19"
"300","61.36363636363637","61.36363636363637","952.2954545454545","952.2954545454545","black","no","xpyriment","legacy","legacy","0","204","NA","uniform","NA","NA","NA","0","undefined","0","0","43","43","43","0","43","43","43","NA","0","43","NA","NA","0","43","NA","43","0","43","NA","NA","NA","43","0","0","NA","43","43","43","43","43","44","z","Wed Nov 29 15:11:52 2023","The main experiment item","yes","m21-ab-lexicalDecision.osexp","C:\Users\ekealey\Desktop","no","mono","no","18","no","white","no","yes","1080","legacy","43","43","C:/Users/ekealey/Desktop/subject-229.csv","xpyriment","Lentiform Loewenfeld","3.3.11","0","None","NA","NA","NA","NA","space","None","1200","NA","NA","NA","NA","27382","1200","2","legacy","1024","2","48000","-16","AB_m21","229","odd","NW_L_COMP","BINDIC","2331","226453","224082","217137","29727","NA","NA","NA","NA","NA","224583","NA","NA","NA","223580","NA","223553","2344","226753","NA","NA","NA","224624","2331","2331","NA","225824","225848","223553","224583","224604","morph21_Oliver/Morris","27","41901","44","yes","1920","22"
"400","62.22222222222222","62.22222222222222","942.8888888888889","942.8888888888889","black","no","xpyriment","legacy","legacy","0","202","NA","uniform","NA","NA","NA","1","undefined","1","0","44","44","44","0","44","44","44","NA","0","44","NA","NA","0","44","NA","44","0","44","NA","NA","NA","44","0","0","NA","44","44","44","44","44","45","/","Wed Nov 29 15:11:52 2023","The main experiment item","yes","m21-ab-lexicalDecision.osexp","C:\Users\ekealey\Desktop","no","mono","no","18","no","white","no","yes","1080","legacy","44","44","C:/Users/ekealey/Desktop/subject-229.csv","xpyriment","Lentiform Loewenfeld","3.3.11","0","/","NA","NA","NA","NA","space","/","529","NA","NA","NA","NA","27382","529","2","legacy","1024","2","48000","-16","AB_m21","229","odd","CW_L","FAITHFUL","2331","231523","228319","230019","29727","NA","NA","NA","NA","NA","228820","NA","NA","NA","227817","NA","227787","2344","231923","NA","NA","NA","228860","2331","2331","NA","229390","229415","227787","228820","228840","morph21_Oliver/Morris","28","42430","45","yes","1920","20"
"400","63.04347826086956","63.04347826086956","936.6521739130435","936.6521739130435","black","no","xpyriment","legacy","legacy","0","201","NA","uniform","NA","NA","NA","1","undefined","1","0","45","45","45","0","45","45","45","NA","0","45","NA","NA","0","45","NA","45","0","45","NA","NA","NA","45","0","0","NA","45","45","45","45","45","46","/","Wed Nov 29 15:11:52 2023","The main experiment item","yes","m21-ab-lexicalDecision.osexp","C:\Users\ekealey\Desktop","no","mono","no","18","no","white","no","yes","1080","legacy","45","45","C:/Users/ekealey/Desktop/subject-229.csv","xpyriment","Lentiform Loewenfeld","3.3.11","0","/","NA","NA","NA","NA","space","/","656","NA","NA","NA","NA","27382","656","2","legacy","1024","2","48000","-16","AB_m21","229","odd","CW_S","AVOIDABLE","2331","235337","233510","230019","29727","NA","NA","NA","NA","NA","234011","NA","NA","NA","233009","NA","232983","2344","235737","NA","NA","NA","234052","2331","2331","NA","234709","234733","232983","234011","234032","morph21_Oliver/Morris","29","43086","46","yes","1920","2"
"250","63.829787234042556","63.829787234042556","930.4468085106383","930.4468085106383","black","no","xpyriment","legacy","legacy","0","202","NA","uniform","NA","NA","NA","1","undefined","1","0","46","46","46","0","46","46","46","NA","0","46","NA","NA","0","46","NA","46","0","46","NA","NA","NA","46","0","0","NA","46","46","46","46","46","47","/","Wed Nov 29 15:11:52 2023","The main experiment item","yes","m21-ab-lexicalDecision.osexp","C:\Users\ekealey\Desktop","no","mono","no","18","no","white","no","yes","1080","legacy","46","46","C:/Users/ekealey/Desktop/subject-229.csv","xpyriment","Lentiform Loewenfeld","3.3.11","0","/","NA","NA","NA","NA","space","/","645","NA","NA","NA","NA","27382","645","2","legacy","1024","2","48000","-16","AB_m21","229","odd","CW_L","CREAMY","2331","239121","237306","230019","29727","NA","NA","NA","NA","NA","237808","NA","NA","NA","236804","NA","236774","2344","239371","NA","NA","NA","237848","2331","2331","NA","238494","238518","236774","237808","237828","morph21_Oliver/Morris","30","43731","47","yes","1920","49"
"400","62.5","62.5","936.0625","936.0625","black","no","xpyriment","legacy","legacy","0","204","NA","uniform","NA","NA","NA","0","undefined","0","0","47","47","47","0","47","47","47","NA","0","47","NA","NA","0","47","NA","47","0","47","NA","NA","NA","47","0","0","NA","47","47","47","47","47","48","z","Wed Nov 29 15:11:52 2023","The main experiment item","yes","m21-ab-lexicalDecision.osexp","C:\Users\ekealey\Desktop","no","mono","no","18","no","white","no","yes","1080","legacy","47","47","C:/Users/ekealey/Desktop/subject-229.csv","xpyriment","Lentiform Loewenfeld","3.3.11","0","None","NA","NA","NA","NA","space","None","1200","NA","NA","NA","NA","27382","1200","2","legacy","1024","2","48000","-16","AB_m21","229","odd","NW_L_COMP","BOILOUS","2331","244797","240923","243292","29727","NA","NA","NA","NA","NA","241423","NA","NA","NA","240422","NA","240394","2344","245197","NA","NA","NA","241465","2331","2331","NA","242665","242688","240394","241423","241444","morph21_Oliver/Morris","30","44931","48","yes","1920","18"
"200","61.224489795918366","61.224489795918366","941.4489795918367","941.4489795918367","black","no","xpyriment","legacy","legacy","0","203","NA","uniform","NA","NA","NA","0","undefined","0","0","48","48","48","0","48","48","48","NA","0","48","NA","NA","0","48","NA","48","0","48","NA","NA","NA","48","0","0","NA","48","48","48","48","48","49","z","Wed Nov 29 15:11:52 2023","The main experiment item","yes","m21-ab-lexicalDecision.osexp","C:\Users\ekealey\Desktop","no","mono","no","18","no","white","no","yes","1080","legacy","48","48","C:/Users/ekealey/Desktop/subject-229.csv","xpyriment","Lentiform Loewenfeld","3.3.11","0","None","NA","NA","NA","NA","space","None","1200","NA","NA","NA","NA","27382","1200","2","legacy","1024","2","48000","-16","AB_m21","229","odd","NW_S_COMP","MELTANCE","2331","249151","246784","243292","29727","NA","NA","NA","NA","NA","247285","NA","NA","NA","246283","NA","246256","2344","249351","NA","NA","NA","247325","2331","2331","NA","248525","248548","246256","247285","247305","morph21_Oliver/Morris","30","46131","49","yes","1920","1"
"400","62","62","943.66","943.66","black","no","xpyriment","legacy","legacy","0","207","NA","uniform","NA","NA","NA","1","undefined","1","0","49","49","49","0","49","49","49","NA","0","49","NA","NA","0","49","NA","49","0","49","NA","NA","NA","49","0","0","NA","49","49","49","49","49","50","/","Wed Nov 29 15:11:52 2023","The main experiment item","yes","m21-ab-lexicalDecision.osexp","C:\Users\ekealey\Desktop","no","mono","no","18","no","white","no","yes","1080","legacy","49","49","C:/Users/ekealey/Desktop/subject-229.csv","xpyriment","Lentiform Loewenfeld","3.3.11","0","/","NA","NA","NA","NA","space","/","1052","NA","NA","NA","NA","27382","1052","2","legacy","1024","2","48000","-16","AB_m21","229","odd","FILL_W","LITHE","2331","253138","250915","243292","29727","NA","NA","NA","NA","NA","251416","NA","NA","NA","250414","NA","250387","2344","253538","NA","NA","NA","251456","2331","2331","NA","252509","252533","250387","251416","251436","morph21_Oliver/Morris","31","47183","50","yes","1920","23"
"350","62.745098039215684","62.745098039215684","941.843137254902","941.843137254902","black","no","xpyriment","legacy","legacy","0","201","NA","uniform","NA","NA","NA","1","undefined","1","0","50","50","50","0","50","50","50","NA","0","50","NA","NA","0","50","NA","50","0","50","NA","NA","NA","50","0","0","NA","50","50","50","50","50","51","/","Wed Nov 29 15:11:52 2023","The main experiment item","yes","m21-ab-lexicalDecision.osexp","C:\Users\ekealey\Desktop","no","mono","no","18","no","white","no","yes","1080","legacy","50","50","C:/Users/ekealey/Desktop/subject-229.csv","xpyriment","Lentiform Loewenfeld","3.3.11","0","/","NA","NA","NA","NA","space","/","851","NA","NA","NA","NA","27382","851","2","legacy","1024","2","48000","-16","AB_m21","229","odd","CW_S","BEARDED","2331","258622","255093","257116","29727","NA","NA","NA","NA","NA","255593","NA","NA","NA","254593","NA","254563","2344","258972","NA","NA","NA","255633","2331","2331","NA","256485","256511","254563","255593","255613","morph21_Oliver/Morris","32","48034","51","yes","1920","8"
"350","63.46153846153846","63.46153846153846","934.2307692307693","934.2307692307693","black","no","xpyriment","legacy","legacy","0","207","NA","uniform","NA","NA","NA","1","undefined","1","0","51","51","51","0","51","51","51","NA","0","51","NA","NA","0","51","NA","51","0","51","NA","NA","NA","51","0","0","NA","51","51","51","51","51","52","/","Wed Nov 29 15:11:52 2023","The main experiment item","yes","m21-ab-lexicalDecision.osexp","C:\Users\ekealey\Desktop","no","mono","no","18","no","white","no","yes","1080","legacy","51","51","C:/Users/ekealey/Desktop/subject-229.csv","xpyriment","Lentiform Loewenfeld","3.3.11","0","/","NA","NA","NA","NA","space","/","546","NA","NA","NA","NA","27382","546","2","legacy","1024","2","48000","-16","AB_m21","229","odd","FILL_W","GLOOM","2331","262263","260549","257116","29727","NA","NA","NA","NA","NA","261050","NA","NA","NA","260048","NA","260017","2344","262613","NA","NA","NA","261090","2331","2331","NA","261637","261660","260017","261050","261070","morph21_Oliver/Morris","33","48580","52","yes","1920","14"
"400","62.264150943396224","62.264150943396224","939.2452830188679","939.2452830188679","black","no","xpyriment","legacy","legacy","0","204","NA","uniform","NA","NA","NA","0","undefined","0","0","52","52","52","0","52","52","52","NA","0","52","NA","NA","0","52","NA","52","0","52","NA","NA","NA","52","0","0","NA","52","52","52","52","52","53","z","Wed Nov 29 15:11:52 2023","The main experiment item","yes","m21-ab-lexicalDecision.osexp","C:\Users\ekealey\Desktop","no","mono","no","18","no","white","no","yes","1080","legacy","52","52","C:/Users/ekealey/Desktop/subject-229.csv","xpyriment","Lentiform Loewenfeld","3.3.11","0","None","NA","NA","NA","NA","space","None","1200","NA","NA","NA","NA","27382","1200","2","legacy","1024","2","48000","-16","AB_m21","229","odd","NW_L_COMP","COLDITY","2331","266539","264170","257116","29727","NA","NA","NA","NA","NA","264670","NA","NA","NA","263670","NA","263644","2344","266939","NA","NA","NA","264711","2331","2331","NA","265911","265935","263644","264670","264691","morph21_Oliver/Morris","33","49780","53","yes","1920","10"
"200","62.96296296296296","62.96296296296296","932.8518518518518","932.8518518518518","black","no","xpyriment","legacy","legacy","0","207","NA","uniform","NA","NA","NA","1","undefined","1","0","53","53","53","0","53","53","53","NA","0","53","NA","NA","0","53","NA","53","0","53","NA","NA","NA","53","0","0","NA","53","53","53","53","53","54","/","Wed Nov 29 15:11:52 2023","The main experiment item","yes","m21-ab-lexicalDecision.osexp","C:\Users\ekealey\Desktop","no","mono","no","18","no","white","no","yes","1080","legacy","53","53","C:/Users/ekealey/Desktop/subject-229.csv","xpyriment","Lentiform Loewenfeld","3.3.11","0","/","NA","NA","NA","NA","space","/","594","NA","NA","NA","NA","27382","594","2","legacy","1024","2","48000","-16","AB_m21","229","odd","FILL_W","GOLF","2331","271777","268508","270273","29727","NA","NA","NA","NA","NA","269009","NA","NA","NA","268007","NA","267981","2344","271977","NA","NA","NA","269050","2331","2331","NA","269645","269668","267981","269009","269030","morph21_Oliver/Morris","34","50374","54","yes","1920","28"
"250","63.63636363636363","63.63636363636363","925.8181818181819","925.8181818181819","black","no","xpyriment","legacy","legacy","0","202","NA","uniform","NA","NA","NA","1","undefined","1","0","54","54","54","0","54","54","54","NA","0","54","NA","NA","0","54","NA","54","0","54","NA","NA","NA","54","0","0","NA","54","54","54","54","54","55","/","Wed Nov 29 15:11:52 2023","The main experiment item","yes","m21-ab-lexicalDecision.osexp","C:\Users\ekealey\Desktop","no","mono","no","18","no","white","no","yes","1080","legacy","54","54","C:/Users/ekealey/Desktop/subject-229.csv","xpyriment","Lentiform Loewenfeld","3.3.11","0","/","NA","NA","NA","NA","space","/","546","NA","NA","NA","NA","27382","546","2","legacy","1024","2","48000","-16","AB_m21","229","odd","CW_L","PUSHER","2331","275315","273598","270273","29727","NA","NA","NA","NA","NA","274098","NA","NA","NA","273097","NA","273071","2344","275565","NA","NA","NA","274139","2331","2331","NA","274685","274710","273071","274098","274119","morph21_Oliver/Morris","35","50920","55","yes","1920","13"
"350","64.28571428571429","64.28571428571429","923.2857142857143","923.2857142857143","black","no","xpyriment","legacy","legacy","0","206","NA","uniform","NA","NA","NA","1","undefined","1","0","55","55","55","0","55","55","55","NA","0","55","NA","NA","0","55","NA","55","0","55","NA","NA","NA","55","0","0","NA","55","55","55","55","55","56","z","Wed Nov 29 15:11:52 2023","The main experiment item","yes","m21-ab-lexicalDecision.osexp","C:\Users\ekealey\Desktop","no","mono","no","18","no","white","no","yes","1080","legacy","55","55","C:/Users/ekealey/Desktop/subject-229.csv","xpyriment","Lentiform Loewenfeld","3.3.11","0","z","NA","NA","NA","NA","space","z","784","NA","NA","NA","NA","27382","784","2","legacy","1024","2","48000","-16","AB_m21","229","odd","NW_L_SIMP","NUTLA","2331","279117","277160","270273","29727","NA","NA","NA","NA","NA","277660","NA","NA","NA","276659","NA","276631","2344","279467","NA","NA","NA","277701","2331","2331","NA","278486","278511","276631","277660","277681","morph21_Oliver/Morris","36","51704","56","yes","1920","14"
"400","64.91228070175438","64.91228070175438","919.0877192982456","919.0877192982456","black","no","xpyriment","legacy","legacy","0","202","NA","uniform","NA","NA","NA","1","undefined","1","0","56","56","56","0","56","56","56","NA","0","56","NA","NA","0","56","NA","56","0","56","NA","NA","NA","56","0","0","NA","56","56","56","56","56","57","/","Wed Nov 29 15:11:52 2023","The main experiment item","yes","m21-ab-lexicalDecision.osexp","C:\Users\ekealey\Desktop","no","mono","no","18","no","white","no","yes","1080","legacy","56","56","C:/Users/ekealey/Desktop/subject-229.csv","xpyriment","Lentiform Loewenfeld","3.3.11","0","/","NA","NA","NA","NA","space","/","684","NA","NA","NA","NA","27382","684","2","legacy","1024","2","48000","-16","AB_m21","229","odd","CW_L","CLEANER","2331","284410","281051","282905","29727","NA","NA","NA","NA","NA","281552","NA","NA","NA","280551","NA","280524","2344","284810","NA","NA","NA","281592","2331","2331","NA","282277","282301","280524","281551","281572","morph21_Oliver/Morris","37","52388","57","yes","1920","15"
"350","65.51724137931035","65.51724137931035","912.2068965517242","912.2068965517242","black","no","xpyriment","legacy","legacy","0","202","NA","uniform","NA","NA","NA","1","undefined","1","0","57","57","57","0","57","57","57","NA","0","57","NA","NA","0","57","NA","57","0","57","NA","NA","NA","57","0","0","NA","57","57","57","57","57","58","/","Wed Nov 29 15:11:52 2023","The main experiment item","yes","m21-ab-lexicalDecision.osexp","C:\Users\ekealey\Desktop","no","mono","no","18","no","white","no","yes","1080","legacy","57","57","C:/Users/ekealey/Desktop/subject-229.csv","xpyriment","Lentiform Loewenfeld","3.3.11","0","/","NA","NA","NA","NA","space","/","520","NA","NA","NA","NA","27382","520","2","legacy","1024","2","48000","-16","AB_m21","229","odd","CW_L","KICKING","2331","288082","286393","282905","29727","NA","NA","NA","NA","NA","286893","NA","NA","NA","285893","NA","285865","2344","288432","NA","NA","NA","286933","2331","2331","NA","287454","287479","285865","286893","286913","morph21_Oliver/Morris","38","52908","58","yes","1920","23"
"300","66.10169491525424","66.10169491525424","914.9830508474577","914.9830508474577","black","no","xpyriment","legacy","legacy","0","206","NA","uniform","NA","NA","NA","1","undefined","1","0","58","58","58","0","58","58","58","NA","0","58","NA","NA","0","58","NA","58","0","58","NA","NA","NA","58","0","0","NA","58","58","58","58","58","59","z","Wed Nov 29 15:11:52 2023","The main experiment item","yes","m21-ab-lexicalDecision.osexp","C:\Users\ekealey\Desktop","no","mono","no","18","no","white","no","yes","1080","legacy","58","58","C:/Users/ekealey/Desktop/subject-229.csv","xpyriment","Lentiform Loewenfeld","3.3.11","0","z","NA","NA","NA","NA","space","z","1076","NA","NA","NA","NA","27382","1076","2","legacy","1024","2","48000","-16","AB_m21","229","odd","NW_L_SIMP","BANDADY","2331","292259","290011","282905","29727","NA","NA","NA","NA","NA","290513","NA","NA","NA","289509","NA","289483","2344","292559","NA","NA","NA","290553","2331","2331","NA","291630","291654","289483","290513","290533","morph21_Oliver/Morris","39","53984","59","yes","1920","3"
"300","66.66666666666667","66.66666666666667","917.3666666666667","917.3666666666667","black","no","xpyriment","legacy","legacy","0","205","NA","uniform","NA","NA","NA","1","undefined","1","0","59","59","59","0","59","59","59","NA","0","59","NA","NA","0","59","NA","59","0","59","NA","NA","NA","59","0","0","NA","59","59","59","59","59","60","z","Wed Nov 29 15:11:52 2023","The main experiment item","yes","m21-ab-lexicalDecision.osexp","C:\Users\ekealey\Desktop","no","mono","no","18","no","white","no","yes","1080","legacy","59","59","C:/Users/ekealey/Desktop/subject-229.csv","xpyriment","Lentiform Loewenfeld","3.3.11","0","z","NA","NA","NA","NA","space","z","1058","NA","NA","NA","NA","27382","1058","2","legacy","1024","2","48000","-16","AB_m21","229","odd","NW_S_SIMP","BOLTOES","2331","297884","294148","296379","29727","NA","NA","NA","NA","NA","294650","NA","NA","NA","293646","NA","293621","2344","298184","NA","NA","NA","294690","2331","2331","NA","295749","295774","293621","294650","294670","morph21_Oliver/Morris","40","55042","60","yes","1920","13"
"350","67.21311475409836","67.21311475409836","919.0819672131148","919.0819672131148","black","no","xpyriment","legacy","legacy","0","202","NA","uniform","NA","NA","NA","1","undefined","1","0","60","60","60","0","60","60","60","NA","0","60","NA","NA","0","60","NA","60","0","60","NA","NA","NA","60","0","0","NA","60","60","60","60","60","61","/","Wed Nov 29 15:11:52 2023","The main experiment item","yes","m21-ab-lexicalDecision.osexp","C:\Users\ekealey\Desktop","no","mono","no","18","no","white","no","yes","1080","legacy","60","60","C:/Users/ekealey/Desktop/subject-229.csv","xpyriment","Lentiform Loewenfeld","3.3.11","0","/","NA","NA","NA","NA","space","/","1022","NA","NA","NA","NA","27382","1022","2","legacy","1024","2","48000","-16","AB_m21","229","odd","CW_L","BARKER","2331","301968","299776","296379","29727","NA","NA","NA","NA","NA","300278","NA","NA","NA","299274","NA","299250","2344","302318","NA","NA","NA","300318","2331","2331","NA","301341","301365","299250","300277","300298","morph21_Oliver/Morris","41","56064","61","yes","1920","2"
"200","66.12903225806451","66.12903225806451","923.6129032258065","923.6129032258065","black","no","xpyriment","legacy","legacy","0","203","NA","uniform","NA","NA","NA","0","undefined","0","0","61","61","61","0","61","61","61","NA","0","61","NA","NA","0","61","NA","61","0","61","NA","NA","NA","61","0","0","NA","61","61","61","61","61","62","z","Wed Nov 29 15:11:52 2023","The main experiment item","yes","m21-ab-lexicalDecision.osexp","C:\Users\ekealey\Desktop","no","mono","no","18","no","white","no","yes","1080","legacy","61","61","C:/Users/ekealey/Desktop/subject-229.csv","xpyriment","Lentiform Loewenfeld","3.3.11","0","None","NA","NA","NA","NA","space","None","1200","NA","NA","NA","NA","27382","1200","2","legacy","1024","2","48000","-16","AB_m21","229","odd","NW_S_COMP","ELMIST","2331","306234","303867","296379","29727","NA","NA","NA","NA","NA","304367","NA","NA","NA","303367","NA","303333","2344","306434","NA","NA","NA","304407","2331","2331","NA","305607","305630","303333","304367","304387","morph21_Oliver/Morris","41","57264","62","yes","1920","10"
"200","65.07936507936508","65.07936507936508","928","928","black","no","xpyriment","legacy","legacy","0","208","NA","uniform","NA","NA","NA","0","undefined","0","0","62","62","62","0","62","62","62","NA","0","62","NA","NA","0","62","NA","62","0","62","NA","NA","NA","62","0","0","NA","62","62","62","62","62","63","z","Wed Nov 29 15:11:52 2023","The main experiment item","yes","m21-ab-lexicalDecision.osexp","C:\Users\ekealey\Desktop","no","mono","no","18","no","white","no","yes","1080","legacy","62","62","C:/Users/ekealey/Desktop/subject-229.csv","xpyriment","Lentiform Loewenfeld","3.3.11","0","None","NA","NA","NA","NA","space","None","1200","NA","NA","NA","NA","27382","1200","2","legacy","1024","2","48000","-16","AB_m21","229","odd","FILL_NW","SMADE","2331","311858","307983","310354","29727","NA","NA","NA","NA","NA","308483","NA","NA","NA","307482","NA","307454","2344","312059","NA","NA","NA","308524","2331","2331","NA","309724","309750","307454","308483","308504","morph21_Oliver/Morris","41","58464","63","yes","1920","42"
"400","65.625","65.625","925.375","925.375","black","no","xpyriment","legacy","legacy","0","208","NA","uniform","NA","NA","NA","1","undefined","1","0","63","63","63","0","63","63","63","NA","0","63","NA","NA","0","63","NA","63","0","63","NA","NA","NA","63","0","0","NA","63","63","63","63","63","64","z","Wed Nov 29 15:11:52 2023","The main experiment item","yes","m21-ab-lexicalDecision.osexp","C:\Users\ekealey\Desktop","no","mono","no","18","no","white","no","yes","1080","legacy","63","63","C:/Users/ekealey/Desktop/subject-229.csv","xpyriment","Lentiform Loewenfeld","3.3.11","0","z","NA","NA","NA","NA","space","z","760","NA","NA","NA","NA","27382","760","2","legacy","1024","2","48000","-16","AB_m21","229","odd","FILL_NW","SOISE","2331","315586","313657","310354","29727","NA","NA","NA","NA","NA","314157","NA","NA","NA","313157","NA","313129","2344","315986","NA","NA","NA","314197","2331","2331","NA","314958","314983","313129","314157","314177","morph21_Oliver/Morris","42","59224","64","yes","1920","43"
"200","64.61538461538461","64.61538461538461","929.6","929.6","black","no","xpyriment","legacy","legacy","0","203","NA","uniform","NA","NA","NA","0","undefined","0","0","64","64","64","0","64","64","64","NA","0","64","NA","NA","0","64","NA","64","0","64","NA","NA","NA","64","0","0","NA","64","64","64","64","64","65","z","Wed Nov 29 15:11:52 2023","The main experiment item","yes","m21-ab-lexicalDecision.osexp","C:\Users\ekealey\Desktop","no","mono","no","18","no","white","no","yes","1080","legacy","64","64","C:/Users/ekealey/Desktop/subject-229.csv","xpyriment","Lentiform Loewenfeld","3.3.11","0","None","NA","NA","NA","NA","space","None","1200","NA","NA","NA","NA","27382","1200","2","legacy","1024","2","48000","-16","AB_m21","229","odd","NW_S_COMP","ANTISM","2331","319935","317567","310354","29727","NA","NA","NA","NA","NA","318068","NA","NA","NA","317067","NA","317035","2344","320135","NA","NA","NA","318108","2331","2331","NA","319308","319332","317035","318068","318088","morph21_Oliver/Morris","42","60424","65","yes","1920","8"
"400","63.63636363636363","63.63636363636363","933.6969696969697","933.6969696969697","black","no","xpyriment","legacy","legacy","0","208","NA","uniform","NA","NA","NA","0","undefined","0","0","65","65","65","0","65","65","65","NA","0","65","NA","NA","0","65","NA","65","0","65","NA","NA","NA","65","0","0","NA","65","65","65","65","65","66","z","Wed Nov 29 15:11:52 2023","The main experiment item","yes","m21-ab-lexicalDecision.osexp","C:\Users\ekealey\Desktop","no","mono","no","18","no","white","no","yes","1080","legacy","65","65","C:/Users/ekealey/Desktop/subject-229.csv","xpyriment","Lentiform Loewenfeld","3.3.11","0","None","NA","NA","NA","NA","space","None","1200","NA","NA","NA","NA","27382","1200","2","legacy","1024","2","48000","-16","AB_m21","229","odd","FILL_NW","FROES","2331","325552","321677","324047","29727","NA","NA","NA","NA","NA","322178","NA","NA","NA","321175","NA","321149","2344","325952","NA","NA","NA","322218","2331","2331","NA","323418","323444","321149","322178","322198","morph21_Oliver/Morris","42","61624","66","yes","1920","21"
"350","62.6865671641791","62.6865671641791","937.6716417910447","937.6716417910447","black","no","xpyriment","legacy","legacy","0","208","NA","uniform","NA","NA","NA","0","undefined","0","0","66","66","66","0","66","66","66","NA","0","66","NA","NA","0","66","NA","66","0","66","NA","NA","NA","66","0","0","NA","66","66","66","66","66","67","z","Wed Nov 29 15:11:52 2023","The main experiment item","yes","m21-ab-lexicalDecision.osexp","C:\Users\ekealey\Desktop","no","mono","no","18","no","white","no","yes","1080","legacy","66","66","C:/Users/ekealey/Desktop/subject-229.csv","xpyriment","Lentiform Loewenfeld","3.3.11","0","None","NA","NA","NA","NA","space","None","1200","NA","NA","NA","NA","27382","1200","2","legacy","1024","2","48000","-16","AB_m21","229","odd","FILL_NW","BLANTH","2331","329909","327538","324047","29727","NA","NA","NA","NA","NA","328039","NA","NA","NA","327038","NA","327009","2344","330259","NA","NA","NA","328081","2331","2331","NA","329281","329305","327009","328039","328060","morph21_Oliver/Morris","42","62824","67","yes","1920","3"
"350","61.76470588235294","61.76470588235294","941.5294117647059","941.5294117647059","black","no","xpyriment","legacy","legacy","0","206","NA","uniform","NA","NA","NA","0","undefined","0","0","67","67","67","0","67","67","67","NA","0","67","NA","NA","0","67","NA","67","0","67","NA","NA","NA","67","0","0","NA","67","67","67","67","67","68","z","Wed Nov 29 15:11:52 2023","The main experiment item","yes","m21-ab-lexicalDecision.osexp","C:\Users\ekealey\Desktop","no","mono","no","18","no","white","no","yes","1080","legacy","67","67","C:/Users/ekealey/Desktop/subject-229.csv","xpyriment","Lentiform Loewenfeld","3.3.11","0","None","NA","NA","NA","NA","space","None","1200","NA","NA","NA","NA","27382","1200","2","legacy","1024","2","48000","-16","AB_m21","229","odd","NW_L_SIMP","WITCHITH","2331","334182","331811","324047","29727","NA","NA","NA","NA","NA","332313","NA","NA","NA","331310","NA","331279","2344","334533","NA","NA","NA","332354","2331","2331","NA","333554","333579","331278","332313","332334","morph21_Oliver/Morris","42","64024","68","yes","1920","11"
"300","60.869565217391305","60.869565217391305","945.2753623188406","945.2753623188406","black","no","xpyriment","legacy","legacy","0","205","NA","uniform","NA","NA","NA","0","undefined","0","0","68","68","68","0","68","68","68","NA","0","68","NA","NA","0","68","NA","68","0","68","NA","NA","NA","68","0","0","NA","68","68","68","68","68","69","z","Wed Nov 29 15:11:52 2023","The main experiment item","yes","m21-ab-lexicalDecision.osexp","C:\Users\ekealey\Desktop","no","mono","no","18","no","white","no","yes","1080","legacy","68","68","C:/Users/ekealey/Desktop/subject-229.csv","xpyriment","Lentiform Loewenfeld","3.3.11","0","None","NA","NA","NA","NA","space","None","1200","NA","NA","NA","NA","27382","1200","2","legacy","1024","2","48000","-16","AB_m21","229","odd","NW_S_SIMP","YIELDILT","2331","339984","336107","338479","29727","NA","NA","NA","NA","NA","336609","NA","NA","NA","335605","NA","335577","2344","340284","NA","NA","NA","336649","2331","2331","NA","337849","337874","335577","336609","336629","morph21_Oliver/Morris","42","65224","69","yes","1920","20"
"200","61.42857142857143","61.42857142857143","943.8","943.8","black","no","xpyriment","legacy","legacy","0","205","NA","uniform","NA","NA","NA","1","undefined","1","0","69","69","69","0","69","69","69","NA","0","69","NA","NA","0","69","NA","69","0","69","NA","NA","NA","69","0","0","NA","69","69","69","69","69","70","z","Wed Nov 29 15:11:52 2023","The main experiment item","yes","m21-ab-lexicalDecision.osexp","C:\Users\ekealey\Desktop","no","mono","no","18","no","white","no","yes","1080","legacy","69","69","C:/Users/ekealey/Desktop/subject-229.csv","xpyriment","Lentiform Loewenfeld","3.3.11","0","z","NA","NA","NA","NA","space","z","842","NA","NA","NA","NA","27382","842","2","legacy","1024","2","48000","-16","AB_m21","229","odd","NW_S_SIMP","NULLITH","2331","343890","341877","338479","29727","NA","NA","NA","NA","NA","342379","NA","NA","NA","341375","NA","341350","2344","344090","NA","NA","NA","342419","2331","2331","NA","343262","343286","341349","342379","342399","morph21_Oliver/Morris","43","66066","70","yes","1920","23"
"200","61.971830985915496","61.971830985915496","941.887323943662","941.887323943662","black","no","xpyriment","legacy","legacy","0","201","NA","uniform","NA","NA","NA","1","undefined","1","0","70","70","70","0","70","70","70","NA","0","70","NA","NA","0","70","NA","70","0","70","NA","NA","NA","70","0","0","NA","70","70","70","70","70","71","/","Wed Nov 29 15:11:52 2023","The main experiment item","yes","m21-ab-lexicalDecision.osexp","C:\Users\ekealey\Desktop","no","mono","no","18","no","white","no","yes","1080","legacy","70","70","C:/Users/ekealey/Desktop/subject-229.csv","xpyriment","Lentiform Loewenfeld","3.3.11","0","/","NA","NA","NA","NA","space","/","808","NA","NA","NA","NA","27382","808","2","legacy","1024","2","48000","-16","AB_m21","229","odd","CW_S","AMUSEMENT","2331","347632","345655","338479","29727","NA","NA","NA","NA","NA","346155","NA","NA","NA","345154","NA","345127","2344","347832","NA","NA","NA","346196","2331","2331","NA","347005","347029","345127","346155","346176","morph21_Oliver/Morris","44","66874","71","yes","1920","38"
"300","62.5","62.5","940.9444444444445","940.9444444444445","black","no","xpyriment","legacy","legacy","0","208","NA","uniform","NA","NA","NA","1","undefined","1","0","71","71","71","0","71","71","71","NA","0","71","NA","NA","0","71","NA","71","0","71","NA","NA","NA","71","0","0","NA","71","71","71","71","71","72","z","Wed Nov 29 15:11:52 2023","The main experiment item","yes","m21-ab-lexicalDecision.osexp","C:\Users\ekealey\Desktop","no","mono","no","18","no","white","no","yes","1080","legacy","71","71","C:/Users/ekealey/Desktop/subject-229.csv","xpyriment","Lentiform Loewenfeld","3.3.11","0","z","NA","NA","NA","NA","space","z","874","NA","NA","NA","NA","27382","874","2","legacy","1024","2","48000","-16","AB_m21","229","odd","FILL_NW","VOOFS","2331","352980","349429","351474","29727","NA","NA","NA","NA","NA","349931","NA","NA","NA","348929","NA","348901","2344","353280","NA","NA","NA","349971","2331","2331","NA","350845","350869","348901","349931","349951","morph21_Oliver/Morris","45","67748","72","yes","1920","48"
"350","61.64383561643836","61.64383561643836","943.8904109589041","943.8904109589041","black","no","xpyriment","legacy","legacy","0","203","NA","uniform","NA","NA","NA","0","undefined","0","0","72","72","72","0","72","72","72","NA","0","72","NA","NA","0","72","NA","72","0","72","NA","NA","NA","72","0","0","NA","72","72","72","72","72","73","z","Wed Nov 29 15:11:52 2023","The main experiment item","yes","m21-ab-lexicalDecision.osexp","C:\Users\ekealey\Desktop","no","mono","no","18","no","white","no","yes","1080","legacy","72","72","C:/Users/ekealey/Desktop/subject-229.csv","xpyriment","Lentiform Loewenfeld","3.3.11","0","/","NA","NA","NA","NA","space","/","1156","NA","NA","NA","NA","27382","1156","2","legacy","1024","2","48000","-16","AB_m21","229","odd","NW_S_COMP","WELDIC","2331","357200","354874","351474","29727","NA","NA","NA","NA","NA","355375","NA","NA","NA","354371","NA","354345","2344","357550","NA","NA","NA","355417","2331","2331","NA","356574","356597","354345","355375","355396","morph21_Oliver/Morris","45","68904","73","yes","1920","21"
"350","62.16216216216216","62.16216216216216","943.3108108108108","943.3108108108108","black","no","xpyriment","legacy","legacy","0","208","NA","uniform","NA","NA","NA","1","undefined","1","0","73","73","73","0","73","73","73","NA","0","73","NA","NA","0","73","NA","73","0","73","NA","NA","NA","73","0","0","NA","73","73","73","73","73","74","z","Wed Nov 29 15:11:52 2023","The main experiment item","yes","m21-ab-lexicalDecision.osexp","C:\Users\ekealey\Desktop","no","mono","no","18","no","white","no","yes","1080","legacy","73","73","C:/Users/ekealey/Desktop/subject-229.csv","xpyriment","Lentiform Loewenfeld","3.3.11","0","z","NA","NA","NA","NA","space","z","901","NA","NA","NA","NA","27382","901","2","legacy","1024","2","48000","-16","AB_m21","229","odd","FILL_NW","DELP","2331","361186","359115","351474","29727","NA","NA","NA","NA","NA","359616","NA","NA","NA","358613","NA","358586","2344","361536","NA","NA","NA","359656","2331","2331","NA","360558","360583","358586","359616","359636","morph21_Oliver/Morris","46","69805","74","yes","1920","14"
"400","62.666666666666664","62.666666666666664","940.72","940.72","black","no","xpyriment","legacy","legacy","0","205","NA","uniform","NA","NA","NA","undefined","undefined","1","0","74","74","74","0","74","74","74","NA","0","74","NA","NA","0","74","NA","74","0","74","NA","NA","NA","74","0","0","NA","74","74","74","74","74","75","z","Wed Nov 29 15:11:52 2023","The main experiment item","yes","m21-ab-lexicalDecision.osexp","C:\Users\ekealey\Desktop","no","mono","no","18","no","white","no","yes","1080","legacy","74","74","C:/Users/ekealey/Desktop/subject-229.csv","xpyriment","Lentiform Loewenfeld","3.3.11","0","space","space","NA","NA","NA","space","z","6175","6175","NA","NA","NA","27382","749","2","legacy","1024","2","48000","-16","AB_m21","229","odd","NW_S_SIMP","SCHEMENELS","2331","366560","363138","365057","29727","366965","NA","NA","NA","NA","363638","NA","NA","NA","362638","NA","362613","2344","373141","NA","NA","NA","363679","2331","2331","NA","364429","364454","362613","363638","363659","morph21_Oliver/Morris","47","70554","75","yes","1920","15"
"200","63.1578947368421","63.1578947368421","942.6973684210526","942.6973684210526","black","no","xpyriment","legacy","legacy","0","206","NA","uniform","NA","NA","NA","1","undefined","1","0","75","75","75","0","75","75","75","NA","0","75","NA","NA","0","75","NA","75","0","75","NA","NA","NA","75","0","0","NA","75","75","75","75","75","76","z","Wed Nov 29 15:11:52 2023","The main experiment item","yes","m21-ab-lexicalDecision.osexp","C:\Users\ekealey\Desktop","no","mono","no","18","no","white","no","yes","1080","legacy","75","75","C:/Users/ekealey/Desktop/subject-229.csv","xpyriment","Lentiform Loewenfeld","3.3.11","0","z","space","NA","NA","NA","space","z","1091","6175","NA","NA","NA","27382","1091","2","legacy","1024","2","48000","-16","AB_m21","229","odd","NW_L_SIMP","TOWERLA","2331","377023","374765","365057","29727","366965","NA","NA","NA","NA","375265","NA","NA","NA","374265","NA","374238","2344","377223","NA","NA","NA","375305","2331","2331","NA","376397","376420","374238","375265","375285","morph21_Oliver/Morris","48","71645","76","yes","1920","15"
"200","62.33766233766234","62.33766233766234","946.038961038961","946.038961038961","black","no","xpyriment","legacy","legacy","0","203","NA","uniform","NA","NA","NA","0","undefined","0","0","76","76","76","0","76","76","76","NA","0","76","NA","NA","0","76","NA","76","0","76","NA","NA","NA","76","0","0","NA","76","76","76","76","76","77","z","Wed Nov 29 15:11:52 2023","The main experiment item","yes","m21-ab-lexicalDecision.osexp","C:\Users\ekealey\Desktop","no","mono","no","18","no","white","no","yes","1080","legacy","76","76","C:/Users/ekealey/Desktop/subject-229.csv","xpyriment","Lentiform Loewenfeld","3.3.11","0","None","space","NA","NA","NA","space","None","1200","6175","NA","NA","NA","27382","1200","2","legacy","1024","2","48000","-16","AB_m21","229","odd","NW_S_COMP","FANFUL","2331","381154","378782","365057","29727","366965","NA","NA","NA","NA","379283","NA","NA","NA","378280","NA","378249","2344","381354","NA","NA","NA","379324","2331","2331","NA","380524","380550","378249","379283","379304","morph21_Oliver/Morris","48","72845","77","yes","1920","6"
"300","61.53846153846154","61.53846153846154","941.4615384615385","941.4615384615385","black","no","xpyriment","legacy","legacy","0","204","NA","uniform","NA","NA","NA","0","undefined","0","0","77","77","77","0","77","77","77","NA","0","77","NA","NA","0","77","NA","77","0","77","NA","NA","NA","77","0","0","NA","77","77","77","77","77","78","z","Wed Nov 29 15:11:52 2023","The main experiment item","yes","m21-ab-lexicalDecision.osexp","C:\Users\ekealey\Desktop","no","mono","no","18","no","white","no","yes","1080","legacy","77","77","C:/Users/ekealey/Desktop/subject-229.csv","xpyriment","Lentiform Loewenfeld","3.3.11","0","/","space","NA","NA","NA","space","/","589","6175","NA","NA","NA","27382","589","2","legacy","1024","2","48000","-16","AB_m21","229","odd","NW_L_COMP","NORTHIZE","2331","386186","382922","384683","29727","366965","NA","NA","NA","NA","383422","NA","NA","NA","382422","NA","382394","2344","386486","NA","NA","NA","383463","2331","2331","NA","384053","384079","382394","383422","383443","morph21_Oliver/Morris","48","73434","78","yes","1920","20"
"250","62.0253164556962","62.0253164556962","937.3544303797469","937.3544303797469","black","no","xpyriment","legacy","legacy","0","202","NA","uniform","NA","NA","NA","1","undefined","1","0","78","78","78","0","78","78","78","NA","0","78","NA","NA","0","78","NA","78","0","78","NA","NA","NA","78","0","0","NA","78","78","78","78","78","79","/","Wed Nov 29 15:11:52 2023","The main experiment item","yes","m21-ab-lexicalDecision.osexp","C:\Users\ekealey\Desktop","no","mono","no","18","no","white","no","yes","1080","legacy","78","78","C:/Users/ekealey/Desktop/subject-229.csv","xpyriment","Lentiform Loewenfeld","3.3.11","0","/","space","NA","NA","NA","space","/","617","6175","NA","NA","NA","27382","617","2","legacy","1024","2","48000","-16","AB_m21","229","odd","CW_L","LAUGHING","2331","389844","388054","384683","29727","366965","NA","NA","NA","NA","388554","NA","NA","NA","387554","NA","387523","2344","390094","NA","NA","NA","388595","2331","2331","NA","389213","389239","387523","388554","388575","morph21_Oliver/Morris","49","74051","79","yes","1920","27"
"350","62.5","62.5","932.95","932.95","black","no","xpyriment","legacy","legacy","0","207","NA","uniform","NA","NA","NA","1","undefined","1","0","79","79","79","0","79","79","79","NA","0","79","NA","NA","0","79","NA","79","0","79","NA","NA","NA","79","0","0","NA","79","79","79","79","79","80","/","Wed Nov 29 15:11:52 2023","The main experiment item","yes","m21-ab-lexicalDecision.osexp","C:\Users\ekealey\Desktop","no","mono","no","18","no","white","no","yes","1080","legacy","79","79","C:/Users/ekealey/Desktop/subject-229.csv","xpyriment","Lentiform Loewenfeld","3.3.11","0","/","space","NA","NA","NA","space","/","585","6175","NA","NA","NA","27382","585","2","legacy","1024","2","48000","-16","AB_m21","229","odd","FILL_W","LEAK","2331","393412","391656","384683","29727","366965","NA","NA","NA","NA","392156","NA","NA","NA","391156","NA","391128","2344","393763","NA","NA","NA","392196","2331","2331","NA","392781","392807","391128","392156","392176","morph21_Oliver/Morris","50","74636","80","yes","1920","9"
"400","62.96296296296296","62.96296296296296","930.395061728395","930.395061728395","black","no","xpyriment","legacy","legacy","0","205","NA","uniform","NA","NA","NA","1","undefined","1","0","80","80","80","0","80","80","80","NA","0","80","NA","NA","0","80","NA","80","0","80","NA","NA","NA","80","0","0","NA","80","80","80","80","80","81","z","Wed Nov 29 15:11:52 2023","The main experiment item","yes","m21-ab-lexicalDecision.osexp","C:\Users\ekealey\Desktop","no","mono","no","18","no","white","no","yes","1080","legacy","80","80","C:/Users/ekealey/Desktop/subject-229.csv","xpyriment","Lentiform Loewenfeld","3.3.11","0","z","space","NA","NA","NA","space","z","726","6175","NA","NA","NA","27382","726","2","legacy","1024","2","48000","-16","AB_m21","229","odd","NW_S_SIMP","AIDIG","2331","398753","395354","397249","29727","366965","NA","NA","NA","NA","395854","NA","NA","NA","394854","NA","394826","2344","399153","NA","NA","NA","395894","2331","2331","NA","396621","396646","394826","395854","395874","morph21_Oliver/Morris","51","75362","81","yes","1920","4"
"350","63.41463414634146","63.41463414634146","926.1219512195122","926.1219512195122","black","no","xpyriment","legacy","legacy","0","207","NA","uniform","NA","NA","NA","1","undefined","1","0","81","81","81","0","81","81","81","NA","0","81","NA","NA","0","81","NA","81","0","81","NA","NA","NA","81","0","0","NA","81","81","81","81","81","82","/","Wed Nov 29 15:11:52 2023","The main experiment item","yes","m21-ab-lexicalDecision.osexp","C:\Users\ekealey\Desktop","no","mono","no","18","no","white","no","yes","1080","legacy","81","81","C:/Users/ekealey/Desktop/subject-229.csv","xpyriment","Lentiform Loewenfeld","3.3.11","0","/","space","NA","NA","NA","space","/","580","6175","NA","NA","NA","27382","580","2","legacy","1024","2","48000","-16","AB_m21","229","odd","FILL_W","LIFT","2331","402473","400724","397249","29727","366965","NA","NA","NA","NA","401225","NA","NA","NA","400224","NA","400195","2344","402823","NA","NA","NA","401265","2331","2331","NA","401846","401869","400195","401225","401245","morph21_Oliver/Morris","52","75942","82","yes","1920","39"
"300","62.65060240963855","62.65060240963855","929.4216867469879","929.4216867469879","black","no","xpyriment","legacy","legacy","0","206","NA","uniform","NA","NA","NA","0","undefined","0","0","82","82","82","0","82","82","82","NA","0","82","NA","NA","0","82","NA","82","0","82","NA","NA","NA","82","0","0","NA","82","82","82","82","82","83","z","Wed Nov 29 15:11:52 2023","The main experiment item","yes","m21-ab-lexicalDecision.osexp","C:\Users\ekealey\Desktop","no","mono","no","18","no","white","no","yes","1080","legacy","82","82","C:/Users/ekealey/Desktop/subject-229.csv","xpyriment","Lentiform Loewenfeld","3.3.11","0","None","space","NA","NA","NA","space","None","1200","6175","NA","NA","NA","27382","1200","2","legacy","1024","2","48000","-16","AB_m21","229","odd","NW_L_SIMP","BEANITH","2331","406778","404406","397249","29727","366965","NA","NA","NA","NA","404907","NA","NA","NA","403904","NA","403878","2344","407078","NA","NA","NA","404948","2331","2331","NA","406148","406173","403878","404907","404928","morph21_Oliver/Morris","52","77142","83","yes","1920","8"
"400","61.904761904761905","61.904761904761905","927.3571428571429","927.3571428571429","black","no","xpyriment","legacy","legacy","0","203","NA","uniform","NA","NA","NA","0","undefined","0","0","83","83","83","0","83","83","83","NA","0","83","NA","NA","0","83","NA","83","0","83","NA","NA","NA","83","0","0","NA","83","83","83","83","83","84","z","Wed Nov 29 15:11:52 2023","The main experiment item","yes","m21-ab-lexicalDecision.osexp","C:\Users\ekealey\Desktop","no","mono","no","18","no","white","no","yes","1080","legacy","83","83","C:/Users/ekealey/Desktop/subject-229.csv","xpyriment","Lentiform Loewenfeld","3.3.11","0","/","space","NA","NA","NA","space","/","756","6175","NA","NA","NA","27382","756","2","legacy","1024","2","48000","-16","AB_m21","229","odd","NW_S_COMP","TRUENESS","2331","412153","408724","410649","29727","366965","NA","NA","NA","NA","409225","NA","NA","NA","408224","NA","408194","2344","412553","NA","NA","NA","409265","2331","2331","NA","410021","410046","408194","409225","409245","morph21_Oliver/Morris","52","77898","84","yes","1920","15"
"350","62.35294117647059","62.35294117647059","928.4117647058823","928.4117647058823","black","no","xpyriment","legacy","legacy","0","203","NA","uniform","NA","NA","NA","1","undefined","1","0","84","84","84","0","84","84","84","NA","0","84","NA","NA","0","84","NA","84","0","84","NA","NA","NA","84","0","0","NA","84","84","84","84","84","85","z","Wed Nov 29 15:11:52 2023","The main experiment item","yes","m21-ab-lexicalDecision.osexp","C:\Users\ekealey\Desktop","no","mono","no","18","no","white","no","yes","1080","legacy","84","84","C:/Users/ekealey/Desktop/subject-229.csv","xpyriment","Lentiform Loewenfeld","3.3.11","0","z","space","NA","NA","NA","space","z","1017","6175","NA","NA","NA","27382","1017","2","legacy","1024","2","48000","-16","AB_m21","229","odd","NW_S_COMP","HUMIDOUS","2331","416288","414102","410649","29727","366965","NA","NA","NA","NA","414603","NA","NA","NA","413601","NA","413567","2344","416638","NA","NA","NA","414643","2331","2331","NA","415661","415685","413567","414603","414623","morph21_Oliver/Morris","53","78915","85","yes","1920","25"
"250","62.7906976744186","62.7906976744186","927.0930232558139","927.0930232558139","black","no","xpyriment","legacy","legacy","0","201","NA","uniform","NA","NA","NA","1","undefined","1","0","85","85","85","0","85","85","85","NA","0","85","NA","NA","0","85","NA","85","0","85","NA","NA","NA","85","0","0","NA","85","85","85","85","85","86","/","Wed Nov 29 15:11:52 2023","The main experiment item","yes","m21-ab-lexicalDecision.osexp","C:\Users\ekealey\Desktop","no","mono","no","18","no","white","no","yes","1080","legacy","85","85","C:/Users/ekealey/Desktop/subject-229.csv","xpyriment","Lentiform Loewenfeld","3.3.11","0","/","space","NA","NA","NA","space","/","815","6175","NA","NA","NA","27382","815","2","legacy","1024","2","48000","-16","AB_m21","229","odd","CW_S","PEAKING","2331","420186","418200","410649","29727","366965","NA","NA","NA","NA","418700","NA","NA","NA","417700","NA","417671","2344","420436","NA","NA","NA","418742","2331","2331","NA","419557","419583","417670","418700","418722","morph21_Oliver/Morris","54","79730","86","yes","1920","28"
"400","63.2183908045977","63.2183908045977","928.9770114942529","928.9770114942529","black","no","xpyriment","legacy","legacy","0","202","NA","uniform","NA","NA","NA","1","undefined","1","0","86","86","86","0","86","86","86","NA","0","86","NA","NA","0","86","NA","86","0","86","NA","NA","NA","86","0","0","NA","86","86","86","86","86","87","/","Wed Nov 29 15:11:52 2023","The main experiment item","yes","m21-ab-lexicalDecision.osexp","C:\Users\ekealey\Desktop","no","mono","no","18","no","white","no","yes","1080","legacy","86","86","C:/Users/ekealey/Desktop/subject-229.csv","xpyriment","Lentiform Loewenfeld","3.3.11","0","/","space","NA","NA","NA","space","/","1091","6175","NA","NA","NA","27382","1091","2","legacy","1024","2","48000","-16","AB_m21","229","odd","CW_L","SPELLER","2331","425779","422011","424272","29727","366965","NA","NA","NA","NA","422512","NA","NA","NA","421509","NA","421484","2344","426179","NA","NA","NA","422553","2331","2331","NA","423645","423668","421484","422512","422533","morph21_Oliver/Morris","55","80821","87","yes","1920","3"
"200","63.63636363636363","63.63636363636363","928.5909090909091","928.5909090909091","black","no","xpyriment","legacy","legacy","0","208","NA","uniform","NA","NA","NA","1","undefined","1","0","87","87","87","0","87","87","87","NA","0","87","NA","NA","0","87","NA","87","0","87","NA","NA","NA","87","0","0","NA","87","87","87","87","87","88","z","Wed Nov 29 15:11:52 2023","The main experiment item","yes","m21-ab-lexicalDecision.osexp","C:\Users\ekealey\Desktop","no","mono","no","18","no","white","no","yes","1080","legacy","87","87","C:/Users/ekealey/Desktop/subject-229.csv","xpyriment","Lentiform Loewenfeld","3.3.11","0","z","space","NA","NA","NA","space","z","895","6175","NA","NA","NA","27382","895","2","legacy","1024","2","48000","-16","AB_m21","229","odd","FILL_NW","BROUPS","2331","429832","427767","424272","29727","366965","NA","NA","NA","NA","428268","NA","NA","NA","427267","NA","427241","2344","430032","NA","NA","NA","428309","2331","2331","NA","429205","429228","427241","428268","428289","morph21_Oliver/Morris","56","81716","88","yes","1920","4"
"400","64.04494382022472","64.04494382022472","931.3258426966293","931.3258426966293","black","no","xpyriment","legacy","legacy","0","201","NA","uniform","NA","NA","NA","1","undefined","1","0","88","88","88","0","88","88","88","NA","0","88","NA","NA","0","88","NA","88","0","88","NA","NA","NA","88","0","0","NA","88","88","88","88","88","89","/","Wed Nov 29 15:11:52 2023","The main experiment item","yes","m21-ab-lexicalDecision.osexp","C:\Users\ekealey\Desktop","no","mono","no","18","no","white","no","yes","1080","legacy","88","88","C:/Users/ekealey/Desktop/subject-229.csv","xpyriment","Lentiform Loewenfeld","3.3.11","0","/","space","NA","NA","NA","space","/","1172","6175","NA","NA","NA","27382","1172","2","legacy","1024","2","48000","-16","AB_m21","229","odd","CW_S","ALLOWANCE","2331","433928","431588","424272","29727","366965","NA","NA","NA","NA","432088","NA","NA","NA","431087","NA","431059","2344","434328","NA","NA","NA","432128","2331","2331","NA","433301","433324","431059","432088","432108","morph21_Oliver/Morris","57","82888","89","yes","1920","5"
"250","64.44444444444444","64.44444444444444","931.2666666666667","931.2666666666667","black","no","xpyriment","legacy","legacy","0","207","NA","uniform","NA","NA","NA","1","undefined","1","0","89","89","89","0","89","89","89","NA","0","89","NA","NA","0","89","NA","89","0","89","NA","NA","NA","89","0","0","NA","89","89","89","89","89","90","/","Wed Nov 29 15:11:52 2023","The main experiment item","yes","m21-ab-lexicalDecision.osexp","C:\Users\ekealey\Desktop","no","mono","no","18","no","white","no","yes","1080","legacy","89","89","C:/Users/ekealey/Desktop/subject-229.csv","xpyriment","Lentiform Loewenfeld","3.3.11","0","/","space","NA","NA","NA","space","/","926","6175","NA","NA","NA","27382","926","2","legacy","1024","2","48000","-16","AB_m21","229","odd","FILL_W","SOUGHT","2331","439516","435912","438010","29727","366965","NA","NA","NA","NA","436414","NA","NA","NA","435410","NA","435378","2344","439766","NA","NA","NA","436454","2331","2331","NA","437381","437405","435378","436414","436434","morph21_Oliver/Morris","58","83814","90","yes","1920","40"
"300","63.73626373626374","63.73626373626374","934.2197802197802","934.2197802197802","black","no","xpyriment","legacy","legacy","0","205","NA","uniform","NA","NA","NA","0","undefined","0","0","90","90","90","0","90","90","90","NA","0","90","NA","NA","0","90","NA","90","0","90","NA","NA","NA","90","0","0","NA","90","90","90","90","90","91","z","Wed Nov 29 15:11:52 2023","The main experiment item","yes","m21-ab-lexicalDecision.osexp","C:\Users\ekealey\Desktop","no","mono","no","18","no","white","no","yes","1080","legacy","90","90","C:/Users/ekealey/Desktop/subject-229.csv","xpyriment","Lentiform Loewenfeld","3.3.11","0","None","space","NA","NA","NA","space","None","1200","6175","NA","NA","NA","27382","1200","2","legacy","1024","2","48000","-16","AB_m21","229","odd","NW_S_SIMP","WINKIDY","2331","443735","441367","438010","29727","366965","NA","NA","NA","NA","441867","NA","NA","NA","440867","NA","440839","2344","444035","NA","NA","NA","441908","2331","2331","NA","443108","443132","440839","441867","441888","morph21_Oliver/Morris","58","85014","91","yes","1920","21"
"200","64.1304347826087","64.1304347826087","930.9782608695652","930.9782608695652","black","no","xpyriment","legacy","legacy","0","207","NA","uniform","NA","NA","NA","1","undefined","1","0","91","91","91","0","91","91","91","NA","0","91","NA","NA","0","91","NA","91","0","91","NA","NA","NA","91","0","0","NA","91","91","91","91","91","92","/","Wed Nov 29 15:11:52 2023","The main experiment item","yes","m21-ab-lexicalDecision.osexp","C:\Users\ekealey\Desktop","no","mono","no","18","no","white","no","yes","1080","legacy","91","91","C:/Users/ekealey/Desktop/subject-229.csv","xpyriment","Lentiform Loewenfeld","3.3.11","0","/","space","NA","NA","NA","space","/","636","6175","NA","NA","NA","27382","636","2","legacy","1024","2","48000","-16","AB_m21","229","odd","FILL_W","TAX","2331","447474","445665","438010","29727","366965","NA","NA","NA","NA","446167","NA","NA","NA","445165","NA","445139","2344","447674","NA","NA","NA","446208","2331","2331","NA","446845","446870","445139","446167","446188","morph21_Oliver/Morris","59","85650","92","yes","1920","45"
"200","64.51612903225806","64.51612903225806","932.010752688172","932.010752688172","black","no","xpyriment","legacy","legacy","0","208","NA","uniform","NA","NA","NA","1","undefined","1","0","92","92","92","0","92","92","92","NA","0","92","NA","NA","0","92","NA","92","0","92","NA","NA","NA","92","0","0","NA","92","92","92","92","92","93","z","Wed Nov 29 15:11:52 2023","The main experiment item","yes","m21-ab-lexicalDecision.osexp","C:\Users\ekealey\Desktop","no","mono","no","18","no","white","no","yes","1080","legacy","92","92","C:/Users/ekealey/Desktop/subject-229.csv","xpyriment","Lentiform Loewenfeld","3.3.11","0","z","space","NA","NA","NA","space","z","1027","6175","NA","NA","NA","27382","1027","2","legacy","1024","2","48000","-16","AB_m21","229","odd","FILL_NW","FROT","2331","453003","449299","451498","29727","366965","NA","NA","NA","NA","449801","NA","NA","NA","448799","NA","448768","2344","453203","NA","NA","NA","449841","2331","2331","NA","450869","450893","448768","449800","449821","morph21_Oliver/Morris","60","86677","93","yes","1920","22"
