"ITI","acc","accuracy","average_response_time","avg_rt","background","bidi","canvas_backend","clock_backend","color_backend","compensation","cond_trig","condtrigtime","coordinates","coroutines_cycles","coroutines_duration","coroutines_mean_cycle_duration","correct","correct_instructions_1","correct_new_keyboard_response_1","count_AB_m21","count_ITI","count_blank_screen","count_blink_screen","count_block1","count_break1","count_break2","count_break3_1","count_canvas","count_close_port","count_cond_trigger","count_correct_trigger","count_def_chain","count_end_screen","count_fixation_1","count_getting_started","count_inc_counter","count_instructions_1","count_logger","count_logscript","count_new_inline_script","count_new_inline_script_2","count_new_keyboard_response_1","count_open_port","count_reset_counter_prep","count_reset_counter_run","count_response_trigger_trial","count_responsescreen","count_sequence","count_target_present","count_word_trigger","counter","cresp","datetime","description","disable_garbage_collection","experiment_file","experiment_path","font_bold","font_family","font_italic","font_size","font_underline","foreground","form_clicks","fullscreen","height","keyboard_backend","live_row","live_row_block1","logfile","mouse_backend","opensesame_codename","opensesame_version","repeat_cycle","response","response_break1","response_break2","response_break3_1","response_end_screen","response_instructions_1","response_new_keyboard_response_1","response_time","response_time_break1","response_time_break2","response_time_break3_1","response_time_end_screen","response_time_instructions_1","response_time_new_keyboard_response_1","round_decimals","sampler_backend","sound_buf_size","sound_channels","sound_freq","sound_sample_size","start","subject_nr","subject_parity","targ_type","target","time_AB_m21","time_ITI","time_blank_screen","time_blink_screen","time_block1","time_break1","time_break2","time_break3_1","time_canvas","time_close_port","time_cond_trigger","time_correct_trigger","time_def_chain","time_end_screen","time_fixation_1","time_getting_started","time_inc_counter","time_instructions_1","time_logger","time_logscript","time_new_inline_script","time_new_inline_script_2","time_new_keyboard_response_1","time_open_port","time_reset_counter_prep","time_reset_counter_run","time_response_trigger_trial","time_responsescreen","time_sequence","time_target_present","time_word_trigger","title","total_correct","total_response_time","total_responses","uniform_coordinates","width","word_trig"
"300","0","0","1200","1200","black","no","xpyriment","legacy","legacy","0","201","NA","uniform","NA","NA","NA","0","undefined","0","0","0","0","0","0","0","0","0","NA","0","0","NA","NA","0","0","NA","0","0","0","NA","NA","NA","0","0","0","NA","0","0","0","0","0","1","/","Thu May  2 13:35:42 2024","The main experiment item","yes","m21-ab-lexicalDecision.osexp","C:\Users\ekealey\Desktop","no","mono","no","18","no","white","no","yes","1080","legacy","0","0","C:/Users/ekealey/Desktop/subject-245.csv","xpyriment","Lentiform Loewenfeld","3.3.11","0","None","NA","NA","NA","NA","space","None","1200","NA","NA","NA","NA","15590","1200","2","legacy","1024","2","48000","-16","AB_m21","245","odd","CW_S","DESTROYER","1922","21851","19479","NA","17524","NA","NA","NA","NA","NA","19980","NA","NA","NA","18977","NA","18945","1933","22151","NA","NA","NA","20022","1923","1923","NA","21222","21248","18944","19980","20001","morph21_Oliver/Morris","0","1200","1","yes","1920","14"
"400","50","50","1034.5","1034.5","black","no","xpyriment","legacy","legacy","0","203","NA","uniform","NA","NA","NA","1","undefined","1","0","1","1","1","0","1","1","1","NA","0","1","NA","NA","0","1","NA","1","0","1","NA","NA","NA","1","0","0","NA","1","1","1","1","1","2","z","Thu May  2 13:35:42 2024","The main experiment item","yes","m21-ab-lexicalDecision.osexp","C:\Users\ekealey\Desktop","no","mono","no","18","no","white","no","yes","1080","legacy","1","1","C:/Users/ekealey/Desktop/subject-245.csv","xpyriment","Lentiform Loewenfeld","3.3.11","0","z","NA","NA","NA","NA","space","z","869","NA","NA","NA","NA","15590","869","2","legacy","1024","2","48000","-16","AB_m21","245","odd","NW_S_COMP","ARIDISM","1922","25759","23720","NA","17524","NA","NA","NA","NA","NA","24221","NA","NA","NA","23220","NA","23189","1933","26159","NA","NA","NA","24262","1923","1923","NA","25132","25156","23188","24221","24242","morph21_Oliver/Morris","1","2069","2","yes","1920","9"
"300","66.66666666666667","66.66666666666667","941.6666666666666","941.6666666666666","black","no","xpyriment","legacy","legacy","0","208","NA","uniform","NA","NA","NA","1","undefined","1","0","2","2","2","0","2","2","2","NA","0","2","NA","NA","0","2","NA","2","0","2","NA","NA","NA","2","0","0","NA","2","2","2","2","2","3","z","Thu May  2 13:35:42 2024","The main experiment item","yes","m21-ab-lexicalDecision.osexp","C:\Users\ekealey\Desktop","no","mono","no","18","no","white","no","yes","1080","legacy","2","2","C:/Users/ekealey/Desktop/subject-245.csv","xpyriment","Lentiform Loewenfeld","3.3.11","0","z","NA","NA","NA","NA","space","z","756","NA","NA","NA","NA","15590","756","2","legacy","1024","2","48000","-16","AB_m21","245","odd","FILL_NW","KEMT","1922","31158","27731","29655","17524","NA","NA","NA","NA","NA","28231","NA","NA","NA","27230","NA","27203","1933","31458","NA","NA","NA","28272","1923","1923","NA","29028","29051","27203","28231","28252","morph21_Oliver/Morris","2","2825","3","yes","1920","32"
"300","50","50","1006.25","1006.25","black","no","xpyriment","legacy","legacy","0","204","NA","uniform","NA","NA","NA","0","undefined","0","0","3","3","3","0","3","3","3","NA","0","3","NA","NA","0","3","NA","3","0","3","NA","NA","NA","3","0","0","NA","3","3","3","3","3","4","z","Thu May  2 13:35:42 2024","The main experiment item","yes","m21-ab-lexicalDecision.osexp","C:\Users\ekealey\Desktop","no","mono","no","18","no","white","no","yes","1080","legacy","3","3","C:/Users/ekealey/Desktop/subject-245.csv","xpyriment","Lentiform Loewenfeld","3.3.11","0","None","NA","NA","NA","NA","space","None","1200","NA","NA","NA","NA","15590","1200","2","legacy","1024","2","48000","-16","AB_m21","245","odd","NW_L_COMP","EMPLOYNESS","1922","35448","33078","29655","17524","NA","NA","NA","NA","NA","33580","NA","NA","NA","32577","NA","32553","1933","35748","NA","NA","NA","33620","1923","1923","NA","34820","34844","32553","33580","33600","morph21_Oliver/Morris","2","4025","4","yes","1920","21"
"400","60","60","975.6","975.6","black","no","xpyriment","legacy","legacy","0","208","NA","uniform","NA","NA","NA","1","undefined","1","0","4","4","4","0","4","4","4","NA","0","4","NA","NA","0","4","NA","4","0","4","NA","NA","NA","4","0","0","NA","4","4","4","4","4","5","z","Thu May  2 13:35:42 2024","The main experiment item","yes","m21-ab-lexicalDecision.osexp","C:\Users\ekealey\Desktop","no","mono","no","18","no","white","no","yes","1080","legacy","4","4","C:/Users/ekealey/Desktop/subject-245.csv","xpyriment","Lentiform Loewenfeld","3.3.11","0","z","NA","NA","NA","NA","space","z","853","NA","NA","NA","NA","15590","853","2","legacy","1024","2","48000","-16","AB_m21","245","odd","FILL_NW","BALFS","1922","39327","37305","29655","17524","NA","NA","NA","NA","NA","37805","NA","NA","NA","36805","NA","36780","1933","39727","NA","NA","NA","37846","1923","1923","NA","38700","38724","36780","37805","37826","morph21_Oliver/Morris","3","4878","5","yes","1920","2"
"250","50","50","1013","1013","black","no","xpyriment","legacy","legacy","0","203","NA","uniform","NA","NA","NA","0","undefined","0","0","5","5","5","0","5","5","5","NA","0","5","NA","NA","0","5","NA","5","0","5","NA","NA","NA","5","0","0","NA","5","5","5","5","5","6","z","Thu May  2 13:35:42 2024","The main experiment item","yes","m21-ab-lexicalDecision.osexp","C:\Users\ekealey\Desktop","no","mono","no","18","no","white","no","yes","1080","legacy","5","5","C:/Users/ekealey/Desktop/subject-245.csv","xpyriment","Lentiform Loewenfeld","3.3.11","0","None","NA","NA","NA","NA","space","None","1200","NA","NA","NA","NA","15590","1200","2","legacy","1024","2","48000","-16","AB_m21","245","odd","NW_S_COMP","BEERER","1922","45154","41279","43649","17524","NA","NA","NA","NA","NA","41781","NA","NA","NA","40777","NA","40752","1933","45404","NA","NA","NA","41821","1923","1923","NA","43021","43045","40751","41781","41801","morph21_Oliver/Morris","3","6078","6","yes","1920","5"
"350","42.857142857142854","42.857142857142854","999","999","black","no","xpyriment","legacy","legacy","0","203","NA","uniform","NA","NA","NA","0","undefined","0","0","6","6","6","0","6","6","6","NA","0","6","NA","NA","0","6","NA","6","0","6","NA","NA","NA","6","0","0","NA","6","6","6","6","6","7","z","Thu May  2 13:35:42 2024","The main experiment item","yes","m21-ab-lexicalDecision.osexp","C:\Users\ekealey\Desktop","no","mono","no","18","no","white","no","yes","1080","legacy","6","6","C:/Users/ekealey/Desktop/subject-245.csv","xpyriment","Lentiform Loewenfeld","3.3.11","0","/","NA","NA","NA","NA","space","/","915","NA","NA","NA","NA","15590","915","2","legacy","1024","2","48000","-16","AB_m21","245","odd","NW_S_COMP","HEIGHTENCE","1922","49057","46971","43649","17524","NA","NA","NA","NA","NA","47471","NA","NA","NA","46471","NA","46440","1933","49407","NA","NA","NA","47512","1923","1923","NA","48428","48454","46440","47471","47492","morph21_Oliver/Morris","3","6993","7","yes","1920","18"
"400","50","50","947","947","black","no","xpyriment","legacy","legacy","0","207","NA","uniform","NA","NA","NA","1","undefined","1","0","7","7","7","0","7","7","7","NA","0","7","NA","NA","0","7","NA","7","0","7","NA","NA","NA","7","0","0","NA","7","7","7","7","7","8","/","Thu May  2 13:35:42 2024","The main experiment item","yes","m21-ab-lexicalDecision.osexp","C:\Users\ekealey\Desktop","no","mono","no","18","no","white","no","yes","1080","legacy","7","7","C:/Users/ekealey/Desktop/subject-245.csv","xpyriment","Lentiform Loewenfeld","3.3.11","0","/","NA","NA","NA","NA","space","/","583","NA","NA","NA","NA","15590","583","2","legacy","1024","2","48000","-16","AB_m21","245","odd","FILL_W","CRUNCH","1922","52722","50968","43649","17524","NA","NA","NA","NA","NA","51468","NA","NA","NA","50468","NA","50438","1933","53122","NA","NA","NA","51509","1923","1923","NA","52092","52119","50438","51468","51489","morph21_Oliver/Morris","4","7576","8","yes","1920","20"
"250","44.44444444444444","44.44444444444444","932.2222222222222","932.2222222222222","black","no","xpyriment","legacy","legacy","0","208","NA","uniform","NA","NA","NA","0","undefined","0","0","8","8","8","0","8","8","8","NA","0","8","NA","NA","0","8","NA","8","0","8","NA","NA","NA","8","0","0","NA","8","8","8","8","8","9","z","Thu May  2 13:35:42 2024","The main experiment item","yes","m21-ab-lexicalDecision.osexp","C:\Users\ekealey\Desktop","no","mono","no","18","no","white","no","yes","1080","legacy","8","8","C:/Users/ekealey/Desktop/subject-245.csv","xpyriment","Lentiform Loewenfeld","3.3.11","0","/","NA","NA","NA","NA","space","/","814","NA","NA","NA","NA","15590","814","2","legacy","1024","2","48000","-16","AB_m21","245","odd","FILL_NW","POLT","1922","58155","54665","56650","17524","NA","NA","NA","NA","NA","55165","NA","NA","NA","54164","NA","54136","1933","58405","NA","NA","NA","55206","1923","1923","NA","56020","56046","54135","55165","55186","morph21_Oliver/Morris","4","8390","9","yes","1920","38"
"300","50","50","924.5","924.5","black","no","xpyriment","legacy","legacy","0","205","NA","uniform","NA","NA","NA","1","undefined","1","0","9","9","9","0","9","9","9","NA","0","9","NA","NA","0","9","NA","9","0","9","NA","NA","NA","9","0","0","NA","9","9","9","9","9","10","z","Thu May  2 13:35:42 2024","The main experiment item","yes","m21-ab-lexicalDecision.osexp","C:\Users\ekealey\Desktop","no","mono","no","18","no","white","no","yes","1080","legacy","9","9","C:/Users/ekealey/Desktop/subject-245.csv","xpyriment","Lentiform Loewenfeld","3.3.11","0","z","NA","NA","NA","NA","space","z","855","NA","NA","NA","NA","15590","855","2","legacy","1024","2","48000","-16","AB_m21","245","odd","NW_S_SIMP","WARNODY","1922","62010","59983","56650","17524","NA","NA","NA","NA","NA","60484","NA","NA","NA","59483","NA","59456","1933","62310","NA","NA","NA","60524","1923","1923","NA","61379","61403","59456","60484","60504","morph21_Oliver/Morris","5","9245","10","yes","1920","12"
"250","54.54545454545455","54.54545454545455","938.7272727272727","938.7272727272727","black","no","xpyriment","legacy","legacy","0","204","NA","uniform","NA","NA","NA","1","undefined","1","0","10","10","10","0","10","10","10","NA","0","10","NA","NA","0","10","NA","10","0","10","NA","NA","NA","10","0","0","NA","10","10","10","10","10","11","z","Thu May  2 13:35:42 2024","The main experiment item","yes","m21-ab-lexicalDecision.osexp","C:\Users\ekealey\Desktop","no","mono","no","18","no","white","no","yes","1080","legacy","10","10","C:/Users/ekealey/Desktop/subject-245.csv","xpyriment","Lentiform Loewenfeld","3.3.11","0","z","NA","NA","NA","NA","space","z","1081","NA","NA","NA","NA","15590","1081","2","legacy","1024","2","48000","-16","AB_m21","245","odd","NW_L_COMP","MUDLY","1922","66249","63997","56650","17524","NA","NA","NA","NA","NA","64497","NA","NA","NA","63497","NA","63467","1933","66499","NA","NA","NA","64538","1923","1923","NA","65620","65644","63467","64497","64518","morph21_Oliver/Morris","6","10326","11","yes","1920","12"
"200","58.333333333333336","58.333333333333336","912.3333333333334","912.3333333333334","black","no","xpyriment","legacy","legacy","0","202","NA","uniform","NA","NA","NA","1","undefined","1","0","11","11","11","0","11","11","11","NA","0","11","NA","NA","0","11","NA","11","0","11","NA","NA","NA","11","0","0","NA","11","11","11","11","11","12","/","Thu May  2 13:35:42 2024","The main experiment item","yes","m21-ab-lexicalDecision.osexp","C:\Users\ekealey\Desktop","no","mono","no","18","no","white","no","yes","1080","legacy","11","11","C:/Users/ekealey/Desktop/subject-245.csv","xpyriment","Lentiform Loewenfeld","3.3.11","0","/","NA","NA","NA","NA","space","/","622","NA","NA","NA","NA","15590","622","2","legacy","1024","2","48000","-16","AB_m21","245","odd","CW_L","VERBAL","1922","71448","68152","69944","17524","NA","NA","NA","NA","NA","68653","NA","NA","NA","67649","NA","67622","1933","71649","NA","NA","NA","68693","1923","1923","NA","69316","69339","67622","68653","68673","morph21_Oliver/Morris","7","10948","12","yes","1920","50"
"350","53.84615384615385","53.84615384615385","913","913","black","no","xpyriment","legacy","legacy","0","206","NA","uniform","NA","NA","NA","0","undefined","0","0","12","12","12","0","12","12","12","NA","0","12","NA","NA","0","12","NA","12","0","12","NA","NA","NA","12","0","0","NA","12","12","12","12","12","13","z","Thu May  2 13:35:42 2024","The main experiment item","yes","m21-ab-lexicalDecision.osexp","C:\Users\ekealey\Desktop","no","mono","no","18","no","white","no","yes","1080","legacy","12","12","C:/Users/ekealey/Desktop/subject-245.csv","xpyriment","Lentiform Loewenfeld","3.3.11","0","/","NA","NA","NA","NA","space","/","921","NA","NA","NA","NA","15590","921","2","legacy","1024","2","48000","-16","AB_m21","245","odd","NW_L_SIMP","PICKENGE","1922","75304","73210","69944","17524","NA","NA","NA","NA","NA","73713","NA","NA","NA","72708","NA","72676","1933","75654","NA","NA","NA","73754","1923","1923","NA","74676","74700","72676","73713","73734","morph21_Oliver/Morris","7","11869","13","yes","1920","5"
"400","57.142857142857146","57.142857142857146","906.7142857142857","906.7142857142857","black","no","xpyriment","legacy","legacy","0","202","NA","uniform","NA","NA","NA","1","undefined","1","0","13","13","13","0","13","13","13","NA","0","13","NA","NA","0","13","NA","13","0","13","NA","NA","NA","13","0","0","NA","13","13","13","13","13","14","/","Thu May  2 13:35:42 2024","The main experiment item","yes","m21-ab-lexicalDecision.osexp","C:\Users\ekealey\Desktop","no","mono","no","18","no","white","no","yes","1080","legacy","13","13","C:/Users/ekealey/Desktop/subject-245.csv","xpyriment","Lentiform Loewenfeld","3.3.11","0","/","NA","NA","NA","NA","space","/","825","NA","NA","NA","NA","15590","825","2","legacy","1024","2","48000","-16","AB_m21","245","odd","CW_L","CLOUDLESS","1922","79231","77238","69944","17524","NA","NA","NA","NA","NA","77738","NA","NA","NA","76738","NA","76708","1933","79631","NA","NA","NA","77779","1923","1923","NA","78605","78628","76708","77738","77759","morph21_Oliver/Morris","8","12694","14","yes","1920","33"
"300","60","60","917.4666666666667","917.4666666666667","black","no","xpyriment","legacy","legacy","0","203","NA","uniform","NA","NA","NA","1","undefined","1","0","14","14","14","0","14","14","14","NA","0","14","NA","NA","0","14","NA","14","0","14","NA","NA","NA","14","0","0","NA","14","14","14","14","14","15","z","Thu May  2 13:35:42 2024","The main experiment item","yes","m21-ab-lexicalDecision.osexp","C:\Users\ekealey\Desktop","no","mono","no","18","no","white","no","yes","1080","legacy","14","14","C:/Users/ekealey/Desktop/subject-245.csv","xpyriment","Lentiform Loewenfeld","3.3.11","0","z","NA","NA","NA","NA","space","z","1068","NA","NA","NA","NA","15590","1068","2","legacy","1024","2","48000","-16","AB_m21","245","odd","NW_S_COMP","FIGER","1922","84978","81235","83473","17524","NA","NA","NA","NA","NA","81736","NA","NA","NA","80734","NA","80705","1933","85278","NA","NA","NA","81776","1923","1923","NA","82844","82869","80705","81736","81756","morph21_Oliver/Morris","9","13762","15","yes","1920","4"
"400","62.5","62.5","900.5625","900.5625","black","no","xpyriment","legacy","legacy","0","202","NA","uniform","NA","NA","NA","1","undefined","1","0","15","15","15","0","15","15","15","NA","0","15","NA","NA","0","15","NA","15","0","15","NA","NA","NA","15","0","0","NA","15","15","15","15","15","16","/","Thu May  2 13:35:42 2024","The main experiment item","yes","m21-ab-lexicalDecision.osexp","C:\Users\ekealey\Desktop","no","mono","no","18","no","white","no","yes","1080","legacy","15","15","C:/Users/ekealey/Desktop/subject-245.csv","xpyriment","Lentiform Loewenfeld","3.3.11","0","/","NA","NA","NA","NA","space","/","647","NA","NA","NA","NA","15590","647","2","legacy","1024","2","48000","-16","AB_m21","245","odd","CW_L","FAITHFUL","1922","88670","86854","83473","17524","NA","NA","NA","NA","NA","87355","NA","NA","NA","86353","NA","86327","1933","89070","NA","NA","NA","87396","1923","1923","NA","88044","88067","86327","87355","87376","morph21_Oliver/Morris","10","14409","16","yes","1920","20"
"350","64.70588235294117","64.70588235294117","878.2352941176471","878.2352941176471","black","no","xpyriment","legacy","legacy","0","206","NA","uniform","NA","NA","NA","1","undefined","1","0","16","16","16","0","16","16","16","NA","0","16","NA","NA","0","16","NA","16","0","16","NA","NA","NA","16","0","0","NA","16","16","16","16","16","17","z","Thu May  2 13:35:42 2024","The main experiment item","yes","m21-ab-lexicalDecision.osexp","C:\Users\ekealey\Desktop","no","mono","no","18","no","white","no","yes","1080","legacy","16","16","C:/Users/ekealey/Desktop/subject-245.csv","xpyriment","Lentiform Loewenfeld","3.3.11","0","z","NA","NA","NA","NA","space","z","521","NA","NA","NA","NA","15590","521","2","legacy","1024","2","48000","-16","AB_m21","245","odd","NW_L_SIMP","HABITIG","1922","92328","90637","83473","17524","NA","NA","NA","NA","NA","91137","NA","NA","NA","90137","NA","90111","1933","92678","NA","NA","NA","91178","1923","1923","NA","91700","91724","90111","91137","91158","morph21_Oliver/Morris","11","14930","17","yes","1920","7"
"400","66.66666666666667","66.66666666666667","864.9444444444445","864.9444444444445","black","no","xpyriment","legacy","legacy","0","206","NA","uniform","NA","NA","NA","1","undefined","1","0","17","17","17","0","17","17","17","NA","0","17","NA","NA","0","17","NA","17","0","17","NA","NA","NA","17","0","0","NA","17","17","17","17","17","18","z","Thu May  2 13:35:42 2024","The main experiment item","yes","m21-ab-lexicalDecision.osexp","C:\Users\ekealey\Desktop","no","mono","no","18","no","white","no","yes","1080","legacy","17","17","C:/Users/ekealey/Desktop/subject-245.csv","xpyriment","Lentiform Loewenfeld","3.3.11","0","z","NA","NA","NA","NA","space","z","639","NA","NA","NA","NA","15590","639","2","legacy","1024","2","48000","-16","AB_m21","245","odd","NW_L_SIMP","CLASSOES","1922","97545","94232","96041","17524","NA","NA","NA","NA","NA","94733","NA","NA","NA","93732","NA","93701","1933","97945","NA","NA","NA","94773","1923","1923","NA","95412","95436","93701","94733","94753","morph21_Oliver/Morris","12","15569","18","yes","1920","18"
"350","68.42105263157895","68.42105263157895","878.3684210526316","878.3684210526316","black","no","xpyriment","legacy","legacy","0","206","NA","uniform","NA","NA","NA","1","undefined","1","0","18","18","18","0","18","18","18","NA","0","18","NA","NA","0","18","NA","18","0","18","NA","NA","NA","18","0","0","NA","18","18","18","18","18","19","z","Thu May  2 13:35:42 2024","The main experiment item","yes","m21-ab-lexicalDecision.osexp","C:\Users\ekealey\Desktop","no","mono","no","18","no","white","no","yes","1080","legacy","18","18","C:/Users/ekealey/Desktop/subject-245.csv","xpyriment","Lentiform Loewenfeld","3.3.11","0","z","NA","NA","NA","NA","space","z","1120","NA","NA","NA","NA","15590","1120","2","legacy","1024","2","48000","-16","AB_m21","245","odd","NW_L_SIMP","CRITICANGE","1922","101806","99517","96041","17524","NA","NA","NA","NA","NA","100018","NA","NA","NA","99015","NA","98982","1933","102156","NA","NA","NA","100059","1923","1923","NA","101180","101203","98982","100018","100039","morph21_Oliver/Morris","13","16689","19","yes","1920","22"
"250","70","70","861.45","861.45","black","no","xpyriment","legacy","legacy","0","202","NA","uniform","NA","NA","NA","1","undefined","1","0","19","19","19","0","19","19","19","NA","0","19","NA","NA","0","19","NA","19","0","19","NA","NA","NA","19","0","0","NA","19","19","19","19","19","20","/","Thu May  2 13:35:42 2024","The main experiment item","yes","m21-ab-lexicalDecision.osexp","C:\Users\ekealey\Desktop","no","mono","no","18","no","white","no","yes","1080","legacy","19","19","C:/Users/ekealey/Desktop/subject-245.csv","xpyriment","Lentiform Loewenfeld","3.3.11","0","/","NA","NA","NA","NA","space","/","540","NA","NA","NA","NA","15590","540","2","legacy","1024","2","48000","-16","AB_m21","245","odd","CW_L","DEAFNESS","1922","105430","103722","96041","17524","NA","NA","NA","NA","NA","104223","NA","NA","NA","103221","NA","103193","1933","105680","NA","NA","NA","104263","1923","1923","NA","104803","104827","103193","104223","104243","morph21_Oliver/Morris","14","17229","20","yes","1920","39"
"400","71.42857142857143","71.42857142857143","844.4761904761905","844.4761904761905","black","no","xpyriment","legacy","legacy","0","201","NA","uniform","NA","NA","NA","1","undefined","1","0","20","20","20","0","20","20","20","NA","0","20","NA","NA","0","20","NA","20","0","20","NA","NA","NA","20","0","0","NA","20","20","20","20","20","21","/","Thu May  2 13:35:42 2024","The main experiment item","yes","m21-ab-lexicalDecision.osexp","C:\Users\ekealey\Desktop","no","mono","no","18","no","white","no","yes","1080","legacy","20","20","C:/Users/ekealey/Desktop/subject-245.csv","xpyriment","Lentiform Loewenfeld","3.3.11","0","/","NA","NA","NA","NA","space","/","505","NA","NA","NA","NA","15590","505","2","legacy","1024","2","48000","-16","AB_m21","245","odd","CW_S","DESIGN","1922","110423","107244","108919","17524","NA","NA","NA","NA","NA","107745","NA","NA","NA","106742","NA","106708","1933","110823","NA","NA","NA","107786","1923","1923","NA","108292","108316","106708","107745","107766","morph21_Oliver/Morris","15","17734","21","yes","1920","19"
"300","72.72727272727273","72.72727272727273","832.9545454545455","832.9545454545455","black","no","xpyriment","legacy","legacy","0","206","NA","uniform","NA","NA","NA","1","undefined","1","0","21","21","21","0","21","21","21","NA","0","21","NA","NA","0","21","NA","21","0","21","NA","NA","NA","21","0","0","NA","21","21","21","21","21","22","z","Thu May  2 13:35:42 2024","The main experiment item","yes","m21-ab-lexicalDecision.osexp","C:\Users\ekealey\Desktop","no","mono","no","18","no","white","no","yes","1080","legacy","21","21","C:/Users/ekealey/Desktop/subject-245.csv","xpyriment","Lentiform Loewenfeld","3.3.11","0","z","NA","NA","NA","NA","space","z","591","NA","NA","NA","NA","15590","591","2","legacy","1024","2","48000","-16","AB_m21","245","odd","NW_L_SIMP","BEANITH","1922","114159","112401","108919","17524","NA","NA","NA","NA","NA","112901","NA","NA","NA","111900","NA","111870","1933","114459","NA","NA","NA","112941","1923","1923","NA","113532","113556","111870","112901","112921","morph21_Oliver/Morris","16","18325","22","yes","1920","8"
"400","73.91304347826087","73.91304347826087","835.7826086956521","835.7826086956521","black","no","xpyriment","legacy","legacy","0","205","NA","uniform","NA","NA","NA","1","undefined","1","0","22","22","22","0","22","22","22","NA","0","22","NA","NA","0","22","NA","22","0","22","NA","NA","NA","22","0","0","NA","22","22","22","22","22","23","z","Thu May  2 13:35:42 2024","The main experiment item","yes","m21-ab-lexicalDecision.osexp","C:\Users\ekealey\Desktop","no","mono","no","18","no","white","no","yes","1080","legacy","22","22","C:/Users/ekealey/Desktop/subject-245.csv","xpyriment","Lentiform Loewenfeld","3.3.11","0","z","NA","NA","NA","NA","space","z","898","NA","NA","NA","NA","15590","898","2","legacy","1024","2","48000","-16","AB_m21","245","odd","NW_S_SIMP","ADVERTISELA","1922","118094","116028","108919","17524","NA","NA","NA","NA","NA","116528","NA","NA","NA","115526","NA","115498","1933","118495","NA","NA","NA","116569","1923","1923","NA","117467","117491","115498","116528","116549","morph21_Oliver/Morris","17","19223","23","yes","1920","25"
"250","75","75","827.0416666666666","827.0416666666666","black","no","xpyriment","legacy","legacy","0","201","NA","uniform","NA","NA","NA","1","undefined","1","0","23","23","23","0","23","23","23","NA","0","23","NA","NA","0","23","NA","23","0","23","NA","NA","NA","23","0","0","NA","23","23","23","23","23","24","/","Thu May  2 13:35:42 2024","The main experiment item","yes","m21-ab-lexicalDecision.osexp","C:\Users\ekealey\Desktop","no","mono","no","18","no","white","no","yes","1080","legacy","23","23","C:/Users/ekealey/Desktop/subject-245.csv","xpyriment","Lentiform Loewenfeld","3.3.11","0","/","NA","NA","NA","NA","space","/","626","NA","NA","NA","NA","15590","626","2","legacy","1024","2","48000","-16","AB_m21","245","odd","CW_S","AWARENESS","1922","123352","120051","121848","17524","NA","NA","NA","NA","NA","120553","NA","NA","NA","119549","NA","119522","1933","123602","NA","NA","NA","120593","1923","1923","NA","121220","121243","119522","120553","120573","morph21_Oliver/Morris","18","19849","24","yes","1920","44"
"350","76","76","824.96","824.96","black","no","xpyriment","legacy","legacy","0","208","NA","uniform","NA","NA","NA","1","undefined","1","0","24","24","24","0","24","24","24","NA","0","24","NA","NA","0","24","NA","24","0","24","NA","NA","NA","24","0","0","NA","24","24","24","24","24","25","z","Thu May  2 13:35:42 2024","The main experiment item","yes","m21-ab-lexicalDecision.osexp","C:\Users\ekealey\Desktop","no","mono","no","18","no","white","no","yes","1080","legacy","24","24","C:/Users/ekealey/Desktop/subject-245.csv","xpyriment","Lentiform Loewenfeld","3.3.11","0","z","NA","NA","NA","NA","space","z","775","NA","NA","NA","NA","15590","775","2","legacy","1024","2","48000","-16","AB_m21","245","odd","FILL_NW","KRAISE","1922","127137","125189","121848","17524","NA","NA","NA","NA","NA","125690","NA","NA","NA","124688","NA","124661","1933","127487","NA","NA","NA","125732","1923","1923","NA","126508","126533","124661","125690","125711","morph21_Oliver/Morris","19","20624","25","yes","1920","33"
"300","73.07692307692308","73.07692307692308","818.3461538461538","818.3461538461538","black","no","xpyriment","legacy","legacy","0","208","NA","uniform","NA","NA","NA","0","undefined","0","0","25","25","25","0","25","25","25","NA","0","25","NA","NA","0","25","NA","25","0","25","NA","NA","NA","25","0","0","NA","25","25","25","25","25","26","z","Thu May  2 13:35:42 2024","The main experiment item","yes","m21-ab-lexicalDecision.osexp","C:\Users\ekealey\Desktop","no","mono","no","18","no","white","no","yes","1080","legacy","25","25","C:/Users/ekealey/Desktop/subject-245.csv","xpyriment","Lentiform Loewenfeld","3.3.11","0","/","NA","NA","NA","NA","space","/","653","NA","NA","NA","NA","15590","653","2","legacy","1024","2","48000","-16","AB_m21","245","odd","FILL_NW","SCURE","1922","130881","129057","121848","17524","NA","NA","NA","NA","NA","129558","NA","NA","NA","128556","NA","128529","1933","131181","NA","NA","NA","129598","1923","1923","NA","130252","130277","128529","129557","129578","morph21_Oliver/Morris","19","21277","26","yes","1920","41"
"350","74.07407407407408","74.07407407407408","823.4444444444445","823.4444444444445","black","no","xpyriment","legacy","legacy","0","203","NA","uniform","NA","NA","NA","1","undefined","1","0","26","26","26","0","26","26","26","NA","0","26","NA","NA","0","26","NA","26","0","26","NA","NA","NA","26","0","0","NA","26","26","26","26","26","27","z","Thu May  2 13:35:42 2024","The main experiment item","yes","m21-ab-lexicalDecision.osexp","C:\Users\ekealey\Desktop","no","mono","no","18","no","white","no","yes","1080","legacy","26","26","C:/Users/ekealey/Desktop/subject-245.csv","xpyriment","Lentiform Loewenfeld","3.3.11","0","z","NA","NA","NA","NA","space","z","956","NA","NA","NA","NA","15590","956","2","legacy","1024","2","48000","-16","AB_m21","245","odd","NW_S_COMP","FIENDISM","1922","136386","132754","134881","17524","NA","NA","NA","NA","NA","133255","NA","NA","NA","132253","NA","132226","1933","136736","NA","NA","NA","133295","1923","1923","NA","134252","134276","132226","133255","133275","morph21_Oliver/Morris","20","22233","27","yes","1920","24"
"400","75","75","816.25","816.25","black","no","xpyriment","legacy","legacy","0","202","NA","uniform","NA","NA","NA","1","undefined","1","0","27","27","27","0","27","27","27","NA","0","27","NA","NA","0","27","NA","27","0","27","NA","NA","NA","27","0","0","NA","27","27","27","27","27","28","/","Thu May  2 13:35:42 2024","The main experiment item","yes","m21-ab-lexicalDecision.osexp","C:\Users\ekealey\Desktop","no","mono","no","18","no","white","no","yes","1080","legacy","27","27","C:/Users/ekealey/Desktop/subject-245.csv","xpyriment","Lentiform Loewenfeld","3.3.11","0","/","NA","NA","NA","NA","space","/","622","NA","NA","NA","NA","15590","622","2","legacy","1024","2","48000","-16","AB_m21","245","odd","CW_L","CONDUCTOR","1922","140122","138328","134881","17524","NA","NA","NA","NA","NA","138828","NA","NA","NA","137828","NA","137800","1933","140522","NA","NA","NA","138869","1923","1923","NA","139491","139516","137800","138828","138849","morph21_Oliver/Morris","21","22855","28","yes","1920","44"
"250","75.86206896551724","75.86206896551724","806.6551724137931","806.6551724137931","black","no","xpyriment","legacy","legacy","0","207","NA","uniform","NA","NA","NA","1","undefined","1","0","28","28","28","0","28","28","28","NA","0","28","NA","NA","0","28","NA","28","0","28","NA","NA","NA","28","0","0","NA","28","28","28","28","28","29","/","Thu May  2 13:35:42 2024","The main experiment item","yes","m21-ab-lexicalDecision.osexp","C:\Users\ekealey\Desktop","no","mono","no","18","no","white","no","yes","1080","legacy","28","28","C:/Users/ekealey/Desktop/subject-245.csv","xpyriment","Lentiform Loewenfeld","3.3.11","0","/","NA","NA","NA","NA","space","/","538","NA","NA","NA","NA","15590","538","2","legacy","1024","2","48000","-16","AB_m21","245","odd","FILL_W","COOK","1922","143794","142084","134881","17524","NA","NA","NA","NA","NA","142584","NA","NA","NA","141582","NA","141555","1933","144044","NA","NA","NA","142625","1923","1923","NA","143164","143190","141555","142584","142605","morph21_Oliver/Morris","22","23393","29","yes","1920","38"
"300","76.66666666666667","76.66666666666667","797.6","797.6","black","no","xpyriment","legacy","legacy","0","201","NA","uniform","NA","NA","NA","1","undefined","1","0","29","29","29","0","29","29","29","NA","0","29","NA","NA","0","29","NA","29","0","29","NA","NA","NA","29","0","0","NA","29","29","29","29","29","30","/","Thu May  2 13:35:42 2024","The main experiment item","yes","m21-ab-lexicalDecision.osexp","C:\Users\ekealey\Desktop","no","mono","no","18","no","white","no","yes","1080","legacy","29","29","C:/Users/ekealey/Desktop/subject-245.csv","xpyriment","Lentiform Loewenfeld","3.3.11","0","/","NA","NA","NA","NA","space","/","535","NA","NA","NA","NA","15590","535","2","legacy","1024","2","48000","-16","AB_m21","245","odd","CW_S","GUILTY","1922","148806","145599","147302","17524","NA","NA","NA","NA","NA","146099","NA","NA","NA","145099","NA","145070","1933","149106","NA","NA","NA","146140","1923","1923","NA","146676","146699","145070","146099","146120","morph21_Oliver/Morris","23","23928","30","yes","1920","34"
"350","77.41935483870968","77.41935483870968","792.4193548387096","792.4193548387096","black","no","xpyriment","legacy","legacy","0","205","NA","uniform","NA","NA","NA","1","undefined","1","0","30","30","30","0","30","30","30","NA","0","30","NA","NA","0","30","NA","30","0","30","NA","NA","NA","30","0","0","NA","30","30","30","30","30","31","z","Thu May  2 13:35:42 2024","The main experiment item","yes","m21-ab-lexicalDecision.osexp","C:\Users\ekealey\Desktop","no","mono","no","18","no","white","no","yes","1080","legacy","30","30","C:/Users/ekealey/Desktop/subject-245.csv","xpyriment","Lentiform Loewenfeld","3.3.11","0","z","NA","NA","NA","NA","space","z","637","NA","NA","NA","NA","15590","637","2","legacy","1024","2","48000","-16","AB_m21","245","odd","NW_S_SIMP","ACREMANT","1922","152482","150672","147302","17524","NA","NA","NA","NA","NA","151174","NA","NA","NA","150170","NA","150139","1933","152832","NA","NA","NA","151214","1923","1923","NA","151852","151877","150138","151173","151194","morph21_Oliver/Morris","24","24565","31","yes","1920","16"
"250","78.125","78.125","783.75","783.75","black","no","xpyriment","legacy","legacy","0","207","NA","uniform","NA","NA","NA","1","undefined","1","0","31","31","31","0","31","31","31","NA","0","31","NA","NA","0","31","NA","31","0","31","NA","NA","NA","31","0","0","NA","31","31","31","31","31","32","/","Thu May  2 13:35:42 2024","The main experiment item","yes","m21-ab-lexicalDecision.osexp","C:\Users\ekealey\Desktop","no","mono","no","18","no","white","no","yes","1080","legacy","31","31","C:/Users/ekealey/Desktop/subject-245.csv","xpyriment","Lentiform Loewenfeld","3.3.11","0","/","NA","NA","NA","NA","space","/","515","NA","NA","NA","NA","15590","515","2","legacy","1024","2","48000","-16","AB_m21","245","odd","FILL_W","STARVE","1922","156071","154387","147302","17524","NA","NA","NA","NA","NA","154888","NA","NA","NA","153886","NA","153859","1933","156321","NA","NA","NA","154928","1923","1923","NA","155444","155468","153859","154887","154908","morph21_Oliver/Morris","25","25080","32","yes","1920","15"
"300","78.78787878787878","78.78787878787878","777.2424242424242","777.2424242424242","black","no","xpyriment","legacy","legacy","0","204","NA","uniform","NA","NA","NA","1","undefined","1","0","32","32","32","0","32","32","32","NA","0","32","NA","NA","0","32","NA","32","0","32","NA","NA","NA","32","0","0","NA","32","32","32","32","32","33","z","Thu May  2 13:35:42 2024","The main experiment item","yes","m21-ab-lexicalDecision.osexp","C:\Users\ekealey\Desktop","no","mono","no","18","no","white","no","yes","1080","legacy","32","32","C:/Users/ekealey/Desktop/subject-245.csv","xpyriment","Lentiform Loewenfeld","3.3.11","0","z","NA","NA","NA","NA","space","z","569","NA","NA","NA","NA","15590","569","2","legacy","1024","2","48000","-16","AB_m21","245","odd","NW_L_COMP","BINDIC","1922","161112","157869","159607","17524","NA","NA","NA","NA","NA","158369","NA","NA","NA","157368","NA","157337","1933","161412","NA","NA","NA","158410","1923","1923","NA","158979","159003","157337","158369","158390","morph21_Oliver/Morris","26","25649","33","yes","1920","22"
"350","79.41176470588235","79.41176470588235","776.6764705882352","776.6764705882352","black","no","xpyriment","legacy","legacy","0","202","NA","uniform","NA","NA","NA","1","undefined","1","0","33","33","33","0","33","33","33","NA","0","33","NA","NA","0","33","NA","33","0","33","NA","NA","NA","33","0","0","NA","33","33","33","33","33","34","/","Thu May  2 13:35:42 2024","The main experiment item","yes","m21-ab-lexicalDecision.osexp","C:\Users\ekealey\Desktop","no","mono","no","18","no","white","no","yes","1080","legacy","33","33","C:/Users/ekealey/Desktop/subject-245.csv","xpyriment","Lentiform Loewenfeld","3.3.11","0","/","NA","NA","NA","NA","space","/","758","NA","NA","NA","NA","15590","758","2","legacy","1024","2","48000","-16","AB_m21","245","odd","CW_L","PARKING","1922","164945","163015","159607","17524","NA","NA","NA","NA","NA","163516","NA","NA","NA","162514","NA","162489","1933","165295","NA","NA","NA","163557","1923","1923","NA","164316","164340","162489","163516","163537","morph21_Oliver/Morris","27","26407","34","yes","1920","25"
"350","80","80","774.1714285714286","774.1714285714286","black","no","xpyriment","legacy","legacy","0","202","NA","uniform","NA","NA","NA","1","undefined","1","0","34","34","34","0","34","34","34","NA","0","34","NA","NA","0","34","NA","34","0","34","NA","NA","NA","34","0","0","NA","34","34","34","34","34","35","/","Thu May  2 13:35:42 2024","The main experiment item","yes","m21-ab-lexicalDecision.osexp","C:\Users\ekealey\Desktop","no","mono","no","18","no","white","no","yes","1080","legacy","34","34","C:/Users/ekealey/Desktop/subject-245.csv","xpyriment","Lentiform Loewenfeld","3.3.11","0","/","NA","NA","NA","NA","space","/","689","NA","NA","NA","NA","15590","689","2","legacy","1024","2","48000","-16","AB_m21","245","odd","CW_L","EDITOR","1922","168728","166869","159607","17524","NA","NA","NA","NA","NA","167370","NA","NA","NA","166369","NA","166336","1933","169078","NA","NA","NA","167410","1923","1923","NA","168100","168124","166336","167370","167390","morph21_Oliver/Morris","28","27096","35","yes","1920","45"
"300","80.55555555555556","80.55555555555556","767","767","black","no","xpyriment","legacy","legacy","0","201","NA","uniform","NA","NA","NA","1","undefined","1","0","35","35","35","0","35","35","35","NA","0","35","NA","NA","0","35","NA","35","0","35","NA","NA","NA","35","0","0","NA","35","35","35","35","35","36","/","Thu May  2 13:35:42 2024","The main experiment item","yes","m21-ab-lexicalDecision.osexp","C:\Users\ekealey\Desktop","no","mono","no","18","no","white","no","yes","1080","legacy","35","35","C:/Users/ekealey/Desktop/subject-245.csv","xpyriment","Lentiform Loewenfeld","3.3.11","0","/","NA","NA","NA","NA","space","/","516","NA","NA","NA","NA","15590","516","2","legacy","1024","2","48000","-16","AB_m21","245","odd","CW_S","RISKY","1922","173831","170642","172328","17524","NA","NA","NA","NA","NA","171142","NA","NA","NA","170142","NA","170117","1933","174131","NA","NA","NA","171183","1923","1923","NA","171699","171724","170117","171142","171163","morph21_Oliver/Morris","29","27612","36","yes","1920","50"
"200","81.08108108108108","81.08108108108108","766.7027027027027","766.7027027027027","black","no","xpyriment","legacy","legacy","0","203","NA","uniform","NA","NA","NA","1","undefined","1","0","36","36","36","0","36","36","36","NA","0","36","NA","NA","0","36","NA","36","0","36","NA","NA","NA","36","0","0","NA","36","36","36","36","36","37","z","Thu May  2 13:35:42 2024","The main experiment item","yes","m21-ab-lexicalDecision.osexp","C:\Users\ekealey\Desktop","no","mono","no","18","no","white","no","yes","1080","legacy","36","36","C:/Users/ekealey/Desktop/subject-245.csv","xpyriment","Lentiform Loewenfeld","3.3.11","0","z","NA","NA","NA","NA","space","z","756","NA","NA","NA","NA","15590","756","2","legacy","1024","2","48000","-16","AB_m21","245","odd","NW_S_COMP","MELTANCE","1922","177631","175706","172328","17524","NA","NA","NA","NA","NA","176206","NA","NA","NA","175206","NA","175176","1933","177832","NA","NA","NA","176247","1923","1923","NA","177004","177028","175176","176206","176227","morph21_Oliver/Morris","30","28368","37","yes","1920","1"
"400","78.94736842105263","78.94736842105263","776.3947368421053","776.3947368421053","black","no","xpyriment","legacy","legacy","0","205","NA","uniform","NA","NA","NA","0","undefined","0","0","37","37","37","0","37","37","37","NA","0","37","NA","NA","0","37","NA","37","0","37","NA","NA","NA","37","0","0","NA","37","37","37","37","37","38","z","Thu May  2 13:35:42 2024","The main experiment item","yes","m21-ab-lexicalDecision.osexp","C:\Users\ekealey\Desktop","no","mono","no","18","no","white","no","yes","1080","legacy","37","37","C:/Users/ekealey/Desktop/subject-245.csv","xpyriment","Lentiform Loewenfeld","3.3.11","0","/","NA","NA","NA","NA","space","/","1135","NA","NA","NA","NA","15590","1135","2","legacy","1024","2","48000","-16","AB_m21","245","odd","NW_S_SIMP","RAMPIME","1922","181687","179382","172328","17524","NA","NA","NA","NA","NA","179883","NA","NA","NA","178880","NA","178849","1933","182087","NA","NA","NA","179924","1923","1923","NA","181059","181084","178849","179883","179904","morph21_Oliver/Morris","30","29503","38","yes","1920","6"
"350","79.48717948717949","79.48717948717949","775.3846153846154","775.3846153846154","black","no","xpyriment","legacy","legacy","0","208","NA","uniform","NA","NA","NA","1","undefined","1","0","38","38","38","0","38","38","38","NA","0","38","NA","NA","0","38","NA","38","0","38","NA","NA","NA","38","0","0","NA","38","38","38","38","38","39","z","Thu May  2 13:35:42 2024","The main experiment item","yes","m21-ab-lexicalDecision.osexp","C:\Users\ekealey\Desktop","no","mono","no","18","no","white","no","yes","1080","legacy","38","38","C:/Users/ekealey/Desktop/subject-245.csv","xpyriment","Lentiform Loewenfeld","3.3.11","0","z","NA","NA","NA","NA","space","z","737","NA","NA","NA","NA","15590","737","2","legacy","1024","2","48000","-16","AB_m21","245","odd","FILL_NW","DELP","1922","187053","183644","185551","17524","NA","NA","NA","NA","NA","184146","NA","NA","NA","183142","NA","183116","1933","187404","NA","NA","NA","184186","1923","1923","NA","184923","184948","183116","184146","184166","morph21_Oliver/Morris","31","30240","39","yes","1920","14"
"400","80","80","770.65","770.65","black","no","xpyriment","legacy","legacy","0","207","NA","uniform","NA","NA","NA","1","undefined","1","0","39","39","39","0","39","39","39","NA","0","39","NA","NA","0","39","NA","39","0","39","NA","NA","NA","39","0","0","NA","39","39","39","39","39","40","/","Thu May  2 13:35:42 2024","The main experiment item","yes","m21-ab-lexicalDecision.osexp","C:\Users\ekealey\Desktop","no","mono","no","18","no","white","no","yes","1080","legacy","39","39","C:/Users/ekealey/Desktop/subject-245.csv","xpyriment","Lentiform Loewenfeld","3.3.11","0","/","NA","NA","NA","NA","space","/","586","NA","NA","NA","NA","15590","586","2","legacy","1024","2","48000","-16","AB_m21","245","odd","FILL_W","QUIT","1922","190704","188947","185551","17524","NA","NA","NA","NA","NA","189448","NA","NA","NA","188446","NA","188415","1933","191105","NA","NA","NA","189489","1923","1923","NA","190076","190101","188415","189448","189469","morph21_Oliver/Morris","32","30826","40","yes","1920","21"
"350","80.48780487804878","80.48780487804878","778.3658536585366","778.3658536585366","black","no","xpyriment","legacy","legacy","0","204","NA","uniform","NA","NA","NA","1","undefined","1","0","40","40","40","0","40","40","40","NA","0","40","NA","NA","0","40","NA","40","0","40","NA","NA","NA","40","0","0","NA","40","40","40","40","40","41","z","Thu May  2 13:35:42 2024","The main experiment item","yes","m21-ab-lexicalDecision.osexp","C:\Users\ekealey\Desktop","no","mono","no","18","no","white","no","yes","1080","legacy","40","40","C:/Users/ekealey/Desktop/subject-245.csv","xpyriment","Lentiform Loewenfeld","3.3.11","0","z","NA","NA","NA","NA","space","z","1087","NA","NA","NA","NA","15590","1087","2","legacy","1024","2","48000","-16","AB_m21","245","odd","NW_L_COMP","AGREELY","1922","194913","192655","185551","17524","NA","NA","NA","NA","NA","193155","NA","NA","NA","192155","NA","192128","1933","195263","NA","NA","NA","193196","1923","1923","NA","194283","194308","192128","193155","193176","morph21_Oliver/Morris","33","31913","41","yes","1920","24"
"250","80.95238095238095","80.95238095238095","782.9761904761905","782.9761904761905","black","no","xpyriment","legacy","legacy","0","201","NA","uniform","NA","NA","NA","1","undefined","1","0","41","41","41","0","41","41","41","NA","0","41","NA","NA","0","41","NA","41","0","41","NA","NA","NA","41","0","0","NA","41","41","41","41","41","42","/","Thu May  2 13:35:42 2024","The main experiment item","yes","m21-ab-lexicalDecision.osexp","C:\Users\ekealey\Desktop","no","mono","no","18","no","white","no","yes","1080","legacy","41","41","C:/Users/ekealey/Desktop/subject-245.csv","xpyriment","Lentiform Loewenfeld","3.3.11","0","/","NA","NA","NA","NA","space","/","972","NA","NA","NA","NA","15590","972","2","legacy","1024","2","48000","-16","AB_m21","245","odd","CW_S","MOSSY","1922","200482","196833","198976","17524","NA","NA","NA","NA","NA","197334","NA","NA","NA","196332","NA","196303","1933","200732","NA","NA","NA","197375","1923","1923","NA","198348","198371","196303","197334","197355","morph21_Oliver/Morris","34","32885","42","yes","1920","47"
"200","81.3953488372093","81.3953488372093","780","780","black","no","xpyriment","legacy","legacy","0","205","NA","uniform","NA","NA","NA","1","undefined","1","0","42","42","42","0","42","42","42","NA","0","42","NA","NA","0","42","NA","42","0","42","NA","NA","NA","42","0","0","NA","42","42","42","42","42","43","z","Thu May  2 13:35:42 2024","The main experiment item","yes","m21-ab-lexicalDecision.osexp","C:\Users\ekealey\Desktop","no","mono","no","18","no","white","no","yes","1080","legacy","42","42","C:/Users/ekealey/Desktop/subject-245.csv","xpyriment","Lentiform Loewenfeld","3.3.11","0","z","NA","NA","NA","NA","space","z","655","NA","NA","NA","NA","15590","655","2","legacy","1024","2","48000","-16","AB_m21","245","odd","NW_S_SIMP","GUMFIL","1922","204134","202309","198976","17524","NA","NA","NA","NA","NA","202811","NA","NA","NA","201808","NA","201783","1933","204335","NA","NA","NA","202851","1923","1923","NA","203507","203531","201783","202811","202831","morph21_Oliver/Morris","35","33540","43","yes","1920","2"
"200","81.81818181818181","81.81818181818181","775.3863636363636","775.3863636363636","black","no","xpyriment","legacy","legacy","0","201","NA","uniform","NA","NA","NA","1","undefined","1","0","43","43","43","0","43","43","43","NA","0","43","NA","NA","0","43","NA","43","0","43","NA","NA","NA","43","0","0","NA","43","43","43","43","43","44","/","Thu May  2 13:35:42 2024","The main experiment item","yes","m21-ab-lexicalDecision.osexp","C:\Users\ekealey\Desktop","no","mono","no","18","no","white","no","yes","1080","legacy","43","43","C:/Users/ekealey/Desktop/subject-245.csv","xpyriment","Lentiform Loewenfeld","3.3.11","0","/","NA","NA","NA","NA","space","/","577","NA","NA","NA","NA","15590","577","2","legacy","1024","2","48000","-16","AB_m21","245","odd","CW_S","LISTENER","1922","207630","205883","198976","17524","NA","NA","NA","NA","NA","206385","NA","NA","NA","205381","NA","205354","1933","207832","NA","NA","NA","206425","1923","1923","NA","207003","207027","205354","206385","206405","morph21_Oliver/Morris","36","34117","44","yes","1920","18"
"300","80","80","784.8222222222222","784.8222222222222","black","no","xpyriment","legacy","legacy","0","201","NA","uniform","NA","NA","NA","0","undefined","0","0","44","44","44","0","44","44","44","NA","0","44","NA","NA","0","44","NA","44","0","44","NA","NA","NA","44","0","0","NA","44","44","44","44","44","45","/","Thu May  2 13:35:42 2024","The main experiment item","yes","m21-ab-lexicalDecision.osexp","C:\Users\ekealey\Desktop","no","mono","no","18","no","white","no","yes","1080","legacy","44","44","C:/Users/ekealey/Desktop/subject-245.csv","xpyriment","Lentiform Loewenfeld","3.3.11","0","None","NA","NA","NA","NA","space","None","1200","NA","NA","NA","NA","15590","1200","2","legacy","1024","2","48000","-16","AB_m21","245","odd","CW_S","INSISTENT","1922","213267","209394","211763","17524","NA","NA","NA","NA","NA","209894","NA","NA","NA","208894","NA","208865","1933","213567","NA","NA","NA","209935","1923","1923","NA","211135","211159","208865","209894","209915","morph21_Oliver/Morris","36","35317","45","yes","1920","9"
"350","80.43478260869566","80.43478260869566","781.6739130434783","781.6739130434783","black","no","xpyriment","legacy","legacy","0","208","NA","uniform","NA","NA","NA","1","undefined","1","0","45","45","45","0","45","45","45","NA","0","45","NA","NA","0","45","NA","45","0","45","NA","NA","NA","45","0","0","NA","45","45","45","45","45","46","z","Thu May  2 13:35:42 2024","The main experiment item","yes","m21-ab-lexicalDecision.osexp","C:\Users\ekealey\Desktop","no","mono","no","18","no","white","no","yes","1080","legacy","45","45","C:/Users/ekealey/Desktop/subject-245.csv","xpyriment","Lentiform Loewenfeld","3.3.11","0","z","NA","NA","NA","NA","space","z","640","NA","NA","NA","NA","15590","640","2","legacy","1024","2","48000","-16","AB_m21","245","odd","FILL_NW","DASP","1922","216959","215148","211763","17524","NA","NA","NA","NA","NA","215649","NA","NA","NA","214647","NA","214622","1933","217309","NA","NA","NA","215690","1923","1923","NA","216331","216355","214622","215649","215670","morph21_Oliver/Morris","37","35957","46","yes","1920","13"
"300","78.72340425531915","78.72340425531915","781.8723404255319","781.8723404255319","black","no","xpyriment","legacy","legacy","0","202","NA","uniform","NA","NA","NA","0","undefined","0","0","46","46","46","0","46","46","46","NA","0","46","NA","NA","0","46","NA","46","0","46","NA","NA","NA","46","0","0","NA","46","46","46","46","46","47","/","Thu May  2 13:35:42 2024","The main experiment item","yes","m21-ab-lexicalDecision.osexp","C:\Users\ekealey\Desktop","no","mono","no","18","no","white","no","yes","1080","legacy","46","46","C:/Users/ekealey/Desktop/subject-245.csv","xpyriment","Lentiform Loewenfeld","3.3.11","0","z","NA","NA","NA","NA","space","z","791","NA","NA","NA","NA","15590","791","2","legacy","1024","2","48000","-16","AB_m21","245","odd","CW_L","WEEDY","1922","220816","218854","211763","17524","NA","NA","NA","NA","NA","219355","NA","NA","NA","218354","NA","218323","1933","221116","NA","NA","NA","219395","1923","1923","NA","220187","220213","218323","219355","219375","morph21_Oliver/Morris","37","36748","47","yes","1920","48"
"350","79.16666666666667","79.16666666666667","780","780","black","no","xpyriment","legacy","legacy","0","206","NA","uniform","NA","NA","NA","1","undefined","1","0","47","47","47","0","47","47","47","NA","0","47","NA","NA","0","47","NA","47","0","47","NA","NA","NA","47","0","0","NA","47","47","47","47","47","48","z","Thu May  2 13:35:42 2024","The main experiment item","yes","m21-ab-lexicalDecision.osexp","C:\Users\ekealey\Desktop","no","mono","no","18","no","white","no","yes","1080","legacy","47","47","C:/Users/ekealey/Desktop/subject-245.csv","xpyriment","Lentiform Loewenfeld","3.3.11","0","z","NA","NA","NA","NA","space","z","692","NA","NA","NA","NA","15590","692","2","legacy","1024","2","48000","-16","AB_m21","245","odd","NW_L_SIMP","WITCHITH","1922","226031","222666","224527","17524","NA","NA","NA","NA","NA","223166","NA","NA","NA","222166","NA","222135","1933","226381","NA","NA","NA","223207","1923","1923","NA","223899","223923","222135","223166","223187","morph21_Oliver/Morris","38","37440","48","yes","1920","11"
"350","79.59183673469387","79.59183673469387","784.204081632653","784.204081632653","black","no","xpyriment","legacy","legacy","0","202","NA","uniform","NA","NA","NA","1","undefined","1","0","48","48","48","0","48","48","48","NA","0","48","NA","NA","0","48","NA","48","0","48","NA","NA","NA","48","0","0","NA","48","48","48","48","48","49","/","Thu May  2 13:35:42 2024","The main experiment item","yes","m21-ab-lexicalDecision.osexp","C:\Users\ekealey\Desktop","no","mono","no","18","no","white","no","yes","1080","legacy","48","48","C:/Users/ekealey/Desktop/subject-245.csv","xpyriment","Lentiform Loewenfeld","3.3.11","0","/","NA","NA","NA","NA","space","/","986","NA","NA","NA","NA","15590","986","2","legacy","1024","2","48000","-16","AB_m21","245","odd","CW_L","BARKER","1922","230094","227939","224527","17524","NA","NA","NA","NA","NA","228439","NA","NA","NA","227438","NA","227405","1933","230445","NA","NA","NA","228480","1923","1923","NA","229467","229491","227405","228439","228460","morph21_Oliver/Morris","39","38426","49","yes","1920","2"
"350","80","80","779.74","779.74","black","no","xpyriment","legacy","legacy","0","201","NA","uniform","NA","NA","NA","1","undefined","1","0","49","49","49","0","49","49","49","NA","0","49","NA","NA","0","49","NA","49","0","49","NA","NA","NA","49","0","0","NA","49","49","49","49","49","50","/","Thu May  2 13:35:42 2024","The main experiment item","yes","m21-ab-lexicalDecision.osexp","C:\Users\ekealey\Desktop","no","mono","no","18","no","white","no","yes","1080","legacy","49","49","C:/Users/ekealey/Desktop/subject-245.csv","xpyriment","Lentiform Loewenfeld","3.3.11","0","/","NA","NA","NA","NA","space","/","561","NA","NA","NA","NA","15590","561","2","legacy","1024","2","48000","-16","AB_m21","245","odd","CW_S","TOASTER","1922","233713","231981","224527","17524","NA","NA","NA","NA","NA","232482","NA","NA","NA","231479","NA","231452","1933","234063","NA","NA","NA","232522","1923","1923","NA","233083","233108","231452","232482","232502","morph21_Oliver/Morris","40","38987","50","yes","1920","10"
"200","80.3921568627451","80.3921568627451","776.4117647058823","776.4117647058823","black","no","xpyriment","legacy","legacy","0","207","NA","uniform","NA","NA","NA","1","undefined","1","0","50","50","50","0","50","50","50","NA","0","50","NA","NA","0","50","NA","50","0","50","NA","NA","NA","50","0","0","NA","50","50","50","50","50","51","/","Thu May  2 13:35:42 2024","The main experiment item","yes","m21-ab-lexicalDecision.osexp","C:\Users\ekealey\Desktop","no","mono","no","18","no","white","no","yes","1080","legacy","50","50","C:/Users/ekealey/Desktop/subject-245.csv","xpyriment","Lentiform Loewenfeld","3.3.11","0","/","NA","NA","NA","NA","space","/","610","NA","NA","NA","NA","15590","610","2","legacy","1024","2","48000","-16","AB_m21","245","odd","FILL_W","TAX","1922","238893","235610","237390","17524","NA","NA","NA","NA","NA","236111","NA","NA","NA","235107","NA","235079","1933","239094","NA","NA","NA","236152","1923","1923","NA","236763","236786","235079","236111","236132","morph21_Oliver/Morris","41","39597","51","yes","1920","45"
"350","80.76923076923077","80.76923076923077","775.1538461538462","775.1538461538462","black","no","xpyriment","legacy","legacy","0","201","NA","uniform","NA","NA","NA","1","undefined","1","0","51","51","51","0","51","51","51","NA","0","51","NA","NA","0","51","NA","51","0","51","NA","NA","NA","51","0","0","NA","51","51","51","51","51","52","/","Thu May  2 13:35:42 2024","The main experiment item","yes","m21-ab-lexicalDecision.osexp","C:\Users\ekealey\Desktop","no","mono","no","18","no","white","no","yes","1080","legacy","51","51","C:/Users/ekealey/Desktop/subject-245.csv","xpyriment","Lentiform Loewenfeld","3.3.11","0","/","NA","NA","NA","NA","space","/","711","NA","NA","NA","NA","15590","711","2","legacy","1024","2","48000","-16","AB_m21","245","odd","CW_S","STRANGENESS","1922","242528","240646","237390","17524","NA","NA","NA","NA","NA","241147","NA","NA","NA","240145","NA","240114","1933","242878","NA","NA","NA","241188","1923","1923","NA","241899","241924","240114","241147","241168","morph21_Oliver/Morris","42","40308","52","yes","1920","46"
"300","81.13207547169812","81.13207547169812","770.1320754716982","770.1320754716982","black","no","xpyriment","legacy","legacy","0","207","NA","uniform","NA","NA","NA","1","undefined","1","0","52","52","52","0","52","52","52","NA","0","52","NA","NA","0","52","NA","52","0","52","NA","NA","NA","52","0","0","NA","52","52","52","52","52","53","/","Thu May  2 13:35:42 2024","The main experiment item","yes","m21-ab-lexicalDecision.osexp","C:\Users\ekealey\Desktop","no","mono","no","18","no","white","no","yes","1080","legacy","52","52","C:/Users/ekealey/Desktop/subject-245.csv","xpyriment","Lentiform Loewenfeld","3.3.11","0","/","NA","NA","NA","NA","space","/","509","NA","NA","NA","NA","15590","509","2","legacy","1024","2","48000","-16","AB_m21","245","odd","FILL_W","SICK","1922","246114","244433","237390","17524","NA","NA","NA","NA","NA","244934","NA","NA","NA","243933","NA","243904","1933","246414","NA","NA","NA","244974","1923","1923","NA","245484","245509","243904","244934","244954","morph21_Oliver/Morris","43","40817","53","yes","1920","36"
"300","81.48148148148148","81.48148148148148","772.1111111111111","772.1111111111111","black","no","xpyriment","legacy","legacy","0","205","NA","uniform","NA","NA","NA","1","undefined","1","0","53","53","53","0","53","53","53","NA","0","53","NA","NA","0","53","NA","53","0","53","NA","NA","NA","53","0","0","NA","53","53","53","53","53","54","z","Thu May  2 13:35:42 2024","The main experiment item","yes","m21-ab-lexicalDecision.osexp","C:\Users\ekealey\Desktop","no","mono","no","18","no","white","no","yes","1080","legacy","53","53","C:/Users/ekealey/Desktop/subject-245.csv","xpyriment","Lentiform Loewenfeld","3.3.11","0","z","NA","NA","NA","NA","space","z","877","NA","NA","NA","NA","15590","877","2","legacy","1024","2","48000","-16","AB_m21","245","odd","NW_S_SIMP","HELMETOES","1922","251523","247968","250017","17524","NA","NA","NA","NA","NA","248469","NA","NA","NA","247468","NA","247435","1933","251823","NA","NA","NA","248510","1923","1923","NA","249387","249412","247435","248469","248490","morph21_Oliver/Morris","44","41694","54","yes","1920","14"
"350","81.81818181818181","81.81818181818181","772.1636363636363","772.1636363636363","black","no","xpyriment","legacy","legacy","0","203","NA","uniform","NA","NA","NA","1","undefined","1","0","54","54","54","0","54","54","54","NA","0","54","NA","NA","0","54","NA","54","0","54","NA","NA","NA","54","0","0","NA","54","54","54","54","54","55","z","Thu May  2 13:35:42 2024","The main experiment item","yes","m21-ab-lexicalDecision.osexp","C:\Users\ekealey\Desktop","no","mono","no","18","no","white","no","yes","1080","legacy","54","54","C:/Users/ekealey/Desktop/subject-245.csv","xpyriment","Lentiform Loewenfeld","3.3.11","0","z","NA","NA","NA","NA","space","z","775","NA","NA","NA","NA","15590","775","2","legacy","1024","2","48000","-16","AB_m21","245","odd","NW_S_COMP","WELDIC","1922","255359","253414","250017","17524","NA","NA","NA","NA","NA","253915","NA","NA","NA","252914","NA","252887","1933","255709","NA","NA","NA","253955","1923","1923","NA","254731","254755","252887","253915","253935","morph21_Oliver/Morris","45","42469","55","yes","1920","21"
"200","82.14285714285714","82.14285714285714","771.8928571428571","771.8928571428571","black","no","xpyriment","legacy","legacy","0","201","NA","uniform","NA","NA","NA","1","undefined","1","0","55","55","55","0","55","55","55","NA","0","55","NA","NA","0","55","NA","55","0","55","NA","NA","NA","55","0","0","NA","55","55","55","55","55","56","/","Thu May  2 13:35:42 2024","The main experiment item","yes","m21-ab-lexicalDecision.osexp","C:\Users\ekealey\Desktop","no","mono","no","18","no","white","no","yes","1080","legacy","55","55","C:/Users/ekealey/Desktop/subject-245.csv","xpyriment","Lentiform Loewenfeld","3.3.11","0","/","NA","NA","NA","NA","space","/","757","NA","NA","NA","NA","15590","757","2","legacy","1024","2","48000","-16","AB_m21","245","odd","CW_S","LOCALLY","1922","259192","257265","250017","17524","NA","NA","NA","NA","NA","257766","NA","NA","NA","256765","NA","256733","1933","259392","NA","NA","NA","257806","1923","1923","NA","258564","258588","256733","257765","257786","morph21_Oliver/Morris","46","43226","56","yes","1920","37"
"300","82.45614035087719","82.45614035087719","770.6315789473684","770.6315789473684","black","no","xpyriment","legacy","legacy","0","208","NA","uniform","NA","NA","NA","1","undefined","1","0","56","56","56","0","56","56","56","NA","0","56","NA","NA","0","56","NA","56","0","56","NA","NA","NA","56","0","0","NA","56","56","56","56","56","57","z","Thu May  2 13:35:42 2024","The main experiment item","yes","m21-ab-lexicalDecision.osexp","C:\Users\ekealey\Desktop","no","mono","no","18","no","white","no","yes","1080","legacy","56","56","C:/Users/ekealey/Desktop/subject-245.csv","xpyriment","Lentiform Loewenfeld","3.3.11","0","z","NA","NA","NA","NA","space","z","700","NA","NA","NA","NA","15590","700","2","legacy","1024","2","48000","-16","AB_m21","245","odd","FILL_NW","BAFED","1922","264328","260952","262825","17524","NA","NA","NA","NA","NA","261454","NA","NA","NA","260449","NA","260423","1933","264628","NA","NA","NA","261494","1923","1923","NA","262195","262221","260423","261453","261474","morph21_Oliver/Morris","47","43926","57","yes","1920","1"
"350","82.75862068965517","82.75862068965517","768.7931034482758","768.7931034482758","black","no","xpyriment","legacy","legacy","0","207","NA","uniform","NA","NA","NA","1","undefined","1","0","57","57","57","0","57","57","57","NA","0","57","NA","NA","0","57","NA","57","0","57","NA","NA","NA","57","0","0","NA","57","57","57","57","57","58","/","Thu May  2 13:35:42 2024","The main experiment item","yes","m21-ab-lexicalDecision.osexp","C:\Users\ekealey\Desktop","no","mono","no","18","no","white","no","yes","1080","legacy","57","57","C:/Users/ekealey/Desktop/subject-245.csv","xpyriment","Lentiform Loewenfeld","3.3.11","0","/","NA","NA","NA","NA","space","/","664","NA","NA","NA","NA","15590","664","2","legacy","1024","2","48000","-16","AB_m21","245","odd","FILL_W","BRISK","1922","268168","266333","262825","17524","NA","NA","NA","NA","NA","266833","NA","NA","NA","265832","NA","265802","1933","268518","NA","NA","NA","266875","1923","1923","NA","267540","267565","265802","266833","266855","morph21_Oliver/Morris","48","44590","58","yes","1920","8"
"200","83.05084745762711","83.05084745762711","767.271186440678","767.271186440678","black","no","xpyriment","legacy","legacy","0","207","NA","uniform","NA","NA","NA","1","undefined","1","0","58","58","58","0","58","58","58","NA","0","58","NA","NA","0","58","NA","58","0","58","NA","NA","NA","58","0","0","NA","58","58","58","58","58","59","/","Thu May  2 13:35:42 2024","The main experiment item","yes","m21-ab-lexicalDecision.osexp","C:\Users\ekealey\Desktop","no","mono","no","18","no","white","no","yes","1080","legacy","58","58","C:/Users/ekealey/Desktop/subject-245.csv","xpyriment","Lentiform Loewenfeld","3.3.11","0","/","NA","NA","NA","NA","space","/","679","NA","NA","NA","NA","15590","679","2","legacy","1024","2","48000","-16","AB_m21","245","odd","FILL_W","WRECK","1922","272022","270172","262825","17524","NA","NA","NA","NA","NA","270674","NA","NA","NA","269670","NA","269638","1933","272222","NA","NA","NA","270715","1923","1923","NA","271395","271419","269638","270674","270695","morph21_Oliver/Morris","49","45269","59","yes","1920","13"
"200","83.33333333333333","83.33333333333333","764.25","764.25","black","no","xpyriment","legacy","legacy","0","208","NA","uniform","NA","NA","NA","1","undefined","1","0","59","59","59","0","59","59","59","NA","0","59","NA","NA","0","59","NA","59","0","59","NA","NA","NA","59","0","0","NA","59","59","59","59","59","60","z","Thu May  2 13:35:42 2024","The main experiment item","yes","m21-ab-lexicalDecision.osexp","C:\Users\ekealey\Desktop","no","mono","no","18","no","white","no","yes","1080","legacy","59","59","C:/Users/ekealey/Desktop/subject-245.csv","xpyriment","Lentiform Loewenfeld","3.3.11","0","z","NA","NA","NA","NA","space","z","586","NA","NA","NA","NA","15590","586","2","legacy","1024","2","48000","-16","AB_m21","245","odd","FILL_NW","SMADE","1922","277142","273882","275638","17524","NA","NA","NA","NA","NA","274384","NA","NA","NA","273380","NA","273352","1933","277342","NA","NA","NA","274424","1923","1923","NA","275011","275035","273352","274384","274404","morph21_Oliver/Morris","50","45855","60","yes","1920","42"
"350","83.60655737704919","83.60655737704919","761.2295081967213","761.2295081967213","black","no","xpyriment","legacy","legacy","0","201","NA","uniform","NA","NA","NA","1","undefined","1","0","60","60","60","0","60","60","60","NA","0","60","NA","NA","0","60","NA","60","0","60","NA","NA","NA","60","0","0","NA","60","60","60","60","60","61","/","Thu May  2 13:35:42 2024","The main experiment item","yes","m21-ab-lexicalDecision.osexp","C:\Users\ekealey\Desktop","no","mono","no","18","no","white","no","yes","1080","legacy","60","60","C:/Users/ekealey/Desktop/subject-245.csv","xpyriment","Lentiform Loewenfeld","3.3.11","0","/","NA","NA","NA","NA","space","/","580","NA","NA","NA","NA","15590","580","2","legacy","1024","2","48000","-16","AB_m21","245","odd","CW_S","DENSELY","1922","280775","279025","275638","17524","NA","NA","NA","NA","NA","279525","NA","NA","NA","278525","NA","278497","1933","281125","NA","NA","NA","279566","1923","1923","NA","280147","280171","278497","279525","279546","morph21_Oliver/Morris","51","46435","61","yes","1920","32"
"400","83.87096774193549","83.87096774193549","766.3548387096774","766.3548387096774","black","no","xpyriment","legacy","legacy","0","205","NA","uniform","NA","NA","NA","1","undefined","1","0","61","61","61","0","61","61","61","NA","0","61","NA","NA","0","61","NA","61","0","61","NA","NA","NA","61","0","0","NA","61","61","61","61","61","62","z","Thu May  2 13:35:42 2024","The main experiment item","yes","m21-ab-lexicalDecision.osexp","C:\Users\ekealey\Desktop","no","mono","no","18","no","white","no","yes","1080","legacy","61","61","C:/Users/ekealey/Desktop/subject-245.csv","xpyriment","Lentiform Loewenfeld","3.3.11","0","z","NA","NA","NA","NA","space","z","1079","NA","NA","NA","NA","15590","1079","2","legacy","1024","2","48000","-16","AB_m21","245","odd","NW_S_SIMP","MEDICALADY","1922","285042","282791","275638","17524","NA","NA","NA","NA","NA","283291","NA","NA","NA","282289","NA","282261","1933","285442","NA","NA","NA","283332","1923","1923","NA","284412","284437","282261","283291","283312","morph21_Oliver/Morris","52","47514","62","yes","1920","18"
"250","84.12698412698413","84.12698412698413","764.5555555555555","764.5555555555555","black","no","xpyriment","legacy","legacy","0","207","NA","uniform","NA","NA","NA","1","undefined","1","0","62","62","62","0","62","62","62","NA","0","62","NA","NA","0","62","NA","62","0","62","NA","NA","NA","62","0","0","NA","62","62","62","62","62","63","/","Thu May  2 13:35:42 2024","The main experiment item","yes","m21-ab-lexicalDecision.osexp","C:\Users\ekealey\Desktop","no","mono","no","18","no","white","no","yes","1080","legacy","62","62","C:/Users/ekealey/Desktop/subject-245.csv","xpyriment","Lentiform Loewenfeld","3.3.11","0","/","NA","NA","NA","NA","space","/","653","NA","NA","NA","NA","15590","653","2","legacy","1024","2","48000","-16","AB_m21","245","odd","FILL_W","FIERCE","1922","290358","287034","288855","17524","NA","NA","NA","NA","NA","287534","NA","NA","NA","286533","NA","286503","1933","290608","NA","NA","NA","287574","1923","1923","NA","288227","288252","286503","287534","287554","morph21_Oliver/Morris","53","48167","63","yes","1920","24"
"300","84.375","84.375","763.921875","763.921875","black","no","xpyriment","legacy","legacy","0","204","NA","uniform","NA","NA","NA","1","undefined","1","0","63","63","63","0","63","63","63","NA","0","63","NA","NA","0","63","NA","63","0","63","NA","NA","NA","63","0","0","NA","63","63","63","63","63","64","z","Thu May  2 13:35:42 2024","The main experiment item","yes","m21-ab-lexicalDecision.osexp","C:\Users\ekealey\Desktop","no","mono","no","18","no","white","no","yes","1080","legacy","63","63","C:/Users/ekealey/Desktop/subject-245.csv","xpyriment","Lentiform Loewenfeld","3.3.11","0","z","NA","NA","NA","NA","space","z","724","NA","NA","NA","NA","15590","724","2","legacy","1024","2","48000","-16","AB_m21","245","odd","NW_L_COMP","KINGISM","1922","294090","292192","288855","17524","NA","NA","NA","NA","NA","292692","NA","NA","NA","291692","NA","291663","1933","294390","NA","NA","NA","292734","1923","1923","NA","293459","293486","291663","292692","292713","morph21_Oliver/Morris","54","48891","64","yes","1920","19"
"250","84.61538461538461","84.61538461538461","759.9692307692308","759.9692307692308","black","no","xpyriment","legacy","legacy","0","207","NA","uniform","NA","NA","NA","1","undefined","1","0","64","64","64","0","64","64","64","NA","0","64","NA","NA","0","64","NA","64","0","64","NA","NA","NA","64","0","0","NA","64","64","64","64","64","65","/","Thu May  2 13:35:42 2024","The main experiment item","yes","m21-ab-lexicalDecision.osexp","C:\Users\ekealey\Desktop","no","mono","no","18","no","white","no","yes","1080","legacy","64","64","C:/Users/ekealey/Desktop/subject-245.csv","xpyriment","Lentiform Loewenfeld","3.3.11","0","/","NA","NA","NA","NA","space","/","507","NA","NA","NA","NA","15590","507","2","legacy","1024","2","48000","-16","AB_m21","245","odd","FILL_W","SLIM","1922","297617","295939","288855","17524","NA","NA","NA","NA","NA","296439","NA","NA","NA","295438","NA","295404","1933","297867","NA","NA","NA","296480","1923","1923","NA","296988","297013","295404","296439","296460","morph21_Oliver/Morris","55","49398","65","yes","1920","6"
"400","84.84848484848484","84.84848484848484","759.8181818181819","759.8181818181819","black","no","xpyriment","legacy","legacy","0","208","NA","uniform","NA","NA","NA","1","undefined","1","0","65","65","65","0","65","65","65","NA","0","65","NA","NA","0","65","NA","65","0","65","NA","NA","NA","65","0","0","NA","65","65","65","65","65","66","z","Thu May  2 13:35:42 2024","The main experiment item","yes","m21-ab-lexicalDecision.osexp","C:\Users\ekealey\Desktop","no","mono","no","18","no","white","no","yes","1080","legacy","65","65","C:/Users/ekealey/Desktop/subject-245.csv","xpyriment","Lentiform Loewenfeld","3.3.11","0","z","NA","NA","NA","NA","space","z","750","NA","NA","NA","NA","15590","750","2","legacy","1024","2","48000","-16","AB_m21","245","odd","FILL_NW","VELT","1922","302856","299431","301351","17524","NA","NA","NA","NA","NA","299931","NA","NA","NA","298931","NA","298902","1933","303256","NA","NA","NA","299972","1923","1923","NA","300723","300748","298901","299931","299952","morph21_Oliver/Morris","56","50148","66","yes","1920","46"
"200","85.07462686567165","85.07462686567165","759.5373134328358","759.5373134328358","black","no","xpyriment","legacy","legacy","0","208","NA","uniform","NA","NA","NA","1","undefined","1","0","66","66","66","0","66","66","66","NA","0","66","NA","NA","0","66","NA","66","0","66","NA","NA","NA","66","0","0","NA","66","66","66","66","66","67","z","Thu May  2 13:35:42 2024","The main experiment item","yes","m21-ab-lexicalDecision.osexp","C:\Users\ekealey\Desktop","no","mono","no","18","no","white","no","yes","1080","legacy","66","66","C:/Users/ekealey/Desktop/subject-245.csv","xpyriment","Lentiform Loewenfeld","3.3.11","0","z","NA","NA","NA","NA","space","z","741","NA","NA","NA","NA","15590","741","2","legacy","1024","2","48000","-16","AB_m21","245","odd","FILL_NW","DARM","1922","306712","304800","301351","17524","NA","NA","NA","NA","NA","305300","NA","NA","NA","304300","NA","304267","1933","306912","NA","NA","NA","305341","1923","1923","NA","306083","306108","304267","305300","305321","morph21_Oliver/Morris","57","50889","67","yes","1920","11"
"400","85.29411764705883","85.29411764705883","761.3382352941177","761.3382352941177","black","no","xpyriment","legacy","legacy","0","208","NA","uniform","NA","NA","NA","1","undefined","1","0","67","67","67","0","67","67","67","NA","0","67","NA","NA","0","67","NA","67","0","67","NA","NA","NA","67","0","0","NA","67","67","67","67","67","68","z","Thu May  2 13:35:42 2024","The main experiment item","yes","m21-ab-lexicalDecision.osexp","C:\Users\ekealey\Desktop","no","mono","no","18","no","white","no","yes","1080","legacy","67","67","C:/Users/ekealey/Desktop/subject-245.csv","xpyriment","Lentiform Loewenfeld","3.3.11","0","z","NA","NA","NA","NA","space","z","882","NA","NA","NA","NA","15590","882","2","legacy","1024","2","48000","-16","AB_m21","245","odd","FILL_NW","BORMS","1922","310586","308530","301351","17524","NA","NA","NA","NA","NA","309031","NA","NA","NA","308030","NA","308001","1933","310986","NA","NA","NA","309072","1923","1923","NA","309955","309981","308001","309031","309052","morph21_Oliver/Morris","58","51771","68","yes","1920","50"
"350","85.5072463768116","85.5072463768116","760.1884057971015","760.1884057971015","black","no","xpyriment","legacy","legacy","0","202","NA","uniform","NA","NA","NA","1","undefined","1","0","68","68","68","0","68","68","68","NA","0","68","NA","NA","0","68","NA","68","0","68","NA","NA","NA","68","0","0","NA","68","68","68","68","68","69","/","Thu May  2 13:35:42 2024","The main experiment item","yes","m21-ab-lexicalDecision.osexp","C:\Users\ekealey\Desktop","no","mono","no","18","no","white","no","yes","1080","legacy","68","68","C:/Users/ekealey/Desktop/subject-245.csv","xpyriment","Lentiform Loewenfeld","3.3.11","0","/","NA","NA","NA","NA","space","/","682","NA","NA","NA","NA","15590","682","2","legacy","1024","2","48000","-16","AB_m21","245","odd","CW_L","BOMBER","1922","315902","312547","314399","17524","NA","NA","NA","NA","NA","313049","NA","NA","NA","312044","NA","312020","1933","316253","NA","NA","NA","313089","1923","1923","NA","313771","313795","312020","313049","313069","morph21_Oliver/Morris","59","52453","69","yes","1920","7"
"400","85.71428571428571","85.71428571428571","760.1428571428571","760.1428571428571","black","no","xpyriment","legacy","legacy","0","202","NA","uniform","NA","NA","NA","1","undefined","1","0","69","69","69","0","69","69","69","NA","0","69","NA","NA","0","69","NA","69","0","69","NA","NA","NA","69","0","0","NA","69","69","69","69","69","70","/","Thu May  2 13:35:42 2024","The main experiment item","yes","m21-ab-lexicalDecision.osexp","C:\Users\ekealey\Desktop","no","mono","no","18","no","white","no","yes","1080","legacy","69","69","C:/Users/ekealey/Desktop/subject-245.csv","xpyriment","Lentiform Loewenfeld","3.3.11","0","/","NA","NA","NA","NA","space","/","757","NA","NA","NA","NA","15590","757","2","legacy","1024","2","48000","-16","AB_m21","245","odd","CW_L","BLINDNESS","1922","319726","317800","314399","17524","NA","NA","NA","NA","NA","318300","NA","NA","NA","317299","NA","317266","1933","320126","NA","NA","NA","318341","1923","1923","NA","319099","319123","317266","318300","318321","morph21_Oliver/Morris","60","53210","70","yes","1920","40"
"300","84.50704225352112","84.50704225352112","758.8028169014085","758.8028169014085","black","no","xpyriment","legacy","legacy","0","202","NA","uniform","NA","NA","NA","0","undefined","0","0","70","70","70","0","70","70","70","NA","0","70","NA","NA","0","70","NA","70","0","70","NA","NA","NA","70","0","0","NA","70","70","70","70","70","71","/","Thu May  2 13:35:42 2024","The main experiment item","yes","m21-ab-lexicalDecision.osexp","C:\Users\ekealey\Desktop","no","mono","no","18","no","white","no","yes","1080","legacy","70","70","C:/Users/ekealey/Desktop/subject-245.csv","xpyriment","Lentiform Loewenfeld","3.3.11","0","z","NA","NA","NA","NA","space","z","665","NA","NA","NA","NA","15590","665","2","legacy","1024","2","48000","-16","AB_m21","245","odd","CW_L","DAMPISH","1922","323535","321700","314399","17524","NA","NA","NA","NA","NA","322200","NA","NA","NA","321200","NA","321171","1933","323835","NA","NA","NA","322241","1923","1923","NA","322907","322931","321171","322200","322221","morph21_Oliver/Morris","60","53875","71","yes","1920","28"
"200","84.72222222222223","84.72222222222223","755.2083333333334","755.2083333333334","black","no","xpyriment","legacy","legacy","0","207","NA","uniform","NA","NA","NA","1","undefined","1","0","71","71","71","0","71","71","71","NA","0","71","NA","NA","0","71","NA","71","0","71","NA","NA","NA","71","0","0","NA","71","71","71","71","71","72","/","Thu May  2 13:35:42 2024","The main experiment item","yes","m21-ab-lexicalDecision.osexp","C:\Users\ekealey\Desktop","no","mono","no","18","no","white","no","yes","1080","legacy","71","71","C:/Users/ekealey/Desktop/subject-245.csv","xpyriment","Lentiform Loewenfeld","3.3.11","0","/","NA","NA","NA","NA","space","/","500","NA","NA","NA","NA","15590","500","2","legacy","1024","2","48000","-16","AB_m21","245","odd","FILL_W","FLESH","1922","328575","325402","327071","17524","NA","NA","NA","NA","NA","325902","NA","NA","NA","324900","NA","324872","1933","328775","NA","NA","NA","325942","1923","1923","NA","326443","326468","324872","325902","325922","morph21_Oliver/Morris","61","54375","72","yes","1920","32"
"200","84.93150684931507","84.93150684931507","751.7945205479452","751.7945205479452","black","no","xpyriment","legacy","legacy","0","207","NA","uniform","NA","NA","NA","1","undefined","1","0","72","72","72","0","72","72","72","NA","0","72","NA","NA","0","72","NA","72","0","72","NA","NA","NA","72","0","0","NA","72","72","72","72","72","73","/","Thu May  2 13:35:42 2024","The main experiment item","yes","m21-ab-lexicalDecision.osexp","C:\Users\ekealey\Desktop","no","mono","no","18","no","white","no","yes","1080","legacy","72","72","C:/Users/ekealey/Desktop/subject-245.csv","xpyriment","Lentiform Loewenfeld","3.3.11","0","/","NA","NA","NA","NA","space","/","506","NA","NA","NA","NA","15590","506","2","legacy","1024","2","48000","-16","AB_m21","245","odd","FILL_W","SAVE","1922","332005","330331","327071","17524","NA","NA","NA","NA","NA","330831","NA","NA","NA","329830","NA","329801","1933","332205","NA","NA","NA","330872","1923","1923","NA","331379","331402","329801","330831","330852","morph21_Oliver/Morris","62","54881","73","yes","1920","46"
"350","85.13513513513513","85.13513513513513","748.1351351351351","748.1351351351351","black","no","xpyriment","legacy","legacy","0","201","NA","uniform","NA","NA","NA","1","undefined","1","0","73","73","73","0","73","73","73","NA","0","73","NA","NA","0","73","NA","73","0","73","NA","NA","NA","73","0","0","NA","73","73","73","73","73","74","/","Thu May  2 13:35:42 2024","The main experiment item","yes","m21-ab-lexicalDecision.osexp","C:\Users\ekealey\Desktop","no","mono","no","18","no","white","no","yes","1080","legacy","73","73","C:/Users/ekealey/Desktop/subject-245.csv","xpyriment","Lentiform Loewenfeld","3.3.11","0","/","NA","NA","NA","NA","space","/","481","NA","NA","NA","NA","15590","481","2","legacy","1024","2","48000","-16","AB_m21","245","odd","CW_S","BOSSY","1922","335417","333765","327071","17524","NA","NA","NA","NA","NA","334265","NA","NA","NA","333264","NA","333236","1933","335768","NA","NA","NA","334306","1923","1923","NA","334787","334813","333235","334265","334286","morph21_Oliver/Morris","63","55362","74","yes","1920","49"
"200","85.33333333333333","85.33333333333333","744.12","744.12","black","no","xpyriment","legacy","legacy","0","201","NA","uniform","NA","NA","NA","undefined","undefined","1","0","74","74","74","0","74","74","74","NA","0","74","NA","NA","0","74","NA","74","0","74","NA","NA","NA","74","0","0","NA","74","74","74","74","74","75","/","Thu May  2 13:35:42 2024","The main experiment item","yes","m21-ab-lexicalDecision.osexp","C:\Users\ekealey\Desktop","no","mono","no","18","no","white","no","yes","1080","legacy","74","74","C:/Users/ekealey/Desktop/subject-245.csv","xpyriment","Lentiform Loewenfeld","3.3.11","0","space","space","NA","NA","NA","space","/","41759","41759","NA","NA","NA","15590","447","2","legacy","1024","2","48000","-16","AB_m21","245","odd","CW_S","ENJOYMENT","1922","340438","337317","338934","17524","340643","NA","NA","NA","NA","337818","NA","NA","NA","336817","NA","336790","1933","382403","NA","NA","NA","337859","1923","1923","NA","338307","338331","336790","337818","337839","morph21_Oliver/Morris","64","55809","75","yes","1920","40"
"250","84.21052631578948","84.21052631578948","750.1184210526316","750.1184210526316","black","no","xpyriment","legacy","legacy","0","203","NA","uniform","NA","NA","NA","0","undefined","0","0","75","75","75","0","75","75","75","NA","0","75","NA","NA","0","75","NA","75","0","75","NA","NA","NA","75","0","0","NA","75","75","75","75","75","76","z","Thu May  2 13:35:42 2024","The main experiment item","yes","m21-ab-lexicalDecision.osexp","C:\Users\ekealey\Desktop","no","mono","no","18","no","white","no","yes","1080","legacy","75","75","C:/Users/ekealey/Desktop/subject-245.csv","xpyriment","Lentiform Loewenfeld","3.3.11","0","None","space","NA","NA","NA","space","None","1200","41759","NA","NA","NA","15590","1200","2","legacy","1024","2","48000","-16","AB_m21","245","odd","NW_S_COMP","LIDARY","1922","386329","383963","338934","17524","340643","NA","NA","NA","NA","384463","NA","NA","NA","383463","NA","383427","1933","386579","NA","NA","NA","384503","1923","1923","NA","385703","385726","383427","384463","384483","morph21_Oliver/Morris","64","57009","76","yes","1920","3"
"350","84.41558441558442","84.41558441558442","748.1818181818181","748.1818181818181","black","no","xpyriment","legacy","legacy","0","208","NA","uniform","NA","NA","NA","1","undefined","1","0","76","76","76","0","76","76","76","NA","0","76","NA","NA","0","76","NA","76","0","76","NA","NA","NA","76","0","0","NA","76","76","76","76","76","77","z","Thu May  2 13:35:42 2024","The main experiment item","yes","m21-ab-lexicalDecision.osexp","C:\Users\ekealey\Desktop","no","mono","no","18","no","white","no","yes","1080","legacy","76","76","C:/Users/ekealey/Desktop/subject-245.csv","xpyriment","Lentiform Loewenfeld","3.3.11","0","z","space","NA","NA","NA","space","z","601","41759","NA","NA","NA","15590","601","2","legacy","1024","2","48000","-16","AB_m21","245","odd","FILL_NW","JADS","1922","389902","388132","338934","17524","340643","NA","NA","NA","NA","388632","NA","NA","NA","387631","NA","387599","1933","390252","NA","NA","NA","388673","1923","1923","NA","389275","389299","387598","388632","388653","morph21_Oliver/Morris","65","57610","77","yes","1920","31"
"250","84.61538461538461","84.61538461538461","745.7179487179487","745.7179487179487","black","no","xpyriment","legacy","legacy","0","201","NA","uniform","NA","NA","NA","1","undefined","1","0","77","77","77","0","77","77","77","NA","0","77","NA","NA","0","77","NA","77","0","77","NA","NA","NA","77","0","0","NA","77","77","77","77","77","78","/","Thu May  2 13:35:42 2024","The main experiment item","yes","m21-ab-lexicalDecision.osexp","C:\Users\ekealey\Desktop","no","mono","no","18","no","white","no","yes","1080","legacy","77","77","C:/Users/ekealey/Desktop/subject-245.csv","xpyriment","Lentiform Loewenfeld","3.3.11","0","/","space","NA","NA","NA","space","/","556","41759","NA","NA","NA","15590","556","2","legacy","1024","2","48000","-16","AB_m21","245","odd","CW_S","PLANNER","1922","395029","391801","393526","17524","340643","NA","NA","NA","NA","392301","NA","NA","NA","391301","NA","391273","1933","395279","NA","NA","NA","392342","1923","1923","NA","392899","392923","391273","392301","392322","morph21_Oliver/Morris","66","58166","78","yes","1920","22"
"300","84.81012658227849","84.81012658227849","744.0126582278481","744.0126582278481","black","no","xpyriment","legacy","legacy","0","206","NA","uniform","NA","NA","NA","1","undefined","1","0","78","78","78","0","78","78","78","NA","0","78","NA","NA","0","78","NA","78","0","78","NA","NA","NA","78","0","0","NA","78","78","78","78","78","79","z","Thu May  2 13:35:42 2024","The main experiment item","yes","m21-ab-lexicalDecision.osexp","C:\Users\ekealey\Desktop","no","mono","no","18","no","white","no","yes","1080","legacy","78","78","C:/Users/ekealey/Desktop/subject-245.csv","xpyriment","Lentiform Loewenfeld","3.3.11","0","z","space","NA","NA","NA","space","z","611","41759","NA","NA","NA","15590","611","2","legacy","1024","2","48000","-16","AB_m21","245","odd","NW_L_SIMP","BANDADY","1922","398618","396834","393526","17524","340643","NA","NA","NA","NA","397334","NA","NA","NA","396334","NA","396303","1933","398918","NA","NA","NA","397375","1923","1923","NA","397987","398013","396303","397334","397355","morph21_Oliver/Morris","67","58777","79","yes","1920","3"
"300","85","85","742.0125","742.0125","black","no","xpyriment","legacy","legacy","0","206","NA","uniform","NA","NA","NA","1","undefined","1","0","79","79","79","0","79","79","79","NA","0","79","NA","NA","0","79","NA","79","0","79","NA","NA","NA","79","0","0","NA","79","79","79","79","79","80","z","Thu May  2 13:35:42 2024","The main experiment item","yes","m21-ab-lexicalDecision.osexp","C:\Users\ekealey\Desktop","no","mono","no","18","no","white","no","yes","1080","legacy","79","79","C:/Users/ekealey/Desktop/subject-245.csv","xpyriment","Lentiform Loewenfeld","3.3.11","0","z","space","NA","NA","NA","space","z","584","41759","NA","NA","NA","15590","584","2","legacy","1024","2","48000","-16","AB_m21","245","odd","NW_L_SIMP","ELBOWILM","1922","402231","400475","393526","17524","340643","NA","NA","NA","NA","400977","NA","NA","NA","399975","NA","399949","1933","402531","NA","NA","NA","401018","1923","1923","NA","401603","401628","399949","400977","400998","morph21_Oliver/Morris","68","59361","80","yes","1920","10"
"200","85.18518518518519","85.18518518518519","741.8765432098766","741.8765432098766","black","no","xpyriment","legacy","legacy","0","202","NA","uniform","NA","NA","NA","1","undefined","1","0","80","80","80","0","80","80","80","NA","0","80","NA","NA","0","80","NA","80","0","80","NA","NA","NA","80","0","0","NA","80","80","80","80","80","81","/","Thu May  2 13:35:42 2024","The main experiment item","yes","m21-ab-lexicalDecision.osexp","C:\Users\ekealey\Desktop","no","mono","no","18","no","white","no","yes","1080","legacy","80","80","C:/Users/ekealey/Desktop/subject-245.csv","xpyriment","Lentiform Loewenfeld","3.3.11","0","/","space","NA","NA","NA","space","/","731","41759","NA","NA","NA","15590","731","2","legacy","1024","2","48000","-16","AB_m21","245","odd","CW_L","BOOTLESS","1922","407486","404081","405984","17524","340643","NA","NA","NA","NA","404582","NA","NA","NA","403579","NA","403553","1933","407686","NA","NA","NA","404623","1923","1923","NA","405355","405381","403553","404582","404603","morph21_Oliver/Morris","69","60092","81","yes","1920","32"
"200","85.36585365853658","85.36585365853658","741.3048780487804","741.3048780487804","black","no","xpyriment","legacy","legacy","0","208","NA","uniform","NA","NA","NA","1","undefined","1","0","81","81","81","0","81","81","81","NA","0","81","NA","NA","0","81","NA","81","0","81","NA","NA","NA","81","0","0","NA","81","81","81","81","81","82","z","Thu May  2 13:35:42 2024","The main experiment item","yes","m21-ab-lexicalDecision.osexp","C:\Users\ekealey\Desktop","no","mono","no","18","no","white","no","yes","1080","legacy","81","81","C:/Users/ekealey/Desktop/subject-245.csv","xpyriment","Lentiform Loewenfeld","3.3.11","0","z","space","NA","NA","NA","space","z","695","41759","NA","NA","NA","15590","695","2","legacy","1024","2","48000","-16","AB_m21","245","odd","FILL_NW","BROUPS","1922","411118","409254","405984","17524","340643","NA","NA","NA","NA","409755","NA","NA","NA","408754","NA","408721","1933","411318","NA","NA","NA","409795","1923","1923","NA","410491","410515","408721","409755","409775","morph21_Oliver/Morris","70","60787","82","yes","1920","4"
"250","85.5421686746988","85.5421686746988","742.6746987951807","742.6746987951807","black","no","xpyriment","legacy","legacy","0","201","NA","uniform","NA","NA","NA","1","undefined","1","0","82","82","82","0","82","82","82","NA","0","82","NA","NA","0","82","NA","82","0","82","NA","NA","NA","82","0","0","NA","82","82","82","82","82","83","/","Thu May  2 13:35:42 2024","The main experiment item","yes","m21-ab-lexicalDecision.osexp","C:\Users\ekealey\Desktop","no","mono","no","18","no","white","no","yes","1080","legacy","82","82","C:/Users/ekealey/Desktop/subject-245.csv","xpyriment","Lentiform Loewenfeld","3.3.11","0","/","space","NA","NA","NA","space","/","855","41759","NA","NA","NA","15590","855","2","legacy","1024","2","48000","-16","AB_m21","245","odd","CW_S","JAILER","1922","414889","412862","405984","17524","340643","NA","NA","NA","NA","413363","NA","NA","NA","412362","NA","412330","1933","415139","NA","NA","NA","413403","1923","1923","NA","414258","414285","412330","413363","413383","morph21_Oliver/Morris","71","61642","83","yes","1920","13"
"300","85.71428571428571","85.71428571428571","740.1309523809524","740.1309523809524","black","no","xpyriment","legacy","legacy","0","207","NA","uniform","NA","NA","NA","1","undefined","1","0","83","83","83","0","83","83","83","NA","0","83","NA","NA","0","83","NA","83","0","83","NA","NA","NA","83","0","0","NA","83","83","83","83","83","84","/","Thu May  2 13:35:42 2024","The main experiment item","yes","m21-ab-lexicalDecision.osexp","C:\Users\ekealey\Desktop","no","mono","no","18","no","white","no","yes","1080","legacy","83","83","C:/Users/ekealey/Desktop/subject-245.csv","xpyriment","Lentiform Loewenfeld","3.3.11","0","/","space","NA","NA","NA","space","/","529","41759","NA","NA","NA","15590","529","2","legacy","1024","2","48000","-16","AB_m21","245","odd","FILL_W","BLUNT","1922","419925","416724","418422","17524","340643","NA","NA","NA","NA","417224","NA","NA","NA","416224","NA","416197","1933","420226","NA","NA","NA","417265","1923","1923","NA","417795","417819","416197","417224","417245","morph21_Oliver/Morris","72","62171","84","yes","1920","4"
"350","85.88235294117646","85.88235294117646","737.2470588235294","737.2470588235294","black","no","xpyriment","legacy","legacy","0","207","NA","uniform","NA","NA","NA","1","undefined","1","0","84","84","84","0","84","84","84","NA","0","84","NA","NA","0","84","NA","84","0","84","NA","NA","NA","84","0","0","NA","84","84","84","84","84","85","/","Thu May  2 13:35:42 2024","The main experiment item","yes","m21-ab-lexicalDecision.osexp","C:\Users\ekealey\Desktop","no","mono","no","18","no","white","no","yes","1080","legacy","84","84","C:/Users/ekealey/Desktop/subject-245.csv","xpyriment","Lentiform Loewenfeld","3.3.11","0","/","space","NA","NA","NA","space","/","495","41759","NA","NA","NA","15590","495","2","legacy","1024","2","48000","-16","AB_m21","245","odd","FILL_W","LEAK","1922","423470","421806","418422","17524","340643","NA","NA","NA","NA","422307","NA","NA","NA","421305","NA","421265","1933","423820","NA","NA","NA","422347","1923","1923","NA","422843","422867","421265","422307","422327","morph21_Oliver/Morris","73","62666","85","yes","1920","9"
"200","86.04651162790698","86.04651162790698","737.7790697674419","737.7790697674419","black","no","xpyriment","legacy","legacy","0","203","NA","uniform","NA","NA","NA","1","undefined","1","0","85","85","85","0","85","85","85","NA","0","85","NA","NA","0","85","NA","85","0","85","NA","NA","NA","85","0","0","NA","85","85","85","85","85","86","z","Thu May  2 13:35:42 2024","The main experiment item","yes","m21-ab-lexicalDecision.osexp","C:\Users\ekealey\Desktop","no","mono","no","18","no","white","no","yes","1080","legacy","85","85","C:/Users/ekealey/Desktop/subject-245.csv","xpyriment","Lentiform Loewenfeld","3.3.11","0","z","space","NA","NA","NA","space","z","783","41759","NA","NA","NA","15590","783","2","legacy","1024","2","48000","-16","AB_m21","245","odd","NW_S_COMP","DUMBITY","1922","427318","425366","418422","17524","340643","NA","NA","NA","NA","425866","NA","NA","NA","424865","NA","424833","1933","427518","NA","NA","NA","425907","1923","1923","NA","426690","426715","424833","425866","425887","morph21_Oliver/Morris","74","63449","86","yes","1920","12"
"200","86.20689655172414","86.20689655172414","738.735632183908","738.735632183908","black","no","xpyriment","legacy","legacy","0","208","NA","uniform","NA","NA","NA","1","undefined","1","0","86","86","86","0","86","86","86","NA","0","86","NA","NA","0","86","NA","86","0","86","NA","NA","NA","86","0","0","NA","86","86","86","86","86","87","z","Thu May  2 13:35:42 2024","The main experiment item","yes","m21-ab-lexicalDecision.osexp","C:\Users\ekealey\Desktop","no","mono","no","18","no","white","no","yes","1080","legacy","86","86","C:/Users/ekealey/Desktop/subject-245.csv","xpyriment","Lentiform Loewenfeld","3.3.11","0","z","space","NA","NA","NA","space","z","821","41759","NA","NA","NA","15590","821","2","legacy","1024","2","48000","-16","AB_m21","245","odd","FILL_NW","TUEER","1922","432584","429088","431078","17524","340643","NA","NA","NA","NA","429588","NA","NA","NA","428587","NA","428560","1933","432784","NA","NA","NA","429629","1923","1923","NA","430451","430474","428559","429588","429609","morph21_Oliver/Morris","75","64270","87","yes","1920","44"
"200","86.36363636363636","86.36363636363636","737.1704545454545","737.1704545454545","black","no","xpyriment","legacy","legacy","0","208","NA","uniform","NA","NA","NA","1","undefined","1","0","87","87","87","0","87","87","87","NA","0","87","NA","NA","0","87","NA","87","0","87","NA","NA","NA","87","0","0","NA","87","87","87","87","87","88","z","Thu May  2 13:35:42 2024","The main experiment item","yes","m21-ab-lexicalDecision.osexp","C:\Users\ekealey\Desktop","no","mono","no","18","no","white","no","yes","1080","legacy","87","87","C:/Users/ekealey/Desktop/subject-245.csv","xpyriment","Lentiform Loewenfeld","3.3.11","0","z","space","NA","NA","NA","space","z","601","41759","NA","NA","NA","15590","601","2","legacy","1024","2","48000","-16","AB_m21","245","odd","FILL_NW","PORDS","1922","436223","434451","431078","17524","340643","NA","NA","NA","NA","434952","NA","NA","NA","433950","NA","433920","1933","436423","NA","NA","NA","434993","1923","1923","NA","435595","435620","433920","434952","434973","morph21_Oliver/Morris","76","64871","88","yes","1920","39"
"200","85.3932584269663","85.3932584269663","734.5168539325842","734.5168539325842","black","no","xpyriment","legacy","legacy","0","208","NA","uniform","NA","NA","NA","0","undefined","0","0","88","88","88","0","88","88","88","NA","0","88","NA","NA","0","88","NA","88","0","88","NA","NA","NA","88","0","0","NA","88","88","88","88","88","89","z","Thu May  2 13:35:42 2024","The main experiment item","yes","m21-ab-lexicalDecision.osexp","C:\Users\ekealey\Desktop","no","mono","no","18","no","white","no","yes","1080","legacy","88","88","C:/Users/ekealey/Desktop/subject-245.csv","xpyriment","Lentiform Loewenfeld","3.3.11","0","/","space","NA","NA","NA","space","/","501","41759","NA","NA","NA","15590","501","2","legacy","1024","2","48000","-16","AB_m21","245","odd","FILL_NW","FALONS","1922","439696","438021","431078","17524","340643","NA","NA","NA","NA","438523","NA","NA","NA","437519","NA","437493","1933","439896","NA","NA","NA","438565","1923","1923","NA","439066","439093","437493","438523","438544","morph21_Oliver/Morris","76","65372","89","yes","1920","19"
"250","85.55555555555556","85.55555555555556","731.5111111111111","731.5111111111111","black","no","xpyriment","legacy","legacy","0","207","NA","uniform","NA","NA","NA","1","undefined","1","0","89","89","89","0","89","89","89","NA","0","89","NA","NA","0","89","NA","89","0","89","NA","NA","NA","89","0","0","NA","89","89","89","89","89","90","/","Thu May  2 13:35:42 2024","The main experiment item","yes","m21-ab-lexicalDecision.osexp","C:\Users\ekealey\Desktop","no","mono","no","18","no","white","no","yes","1080","legacy","89","89","C:/Users/ekealey/Desktop/subject-245.csv","xpyriment","Lentiform Loewenfeld","3.3.11","0","/","space","NA","NA","NA","space","/","464","41759","NA","NA","NA","15590","464","2","legacy","1024","2","48000","-16","AB_m21","245","odd","FILL_W","TREAT","1922","444623","441485","443120","17524","340643","NA","NA","NA","NA","441986","NA","NA","NA","440984","NA","440958","1933","444873","NA","NA","NA","442026","1923","1923","NA","442491","442515","440958","441986","442006","morph21_Oliver/Morris","77","65836","90","yes","1920","48"
"300","84.61538461538461","84.61538461538461","735.8241758241758","735.8241758241758","black","no","xpyriment","legacy","legacy","0","204","NA","uniform","NA","NA","NA","0","undefined","0","0","90","90","90","0","90","90","90","NA","0","90","NA","NA","0","90","NA","90","0","90","NA","NA","NA","90","0","0","NA","90","90","90","90","90","91","z","Thu May  2 13:35:42 2024","The main experiment item","yes","m21-ab-lexicalDecision.osexp","C:\Users\ekealey\Desktop","no","mono","no","18","no","white","no","yes","1080","legacy","90","90","C:/Users/ekealey/Desktop/subject-245.csv","xpyriment","Lentiform Loewenfeld","3.3.11","0","/","space","NA","NA","NA","space","/","1124","41759","NA","NA","NA","15590","1124","2","legacy","1024","2","48000","-16","AB_m21","245","odd","NW_L_COMP","ILLIST","1922","448734","446440","443120","17524","340643","NA","NA","NA","NA","446942","NA","NA","NA","445939","NA","445914","1933","449034","NA","NA","NA","446982","1923","1923","NA","448107","448130","445914","446942","446962","morph21_Oliver/Morris","77","66960","91","yes","1920","9"
"250","84.78260869565217","84.78260869565217","738.0434782608696","738.0434782608696","black","no","xpyriment","legacy","legacy","0","201","NA","uniform","NA","NA","NA","1","undefined","1","0","91","91","91","0","91","91","91","NA","0","91","NA","NA","0","91","NA","91","0","91","NA","NA","NA","91","0","0","NA","91","91","91","91","91","92","/","Thu May  2 13:35:42 2024","The main experiment item","yes","m21-ab-lexicalDecision.osexp","C:\Users\ekealey\Desktop","no","mono","no","18","no","white","no","yes","1080","legacy","91","91","C:/Users/ekealey/Desktop/subject-245.csv","xpyriment","Lentiform Loewenfeld","3.3.11","0","/","space","NA","NA","NA","space","/","940","41759","NA","NA","NA","15590","940","2","legacy","1024","2","48000","-16","AB_m21","245","odd","CW_S","GRIMLY","1922","452695","450585","443120","17524","340643","NA","NA","NA","NA","451086","NA","NA","NA","450084","NA","450058","1933","452945","NA","NA","NA","451126","1923","1923","NA","452067","452090","450058","451086","451106","morph21_Oliver/Morris","78","67900","92","yes","1920","31"
"200","84.94623655913979","84.94623655913979","740.3440860215054","740.3440860215054","black","no","xpyriment","legacy","legacy","0","202","NA","uniform","NA","NA","NA","1","undefined","1","0","92","92","92","0","92","92","92","NA","0","92","NA","NA","0","92","NA","92","0","92","NA","NA","NA","92","0","0","NA","92","92","92","92","92","93","/","Thu May  2 13:35:42 2024","The main experiment item","yes","m21-ab-lexicalDecision.osexp","C:\Users\ekealey\Desktop","no","mono","no","18","no","white","no","yes","1080","legacy","92","92","C:/Users/ekealey/Desktop/subject-245.csv","xpyriment","Lentiform Loewenfeld","3.3.11","0","/","space","NA","NA","NA","space","/","952","41759","NA","NA","NA","15590","952","2","legacy","1024","2","48000","-16","AB_m21","245","odd","CW_L","BONELESS","1922","458115","454484","456608","17524","340643","NA","NA","NA","NA","454985","NA","NA","NA","453982","NA","453953","1933","458315","NA","NA","NA","455026","1923","1923","NA","455979","456003","453953","454985","455006","morph21_Oliver/Morris","79","68852","93","yes","1920","34"
