"ITI","acc","accuracy","average_response_time","avg_rt","background","bidi","canvas_backend","clock_backend","color_backend","compensation","cond_trig","condtrigtime","coordinates","coroutines_cycles","coroutines_duration","coroutines_mean_cycle_duration","correct","correct_instructions_1","correct_new_keyboard_response_1","count_AB_m21","count_ITI","count_blank_screen","count_blink_screen","count_block1","count_break1","count_break2","count_break3_1","count_canvas","count_close_port","count_cond_trigger","count_correct_trigger","count_def_chain","count_end_screen","count_fixation_1","count_getting_started","count_inc_counter","count_instructions_1","count_logger","count_logscript","count_new_inline_script","count_new_inline_script_2","count_new_keyboard_response_1","count_open_port","count_reset_counter_prep","count_reset_counter_run","count_response_trigger_trial","count_responsescreen","count_sequence","count_target_present","count_word_trigger","counter","cresp","datetime","description","disable_garbage_collection","experiment_file","experiment_path","font_bold","font_family","font_italic","font_size","font_underline","foreground","form_clicks","fullscreen","height","keyboard_backend","live_row","live_row_block1","logfile","mouse_backend","opensesame_codename","opensesame_version","repeat_cycle","response","response_break1","response_break2","response_break3_1","response_end_screen","response_instructions_1","response_new_keyboard_response_1","response_time","response_time_break1","response_time_break2","response_time_break3_1","response_time_end_screen","response_time_instructions_1","response_time_new_keyboard_response_1","round_decimals","sampler_backend","sound_buf_size","sound_channels","sound_freq","sound_sample_size","start","subject_nr","subject_parity","targ_type","target","time_AB_m21","time_ITI","time_blank_screen","time_blink_screen","time_block1","time_break1","time_break2","time_break3_1","time_canvas","time_close_port","time_cond_trigger","time_correct_trigger","time_def_chain","time_end_screen","time_fixation_1","time_getting_started","time_inc_counter","time_instructions_1","time_logger","time_logscript","time_new_inline_script","time_new_inline_script_2","time_new_keyboard_response_1","time_open_port","time_reset_counter_prep","time_reset_counter_run","time_response_trigger_trial","time_responsescreen","time_sequence","time_target_present","time_word_trigger","title","total_correct","total_response_time","total_responses","uniform_coordinates","width","word_trig"
"350","0","0","1200","1200","black","no","xpyriment","legacy","legacy","0","204","NA","uniform","NA","NA","NA","0","undefined","0","0","0","0","0","0","0","0","0","NA","0","0","NA","NA","0","0","NA","0","0","0","NA","NA","NA","0","0","0","NA","0","0","0","0","0","1","z","Wed Oct 18 15:48:51 2023","The main experiment item","yes","m21-ab-lexicalDecision.osexp","C:\Users\ekealey\Desktop","no","mono","no","18","no","white","no","yes","1080","legacy","0","0","C:/Users/ekealey/Desktop/subject-223.csv","xpyriment","Lentiform Loewenfeld","3.3.11","0","None","NA","NA","NA","NA","space","None","1200","NA","NA","NA","NA","43759","1200","2","legacy","1024","2","48000","-16","AB_m21","223","odd","NW_L_COMP","MOUTHIZE","1881","49967","47595","NA","45653","NA","NA","NA","NA","NA","48097","NA","NA","NA","47094","NA","47063","1893","50317","NA","NA","NA","48138","1881","1881","NA","49338","49363","47062","48097","48118","morph21_Oliver/Morris","0","1200","1","yes","1920","11"
"200","0","0","1200","1200","black","no","xpyriment","legacy","legacy","0","208","NA","uniform","NA","NA","NA","0","undefined","0","0","1","1","1","0","1","1","1","NA","0","1","NA","NA","0","1","NA","1","0","1","NA","NA","NA","1","0","0","NA","1","1","1","1","1","2","z","Wed Oct 18 15:48:51 2023","The main experiment item","yes","m21-ab-lexicalDecision.osexp","C:\Users\ekealey\Desktop","no","mono","no","18","no","white","no","yes","1080","legacy","1","1","C:/Users/ekealey/Desktop/subject-223.csv","xpyriment","Lentiform Loewenfeld","3.3.11","0","None","NA","NA","NA","NA","space","None","1200","NA","NA","NA","NA","43759","1200","2","legacy","1024","2","48000","-16","AB_m21","223","odd","FILL_NW","GILN","1881","54270","51899","NA","45653","NA","NA","NA","NA","NA","52399","NA","NA","NA","51398","NA","51370","1893","54470","NA","NA","NA","52440","1881","1881","NA","53640","53666","51370","52399","52420","morph21_Oliver/Morris","0","2400","2","yes","1920","25"
"350","0","0","1011.6666666666666","1011.6666666666666","black","no","xpyriment","legacy","legacy","0","207","NA","uniform","NA","NA","NA","0","undefined","0","0","2","2","2","0","2","2","2","NA","0","2","NA","NA","0","2","NA","2","0","2","NA","NA","NA","2","0","0","NA","2","2","2","2","2","3","/","Wed Oct 18 15:48:51 2023","The main experiment item","yes","m21-ab-lexicalDecision.osexp","C:\Users\ekealey\Desktop","no","mono","no","18","no","white","no","yes","1080","legacy","2","2","C:/Users/ekealey/Desktop/subject-223.csv","xpyriment","Lentiform Loewenfeld","3.3.11","0","z","NA","NA","NA","NA","space","z","635","NA","NA","NA","NA","43759","635","2","legacy","1024","2","48000","-16","AB_m21","223","odd","FILL_W","BRISK","1881","59351","56044","57848","45653","NA","NA","NA","NA","NA","56544","NA","NA","NA","55543","NA","55515","1893","59701","NA","NA","NA","56585","1881","1881","NA","57221","57245","55515","56544","56565","morph21_Oliver/Morris","0","3035","3","yes","1920","8"
"250","25","25","866.25","866.25","black","no","xpyriment","legacy","legacy","0","207","NA","uniform","NA","NA","NA","1","undefined","1","0","3","3","3","0","3","3","3","NA","0","3","NA","NA","0","3","NA","3","0","3","NA","NA","NA","3","0","0","NA","3","3","3","3","3","4","/","Wed Oct 18 15:48:51 2023","The main experiment item","yes","m21-ab-lexicalDecision.osexp","C:\Users\ekealey\Desktop","no","mono","no","18","no","white","no","yes","1080","legacy","3","3","C:/Users/ekealey/Desktop/subject-223.csv","xpyriment","Lentiform Loewenfeld","3.3.11","0","/","NA","NA","NA","NA","space","/","430","NA","NA","NA","NA","43759","430","2","legacy","1024","2","48000","-16","AB_m21","223","odd","FILL_W","WEAVE","1881","62888","61288","57848","45653","NA","NA","NA","NA","NA","61790","NA","NA","NA","60787","NA","60762","1893","63138","NA","NA","NA","61830","1881","1881","NA","62260","62284","60762","61790","61810","morph21_Oliver/Morris","1","3465","4","yes","1920","12"
"400","20","20","876.6","876.6","black","no","xpyriment","legacy","legacy","0","208","NA","uniform","NA","NA","NA","0","undefined","0","0","4","4","4","0","4","4","4","NA","0","4","NA","NA","0","4","NA","4","0","4","NA","NA","NA","4","0","0","NA","4","4","4","4","4","5","z","Wed Oct 18 15:48:51 2023","The main experiment item","yes","m21-ab-lexicalDecision.osexp","C:\Users\ekealey\Desktop","no","mono","no","18","no","white","no","yes","1080","legacy","4","4","C:/Users/ekealey/Desktop/subject-223.csv","xpyriment","Lentiform Loewenfeld","3.3.11","0","/","NA","NA","NA","NA","space","/","918","NA","NA","NA","NA","43759","918","2","legacy","1024","2","48000","-16","AB_m21","223","odd","FILL_NW","VELT","1881","66783","64694","57848","45653","NA","NA","NA","NA","NA","65195","NA","NA","NA","64193","NA","64169","1893","67183","NA","NA","NA","65237","1881","1881","NA","66156","66180","64169","65195","65217","morph21_Oliver/Morris","1","4383","5","yes","1920","46"
"250","33.333333333333336","33.333333333333336","814.8333333333334","814.8333333333334","black","no","xpyriment","legacy","legacy","0","207","NA","uniform","NA","NA","NA","1","undefined","1","0","5","5","5","0","5","5","5","NA","0","5","NA","NA","0","5","NA","5","0","5","NA","NA","NA","5","0","0","NA","5","5","5","5","5","6","/","Wed Oct 18 15:48:51 2023","The main experiment item","yes","m21-ab-lexicalDecision.osexp","C:\Users\ekealey\Desktop","no","mono","no","18","no","white","no","yes","1080","legacy","5","5","C:/Users/ekealey/Desktop/subject-223.csv","xpyriment","Lentiform Loewenfeld","3.3.11","0","/","NA","NA","NA","NA","space","/","506","NA","NA","NA","NA","43759","506","2","legacy","1024","2","48000","-16","AB_m21","223","odd","FILL_W","PACK","1881","71936","68754","70433","45653","NA","NA","NA","NA","NA","69254","NA","NA","NA","68254","NA","68228","1893","72186","NA","NA","NA","69297","1881","1881","NA","69804","69829","68228","69254","69276","morph21_Oliver/Morris","2","4889","6","yes","1920","41"
"350","42.857142857142854","42.857142857142854","866.7142857142857","866.7142857142857","black","no","xpyriment","legacy","legacy","0","206","NA","uniform","NA","NA","NA","1","undefined","1","0","6","6","6","0","6","6","6","NA","0","6","NA","NA","0","6","NA","6","0","6","NA","NA","NA","6","0","0","NA","6","6","6","6","6","7","z","Wed Oct 18 15:48:51 2023","The main experiment item","yes","m21-ab-lexicalDecision.osexp","C:\Users\ekealey\Desktop","no","mono","no","18","no","white","no","yes","1080","legacy","6","6","C:/Users/ekealey/Desktop/subject-223.csv","xpyriment","Lentiform Loewenfeld","3.3.11","0","z","NA","NA","NA","NA","space","z","1178","NA","NA","NA","NA","43759","1178","2","legacy","1024","2","48000","-16","AB_m21","223","odd","NW_L_SIMP","WITCHITH","1881","76111","73764","70433","45653","NA","NA","NA","NA","NA","74265","NA","NA","NA","73263","NA","73237","1893","76461","NA","NA","NA","74306","1881","1881","NA","75484","75508","73237","74265","74285","morph21_Oliver/Morris","3","6067","7","yes","1920","11"
"300","37.5","37.5","877.625","877.625","black","no","xpyriment","legacy","legacy","0","204","NA","uniform","NA","NA","NA","0","undefined","0","0","7","7","7","0","7","7","7","NA","0","7","NA","NA","0","7","NA","7","0","7","NA","NA","NA","7","0","0","NA","7","7","7","7","7","8","z","Wed Oct 18 15:48:51 2023","The main experiment item","yes","m21-ab-lexicalDecision.osexp","C:\Users\ekealey\Desktop","no","mono","no","18","no","white","no","yes","1080","legacy","7","7","C:/Users/ekealey/Desktop/subject-223.csv","xpyriment","Lentiform Loewenfeld","3.3.11","0","/","NA","NA","NA","NA","space","/","954","NA","NA","NA","NA","43759","954","2","legacy","1024","2","48000","-16","AB_m21","223","odd","NW_L_COMP","ILLIST","1881","80175","78052","70433","45653","NA","NA","NA","NA","NA","78553","NA","NA","NA","77551","NA","77525","1893","80475","NA","NA","NA","78594","1881","1881","NA","79548","79572","77525","78553","78574","morph21_Oliver/Morris","3","7021","8","yes","1920","9"
"200","44.44444444444444","44.44444444444444","836.4444444444445","836.4444444444445","black","no","xpyriment","legacy","legacy","0","207","NA","uniform","NA","NA","NA","1","undefined","1","0","8","8","8","0","8","8","8","NA","0","8","NA","NA","0","8","NA","8","0","8","NA","NA","NA","8","0","0","NA","8","8","8","8","8","9","/","Wed Oct 18 15:48:51 2023","The main experiment item","yes","m21-ab-lexicalDecision.osexp","C:\Users\ekealey\Desktop","no","mono","no","18","no","white","no","yes","1080","legacy","8","8","C:/Users/ekealey/Desktop/subject-223.csv","xpyriment","Lentiform Loewenfeld","3.3.11","0","/","NA","NA","NA","NA","space","/","507","NA","NA","NA","NA","43759","507","2","legacy","1024","2","48000","-16","AB_m21","223","odd","FILL_W","GOLF","1881","85223","82043","83719","45653","NA","NA","NA","NA","NA","82543","NA","NA","NA","81542","NA","81513","1893","85423","NA","NA","NA","82584","1881","1881","NA","83092","83116","81513","82543","82564","morph21_Oliver/Morris","4","7528","9","yes","1920","28"
"200","50","50","802.6","802.6","black","no","xpyriment","legacy","legacy","0","207","NA","uniform","NA","NA","NA","1","undefined","1","0","9","9","9","0","9","9","9","NA","0","9","NA","NA","0","9","NA","9","0","9","NA","NA","NA","9","0","0","NA","9","9","9","9","9","10","/","Wed Oct 18 15:48:51 2023","The main experiment item","yes","m21-ab-lexicalDecision.osexp","C:\Users\ekealey\Desktop","no","mono","no","18","no","white","no","yes","1080","legacy","9","9","C:/Users/ekealey/Desktop/subject-223.csv","xpyriment","Lentiform Loewenfeld","3.3.11","0","/","NA","NA","NA","NA","space","/","498","NA","NA","NA","NA","43759","498","2","legacy","1024","2","48000","-16","AB_m21","223","odd","FILL_W","BLEAK","1881","88655","86989","83719","45653","NA","NA","NA","NA","NA","87489","NA","NA","NA","86488","NA","86459","1893","88856","NA","NA","NA","87530","1881","1881","NA","88029","88052","86459","87489","87510","morph21_Oliver/Morris","5","8026","10","yes","1920","5"
"400","45.45454545454545","45.45454545454545","782.1818181818181","782.1818181818181","black","no","xpyriment","legacy","legacy","0","208","NA","uniform","NA","NA","NA","0","undefined","0","0","10","10","10","0","10","10","10","NA","0","10","NA","NA","0","10","NA","10","0","10","NA","NA","NA","10","0","0","NA","10","10","10","10","10","11","z","Wed Oct 18 15:48:51 2023","The main experiment item","yes","m21-ab-lexicalDecision.osexp","C:\Users\ekealey\Desktop","no","mono","no","18","no","white","no","yes","1080","legacy","10","10","C:/Users/ekealey/Desktop/subject-223.csv","xpyriment","Lentiform Loewenfeld","3.3.11","0","/","NA","NA","NA","NA","space","/","578","NA","NA","NA","NA","43759","578","2","legacy","1024","2","48000","-16","AB_m21","223","odd","FILL_NW","ULNS","1881","92170","90420","83719","45653","NA","NA","NA","NA","NA","90921","NA","NA","NA","89919","NA","89890","1893","92571","NA","NA","NA","90962","1881","1881","NA","91541","91566","89890","90921","90942","morph21_Oliver/Morris","5","8604","11","yes","1920","45"
"350","50","50","758.8333333333334","758.8333333333334","black","no","xpyriment","legacy","legacy","0","202","NA","uniform","NA","NA","NA","1","undefined","1","0","11","11","11","0","11","11","11","NA","0","11","NA","NA","0","11","NA","11","0","11","NA","NA","NA","11","0","0","NA","11","11","11","11","11","12","/","Wed Oct 18 15:48:51 2023","The main experiment item","yes","m21-ab-lexicalDecision.osexp","C:\Users\ekealey\Desktop","no","mono","no","18","no","white","no","yes","1080","legacy","11","11","C:/Users/ekealey/Desktop/subject-223.csv","xpyriment","Lentiform Loewenfeld","3.3.11","0","/","NA","NA","NA","NA","space","/","502","NA","NA","NA","NA","43759","502","2","legacy","1024","2","48000","-16","AB_m21","223","odd","CW_L","BOMBER","1881","97335","94158","95832","45653","NA","NA","NA","NA","NA","94660","NA","NA","NA","93656","NA","93632","1893","97686","NA","NA","NA","94701","1881","1881","NA","95204","95229","93632","94660","94680","morph21_Oliver/Morris","6","9106","12","yes","1920","7"
"350","46.15384615384615","46.15384615384615","739.6153846153846","739.6153846153846","black","no","xpyriment","legacy","legacy","0","203","NA","uniform","NA","NA","NA","0","undefined","0","0","12","12","12","0","12","12","12","NA","0","12","NA","NA","0","12","NA","12","0","12","NA","NA","NA","12","0","0","NA","12","12","12","12","12","13","z","Wed Oct 18 15:48:51 2023","The main experiment item","yes","m21-ab-lexicalDecision.osexp","C:\Users\ekealey\Desktop","no","mono","no","18","no","white","no","yes","1080","legacy","12","12","C:/Users/ekealey/Desktop/subject-223.csv","xpyriment","Lentiform Loewenfeld","3.3.11","0","/","NA","NA","NA","NA","space","/","509","NA","NA","NA","NA","43759","509","2","legacy","1024","2","48000","-16","AB_m21","223","odd","NW_S_COMP","PRINCEMENT","1881","100937","99257","95832","45653","NA","NA","NA","NA","NA","99757","NA","NA","NA","98755","NA","98725","1893","101287","NA","NA","NA","99798","1881","1881","NA","100308","100333","98725","99757","99778","morph21_Oliver/Morris","6","9615","13","yes","1920","17"
"200","50","50","723.1428571428571","723.1428571428571","black","no","xpyriment","legacy","legacy","0","207","NA","uniform","NA","NA","NA","1","undefined","1","0","13","13","13","0","13","13","13","NA","0","13","NA","NA","0","13","NA","13","0","13","NA","NA","NA","13","0","0","NA","13","13","13","13","13","14","/","Wed Oct 18 15:48:51 2023","The main experiment item","yes","m21-ab-lexicalDecision.osexp","C:\Users\ekealey\Desktop","no","mono","no","18","no","white","no","yes","1080","legacy","13","13","C:/Users/ekealey/Desktop/subject-223.csv","xpyriment","Lentiform Loewenfeld","3.3.11","0","/","NA","NA","NA","NA","space","/","509","NA","NA","NA","NA","43759","509","2","legacy","1024","2","48000","-16","AB_m21","223","odd","FILL_W","LEGAL","1881","104504","102826","95832","45653","NA","NA","NA","NA","NA","103327","NA","NA","NA","102324","NA","102296","1893","104704","NA","NA","NA","103367","1881","1881","NA","103876","103901","102295","103326","103347","morph21_Oliver/Morris","7","10124","14","yes","1920","35"
"400","53.333333333333336","53.333333333333336","709.0666666666667","709.0666666666667","black","no","xpyriment","legacy","legacy","0","201","NA","uniform","NA","NA","NA","1","undefined","1","0","14","14","14","0","14","14","14","NA","0","14","NA","NA","0","14","NA","14","0","14","NA","NA","NA","14","0","0","NA","14","14","14","14","14","15","/","Wed Oct 18 15:48:51 2023","The main experiment item","yes","m21-ab-lexicalDecision.osexp","C:\Users\ekealey\Desktop","no","mono","no","18","no","white","no","yes","1080","legacy","14","14","C:/Users/ekealey/Desktop/subject-223.csv","xpyriment","Lentiform Loewenfeld","3.3.11","0","/","NA","NA","NA","NA","space","/","512","NA","NA","NA","NA","43759","512","2","legacy","1024","2","48000","-16","AB_m21","223","odd","CW_S","ALLOWANCE","1881","109439","106255","107936","45653","NA","NA","NA","NA","NA","106755","NA","NA","NA","105755","NA","105731","1893","109839","NA","NA","NA","106796","1881","1881","NA","107308","107333","105731","106755","106776","morph21_Oliver/Morris","8","10636","15","yes","1920","5"
"400","56.25","56.25","710.875","710.875","black","no","xpyriment","legacy","legacy","0","202","NA","uniform","NA","NA","NA","1","undefined","1","0","15","15","15","0","15","15","15","NA","0","15","NA","NA","0","15","NA","15","0","15","NA","NA","NA","15","0","0","NA","15","15","15","15","15","16","/","Wed Oct 18 15:48:51 2023","The main experiment item","yes","m21-ab-lexicalDecision.osexp","C:\Users\ekealey\Desktop","no","mono","no","18","no","white","no","yes","1080","legacy","15","15","C:/Users/ekealey/Desktop/subject-223.csv","xpyriment","Lentiform Loewenfeld","3.3.11","0","/","NA","NA","NA","NA","space","/","738","NA","NA","NA","NA","43759","738","2","legacy","1024","2","48000","-16","AB_m21","223","odd","CW_L","QUIETLY","1881","113311","111403","107936","45653","NA","NA","NA","NA","NA","111903","NA","NA","NA","110903","NA","110871","1893","113711","NA","NA","NA","111945","1881","1881","NA","112684","112707","110871","111903","111924","morph21_Oliver/Morris","9","11374","16","yes","1920","36"
"400","58.8235294117647","58.8235294117647","722.8235294117648","722.8235294117648","black","no","xpyriment","legacy","legacy","0","208","NA","uniform","NA","NA","NA","1","undefined","1","0","16","16","16","0","16","16","16","NA","0","16","NA","NA","0","16","NA","16","0","16","NA","NA","NA","16","0","0","NA","16","16","16","16","16","17","z","Wed Oct 18 15:48:51 2023","The main experiment item","yes","m21-ab-lexicalDecision.osexp","C:\Users\ekealey\Desktop","no","mono","no","18","no","white","no","yes","1080","legacy","16","16","C:/Users/ekealey/Desktop/subject-223.csv","xpyriment","Lentiform Loewenfeld","3.3.11","0","z","NA","NA","NA","NA","space","z","914","NA","NA","NA","NA","43759","914","2","legacy","1024","2","48000","-16","AB_m21","223","odd","FILL_NW","SOISE","1881","117361","115276","107936","45653","NA","NA","NA","NA","NA","115776","NA","NA","NA","114776","NA","114745","1893","117761","NA","NA","NA","115817","1881","1881","NA","116732","116757","114745","115776","115797","morph21_Oliver/Morris","10","12288","17","yes","1920","43"
"300","55.55555555555556","55.55555555555556","735.6666666666666","735.6666666666666","black","no","xpyriment","legacy","legacy","0","204","NA","uniform","NA","NA","NA","0","undefined","0","0","17","17","17","0","17","17","17","NA","0","17","NA","NA","0","17","NA","17","0","17","NA","NA","NA","17","0","0","NA","17","17","17","17","17","18","z","Wed Oct 18 15:48:51 2023","The main experiment item","yes","m21-ab-lexicalDecision.osexp","C:\Users\ekealey\Desktop","no","mono","no","18","no","white","no","yes","1080","legacy","17","17","C:/Users/ekealey/Desktop/subject-223.csv","xpyriment","Lentiform Loewenfeld","3.3.11","0","/","NA","NA","NA","NA","space","/","954","NA","NA","NA","NA","43759","954","2","legacy","1024","2","48000","-16","AB_m21","223","odd","NW_L_COMP","BINDIC","1881","122960","119330","121454","45653","NA","NA","NA","NA","NA","119831","NA","NA","NA","118828","NA","118803","1893","123260","NA","NA","NA","119873","1881","1881","NA","120828","120851","118803","119831","119852","morph21_Oliver/Morris","10","13242","18","yes","1920","22"
"200","52.63157894736842","52.63157894736842","739.0526315789474","739.0526315789474","black","no","xpyriment","legacy","legacy","0","204","NA","uniform","NA","NA","NA","0","undefined","0","0","18","18","18","0","18","18","18","NA","0","18","NA","NA","0","18","NA","18","0","18","NA","NA","NA","18","0","0","NA","18","18","18","18","18","19","z","Wed Oct 18 15:48:51 2023","The main experiment item","yes","m21-ab-lexicalDecision.osexp","C:\Users\ekealey\Desktop","no","mono","no","18","no","white","no","yes","1080","legacy","18","18","C:/Users/ekealey/Desktop/subject-223.csv","xpyriment","Lentiform Loewenfeld","3.3.11","0","/","NA","NA","NA","NA","space","/","800","NA","NA","NA","NA","43759","800","2","legacy","1024","2","48000","-16","AB_m21","223","odd","NW_L_COMP","GASFUL","1881","126816","124846","121454","45653","NA","NA","NA","NA","NA","125346","NA","NA","NA","124345","NA","124312","1893","127016","NA","NA","NA","125387","1881","1881","NA","126188","126212","124312","125346","125367","morph21_Oliver/Morris","10","14042","19","yes","1920","6"
"200","50","50","732.45","732.45","black","no","xpyriment","legacy","legacy","0","208","NA","uniform","NA","NA","NA","0","undefined","0","0","19","19","19","0","19","19","19","NA","0","19","NA","NA","0","19","NA","19","0","19","NA","NA","NA","19","0","0","NA","19","19","19","19","19","20","z","Wed Oct 18 15:48:51 2023","The main experiment item","yes","m21-ab-lexicalDecision.osexp","C:\Users\ekealey\Desktop","no","mono","no","18","no","white","no","yes","1080","legacy","19","19","C:/Users/ekealey/Desktop/subject-223.csv","xpyriment","Lentiform Loewenfeld","3.3.11","0","/","NA","NA","NA","NA","space","/","607","NA","NA","NA","NA","43759","607","2","legacy","1024","2","48000","-16","AB_m21","223","odd","FILL_NW","FALONS","1881","130343","128567","121454","45653","NA","NA","NA","NA","NA","129068","NA","NA","NA","128066","NA","128039","1893","130543","NA","NA","NA","129109","1881","1881","NA","129716","129740","128039","129068","129089","morph21_Oliver/Morris","10","14649","20","yes","1920","19"
"250","52.38095238095238","52.38095238095238","735.3809523809524","735.3809523809524","black","no","xpyriment","legacy","legacy","0","201","NA","uniform","NA","NA","NA","1","undefined","1","0","20","20","20","0","20","20","20","NA","0","20","NA","NA","0","20","NA","20","0","20","NA","NA","NA","20","0","0","NA","20","20","20","20","20","21","/","Wed Oct 18 15:48:51 2023","The main experiment item","yes","m21-ab-lexicalDecision.osexp","C:\Users\ekealey\Desktop","no","mono","no","18","no","white","no","yes","1080","legacy","20","20","C:/Users/ekealey/Desktop/subject-223.csv","xpyriment","Lentiform Loewenfeld","3.3.11","0","/","NA","NA","NA","NA","space","/","794","NA","NA","NA","NA","43759","794","2","legacy","1024","2","48000","-16","AB_m21","223","odd","CW_S","COSTLY","1881","135574","132108","134071","45653","NA","NA","NA","NA","NA","132609","NA","NA","NA","131607","NA","131579","1893","135824","NA","NA","NA","132649","1881","1881","NA","133444","133467","131579","132609","132629","morph21_Oliver/Morris","11","15443","21","yes","1920","36"
"400","50","50","740.0454545454545","740.0454545454545","black","no","xpyriment","legacy","legacy","0","207","NA","uniform","NA","NA","NA","0","undefined","0","0","21","21","21","0","21","21","21","NA","0","21","NA","NA","0","21","NA","21","0","21","NA","NA","NA","21","0","0","NA","21","21","21","21","21","22","/","Wed Oct 18 15:48:51 2023","The main experiment item","yes","m21-ab-lexicalDecision.osexp","C:\Users\ekealey\Desktop","no","mono","no","18","no","white","no","yes","1080","legacy","21","21","C:/Users/ekealey/Desktop/subject-223.csv","xpyriment","Lentiform Loewenfeld","3.3.11","0","z","NA","NA","NA","NA","space","z","838","NA","NA","NA","NA","43759","838","2","legacy","1024","2","48000","-16","AB_m21","223","odd","FILL_W","LITHE","1881","139392","137384","134071","45653","NA","NA","NA","NA","NA","137884","NA","NA","NA","136884","NA","136851","1893","139792","NA","NA","NA","137925","1881","1881","NA","138764","138788","136851","137884","137905","morph21_Oliver/Morris","11","16281","22","yes","1920","23"
"300","52.17391304347826","52.17391304347826","751.695652173913","751.695652173913","black","no","xpyriment","legacy","legacy","0","204","NA","uniform","NA","NA","NA","1","undefined","1","0","22","22","22","0","22","22","22","NA","0","22","NA","NA","0","22","NA","22","0","22","NA","NA","NA","22","0","0","NA","22","22","22","22","22","23","z","Wed Oct 18 15:48:51 2023","The main experiment item","yes","m21-ab-lexicalDecision.osexp","C:\Users\ekealey\Desktop","no","mono","no","18","no","white","no","yes","1080","legacy","22","22","C:/Users/ekealey/Desktop/subject-223.csv","xpyriment","Lentiform Loewenfeld","3.3.11","0","z","NA","NA","NA","NA","space","z","1008","NA","NA","NA","NA","43759","1008","2","legacy","1024","2","48000","-16","AB_m21","223","odd","NW_L_COMP","EMPLOYNESS","1881","143537","141358","134071","45653","NA","NA","NA","NA","NA","141860","NA","NA","NA","140856","NA","140833","1893","143837","NA","NA","NA","141900","1881","1881","NA","142908","142932","140833","141860","141880","morph21_Oliver/Morris","12","17289","23","yes","1920","21"
"400","50","50","741.4166666666666","741.4166666666666","black","no","xpyriment","legacy","legacy","0","206","NA","uniform","NA","NA","NA","0","undefined","0","0","23","23","23","0","23","23","23","NA","0","23","NA","NA","0","23","NA","23","0","23","NA","NA","NA","23","0","0","NA","23","23","23","23","23","24","z","Wed Oct 18 15:48:51 2023","The main experiment item","yes","m21-ab-lexicalDecision.osexp","C:\Users\ekealey\Desktop","no","mono","no","18","no","white","no","yes","1080","legacy","23","23","C:/Users/ekealey/Desktop/subject-223.csv","xpyriment","Lentiform Loewenfeld","3.3.11","0","/","NA","NA","NA","NA","space","/","505","NA","NA","NA","NA","43759","505","2","legacy","1024","2","48000","-16","AB_m21","223","odd","NW_L_SIMP","POORIDY","1881","148640","145461","147137","45653","NA","NA","NA","NA","NA","145963","NA","NA","NA","144959","NA","144934","1893","149040","NA","NA","NA","146003","1881","1881","NA","146508","146533","144934","145963","145983","morph21_Oliver/Morris","12","17794","24","yes","1920","13"
"200","52","52","749.48","749.48","black","no","xpyriment","legacy","legacy","0","208","NA","uniform","NA","NA","NA","1","undefined","1","0","24","24","24","0","24","24","24","NA","0","24","NA","NA","0","24","NA","24","0","24","NA","NA","NA","24","0","0","NA","24","24","24","24","24","25","z","Wed Oct 18 15:48:51 2023","The main experiment item","yes","m21-ab-lexicalDecision.osexp","C:\Users\ekealey\Desktop","no","mono","no","18","no","white","no","yes","1080","legacy","24","24","C:/Users/ekealey/Desktop/subject-223.csv","xpyriment","Lentiform Loewenfeld","3.3.11","0","z","NA","NA","NA","NA","space","z","943","NA","NA","NA","NA","43759","943","2","legacy","1024","2","48000","-16","AB_m21","223","odd","FILL_NW","BLAYS","1881","152727","150616","147137","45653","NA","NA","NA","NA","NA","151116","NA","NA","NA","150116","NA","150082","1893","152927","NA","NA","NA","151156","1881","1881","NA","152100","152123","150082","151116","151136","morph21_Oliver/Morris","13","18737","25","yes","1920","8"
"400","53.84615384615385","53.84615384615385","756.5","756.5","black","no","xpyriment","legacy","legacy","0","205","NA","uniform","NA","NA","NA","1","undefined","1","0","25","25","25","0","25","25","25","NA","0","25","NA","NA","0","25","NA","25","0","25","NA","NA","NA","25","0","0","NA","25","25","25","25","25","26","z","Wed Oct 18 15:48:51 2023","The main experiment item","yes","m21-ab-lexicalDecision.osexp","C:\Users\ekealey\Desktop","no","mono","no","18","no","white","no","yes","1080","legacy","25","25","C:/Users/ekealey/Desktop/subject-223.csv","xpyriment","Lentiform Loewenfeld","3.3.11","0","z","NA","NA","NA","NA","space","z","932","NA","NA","NA","NA","43759","932","2","legacy","1024","2","48000","-16","AB_m21","223","odd","NW_S_SIMP","AIDIG","1881","156615","154514","147137","45653","NA","NA","NA","NA","NA","155014","NA","NA","NA","154014","NA","153988","1893","157015","NA","NA","NA","155055","1881","1881","NA","155988","156011","153988","155014","155035","morph21_Oliver/Morris","14","19669","26","yes","1920","4"
"200","55.55555555555556","55.55555555555556","747.5555555555555","747.5555555555555","black","no","xpyriment","legacy","legacy","0","207","NA","uniform","NA","NA","NA","1","undefined","1","0","26","26","26","0","26","26","26","NA","0","26","NA","NA","0","26","NA","26","0","26","NA","NA","NA","26","0","0","NA","26","26","26","26","26","27","/","Wed Oct 18 15:48:51 2023","The main experiment item","yes","m21-ab-lexicalDecision.osexp","C:\Users\ekealey\Desktop","no","mono","no","18","no","white","no","yes","1080","legacy","26","26","C:/Users/ekealey/Desktop/subject-223.csv","xpyriment","Lentiform Loewenfeld","3.3.11","0","/","NA","NA","NA","NA","space","/","515","NA","NA","NA","NA","43759","515","2","legacy","1024","2","48000","-16","AB_m21","223","odd","FILL_W","FLOAT","1881","161800","158611","160297","45653","NA","NA","NA","NA","NA","159111","NA","NA","NA","158111","NA","158082","1893","162000","NA","NA","NA","159152","1881","1881","NA","159668","159692","158082","159111","159132","morph21_Oliver/Morris","15","20184","27","yes","1920","30"
"350","57.142857142857146","57.142857142857146","750.75","750.75","black","no","xpyriment","legacy","legacy","0","207","NA","uniform","NA","NA","NA","1","undefined","1","0","27","27","27","0","27","27","27","NA","0","27","NA","NA","0","27","NA","27","0","27","NA","NA","NA","27","0","0","NA","27","27","27","27","27","28","/","Wed Oct 18 15:48:51 2023","The main experiment item","yes","m21-ab-lexicalDecision.osexp","C:\Users\ekealey\Desktop","no","mono","no","18","no","white","no","yes","1080","legacy","27","27","C:/Users/ekealey/Desktop/subject-223.csv","xpyriment","Lentiform Loewenfeld","3.3.11","0","/","NA","NA","NA","NA","space","/","837","NA","NA","NA","NA","43759","837","2","legacy","1024","2","48000","-16","AB_m21","223","odd","FILL_W","GLOOM","1881","165671","163664","160297","45653","NA","NA","NA","NA","NA","164166","NA","NA","NA","163164","NA","163135","1893","166021","NA","NA","NA","164206","1881","1881","NA","165044","165067","163135","164166","164186","morph21_Oliver/Morris","16","21021","28","yes","1920","14"
"400","58.62068965517241","58.62068965517241","744.4137931034483","744.4137931034483","black","no","xpyriment","legacy","legacy","0","207","NA","uniform","NA","NA","NA","1","undefined","1","0","28","28","28","0","28","28","28","NA","0","28","NA","NA","0","28","NA","28","0","28","NA","NA","NA","28","0","0","NA","28","28","28","28","28","29","/","Wed Oct 18 15:48:51 2023","The main experiment item","yes","m21-ab-lexicalDecision.osexp","C:\Users\ekealey\Desktop","no","mono","no","18","no","white","no","yes","1080","legacy","28","28","C:/Users/ekealey/Desktop/subject-223.csv","xpyriment","Lentiform Loewenfeld","3.3.11","0","/","NA","NA","NA","NA","space","/","567","NA","NA","NA","NA","43759","567","2","legacy","1024","2","48000","-16","AB_m21","223","odd","FILL_W","CHIP","1881","169318","167583","160297","45653","NA","NA","NA","NA","NA","168083","NA","NA","NA","167082","NA","167052","1893","169718","NA","NA","NA","168124","1881","1881","NA","168692","168715","167052","168083","168104","morph21_Oliver/Morris","17","21588","29","yes","1920","11"
"250","60","60","740.7333333333333","740.7333333333333","black","no","xpyriment","legacy","legacy","0","207","NA","uniform","NA","NA","NA","1","undefined","1","0","29","29","29","0","29","29","29","NA","0","29","NA","NA","0","29","NA","29","0","29","NA","NA","NA","29","0","0","NA","29","29","29","29","29","30","/","Wed Oct 18 15:48:51 2023","The main experiment item","yes","m21-ab-lexicalDecision.osexp","C:\Users\ekealey\Desktop","no","mono","no","18","no","white","no","yes","1080","legacy","29","29","C:/Users/ekealey/Desktop/subject-223.csv","xpyriment","Lentiform Loewenfeld","3.3.11","0","/","NA","NA","NA","NA","space","/","634","NA","NA","NA","NA","43759","634","2","legacy","1024","2","48000","-16","AB_m21","223","odd","FILL_W","SOUGHT","1881","174583","171277","173079","45653","NA","NA","NA","NA","NA","171777","NA","NA","NA","170776","NA","170747","1893","174833","NA","NA","NA","171817","1881","1881","NA","172452","172476","170747","171777","171797","morph21_Oliver/Morris","18","22222","30","yes","1920","40"
"300","61.29032258064516","61.29032258064516","743.5483870967741","743.5483870967741","black","no","xpyriment","legacy","legacy","0","208","NA","uniform","NA","NA","NA","1","undefined","1","0","30","30","30","0","30","30","30","NA","0","30","NA","NA","0","30","NA","30","0","30","NA","NA","NA","30","0","0","NA","30","30","30","30","30","31","z","Wed Oct 18 15:48:51 2023","The main experiment item","yes","m21-ab-lexicalDecision.osexp","C:\Users\ekealey\Desktop","no","mono","no","18","no","white","no","yes","1080","legacy","30","30","C:/Users/ekealey/Desktop/subject-223.csv","xpyriment","Lentiform Loewenfeld","3.3.11","0","z","NA","NA","NA","NA","space","z","828","NA","NA","NA","NA","43759","828","2","legacy","1024","2","48000","-16","AB_m21","223","odd","FILL_NW","BAFED","1881","178433","176435","173079","45653","NA","NA","NA","NA","NA","176936","NA","NA","NA","175934","NA","175908","1893","178733","NA","NA","NA","176976","1881","1881","NA","177804","177830","175908","176936","176956","morph21_Oliver/Morris","19","23050","31","yes","1920","1"
"350","62.5","62.5","738.9375","738.9375","black","no","xpyriment","legacy","legacy","0","201","NA","uniform","NA","NA","NA","1","undefined","1","0","31","31","31","0","31","31","31","NA","0","31","NA","NA","0","31","NA","31","0","31","NA","NA","NA","31","0","0","NA","31","31","31","31","31","32","/","Wed Oct 18 15:48:51 2023","The main experiment item","yes","m21-ab-lexicalDecision.osexp","C:\Users\ekealey\Desktop","no","mono","no","18","no","white","no","yes","1080","legacy","31","31","C:/Users/ekealey/Desktop/subject-223.csv","xpyriment","Lentiform Loewenfeld","3.3.11","0","/","NA","NA","NA","NA","space","/","596","NA","NA","NA","NA","43759","596","2","legacy","1024","2","48000","-16","AB_m21","223","odd","CW_S","CHILLY","1881","182059","180289","173079","45653","NA","NA","NA","NA","NA","180791","NA","NA","NA","179787","NA","179762","1893","182409","NA","NA","NA","180831","1881","1881","NA","181427","181454","179762","180791","180811","morph21_Oliver/Morris","20","23646","32","yes","1920","48"
"200","63.63636363636363","63.63636363636363","734.7272727272727","734.7272727272727","black","no","xpyriment","legacy","legacy","0","201","NA","uniform","NA","NA","NA","1","undefined","1","0","32","32","32","0","32","32","32","NA","0","32","NA","NA","0","32","NA","32","0","32","NA","NA","NA","32","0","0","NA","32","32","32","32","32","33","/","Wed Oct 18 15:48:51 2023","The main experiment item","yes","m21-ab-lexicalDecision.osexp","C:\Users\ekealey\Desktop","no","mono","no","18","no","white","no","yes","1080","legacy","32","32","C:/Users/ekealey/Desktop/subject-223.csv","xpyriment","Lentiform Loewenfeld","3.3.11","0","/","NA","NA","NA","NA","space","/","600","NA","NA","NA","NA","43759","600","2","legacy","1024","2","48000","-16","AB_m21","223","odd","CW_S","ANGELIC","1881","187246","183974","185743","45653","NA","NA","NA","NA","NA","184474","NA","NA","NA","183474","NA","183446","1893","187447","NA","NA","NA","184515","1881","1881","NA","185116","185139","183446","184474","184495","morph21_Oliver/Morris","21","24246","33","yes","1920","25"
"300","64.70588235294117","64.70588235294117","729.9705882352941","729.9705882352941","black","no","xpyriment","legacy","legacy","0","207","NA","uniform","NA","NA","NA","1","undefined","1","0","33","33","33","0","33","33","33","NA","0","33","NA","NA","0","33","NA","33","0","33","NA","NA","NA","33","0","0","NA","33","33","33","33","33","34","/","Wed Oct 18 15:48:51 2023","The main experiment item","yes","m21-ab-lexicalDecision.osexp","C:\Users\ekealey\Desktop","no","mono","no","18","no","white","no","yes","1080","legacy","33","33","C:/Users/ekealey/Desktop/subject-223.csv","xpyriment","Lentiform Loewenfeld","3.3.11","0","/","NA","NA","NA","NA","space","/","573","NA","NA","NA","NA","43759","573","2","legacy","1024","2","48000","-16","AB_m21","223","odd","FILL_W","BLUNT","1881","190752","189009","185743","45653","NA","NA","NA","NA","NA","189509","NA","NA","NA","188509","NA","188478","1893","191052","NA","NA","NA","189550","1881","1881","NA","190124","190149","188478","189509","189530","morph21_Oliver/Morris","22","24819","34","yes","1920","4"
"250","65.71428571428571","65.71428571428571","721.8857142857142","721.8857142857142","black","no","xpyriment","legacy","legacy","0","201","NA","uniform","NA","NA","NA","1","undefined","1","0","34","34","34","0","34","34","34","NA","0","34","NA","NA","0","34","NA","34","0","34","NA","NA","NA","34","0","0","NA","34","34","34","34","34","35","/","Wed Oct 18 15:48:51 2023","The main experiment item","yes","m21-ab-lexicalDecision.osexp","C:\Users\ekealey\Desktop","no","mono","no","18","no","white","no","yes","1080","legacy","34","34","C:/Users/ekealey/Desktop/subject-223.csv","xpyriment","Lentiform Loewenfeld","3.3.11","0","/","NA","NA","NA","NA","space","/","447","NA","NA","NA","NA","43759","447","2","legacy","1024","2","48000","-16","AB_m21","223","odd","CW_S","MILDNESS","1881","194233","192615","185743","45653","NA","NA","NA","NA","NA","193115","NA","NA","NA","192114","NA","192086","1893","194483","NA","NA","NA","193156","1881","1881","NA","193604","193629","192086","193115","193136","morph21_Oliver/Morris","23","25266","35","yes","1920","42"
"300","66.66666666666667","66.66666666666667","725.0833333333334","725.0833333333334","black","no","xpyriment","legacy","legacy","0","205","NA","uniform","NA","NA","NA","1","undefined","1","0","35","35","35","0","35","35","35","NA","0","35","NA","NA","0","35","NA","35","0","35","NA","NA","NA","35","0","0","NA","35","35","35","35","35","36","z","Wed Oct 18 15:48:51 2023","The main experiment item","yes","m21-ab-lexicalDecision.osexp","C:\Users\ekealey\Desktop","no","mono","no","18","no","white","no","yes","1080","legacy","35","35","C:/Users/ekealey/Desktop/subject-223.csv","xpyriment","Lentiform Loewenfeld","3.3.11","0","z","NA","NA","NA","NA","space","z","837","NA","NA","NA","NA","43759","837","2","legacy","1024","2","48000","-16","AB_m21","223","odd","NW_S_SIMP","HELMETOES","1881","199554","196041","198049","45653","NA","NA","NA","NA","NA","196541","NA","NA","NA","195541","NA","195513","1893","199854","NA","NA","NA","196582","1881","1881","NA","197420","197445","195513","196541","196562","morph21_Oliver/Morris","24","26103","36","yes","1920","14"
"250","67.56756756756756","67.56756756756756","719.2162162162163","719.2162162162163","black","no","xpyriment","legacy","legacy","0","202","NA","uniform","NA","NA","NA","1","undefined","1","0","36","36","36","0","36","36","36","NA","0","36","NA","NA","0","36","NA","36","0","36","NA","NA","NA","36","0","0","NA","36","36","36","36","36","37","/","Wed Oct 18 15:48:51 2023","The main experiment item","yes","m21-ab-lexicalDecision.osexp","C:\Users\ekealey\Desktop","no","mono","no","18","no","white","no","yes","1080","legacy","36","36","C:/Users/ekealey/Desktop/subject-223.csv","xpyriment","Lentiform Loewenfeld","3.3.11","0","/","NA","NA","NA","NA","space","/","508","NA","NA","NA","NA","43759","508","2","legacy","1024","2","48000","-16","AB_m21","223","odd","CW_L","EXCITEMENT","1881","203102","201425","198049","45653","NA","NA","NA","NA","NA","201927","NA","NA","NA","200923","NA","200894","1893","203352","NA","NA","NA","201967","1881","1881","NA","202476","202499","200894","201927","201947","morph21_Oliver/Morris","25","26611","37","yes","1920","38"
"300","68.42105263157895","68.42105263157895","712.7631578947369","712.7631578947369","black","no","xpyriment","legacy","legacy","0","201","NA","uniform","NA","NA","NA","1","undefined","1","0","37","37","37","0","37","37","37","NA","0","37","NA","NA","0","37","NA","37","0","37","NA","NA","NA","37","0","0","NA","37","37","37","37","37","38","/","Wed Oct 18 15:48:51 2023","The main experiment item","yes","m21-ab-lexicalDecision.osexp","C:\Users\ekealey\Desktop","no","mono","no","18","no","white","no","yes","1080","legacy","37","37","C:/Users/ekealey/Desktop/subject-223.csv","xpyriment","Lentiform Loewenfeld","3.3.11","0","/","NA","NA","NA","NA","space","/","474","NA","NA","NA","NA","43759","474","2","legacy","1024","2","48000","-16","AB_m21","223","odd","CW_S","MAGICAL","1881","206551","204909","198049","45653","NA","NA","NA","NA","NA","205408","NA","NA","NA","204409","NA","204380","1893","206852","NA","NA","NA","205449","1881","1881","NA","205923","205948","204380","205408","205429","morph21_Oliver/Morris","26","27085","38","yes","1920","4"
"350","69.23076923076923","69.23076923076923","715.7948717948718","715.7948717948718","black","no","xpyriment","legacy","legacy","0","206","NA","uniform","NA","NA","NA","1","undefined","1","0","38","38","38","0","38","38","38","NA","0","38","NA","NA","0","38","NA","38","0","38","NA","NA","NA","38","0","0","NA","38","38","38","38","38","39","z","Wed Oct 18 15:48:51 2023","The main experiment item","yes","m21-ab-lexicalDecision.osexp","C:\Users\ekealey\Desktop","no","mono","no","18","no","white","no","yes","1080","legacy","38","38","C:/Users/ekealey/Desktop/subject-223.csv","xpyriment","Lentiform Loewenfeld","3.3.11","0","z","NA","NA","NA","NA","space","z","831","NA","NA","NA","NA","43759","831","2","legacy","1024","2","48000","-16","AB_m21","223","odd","NW_L_SIMP","CRITICANGE","1881","211908","208398","210402","45653","NA","NA","NA","NA","NA","208899","NA","NA","NA","207896","NA","207869","1893","212258","NA","NA","NA","208940","1881","1881","NA","209772","209797","207869","208899","208920","morph21_Oliver/Morris","27","27916","39","yes","1920","22"
"300","70","70","724.825","724.825","black","no","xpyriment","legacy","legacy","0","208","NA","uniform","NA","NA","NA","1","undefined","1","0","39","39","39","0","39","39","39","NA","0","39","NA","NA","0","39","NA","39","0","39","NA","NA","NA","39","0","0","NA","39","39","39","39","39","40","z","Wed Oct 18 15:48:51 2023","The main experiment item","yes","m21-ab-lexicalDecision.osexp","C:\Users\ekealey\Desktop","no","mono","no","18","no","white","no","yes","1080","legacy","39","39","C:/Users/ekealey/Desktop/subject-223.csv","xpyriment","Lentiform Loewenfeld","3.3.11","0","z","NA","NA","NA","NA","space","z","1077","NA","NA","NA","NA","43759","1077","2","legacy","1024","2","48000","-16","AB_m21","223","odd","FILL_NW","KEMT","1881","216087","213841","210402","45653","NA","NA","NA","NA","NA","214341","NA","NA","NA","213340","NA","213309","1893","216387","NA","NA","NA","214382","1881","1881","NA","215460","215483","213309","214341","214362","morph21_Oliver/Morris","28","28993","40","yes","1920","32"
"250","70.73170731707317","70.73170731707317","721.5365853658536","721.5365853658536","black","no","xpyriment","legacy","legacy","0","207","NA","uniform","NA","NA","NA","1","undefined","1","0","40","40","40","0","40","40","40","NA","0","40","NA","NA","0","40","NA","40","0","40","NA","NA","NA","40","0","0","NA","40","40","40","40","40","41","/","Wed Oct 18 15:48:51 2023","The main experiment item","yes","m21-ab-lexicalDecision.osexp","C:\Users\ekealey\Desktop","no","mono","no","18","no","white","no","yes","1080","legacy","40","40","C:/Users/ekealey/Desktop/subject-223.csv","xpyriment","Lentiform Loewenfeld","3.3.11","0","/","NA","NA","NA","NA","space","/","590","NA","NA","NA","NA","43759","590","2","legacy","1024","2","48000","-16","AB_m21","223","odd","FILL_W","SLIM","1881","219721","217959","210402","45653","NA","NA","NA","NA","NA","218460","NA","NA","NA","217457","NA","217432","1893","219971","NA","NA","NA","218501","1881","1881","NA","219092","219117","217432","218460","218481","morph21_Oliver/Morris","29","29583","41","yes","1920","6"
"350","71.42857142857143","71.42857142857143","725.0238095238095","725.0238095238095","black","no","xpyriment","legacy","legacy","0","206","NA","uniform","NA","NA","NA","1","undefined","1","0","41","41","41","0","41","41","41","NA","0","41","NA","NA","0","41","NA","41","0","41","NA","NA","NA","41","0","0","NA","41","41","41","41","41","42","z","Wed Oct 18 15:48:51 2023","The main experiment item","yes","m21-ab-lexicalDecision.osexp","C:\Users\ekealey\Desktop","no","mono","no","18","no","white","no","yes","1080","legacy","41","41","C:/Users/ekealey/Desktop/subject-223.csv","xpyriment","Lentiform Loewenfeld","3.3.11","0","z","NA","NA","NA","NA","space","z","868","NA","NA","NA","NA","43759","868","2","legacy","1024","2","48000","-16","AB_m21","223","odd","NW_L_SIMP","NUTLA","1881","225069","221520","223562","45653","NA","NA","NA","NA","NA","222021","NA","NA","NA","221018","NA","220993","1893","225419","NA","NA","NA","222062","1881","1881","NA","222931","222958","220993","222021","222042","morph21_Oliver/Morris","30","30451","42","yes","1920","14"
"350","72.09302325581395","72.09302325581395","727.0930232558139","727.0930232558139","black","no","xpyriment","legacy","legacy","0","208","NA","uniform","NA","NA","NA","1","undefined","1","0","42","42","42","0","42","42","42","NA","0","42","NA","NA","0","42","NA","42","0","42","NA","NA","NA","42","0","0","NA","42","42","42","42","42","43","z","Wed Oct 18 15:48:51 2023","The main experiment item","yes","m21-ab-lexicalDecision.osexp","C:\Users\ekealey\Desktop","no","mono","no","18","no","white","no","yes","1080","legacy","42","42","C:/Users/ekealey/Desktop/subject-223.csv","xpyriment","Lentiform Loewenfeld","3.3.11","0","z","NA","NA","NA","NA","space","z","814","NA","NA","NA","NA","43759","814","2","legacy","1024","2","48000","-16","AB_m21","223","odd","FILL_NW","DARF","1881","228969","226984","223562","45653","NA","NA","NA","NA","NA","227484","NA","NA","NA","226483","NA","226451","1893","229319","NA","NA","NA","227525","1881","1881","NA","228340","228366","226451","227484","227505","morph21_Oliver/Morris","31","31265","43","yes","1920","10"
"350","72.72727272727273","72.72727272727273","723.5681818181819","723.5681818181819","black","no","xpyriment","legacy","legacy","0","202","NA","uniform","NA","NA","NA","1","undefined","1","0","43","43","43","0","43","43","43","NA","0","43","NA","NA","0","43","NA","43","0","43","NA","NA","NA","43","0","0","NA","43","43","43","43","43","44","/","Wed Oct 18 15:48:51 2023","The main experiment item","yes","m21-ab-lexicalDecision.osexp","C:\Users\ekealey\Desktop","no","mono","no","18","no","white","no","yes","1080","legacy","43","43","C:/Users/ekealey/Desktop/subject-223.csv","xpyriment","Lentiform Loewenfeld","3.3.11","0","/","NA","NA","NA","NA","space","/","572","NA","NA","NA","NA","43759","572","2","legacy","1024","2","48000","-16","AB_m21","223","odd","CW_L","HUNTER","1881","232606","230866","223562","45653","NA","NA","NA","NA","NA","231367","NA","NA","NA","230365","NA","230339","1893","232956","NA","NA","NA","231407","1881","1881","NA","231980","232003","230339","231367","231387","morph21_Oliver/Morris","32","31837","44","yes","1920","10"
"250","73.33333333333333","73.33333333333333","720.6","720.6","black","no","xpyriment","legacy","legacy","0","207","NA","uniform","NA","NA","NA","1","undefined","1","0","44","44","44","0","44","44","44","NA","0","44","NA","NA","0","44","NA","44","0","44","NA","NA","NA","44","0","0","NA","44","44","44","44","44","45","/","Wed Oct 18 15:48:51 2023","The main experiment item","yes","m21-ab-lexicalDecision.osexp","C:\Users\ekealey\Desktop","no","mono","no","18","no","white","no","yes","1080","legacy","44","44","C:/Users/ekealey/Desktop/subject-223.csv","xpyriment","Lentiform Loewenfeld","3.3.11","0","/","NA","NA","NA","NA","space","/","590","NA","NA","NA","NA","43759","590","2","legacy","1024","2","48000","-16","AB_m21","223","odd","FILL_W","PREACH","1881","237774","234511","236271","45653","NA","NA","NA","NA","NA","235011","NA","NA","NA","234011","NA","233982","1893","238024","NA","NA","NA","235052","1881","1881","NA","235643","235668","233982","235011","235032","morph21_Oliver/Morris","33","32427","45","yes","1920","7"
"400","73.91304347826087","73.91304347826087","726.1739130434783","726.1739130434783","black","no","xpyriment","legacy","legacy","0","205","NA","uniform","NA","NA","NA","1","undefined","1","0","45","45","45","0","45","45","45","NA","0","45","NA","NA","0","45","NA","45","0","45","NA","NA","NA","45","0","0","NA","45","45","45","45","45","46","z","Wed Oct 18 15:48:51 2023","The main experiment item","yes","m21-ab-lexicalDecision.osexp","C:\Users\ekealey\Desktop","no","mono","no","18","no","white","no","yes","1080","legacy","45","45","C:/Users/ekealey/Desktop/subject-223.csv","xpyriment","Lentiform Loewenfeld","3.3.11","0","z","NA","NA","NA","NA","space","z","977","NA","NA","NA","NA","43759","977","2","legacy","1024","2","48000","-16","AB_m21","223","odd","NW_S_SIMP","RAMPIME","1881","241782","239635","236271","45653","NA","NA","NA","NA","NA","240137","NA","NA","NA","239133","NA","239106","1893","242182","NA","NA","NA","240178","1881","1881","NA","241156","241179","239106","240137","240158","morph21_Oliver/Morris","34","33404","46","yes","1920","6"
"350","72.34042553191489","72.34042553191489","729.3617021276596","729.3617021276596","black","no","xpyriment","legacy","legacy","0","208","NA","uniform","NA","NA","NA","0","undefined","0","0","46","46","46","0","46","46","46","NA","0","46","NA","NA","0","46","NA","46","0","46","NA","NA","NA","46","0","0","NA","46","46","46","46","46","47","z","Wed Oct 18 15:48:51 2023","The main experiment item","yes","m21-ab-lexicalDecision.osexp","C:\Users\ekealey\Desktop","no","mono","no","18","no","white","no","yes","1080","legacy","46","46","C:/Users/ekealey/Desktop/subject-223.csv","xpyriment","Lentiform Loewenfeld","3.3.11","0","/","NA","NA","NA","NA","space","/","876","NA","NA","NA","NA","43759","876","2","legacy","1024","2","48000","-16","AB_m21","223","odd","FILL_NW","KRAISE","1881","245775","243730","236271","45653","NA","NA","NA","NA","NA","244231","NA","NA","NA","243227","NA","243202","1893","246125","NA","NA","NA","244271","1881","1881","NA","245147","245171","243202","244230","244251","morph21_Oliver/Morris","34","34280","47","yes","1920","33"
"250","70.83333333333333","70.83333333333333","730.3541666666666","730.3541666666666","black","no","xpyriment","legacy","legacy","0","203","NA","uniform","NA","NA","NA","0","undefined","0","0","47","47","47","0","47","47","47","NA","0","47","NA","NA","0","47","NA","47","0","47","NA","NA","NA","47","0","0","NA","47","47","47","47","47","48","z","Wed Oct 18 15:48:51 2023","The main experiment item","yes","m21-ab-lexicalDecision.osexp","C:\Users\ekealey\Desktop","no","mono","no","18","no","white","no","yes","1080","legacy","47","47","C:/Users/ekealey/Desktop/subject-223.csv","xpyriment","Lentiform Loewenfeld","3.3.11","0","/","NA","NA","NA","NA","space","/","777","NA","NA","NA","NA","43759","777","2","legacy","1024","2","48000","-16","AB_m21","223","odd","NW_S_COMP","BRANCHER","1881","251136","247685","249632","45653","NA","NA","NA","NA","NA","248185","NA","NA","NA","247185","NA","247156","1893","251386","NA","NA","NA","248226","1881","1881","NA","249004","249029","247156","248185","248206","morph21_Oliver/Morris","34","35057","48","yes","1920","16"
"250","71.42857142857143","71.42857142857143","726.0408163265306","726.0408163265306","black","no","xpyriment","legacy","legacy","0","207","NA","uniform","NA","NA","NA","1","undefined","1","0","48","48","48","0","48","48","48","NA","0","48","NA","NA","0","48","NA","48","0","48","NA","NA","NA","48","0","0","NA","48","48","48","48","48","49","/","Wed Oct 18 15:48:51 2023","The main experiment item","yes","m21-ab-lexicalDecision.osexp","C:\Users\ekealey\Desktop","no","mono","no","18","no","white","no","yes","1080","legacy","48","48","C:/Users/ekealey/Desktop/subject-223.csv","xpyriment","Lentiform Loewenfeld","3.3.11","0","/","NA","NA","NA","NA","space","/","519","NA","NA","NA","NA","43759","519","2","legacy","1024","2","48000","-16","AB_m21","223","odd","FILL_W","SUIT","1881","254671","252983","249632","45653","NA","NA","NA","NA","NA","253483","NA","NA","NA","252482","NA","252453","1893","254922","NA","NA","NA","253524","1881","1881","NA","254043","254068","252453","253483","253504","morph21_Oliver/Morris","35","35576","49","yes","1920","49"
"200","72","72","725.9","725.9","black","no","xpyriment","legacy","legacy","0","203","NA","uniform","NA","NA","NA","1","undefined","1","0","49","49","49","0","49","49","49","NA","0","49","NA","NA","0","49","NA","49","0","49","NA","NA","NA","49","0","0","NA","49","49","49","49","49","50","z","Wed Oct 18 15:48:51 2023","The main experiment item","yes","m21-ab-lexicalDecision.osexp","C:\Users\ekealey\Desktop","no","mono","no","18","no","white","no","yes","1080","legacy","49","49","C:/Users/ekealey/Desktop/subject-223.csv","xpyriment","Lentiform Loewenfeld","3.3.11","0","z","NA","NA","NA","NA","space","z","719","NA","NA","NA","NA","43759","719","2","legacy","1024","2","48000","-16","AB_m21","223","odd","NW_S_COMP","ADOPTILP","1881","258360","256470","249632","45653","NA","NA","NA","NA","NA","256971","NA","NA","NA","255970","NA","255941","1893","258560","NA","NA","NA","257011","1881","1881","NA","257731","257756","255941","256971","256991","morph21_Oliver/Morris","36","36295","50","yes","1920","19"
"300","72.54901960784314","72.54901960784314","722.0980392156863","722.0980392156863","black","no","xpyriment","legacy","legacy","0","202","NA","uniform","NA","NA","NA","1","undefined","1","0","50","50","50","0","50","50","50","NA","0","50","NA","NA","0","50","NA","50","0","50","NA","NA","NA","50","0","0","NA","50","50","50","50","50","51","/","Wed Oct 18 15:48:51 2023","The main experiment item","yes","m21-ab-lexicalDecision.osexp","C:\Users\ekealey\Desktop","no","mono","no","18","no","white","no","yes","1080","legacy","50","50","C:/Users/ekealey/Desktop/subject-223.csv","xpyriment","Lentiform Loewenfeld","3.3.11","0","/","NA","NA","NA","NA","space","/","532","NA","NA","NA","NA","43759","532","2","legacy","1024","2","48000","-16","AB_m21","223","odd","CW_L","MADNESS","1881","263319","260114","261815","45653","NA","NA","NA","NA","NA","260614","NA","NA","NA","259614","NA","259585","1893","263619","NA","NA","NA","260655","1881","1881","NA","261188","261211","259585","260614","260635","morph21_Oliver/Morris","37","36827","51","yes","1920","41"
"200","71.15384615384616","71.15384615384616","721.4423076923077","721.4423076923077","black","no","xpyriment","legacy","legacy","0","203","NA","uniform","NA","NA","NA","0","undefined","0","0","51","51","51","0","51","51","51","NA","0","51","NA","NA","0","51","NA","51","0","51","NA","NA","NA","51","0","0","NA","51","51","51","51","51","52","z","Wed Oct 18 15:48:51 2023","The main experiment item","yes","m21-ab-lexicalDecision.osexp","C:\Users\ekealey\Desktop","no","mono","no","18","no","white","no","yes","1080","legacy","51","51","C:/Users/ekealey/Desktop/subject-223.csv","xpyriment","Lentiform Loewenfeld","3.3.11","0","/","NA","NA","NA","NA","space","/","688","NA","NA","NA","NA","43759","688","2","legacy","1024","2","48000","-16","AB_m21","223","odd","NW_S_COMP","ANTISM","1881","267023","265166","261815","45653","NA","NA","NA","NA","NA","265667","NA","NA","NA","264663","NA","264635","1893","267223","NA","NA","NA","265707","1881","1881","NA","266395","266419","264634","265667","265687","morph21_Oliver/Morris","37","37515","52","yes","1920","8"
"250","71.69811320754717","71.69811320754717","720.622641509434","720.622641509434","black","no","xpyriment","legacy","legacy","0","201","NA","uniform","NA","NA","NA","1","undefined","1","0","52","52","52","0","52","52","52","NA","0","52","NA","NA","0","52","NA","52","0","52","NA","NA","NA","52","0","0","NA","52","52","52","52","52","53","/","Wed Oct 18 15:48:51 2023","The main experiment item","yes","m21-ab-lexicalDecision.osexp","C:\Users\ekealey\Desktop","no","mono","no","18","no","white","no","yes","1080","legacy","52","52","C:/Users/ekealey/Desktop/subject-223.csv","xpyriment","Lentiform Loewenfeld","3.3.11","0","/","NA","NA","NA","NA","space","/","678","NA","NA","NA","NA","43759","678","2","legacy","1024","2","48000","-16","AB_m21","223","odd","CW_S","GRIMLY","1881","270614","268767","261815","45653","NA","NA","NA","NA","NA","269268","NA","NA","NA","268265","NA","268238","1893","270864","NA","NA","NA","269309","1881","1881","NA","269988","270011","268238","269268","269289","morph21_Oliver/Morris","38","38193","53","yes","1920","31"
"300","72.22222222222223","72.22222222222223","719.5555555555555","719.5555555555555","black","no","xpyriment","legacy","legacy","0","202","NA","uniform","NA","NA","NA","1","undefined","1","0","53","53","53","0","53","53","53","NA","0","53","NA","NA","0","53","NA","53","0","53","NA","NA","NA","53","0","0","NA","53","53","53","53","53","54","/","Wed Oct 18 15:48:51 2023","The main experiment item","yes","m21-ab-lexicalDecision.osexp","C:\Users\ekealey\Desktop","no","mono","no","18","no","white","no","yes","1080","legacy","53","53","C:/Users/ekealey/Desktop/subject-223.csv","xpyriment","Lentiform Loewenfeld","3.3.11","0","/","NA","NA","NA","NA","space","/","663","NA","NA","NA","NA","43759","663","2","legacy","1024","2","48000","-16","AB_m21","223","odd","CW_L","COMPOSER","1881","275759","272422","274255","45653","NA","NA","NA","NA","NA","272923","NA","NA","NA","271920","NA","271896","1893","276060","NA","NA","NA","272964","1881","1881","NA","273628","273651","271896","272923","272944","morph21_Oliver/Morris","39","38856","54","yes","1920","6"
"250","72.72727272727273","72.72727272727273","715.8","715.8","black","no","xpyriment","legacy","legacy","0","201","NA","uniform","NA","NA","NA","1","undefined","1","0","54","54","54","0","54","54","54","NA","0","54","NA","NA","0","54","NA","54","0","54","NA","NA","NA","54","0","0","NA","54","54","54","54","54","55","/","Wed Oct 18 15:48:51 2023","The main experiment item","yes","m21-ab-lexicalDecision.osexp","C:\Users\ekealey\Desktop","no","mono","no","18","no","white","no","yes","1080","legacy","54","54","C:/Users/ekealey/Desktop/subject-223.csv","xpyriment","Lentiform Loewenfeld","3.3.11","0","/","NA","NA","NA","NA","space","/","513","NA","NA","NA","NA","43759","513","2","legacy","1024","2","48000","-16","AB_m21","223","odd","CW_S","PLANNER","1881","279304","277621","274255","45653","NA","NA","NA","NA","NA","278122","NA","NA","NA","277120","NA","277087","1893","279554","NA","NA","NA","278162","1881","1881","NA","278675","278700","277087","278122","278142","morph21_Oliver/Morris","40","39369","55","yes","1920","22"
"400","73.21428571428571","73.21428571428571","721.5535714285714","721.5535714285714","black","no","xpyriment","legacy","legacy","0","206","NA","uniform","NA","NA","NA","1","undefined","1","0","55","55","55","0","55","55","55","NA","0","55","NA","NA","0","55","NA","55","0","55","NA","NA","NA","55","0","0","NA","55","55","55","55","55","56","z","Wed Oct 18 15:48:51 2023","The main experiment item","yes","m21-ab-lexicalDecision.osexp","C:\Users\ekealey\Desktop","no","mono","no","18","no","white","no","yes","1080","legacy","55","55","C:/Users/ekealey/Desktop/subject-223.csv","xpyriment","Lentiform Loewenfeld","3.3.11","0","z","NA","NA","NA","NA","space","z","1038","NA","NA","NA","NA","43759","1038","2","legacy","1024","2","48000","-16","AB_m21","223","odd","NW_L_SIMP","VALIDEL","1881","283329","281119","274255","45653","NA","NA","NA","NA","NA","281619","NA","NA","NA","280619","NA","280590","1893","283729","NA","NA","NA","281660","1881","1881","NA","282699","282724","280590","281619","281640","morph21_Oliver/Morris","41","40407","56","yes","1920","23"
"300","73.6842105263158","73.6842105263158","718.2105263157895","718.2105263157895","black","no","xpyriment","legacy","legacy","0","201","NA","uniform","NA","NA","NA","1","undefined","1","0","56","56","56","0","56","56","56","NA","0","56","NA","NA","0","56","NA","56","0","56","NA","NA","NA","56","0","0","NA","56","56","56","56","56","57","/","Wed Oct 18 15:48:51 2023","The main experiment item","yes","m21-ab-lexicalDecision.osexp","C:\Users\ekealey\Desktop","no","mono","no","18","no","white","no","yes","1080","legacy","56","56","C:/Users/ekealey/Desktop/subject-223.csv","xpyriment","Lentiform Loewenfeld","3.3.11","0","/","NA","NA","NA","NA","space","/","531","NA","NA","NA","NA","43759","531","2","legacy","1024","2","48000","-16","AB_m21","223","odd","CW_S","ATTACKER","1881","288495","285290","286991","45653","NA","NA","NA","NA","NA","285791","NA","NA","NA","284789","NA","284760","1893","288795","NA","NA","NA","285832","1881","1881","NA","286363","286387","284760","285791","285812","morph21_Oliver/Morris","42","40938","57","yes","1920","20"
"250","74.13793103448276","74.13793103448276","722.2586206896551","722.2586206896551","black","no","xpyriment","legacy","legacy","0","202","NA","uniform","NA","NA","NA","1","undefined","1","0","57","57","57","0","57","57","57","NA","0","57","NA","NA","0","57","NA","57","0","57","NA","NA","NA","57","0","0","NA","57","57","57","57","57","58","/","Wed Oct 18 15:48:51 2023","The main experiment item","yes","m21-ab-lexicalDecision.osexp","C:\Users\ekealey\Desktop","no","mono","no","18","no","white","no","yes","1080","legacy","57","57","C:/Users/ekealey/Desktop/subject-223.csv","xpyriment","Lentiform Loewenfeld","3.3.11","0","/","NA","NA","NA","NA","space","/","953","NA","NA","NA","NA","43759","953","2","legacy","1024","2","48000","-16","AB_m21","223","odd","CW_L","DEAFNESS","1881","292505","290381","286991","45653","NA","NA","NA","NA","NA","290881","NA","NA","NA","289880","NA","289855","1893","292755","NA","NA","NA","290922","1881","1881","NA","291876","291902","289854","290881","290902","morph21_Oliver/Morris","43","41891","58","yes","1920","39"
"200","74.57627118644068","74.57627118644068","722.9491525423729","722.9491525423729","black","no","xpyriment","legacy","legacy","0","201","NA","uniform","NA","NA","NA","1","undefined","1","0","58","58","58","0","58","58","58","NA","0","58","NA","NA","0","58","NA","58","0","58","NA","NA","NA","58","0","0","NA","58","58","58","58","58","59","/","Wed Oct 18 15:48:51 2023","The main experiment item","yes","m21-ab-lexicalDecision.osexp","C:\Users\ekealey\Desktop","no","mono","no","18","no","white","no","yes","1080","legacy","58","58","C:/Users/ekealey/Desktop/subject-223.csv","xpyriment","Lentiform Loewenfeld","3.3.11","0","/","NA","NA","NA","NA","space","/","763","NA","NA","NA","NA","43759","763","2","legacy","1024","2","48000","-16","AB_m21","223","odd","CW_S","LOCALLY","1881","296234","294298","286991","45653","NA","NA","NA","NA","NA","294799","NA","NA","NA","293797","NA","293771","1893","296434","NA","NA","NA","294840","1881","1881","NA","295604","295630","293771","294799","294820","morph21_Oliver/Morris","44","42654","59","yes","1920","37"
"400","75","75","720.5666666666667","720.5666666666667","black","no","xpyriment","legacy","legacy","0","202","NA","uniform","NA","NA","NA","1","undefined","1","0","59","59","59","0","59","59","59","NA","0","59","NA","NA","0","59","NA","59","0","59","NA","NA","NA","59","0","0","NA","59","59","59","59","59","60","/","Wed Oct 18 15:48:51 2023","The main experiment item","yes","m21-ab-lexicalDecision.osexp","C:\Users\ekealey\Desktop","no","mono","no","18","no","white","no","yes","1080","legacy","59","59","C:/Users/ekealey/Desktop/subject-223.csv","xpyriment","Lentiform Loewenfeld","3.3.11","0","/","NA","NA","NA","NA","space","/","580","NA","NA","NA","NA","43759","580","2","legacy","1024","2","48000","-16","AB_m21","223","odd","CW_L","LOCKER","1881","301246","297993","299742","45653","NA","NA","NA","NA","NA","298494","NA","NA","NA","297491","NA","297466","1893","301646","NA","NA","NA","298535","1881","1881","NA","299115","299139","297466","298494","298515","morph21_Oliver/Morris","45","43234","60","yes","1920","8"
"350","75.40983606557377","75.40983606557377","721.3770491803278","721.3770491803278","black","no","xpyriment","legacy","legacy","0","207","NA","uniform","NA","NA","NA","1","undefined","1","0","60","60","60","0","60","60","60","NA","0","60","NA","NA","0","60","NA","60","0","60","NA","NA","NA","60","0","0","NA","60","60","60","60","60","61","/","Wed Oct 18 15:48:51 2023","The main experiment item","yes","m21-ab-lexicalDecision.osexp","C:\Users\ekealey\Desktop","no","mono","no","18","no","white","no","yes","1080","legacy","60","60","C:/Users/ekealey/Desktop/subject-223.csv","xpyriment","Lentiform Loewenfeld","3.3.11","0","/","NA","NA","NA","NA","space","/","770","NA","NA","NA","NA","43759","770","2","legacy","1024","2","48000","-16","AB_m21","223","odd","FILL_W","LEAK","1881","305193","303251","299742","45653","NA","NA","NA","NA","NA","303751","NA","NA","NA","302751","NA","302723","1893","305543","NA","NA","NA","303792","1881","1881","NA","304563","304588","302723","303751","303772","morph21_Oliver/Morris","46","44004","61","yes","1920","9"
"250","75.80645161290323","75.80645161290323","723.241935483871","723.241935483871","black","no","xpyriment","legacy","legacy","0","204","NA","uniform","NA","NA","NA","1","undefined","1","0","61","61","61","0","61","61","61","NA","0","61","NA","NA","0","61","NA","61","0","61","NA","NA","NA","61","0","0","NA","61","61","61","61","61","62","z","Wed Oct 18 15:48:51 2023","The main experiment item","yes","m21-ab-lexicalDecision.osexp","C:\Users\ekealey\Desktop","no","mono","no","18","no","white","no","yes","1080","legacy","61","61","C:/Users/ekealey/Desktop/subject-223.csv","xpyriment","Lentiform Loewenfeld","3.3.11","0","z","NA","NA","NA","NA","space","z","837","NA","NA","NA","NA","43759","837","2","legacy","1024","2","48000","-16","AB_m21","223","odd","NW_L_COMP","TRIPARY","1881","309097","307088","299742","45653","NA","NA","NA","NA","NA","307589","NA","NA","NA","306586","NA","306561","1893","309347","NA","NA","NA","307630","1881","1881","NA","308467","308494","306561","307589","307610","morph21_Oliver/Morris","47","44841","62","yes","1920","2"
"250","76.19047619047619","76.19047619047619","727.1904761904761","727.1904761904761","black","no","xpyriment","legacy","legacy","0","205","NA","uniform","NA","NA","NA","1","undefined","1","0","62","62","62","0","62","62","62","NA","0","62","NA","NA","0","62","NA","62","0","62","NA","NA","NA","62","0","0","NA","62","62","62","62","62","63","z","Wed Oct 18 15:48:51 2023","The main experiment item","yes","m21-ab-lexicalDecision.osexp","C:\Users\ekealey\Desktop","no","mono","no","18","no","white","no","yes","1080","legacy","62","62","C:/Users/ekealey/Desktop/subject-223.csv","xpyriment","Lentiform Loewenfeld","3.3.11","0","z","NA","NA","NA","NA","space","z","972","NA","NA","NA","NA","43759","972","2","legacy","1024","2","48000","-16","AB_m21","223","odd","NW_S_SIMP","ZOOMFIL","1881","314544","310897","313039","45653","NA","NA","NA","NA","NA","311399","NA","NA","NA","310394","NA","310370","1893","314794","NA","NA","NA","311439","1881","1881","NA","312412","312436","310370","311399","311419","morph21_Oliver/Morris","48","45813","63","yes","1920","19"
"200","75","75","724.125","724.125","black","no","xpyriment","legacy","legacy","0","203","NA","uniform","NA","NA","NA","0","undefined","0","0","63","63","63","0","63","63","63","NA","0","63","NA","NA","0","63","NA","63","0","63","NA","NA","NA","63","0","0","NA","63","63","63","63","63","64","z","Wed Oct 18 15:48:51 2023","The main experiment item","yes","m21-ab-lexicalDecision.osexp","C:\Users\ekealey\Desktop","no","mono","no","18","no","white","no","yes","1080","legacy","63","63","C:/Users/ekealey/Desktop/subject-223.csv","xpyriment","Lentiform Loewenfeld","3.3.11","0","/","NA","NA","NA","NA","space","/","531","NA","NA","NA","NA","43759","531","2","legacy","1024","2","48000","-16","AB_m21","223","odd","NW_S_COMP","HAPPENANCE","1881","318088","316386","313039","45653","NA","NA","NA","NA","NA","316887","NA","NA","NA","315886","NA","315858","1893","318288","NA","NA","NA","316927","1881","1881","NA","317459","317484","315858","316887","316907","morph21_Oliver/Morris","48","46344","64","yes","1920","2"
"300","75.38461538461539","75.38461538461539","726.1846153846154","726.1846153846154","black","no","xpyriment","legacy","legacy","0","202","NA","uniform","NA","NA","NA","1","undefined","1","0","64","64","64","0","64","64","64","NA","0","64","NA","NA","0","64","NA","64","0","64","NA","NA","NA","64","0","0","NA","64","64","64","64","64","65","/","Wed Oct 18 15:48:51 2023","The main experiment item","yes","m21-ab-lexicalDecision.osexp","C:\Users\ekealey\Desktop","no","mono","no","18","no","white","no","yes","1080","legacy","64","64","C:/Users/ekealey/Desktop/subject-223.csv","xpyriment","Lentiform Loewenfeld","3.3.11","0","/","NA","NA","NA","NA","space","/","858","NA","NA","NA","NA","43759","858","2","legacy","1024","2","48000","-16","AB_m21","223","odd","CW_L","DAMPISH","1881","321879","319852","313039","45653","NA","NA","NA","NA","NA","320353","NA","NA","NA","319351","NA","319323","1893","322179","NA","NA","NA","320393","1881","1881","NA","321252","321276","319323","320353","320373","morph21_Oliver/Morris","49","47202","65","yes","1920","28"
"300","74.24242424242425","74.24242424242425","733.3636363636364","733.3636363636364","black","no","xpyriment","legacy","legacy","0","206","NA","uniform","NA","NA","NA","0","undefined","0","0","65","65","65","0","65","65","65","NA","0","65","NA","NA","0","65","NA","65","0","65","NA","NA","NA","65","0","0","NA","65","65","65","65","65","66","z","Wed Oct 18 15:48:51 2023","The main experiment item","yes","m21-ab-lexicalDecision.osexp","C:\Users\ekealey\Desktop","no","mono","no","18","no","white","no","yes","1080","legacy","65","65","C:/Users/ekealey/Desktop/subject-223.csv","xpyriment","Lentiform Loewenfeld","3.3.11","0","None","NA","NA","NA","NA","space","None","1200","NA","NA","NA","NA","43759","1200","2","legacy","1024","2","48000","-16","AB_m21","223","odd","NW_L_SIMP","BANDADY","1881","327639","323764","326134","45653","NA","NA","NA","NA","NA","324265","NA","NA","NA","323264","NA","323237","1893","327940","NA","NA","NA","324306","1881","1881","NA","325506","325530","323237","324265","324286","morph21_Oliver/Morris","49","48402","66","yes","1920","3"
"350","73.13432835820896","73.13432835820896","737.955223880597","737.955223880597","black","no","xpyriment","legacy","legacy","0","205","NA","uniform","NA","NA","NA","0","undefined","0","0","66","66","66","0","66","66","66","NA","0","66","NA","NA","0","66","NA","66","0","66","NA","NA","NA","66","0","0","NA","66","66","66","66","66","67","z","Wed Oct 18 15:48:51 2023","The main experiment item","yes","m21-ab-lexicalDecision.osexp","C:\Users\ekealey\Desktop","no","mono","no","18","no","white","no","yes","1080","legacy","66","66","C:/Users/ekealey/Desktop/subject-223.csv","xpyriment","Lentiform Loewenfeld","3.3.11","0","/","NA","NA","NA","NA","space","/","1041","NA","NA","NA","NA","43759","1041","2","legacy","1024","2","48000","-16","AB_m21","223","odd","NW_S_SIMP","BASKODY","1881","331742","329532","326134","45653","NA","NA","NA","NA","NA","330034","NA","NA","NA","329030","NA","329004","1893","332092","NA","NA","NA","330074","1881","1881","NA","331116","331139","329004","330034","330054","morph21_Oliver/Morris","49","49443","67","yes","1920","10"
"200","72.05882352941177","72.05882352941177","740.2647058823529","740.2647058823529","black","no","xpyriment","legacy","legacy","0","205","NA","uniform","NA","NA","NA","0","undefined","0","0","67","67","67","0","67","67","67","NA","0","67","NA","NA","0","67","NA","67","0","67","NA","NA","NA","67","0","0","NA","67","67","67","67","67","68","z","Wed Oct 18 15:48:51 2023","The main experiment item","yes","m21-ab-lexicalDecision.osexp","C:\Users\ekealey\Desktop","no","mono","no","18","no","white","no","yes","1080","legacy","67","67","C:/Users/ekealey/Desktop/subject-223.csv","xpyriment","Lentiform Loewenfeld","3.3.11","0","/","NA","NA","NA","NA","space","/","895","NA","NA","NA","NA","43759","895","2","legacy","1024","2","48000","-16","AB_m21","223","odd","NW_S_SIMP","NULLITH","1881","335702","333639","326134","45653","NA","NA","NA","NA","NA","334139","NA","NA","NA","333139","NA","333111","1893","335902","NA","NA","NA","334180","1881","1881","NA","335076","335099","333111","334139","334159","morph21_Oliver/Morris","49","50338","68","yes","1920","23"
"250","72.46376811594203","72.46376811594203","740.8985507246376","740.8985507246376","black","no","xpyriment","legacy","legacy","0","208","NA","uniform","NA","NA","NA","1","undefined","1","0","68","68","68","0","68","68","68","NA","0","68","NA","NA","0","68","NA","68","0","68","NA","NA","NA","68","0","0","NA","68","68","68","68","68","69","z","Wed Oct 18 15:48:51 2023","The main experiment item","yes","m21-ab-lexicalDecision.osexp","C:\Users\ekealey\Desktop","no","mono","no","18","no","white","no","yes","1080","legacy","68","68","C:/Users/ekealey/Desktop/subject-223.csv","xpyriment","Lentiform Loewenfeld","3.3.11","0","z","NA","NA","NA","NA","space","z","784","NA","NA","NA","NA","43759","784","2","legacy","1024","2","48000","-16","AB_m21","223","odd","FILL_NW","DOWED","1881","340903","337445","339400","45653","NA","NA","NA","NA","NA","337945","NA","NA","NA","336944","NA","336911","1893","341153","NA","NA","NA","337986","1881","1881","NA","338771","338797","336910","337945","337966","morph21_Oliver/Morris","50","51122","69","yes","1920","16"
"250","72.85714285714286","72.85714285714286","742.7285714285714","742.7285714285714","black","no","xpyriment","legacy","legacy","0","202","NA","uniform","NA","NA","NA","1","undefined","1","0","69","69","69","0","69","69","69","NA","0","69","NA","NA","0","69","NA","69","0","69","NA","NA","NA","69","0","0","NA","69","69","69","69","69","70","/","Wed Oct 18 15:48:51 2023","The main experiment item","yes","m21-ab-lexicalDecision.osexp","C:\Users\ekealey\Desktop","no","mono","no","18","no","white","no","yes","1080","legacy","69","69","C:/Users/ekealey/Desktop/subject-223.csv","xpyriment","Lentiform Loewenfeld","3.3.11","0","/","NA","NA","NA","NA","space","/","869","NA","NA","NA","NA","43759","869","2","legacy","1024","2","48000","-16","AB_m21","223","odd","CW_L","PUSHER","1881","344750","342714","339400","45653","NA","NA","NA","NA","NA","343214","NA","NA","NA","342213","NA","342180","1893","345000","NA","NA","NA","343254","1881","1881","NA","344124","344147","342180","343214","343234","morph21_Oliver/Morris","51","51991","70","yes","1920","13"
"400","73.2394366197183","73.2394366197183","741.2676056338029","741.2676056338029","black","no","xpyriment","legacy","legacy","0","207","NA","uniform","NA","NA","NA","1","undefined","1","0","70","70","70","0","70","70","70","NA","0","70","NA","NA","0","70","NA","70","0","70","NA","NA","NA","70","0","0","NA","70","70","70","70","70","71","/","Wed Oct 18 15:48:51 2023","The main experiment item","yes","m21-ab-lexicalDecision.osexp","C:\Users\ekealey\Desktop","no","mono","no","18","no","white","no","yes","1080","legacy","70","70","C:/Users/ekealey/Desktop/subject-223.csv","xpyriment","Lentiform Loewenfeld","3.3.11","0","/","NA","NA","NA","NA","space","/","639","NA","NA","NA","NA","43759","639","2","legacy","1024","2","48000","-16","AB_m21","223","odd","FILL_W","DRUNK","1881","348361","346549","339400","45653","NA","NA","NA","NA","NA","347050","NA","NA","NA","346048","NA","346018","1893","348761","NA","NA","NA","347091","1881","1881","NA","347731","347756","346018","347050","347071","morph21_Oliver/Morris","52","52630","71","yes","1920","19"
"350","73.61111111111111","73.61111111111111","744.0138888888889","744.0138888888889","black","no","xpyriment","legacy","legacy","0","206","NA","uniform","NA","NA","NA","1","undefined","1","0","71","71","71","0","71","71","71","NA","0","71","NA","NA","0","71","NA","71","0","71","NA","NA","NA","71","0","0","NA","71","71","71","71","71","72","z","Wed Oct 18 15:48:51 2023","The main experiment item","yes","m21-ab-lexicalDecision.osexp","C:\Users\ekealey\Desktop","no","mono","no","18","no","white","no","yes","1080","legacy","71","71","C:/Users/ekealey/Desktop/subject-223.csv","xpyriment","Lentiform Loewenfeld","3.3.11","0","z","NA","NA","NA","NA","space","z","939","NA","NA","NA","NA","43759","939","2","legacy","1024","2","48000","-16","AB_m21","223","odd","NW_L_SIMP","HABITIG","1881","353944","350331","352440","45653","NA","NA","NA","NA","NA","350832","NA","NA","NA","349830","NA","349804","1893","354294","NA","NA","NA","350872","1881","1881","NA","351812","351836","349804","350832","350852","morph21_Oliver/Morris","53","53569","72","yes","1920","7"
"350","73.97260273972603","73.97260273972603","741.5753424657535","741.5753424657535","black","no","xpyriment","legacy","legacy","0","201","NA","uniform","NA","NA","NA","1","undefined","1","0","72","72","72","0","72","72","72","NA","0","72","NA","NA","0","72","NA","72","0","72","NA","NA","NA","72","0","0","NA","72","72","72","72","72","73","/","Wed Oct 18 15:48:51 2023","The main experiment item","yes","m21-ab-lexicalDecision.osexp","C:\Users\ekealey\Desktop","no","mono","no","18","no","white","no","yes","1080","legacy","72","72","C:/Users/ekealey/Desktop/subject-223.csv","xpyriment","Lentiform Loewenfeld","3.3.11","0","/","NA","NA","NA","NA","space","/","566","NA","NA","NA","NA","43759","566","2","legacy","1024","2","48000","-16","AB_m21","223","odd","CW_S","BEARDED","1881","357606","355872","352440","45653","NA","NA","NA","NA","NA","356372","NA","NA","NA","355372","NA","355340","1893","357956","NA","NA","NA","356413","1881","1881","NA","356980","357003","355340","356372","356393","morph21_Oliver/Morris","54","54135","73","yes","1920","8"
"350","74.32432432432432","74.32432432432432","738.7567567567568","738.7567567567568","black","no","xpyriment","legacy","legacy","0","207","NA","uniform","NA","NA","NA","1","undefined","1","0","73","73","73","0","73","73","73","NA","0","73","NA","NA","0","73","NA","73","0","73","NA","NA","NA","73","0","0","NA","73","73","73","73","73","74","/","Wed Oct 18 15:48:51 2023","The main experiment item","yes","m21-ab-lexicalDecision.osexp","C:\Users\ekealey\Desktop","no","mono","no","18","no","white","no","yes","1080","legacy","73","73","C:/Users/ekealey/Desktop/subject-223.csv","xpyriment","Lentiform Loewenfeld","3.3.11","0","/","NA","NA","NA","NA","space","/","533","NA","NA","NA","NA","43759","533","2","legacy","1024","2","48000","-16","AB_m21","223","odd","FILL_W","LIFT","1881","361226","359519","352440","45653","NA","NA","NA","NA","NA","360021","NA","NA","NA","359019","NA","358995","1893","361576","NA","NA","NA","360062","1881","1881","NA","360596","360621","358995","360021","360042","morph21_Oliver/Morris","55","54668","74","yes","1920","39"
"300","74.66666666666667","74.66666666666667","737.7466666666667","737.7466666666667","black","no","xpyriment","legacy","legacy","0","208","NA","uniform","NA","NA","NA","undefined","undefined","1","0","74","74","74","0","74","74","74","NA","0","74","NA","NA","0","74","NA","74","0","74","NA","NA","NA","74","0","0","NA","74","74","74","74","74","75","z","Wed Oct 18 15:48:51 2023","The main experiment item","yes","m21-ab-lexicalDecision.osexp","C:\Users\ekealey\Desktop","no","mono","no","18","no","white","no","yes","1080","legacy","74","74","C:/Users/ekealey/Desktop/subject-223.csv","xpyriment","Lentiform Loewenfeld","3.3.11","0","space","space","NA","NA","NA","space","z","6667","6667","NA","NA","NA","43759","663","2","legacy","1024","2","48000","-16","AB_m21","223","odd","FILL_NW","SCURE","1881","366478","363143","364975","45653","366783","NA","NA","NA","NA","363644","NA","NA","NA","362643","NA","362614","1893","373451","NA","NA","NA","363684","1881","1881","NA","364348","364371","362614","363644","363664","morph21_Oliver/Morris","56","55331","75","yes","1920","41"
"250","73.6842105263158","73.6842105263158","742.6052631578947","742.6052631578947","black","no","xpyriment","legacy","legacy","0","204","NA","uniform","NA","NA","NA","0","undefined","0","0","75","75","75","0","75","75","75","NA","0","75","NA","NA","0","75","NA","75","0","75","NA","NA","NA","75","0","0","NA","75","75","75","75","75","76","z","Wed Oct 18 15:48:51 2023","The main experiment item","yes","m21-ab-lexicalDecision.osexp","C:\Users\ekealey\Desktop","no","mono","no","18","no","white","no","yes","1080","legacy","75","75","C:/Users/ekealey/Desktop/subject-223.csv","xpyriment","Lentiform Loewenfeld","3.3.11","0","/","space","NA","NA","NA","space","/","1107","6667","NA","NA","NA","43759","1107","2","legacy","1024","2","48000","-16","AB_m21","223","odd","NW_L_COMP","FREENESS","1881","377361","375083","364975","45653","366783","NA","NA","NA","NA","375583","NA","NA","NA","374583","NA","374555","1893","377611","NA","NA","NA","375624","1881","1881","NA","376731","376757","374555","375583","375604","morph21_Oliver/Morris","56","56438","76","yes","1920","15"
"250","74.02597402597402","74.02597402597402","742.8571428571429","742.8571428571429","black","no","xpyriment","legacy","legacy","0","208","NA","uniform","NA","NA","NA","1","undefined","1","0","76","76","76","0","76","76","76","NA","0","76","NA","NA","0","76","NA","76","0","76","NA","NA","NA","76","0","0","NA","76","76","76","76","76","77","z","Wed Oct 18 15:48:51 2023","The main experiment item","yes","m21-ab-lexicalDecision.osexp","C:\Users\ekealey\Desktop","no","mono","no","18","no","white","no","yes","1080","legacy","76","76","C:/Users/ekealey/Desktop/subject-223.csv","xpyriment","Lentiform Loewenfeld","3.3.11","0","z","space","NA","NA","NA","space","z","762","6667","NA","NA","NA","43759","762","2","legacy","1024","2","48000","-16","AB_m21","223","odd","FILL_NW","PIFTH","1881","381096","379162","364975","45653","366783","NA","NA","NA","NA","379664","NA","NA","NA","378661","NA","378635","1893","381346","NA","NA","NA","379704","1881","1881","NA","380467","380491","378635","379663","379684","morph21_Oliver/Morris","57","57200","77","yes","1920","36"
"300","74.35897435897436","74.35897435897436","740.4102564102565","740.4102564102565","black","no","xpyriment","legacy","legacy","0","201","NA","uniform","NA","NA","NA","1","undefined","1","0","77","77","77","0","77","77","77","NA","0","77","NA","NA","0","77","NA","77","0","77","NA","NA","NA","77","0","0","NA","77","77","77","77","77","78","/","Wed Oct 18 15:48:51 2023","The main experiment item","yes","m21-ab-lexicalDecision.osexp","C:\Users\ekealey\Desktop","no","mono","no","18","no","white","no","yes","1080","legacy","77","77","C:/Users/ekealey/Desktop/subject-223.csv","xpyriment","Lentiform Loewenfeld","3.3.11","0","/","space","NA","NA","NA","space","/","552","6667","NA","NA","NA","43759","552","2","legacy","1024","2","48000","-16","AB_m21","223","odd","CW_S","INSISTENT","1881","386135","382910","384632","45653","366783","NA","NA","NA","NA","383410","NA","NA","NA","382409","NA","382382","1893","386435","NA","NA","NA","383451","1881","1881","NA","384003","384028","382382","383410","383431","morph21_Oliver/Morris","58","57752","78","yes","1920","9"
"250","74.68354430379746","74.68354430379746","737.8860759493671","737.8860759493671","black","no","xpyriment","legacy","legacy","0","202","NA","uniform","NA","NA","NA","1","undefined","1","0","78","78","78","0","78","78","78","NA","0","78","NA","NA","0","78","NA","78","0","78","NA","NA","NA","78","0","0","NA","78","78","78","78","78","79","/","Wed Oct 18 15:48:51 2023","The main experiment item","yes","m21-ab-lexicalDecision.osexp","C:\Users\ekealey\Desktop","no","mono","no","18","no","white","no","yes","1080","legacy","78","78","C:/Users/ekealey/Desktop/subject-223.csv","xpyriment","Lentiform Loewenfeld","3.3.11","0","/","space","NA","NA","NA","space","/","541","6667","NA","NA","NA","43759","541","2","legacy","1024","2","48000","-16","AB_m21","223","odd","CW_L","FLEXIBLE","1881","389735","388024","384632","45653","366783","NA","NA","NA","NA","388525","NA","NA","NA","387522","NA","387488","1893","389985","NA","NA","NA","388566","1881","1881","NA","389108","389132","387488","388525","388546","morph21_Oliver/Morris","59","58293","79","yes","1920","22"
"400","75","75","739.2125","739.2125","black","no","xpyriment","legacy","legacy","0","202","NA","uniform","NA","NA","NA","1","undefined","1","0","79","79","79","0","79","79","79","NA","0","79","NA","NA","0","79","NA","79","0","79","NA","NA","NA","79","0","0","NA","79","79","79","79","79","80","/","Wed Oct 18 15:48:51 2023","The main experiment item","yes","m21-ab-lexicalDecision.osexp","C:\Users\ekealey\Desktop","no","mono","no","18","no","white","no","yes","1080","legacy","79","79","C:/Users/ekealey/Desktop/subject-223.csv","xpyriment","Lentiform Loewenfeld","3.3.11","0","/","space","NA","NA","NA","space","/","844","6667","NA","NA","NA","43759","844","2","legacy","1024","2","48000","-16","AB_m21","223","odd","CW_L","COOLING","1881","393543","391529","384632","45653","366783","NA","NA","NA","NA","392029","NA","NA","NA","391027","NA","390999","1893","393943","NA","NA","NA","392070","1881","1881","NA","392915","392939","390999","392029","392050","morph21_Oliver/Morris","60","59137","80","yes","1920","24"
"350","74.07407407407408","74.07407407407408","737.925925925926","737.925925925926","black","no","xpyriment","legacy","legacy","0","203","NA","uniform","NA","NA","NA","0","undefined","0","0","80","80","80","0","80","80","80","NA","0","80","NA","NA","0","80","NA","80","0","80","NA","NA","NA","80","0","0","NA","80","80","80","80","80","81","z","Wed Oct 18 15:48:51 2023","The main experiment item","yes","m21-ab-lexicalDecision.osexp","C:\Users\ekealey\Desktop","no","mono","no","18","no","white","no","yes","1080","legacy","80","80","C:/Users/ekealey/Desktop/subject-223.csv","xpyriment","Lentiform Loewenfeld","3.3.11","0","/","space","NA","NA","NA","space","/","635","6667","NA","NA","NA","43759","635","2","legacy","1024","2","48000","-16","AB_m21","223","odd","NW_S_COMP","HEIGHTENCE","1881","398807","395498","397304","45653","366783","NA","NA","NA","NA","395999","NA","NA","NA","394997","NA","394970","1893","399157","NA","NA","NA","396039","1881","1881","NA","396675","396700","394970","395999","396019","morph21_Oliver/Morris","60","59772","81","yes","1920","18"
"300","74.39024390243902","74.39024390243902","741.109756097561","741.109756097561","black","no","xpyriment","legacy","legacy","0","204","NA","uniform","NA","NA","NA","1","undefined","1","0","81","81","81","0","81","81","81","NA","0","81","NA","NA","0","81","NA","81","0","81","NA","NA","NA","81","0","0","NA","81","81","81","81","81","82","z","Wed Oct 18 15:48:51 2023","The main experiment item","yes","m21-ab-lexicalDecision.osexp","C:\Users\ekealey\Desktop","no","mono","no","18","no","white","no","yes","1080","legacy","81","81","C:/Users/ekealey/Desktop/subject-223.csv","xpyriment","Lentiform Loewenfeld","3.3.11","0","z","space","NA","NA","NA","space","z","999","6667","NA","NA","NA","43759","999","2","legacy","1024","2","48000","-16","AB_m21","223","odd","NW_L_COMP","FELLOWOUS","1881","402929","400758","397304","45653","366783","NA","NA","NA","NA","401259","NA","NA","NA","400256","NA","400232","1893","403229","NA","NA","NA","401300","1881","1881","NA","402300","402324","400232","401259","401280","morph21_Oliver/Morris","61","60771","82","yes","1920","17"
"350","74.6987951807229","74.6987951807229","738.4578313253012","738.4578313253012","black","no","xpyriment","legacy","legacy","0","201","NA","uniform","NA","NA","NA","1","undefined","1","0","82","82","82","0","82","82","82","NA","0","82","NA","NA","0","82","NA","82","0","82","NA","NA","NA","82","0","0","NA","82","82","82","82","82","83","/","Wed Oct 18 15:48:51 2023","The main experiment item","yes","m21-ab-lexicalDecision.osexp","C:\Users\ekealey\Desktop","no","mono","no","18","no","white","no","yes","1080","legacy","82","82","C:/Users/ekealey/Desktop/subject-223.csv","xpyriment","Lentiform Loewenfeld","3.3.11","0","/","space","NA","NA","NA","space","/","521","6667","NA","NA","NA","43759","521","2","legacy","1024","2","48000","-16","AB_m21","223","odd","CW_S","SINGER","1881","406470","404780","397304","45653","366783","NA","NA","NA","NA","405281","NA","NA","NA","404280","NA","404251","1893","406820","NA","NA","NA","405321","1881","1881","NA","405843","405867","404251","405281","405301","morph21_Oliver/Morris","62","61292","83","yes","1920","17"
"350","75","75","735.1666666666666","735.1666666666666","black","no","xpyriment","legacy","legacy","0","201","NA","uniform","NA","NA","NA","1","undefined","1","0","83","83","83","0","83","83","83","NA","0","83","NA","NA","0","83","NA","83","0","83","NA","NA","NA","83","0","0","NA","83","83","83","83","83","84","/","Wed Oct 18 15:48:51 2023","The main experiment item","yes","m21-ab-lexicalDecision.osexp","C:\Users\ekealey\Desktop","no","mono","no","18","no","white","no","yes","1080","legacy","83","83","C:/Users/ekealey/Desktop/subject-223.csv","xpyriment","Lentiform Loewenfeld","3.3.11","0","/","space","NA","NA","NA","space","/","462","6667","NA","NA","NA","43759","462","2","legacy","1024","2","48000","-16","AB_m21","223","odd","CW_S","LENDER","1881","411519","408383","410016","45653","366783","NA","NA","NA","NA","408885","NA","NA","NA","407883","NA","407855","1893","411870","NA","NA","NA","408925","1881","1881","NA","409388","409412","407855","408885","408905","morph21_Oliver/Morris","63","61754","84","yes","1920","11"
"250","75.29411764705883","75.29411764705883","736.2588235294118","736.2588235294118","black","no","xpyriment","legacy","legacy","0","201","NA","uniform","NA","NA","NA","1","undefined","1","0","84","84","84","0","84","84","84","NA","0","84","NA","NA","0","84","NA","84","0","84","NA","NA","NA","84","0","0","NA","84","84","84","84","84","85","/","Wed Oct 18 15:48:51 2023","The main experiment item","yes","m21-ab-lexicalDecision.osexp","C:\Users\ekealey\Desktop","no","mono","no","18","no","white","no","yes","1080","legacy","84","84","C:/Users/ekealey/Desktop/subject-223.csv","xpyriment","Lentiform Loewenfeld","3.3.11","0","/","space","NA","NA","NA","space","/","828","6667","NA","NA","NA","43759","828","2","legacy","1024","2","48000","-16","AB_m21","223","odd","CW_S","JAILER","1881","415438","413441","410016","45653","366783","NA","NA","NA","NA","413941","NA","NA","NA","412940","NA","412909","1893","415688","NA","NA","NA","413982","1881","1881","NA","414811","414835","412909","413941","413962","morph21_Oliver/Morris","64","62582","85","yes","1920","13"
"300","75.5813953488372","75.5813953488372","737.3953488372093","737.3953488372093","black","no","xpyriment","legacy","legacy","0","204","NA","uniform","NA","NA","NA","1","undefined","1","0","85","85","85","0","85","85","85","NA","0","85","NA","NA","0","85","NA","85","0","85","NA","NA","NA","85","0","0","NA","85","85","85","85","85","86","z","Wed Oct 18 15:48:51 2023","The main experiment item","yes","m21-ab-lexicalDecision.osexp","C:\Users\ekealey\Desktop","no","mono","no","18","no","white","no","yes","1080","legacy","85","85","C:/Users/ekealey/Desktop/subject-223.csv","xpyriment","Lentiform Loewenfeld","3.3.11","0","z","space","NA","NA","NA","space","z","834","6667","NA","NA","NA","43759","834","2","legacy","1024","2","48000","-16","AB_m21","223","odd","NW_L_COMP","ADDMENT","1881","419239","417236","410016","45653","366783","NA","NA","NA","NA","417737","NA","NA","NA","416735","NA","416708","1893","419539","NA","NA","NA","417777","1881","1881","NA","418611","418636","416708","417737","417757","morph21_Oliver/Morris","65","63416","86","yes","1920","13"
"250","75.86206896551724","75.86206896551724","736.7126436781609","736.7126436781609","black","no","xpyriment","legacy","legacy","0","201","NA","uniform","NA","NA","NA","1","undefined","1","0","86","86","86","0","86","86","86","NA","0","86","NA","NA","0","86","NA","86","0","86","NA","NA","NA","86","0","0","NA","86","86","86","86","86","87","/","Wed Oct 18 15:48:51 2023","The main experiment item","yes","m21-ab-lexicalDecision.osexp","C:\Users\ekealey\Desktop","no","mono","no","18","no","white","no","yes","1080","legacy","86","86","C:/Users/ekealey/Desktop/subject-223.csv","xpyriment","Lentiform Loewenfeld","3.3.11","0","/","space","NA","NA","NA","space","/","678","6667","NA","NA","NA","43759","678","2","legacy","1024","2","48000","-16","AB_m21","223","odd","CW_S","TUTORING","1881","424454","421104","422951","45653","366783","NA","NA","NA","NA","421605","NA","NA","NA","420602","NA","420575","1893","424704","NA","NA","NA","421645","1881","1881","NA","422324","422347","420575","421605","421625","morph21_Oliver/Morris","66","64094","87","yes","1920","27"
"350","75","75","735.5568181818181","735.5568181818181","black","no","xpyriment","legacy","legacy","0","208","NA","uniform","NA","NA","NA","0","undefined","0","0","87","87","87","0","87","87","87","NA","0","87","NA","NA","0","87","NA","87","0","87","NA","NA","NA","87","0","0","NA","87","87","87","87","87","88","z","Wed Oct 18 15:48:51 2023","The main experiment item","yes","m21-ab-lexicalDecision.osexp","C:\Users\ekealey\Desktop","no","mono","no","18","no","white","no","yes","1080","legacy","87","87","C:/Users/ekealey/Desktop/subject-223.csv","xpyriment","Lentiform Loewenfeld","3.3.11","0","/","space","NA","NA","NA","space","/","635","6667","NA","NA","NA","43759","635","2","legacy","1024","2","48000","-16","AB_m21","223","odd","FILL_NW","DASP","1881","428077","426274","422951","45653","366783","NA","NA","NA","NA","426774","NA","NA","NA","425773","NA","425742","1893","428427","NA","NA","NA","426815","1881","1881","NA","427451","427474","425742","426774","426795","morph21_Oliver/Morris","66","64729","88","yes","1920","13"
"300","75.28089887640449","75.28089887640449","739.314606741573","739.314606741573","black","no","xpyriment","legacy","legacy","0","204","NA","uniform","NA","NA","NA","1","undefined","1","0","88","88","88","0","88","88","88","NA","0","88","NA","NA","0","88","NA","88","0","88","NA","NA","NA","88","0","0","NA","88","88","88","88","88","89","z","Wed Oct 18 15:48:51 2023","The main experiment item","yes","m21-ab-lexicalDecision.osexp","C:\Users\ekealey\Desktop","no","mono","no","18","no","white","no","yes","1080","legacy","88","88","C:/Users/ekealey/Desktop/subject-223.csv","xpyriment","Lentiform Loewenfeld","3.3.11","0","z","space","NA","NA","NA","space","z","1070","6667","NA","NA","NA","43759","1070","2","legacy","1024","2","48000","-16","AB_m21","223","odd","NW_L_COMP","SHEETER","1881","432224","429981","422951","45653","366783","NA","NA","NA","NA","430482","NA","NA","NA","429480","NA","429451","1893","432524","NA","NA","NA","430524","1881","1881","NA","431595","431620","429451","430482","430504","morph21_Oliver/Morris","67","65799","89","yes","1920","5"
"300","75.55555555555556","75.55555555555556","739.0666666666667","739.0666666666667","black","no","xpyriment","legacy","legacy","0","202","NA","uniform","NA","NA","NA","1","undefined","1","0","89","89","89","0","89","89","89","NA","0","89","NA","NA","0","89","NA","89","0","89","NA","NA","NA","89","0","0","NA","89","89","89","89","89","90","/","Wed Oct 18 15:48:51 2023","The main experiment item","yes","m21-ab-lexicalDecision.osexp","C:\Users\ekealey\Desktop","no","mono","no","18","no","white","no","yes","1080","legacy","89","89","C:/Users/ekealey/Desktop/subject-223.csv","xpyriment","Lentiform Loewenfeld","3.3.11","0","/","space","NA","NA","NA","space","/","717","6667","NA","NA","NA","43759","717","2","legacy","1024","2","48000","-16","AB_m21","223","odd","CW_L","WEEDY","1881","437487","434095","435983","45653","366783","NA","NA","NA","NA","434596","NA","NA","NA","433593","NA","433568","1893","437787","NA","NA","NA","434637","1881","1881","NA","435355","435379","433568","434596","434617","morph21_Oliver/Morris","68","66516","90","yes","1920","48"
"250","75.82417582417582","75.82417582417582","736.5164835164835","736.5164835164835","black","no","xpyriment","legacy","legacy","0","207","NA","uniform","NA","NA","NA","1","undefined","1","0","90","90","90","0","90","90","90","NA","0","90","NA","NA","0","90","NA","90","0","90","NA","NA","NA","90","0","0","NA","90","90","90","90","90","91","/","Wed Oct 18 15:48:51 2023","The main experiment item","yes","m21-ab-lexicalDecision.osexp","C:\Users\ekealey\Desktop","no","mono","no","18","no","white","no","yes","1080","legacy","90","90","C:/Users/ekealey/Desktop/subject-223.csv","xpyriment","Lentiform Loewenfeld","3.3.11","0","/","space","NA","NA","NA","space","/","507","6667","NA","NA","NA","43759","507","2","legacy","1024","2","48000","-16","AB_m21","223","odd","FILL_W","SMOKE","1881","441006","439330","435983","45653","366783","NA","NA","NA","NA","439831","NA","NA","NA","438829","NA","438800","1893","441256","NA","NA","NA","439871","1881","1881","NA","440379","440402","438800","439831","439851","morph21_Oliver/Morris","69","67023","91","yes","1920","50"
"350","76.08695652173913","76.08695652173913","734.8913043478261","734.8913043478261","black","no","xpyriment","legacy","legacy","0","208","NA","uniform","NA","NA","NA","1","undefined","1","0","91","91","91","0","91","91","91","NA","0","91","NA","NA","0","91","NA","91","0","91","NA","NA","NA","91","0","0","NA","91","91","91","91","91","92","z","Wed Oct 18 15:48:51 2023","The main experiment item","yes","m21-ab-lexicalDecision.osexp","C:\Users\ekealey\Desktop","no","mono","no","18","no","white","no","yes","1080","legacy","91","91","C:/Users/ekealey/Desktop/subject-223.csv","xpyriment","Lentiform Loewenfeld","3.3.11","0","z","space","NA","NA","NA","space","z","587","6667","NA","NA","NA","43759","587","2","legacy","1024","2","48000","-16","AB_m21","223","odd","FILL_NW","JADS","1881","444550","442793","435983","45653","366783","NA","NA","NA","NA","443294","NA","NA","NA","442292","NA","442264","1893","444900","NA","NA","NA","443335","1881","1881","NA","443923","443947","442264","443294","443315","morph21_Oliver/Morris","70","67610","92","yes","1920","31"
"350","76.34408602150538","76.34408602150538","732.5806451612904","732.5806451612904","black","no","xpyriment","legacy","legacy","0","201","NA","uniform","NA","NA","NA","1","undefined","1","0","92","92","92","0","92","92","92","NA","0","92","NA","NA","0","92","NA","92","0","92","NA","NA","NA","92","0","0","NA","92","92","92","92","92","93","/","Wed Oct 18 15:48:51 2023","The main experiment item","yes","m21-ab-lexicalDecision.osexp","C:\Users\ekealey\Desktop","no","mono","no","18","no","white","no","yes","1080","legacy","92","92","C:/Users/ekealey/Desktop/subject-223.csv","xpyriment","Lentiform Loewenfeld","3.3.11","0","/","space","NA","NA","NA","space","/","520","6667","NA","NA","NA","43759","520","2","legacy","1024","2","48000","-16","AB_m21","223","odd","CW_S","DULLNESS","1881","449646","446453","448143","45653","366783","NA","NA","NA","NA","446954","NA","NA","NA","445952","NA","445918","1893","449996","NA","NA","NA","446995","1881","1881","NA","447516","447539","445918","446954","446975","morph21_Oliver/Morris","71","68130","93","yes","1920","43"
