"ITI","acc","accuracy","average_response_time","avg_rt","background","bidi","canvas_backend","clock_backend","color_backend","compensation","cond_trig","condtrigtime","coordinates","coroutines_cycles","coroutines_duration","coroutines_mean_cycle_duration","correct","correct_instructions_1","correct_new_keyboard_response_1","count_AB_m21","count_ITI","count_blank_screen","count_blink_screen","count_block1","count_break1","count_break2","count_break3_1","count_canvas","count_close_port","count_cond_trigger","count_correct_trigger","count_def_chain","count_end_screen","count_fixation_1","count_getting_started","count_inc_counter","count_instructions_1","count_logger","count_logscript","count_new_inline_script","count_new_inline_script_2","count_new_keyboard_response_1","count_open_port","count_reset_counter_prep","count_reset_counter_run","count_response_trigger_trial","count_responsescreen","count_sequence","count_target_present","count_word_trigger","counter","cresp","datetime","description","disable_garbage_collection","experiment_file","experiment_path","font_bold","font_family","font_italic","font_size","font_underline","foreground","form_clicks","fullscreen","height","keyboard_backend","live_row","live_row_block1","logfile","mouse_backend","opensesame_codename","opensesame_version","repeat_cycle","response","response_break1","response_break2","response_break3_1","response_end_screen","response_instructions_1","response_new_keyboard_response_1","response_time","response_time_break1","response_time_break2","response_time_break3_1","response_time_end_screen","response_time_instructions_1","response_time_new_keyboard_response_1","round_decimals","sampler_backend","sound_buf_size","sound_channels","sound_freq","sound_sample_size","start","subject_nr","subject_parity","targ_type","target","time_AB_m21","time_ITI","time_blank_screen","time_blink_screen","time_block1","time_break1","time_break2","time_break3_1","time_canvas","time_close_port","time_cond_trigger","time_correct_trigger","time_def_chain","time_end_screen","time_fixation_1","time_getting_started","time_inc_counter","time_instructions_1","time_logger","time_logscript","time_new_inline_script","time_new_inline_script_2","time_new_keyboard_response_1","time_open_port","time_reset_counter_prep","time_reset_counter_run","time_response_trigger_trial","time_responsescreen","time_sequence","time_target_present","time_word_trigger","title","total_correct","total_response_time","total_responses","uniform_coordinates","width","word_trig"
"400","100","100","1010","1010","black","no","xpyriment","legacy","legacy","0","202","NA","uniform","NA","NA","NA","1","undefined","1","0","0","0","0","0","0","0","0","NA","0","0","NA","NA","0","0","NA","0","0","0","NA","NA","NA","0","0","0","NA","0","0","0","0","0","1","/","Fri Dec  8 11:11:41 2023","The main experiment item","yes","m21-ab-lexicalDecision.osexp","C:\Users\ekealey\Desktop","no","mono","no","18","no","white","no","yes","1080","legacy","0","0","C:/Users/ekealey/Desktop/subject-233.csv","xpyriment","Lentiform Loewenfeld","3.3.11","0","/","NA","NA","NA","NA","space","/","1010","NA","NA","NA","NA","27589","1010","2","legacy","1024","2","48000","-16","AB_m21","233","odd","CW_L","COOLING","1938","33637","31459","NA","29540","NA","NA","NA","NA","NA","31960","NA","NA","NA","30958","NA","30926","1950","34037","NA","NA","NA","32000","1938","1938","NA","33011","33034","30925","31960","31980","morph21_Oliver/Morris","1","1010","1","yes","1920","24"
"300","50","50","727.5","727.5","black","no","xpyriment","legacy","legacy","0","208","NA","uniform","NA","NA","NA","0","undefined","0","0","1","1","1","0","1","1","1","NA","0","1","NA","NA","0","1","NA","1","0","1","NA","NA","NA","1","0","0","NA","1","1","1","1","1","2","z","Fri Dec  8 11:11:41 2023","The main experiment item","yes","m21-ab-lexicalDecision.osexp","C:\Users\ekealey\Desktop","no","mono","no","18","no","white","no","yes","1080","legacy","1","1","C:/Users/ekealey/Desktop/subject-233.csv","xpyriment","Lentiform Loewenfeld","3.3.11","0","/","NA","NA","NA","NA","space","/","445","NA","NA","NA","NA","27589","445","2","legacy","1024","2","48000","-16","AB_m21","233","odd","FILL_NW","KEMT","1938","37216","35600","NA","29540","NA","NA","NA","NA","NA","36100","NA","NA","NA","35099","NA","35066","1950","37516","NA","NA","NA","36141","1938","1938","NA","36586","36612","35066","36100","36121","morph21_Oliver/Morris","1","1455","2","yes","1920","32"
"300","66.66666666666667","66.66666666666667","817.6666666666666","817.6666666666666","black","no","xpyriment","legacy","legacy","0","205","NA","uniform","NA","NA","NA","1","undefined","1","0","2","2","2","0","2","2","2","NA","0","2","NA","NA","0","2","NA","2","0","2","NA","NA","NA","2","0","0","NA","2","2","2","2","2","3","z","Fri Dec  8 11:11:41 2023","The main experiment item","yes","m21-ab-lexicalDecision.osexp","C:\Users\ekealey\Desktop","no","mono","no","18","no","white","no","yes","1080","legacy","2","2","C:/Users/ekealey/Desktop/subject-233.csv","xpyriment","Lentiform Loewenfeld","3.3.11","0","z","NA","NA","NA","NA","space","z","998","NA","NA","NA","NA","27589","998","2","legacy","1024","2","48000","-16","AB_m21","233","odd","NW_S_SIMP","TILTADY","1938","42765","39096","41261","29540","NA","NA","NA","NA","NA","39596","NA","NA","NA","38596","NA","38568","1950","43065","NA","NA","NA","39636","1938","1938","NA","40635","40658","38568","39596","39616","morph21_Oliver/Morris","2","2453","3","yes","1920","17"
"300","50","50","778.75","778.75","black","no","xpyriment","legacy","legacy","0","202","NA","uniform","NA","NA","NA","0","undefined","0","0","3","3","3","0","3","3","3","NA","0","3","NA","NA","0","3","NA","3","0","3","NA","NA","NA","3","0","0","NA","3","3","3","3","3","4","/","Fri Dec  8 11:11:41 2023","The main experiment item","yes","m21-ab-lexicalDecision.osexp","C:\Users\ekealey\Desktop","no","mono","no","18","no","white","no","yes","1080","legacy","3","3","C:/Users/ekealey/Desktop/subject-233.csv","xpyriment","Lentiform Loewenfeld","3.3.11","0","z","NA","NA","NA","NA","space","z","662","NA","NA","NA","NA","27589","662","2","legacy","1024","2","48000","-16","AB_m21","233","odd","CW_L","DAMPISH","1938","46520","44686","41261","29540","NA","NA","NA","NA","NA","45187","NA","NA","NA","44184","NA","44158","1950","46821","NA","NA","NA","45228","1938","1938","NA","45890","45916","44158","45187","45208","morph21_Oliver/Morris","2","3115","4","yes","1920","28"
"200","40","40","721.2","721.2","black","no","xpyriment","legacy","legacy","0","205","NA","uniform","NA","NA","NA","0","undefined","0","0","4","4","4","0","4","4","4","NA","0","4","NA","NA","0","4","NA","4","0","4","NA","NA","NA","4","0","0","NA","4","4","4","4","4","5","z","Fri Dec  8 11:11:41 2023","The main experiment item","yes","m21-ab-lexicalDecision.osexp","C:\Users\ekealey\Desktop","no","mono","no","18","no","white","no","yes","1080","legacy","4","4","C:/Users/ekealey/Desktop/subject-233.csv","xpyriment","Lentiform Loewenfeld","3.3.11","0","/","NA","NA","NA","NA","space","/","491","NA","NA","NA","NA","27589","491","2","legacy","1024","2","48000","-16","AB_m21","233","odd","NW_S_SIMP","GUMFIL","1938","50062","48402","41261","29540","NA","NA","NA","NA","NA","48902","NA","NA","NA","47902","NA","47874","1950","50262","NA","NA","NA","48943","1938","1938","NA","49434","49459","47874","48902","48923","morph21_Oliver/Morris","2","3606","5","yes","1920","2"
"200","50","50","697","697","black","no","xpyriment","legacy","legacy","0","207","NA","uniform","NA","NA","NA","1","undefined","1","0","5","5","5","0","5","5","5","NA","0","5","NA","NA","0","5","NA","5","0","5","NA","NA","NA","5","0","0","NA","5","5","5","5","5","6","/","Fri Dec  8 11:11:41 2023","The main experiment item","yes","m21-ab-lexicalDecision.osexp","C:\Users\ekealey\Desktop","no","mono","no","18","no","white","no","yes","1080","legacy","5","5","C:/Users/ekealey/Desktop/subject-233.csv","xpyriment","Lentiform Loewenfeld","3.3.11","0","/","NA","NA","NA","NA","space","/","576","NA","NA","NA","NA","27589","576","2","legacy","1024","2","48000","-16","AB_m21","233","odd","FILL_W","TAX","1938","55088","51837","53585","29540","NA","NA","NA","NA","NA","52338","NA","NA","NA","51336","NA","51308","1950","55288","NA","NA","NA","52379","1938","1938","NA","52955","52981","51308","52338","52359","morph21_Oliver/Morris","3","4182","6","yes","1920","45"
"200","57.142857142857146","57.142857142857146","685.7142857142857","685.7142857142857","black","no","xpyriment","legacy","legacy","0","201","NA","uniform","NA","NA","NA","1","undefined","1","0","6","6","6","0","6","6","6","NA","0","6","NA","NA","0","6","NA","6","0","6","NA","NA","NA","6","0","0","NA","6","6","6","6","6","7","/","Fri Dec  8 11:11:41 2023","The main experiment item","yes","m21-ab-lexicalDecision.osexp","C:\Users\ekealey\Desktop","no","mono","no","18","no","white","no","yes","1080","legacy","6","6","C:/Users/ekealey/Desktop/subject-233.csv","xpyriment","Lentiform Loewenfeld","3.3.11","0","/","NA","NA","NA","NA","space","/","618","NA","NA","NA","NA","27589","618","2","legacy","1024","2","48000","-16","AB_m21","233","odd","CW_S","BOLDNESS","1938","58630","56842","53585","29540","NA","NA","NA","NA","NA","57344","NA","NA","NA","56341","NA","56306","1950","58830","NA","NA","NA","57384","1938","1938","NA","58002","58026","56306","57343","57364","morph21_Oliver/Morris","4","4800","7","yes","1920","41"
"350","62.5","62.5","668.625","668.625","black","no","xpyriment","legacy","legacy","0","202","NA","uniform","NA","NA","NA","1","undefined","1","0","7","7","7","0","7","7","7","NA","0","7","NA","NA","0","7","NA","7","0","7","NA","NA","NA","7","0","0","NA","7","7","7","7","7","8","/","Fri Dec  8 11:11:41 2023","The main experiment item","yes","m21-ab-lexicalDecision.osexp","C:\Users\ekealey\Desktop","no","mono","no","18","no","white","no","yes","1080","legacy","7","7","C:/Users/ekealey/Desktop/subject-233.csv","xpyriment","Lentiform Loewenfeld","3.3.11","0","/","NA","NA","NA","NA","space","/","549","NA","NA","NA","NA","27589","549","2","legacy","1024","2","48000","-16","AB_m21","233","odd","CW_L","PARKING","1938","62119","60402","53585","29540","NA","NA","NA","NA","NA","60902","NA","NA","NA","59902","NA","59876","1950","62469","NA","NA","NA","60942","1938","1938","NA","61491","61515","59876","60902","60922","morph21_Oliver/Morris","5","5349","8","yes","1920","25"
"300","66.66666666666667","66.66666666666667","660","660","black","no","xpyriment","legacy","legacy","0","208","NA","uniform","NA","NA","NA","1","undefined","1","0","8","8","8","0","8","8","8","NA","0","8","NA","NA","0","8","NA","8","0","8","NA","NA","NA","8","0","0","NA","8","8","8","8","8","9","z","Fri Dec  8 11:11:41 2023","The main experiment item","yes","m21-ab-lexicalDecision.osexp","C:\Users\ekealey\Desktop","no","mono","no","18","no","white","no","yes","1080","legacy","8","8","C:/Users/ekealey/Desktop/subject-233.csv","xpyriment","Lentiform Loewenfeld","3.3.11","0","z","NA","NA","NA","NA","space","z","591","NA","NA","NA","NA","27589","591","2","legacy","1024","2","48000","-16","AB_m21","233","odd","FILL_NW","VOGS","1938","67287","64022","65783","29540","NA","NA","NA","NA","NA","64523","NA","NA","NA","63520","NA","63495","1950","67587","NA","NA","NA","64563","1938","1938","NA","65154","65178","63495","64523","64543","morph21_Oliver/Morris","6","5940","9","yes","1920","47"
"250","70","70","646.2","646.2","black","no","xpyriment","legacy","legacy","0","201","NA","uniform","NA","NA","NA","1","undefined","1","0","9","9","9","0","9","9","9","NA","0","9","NA","NA","0","9","NA","9","0","9","NA","NA","NA","9","0","0","NA","9","9","9","9","9","10","/","Fri Dec  8 11:11:41 2023","The main experiment item","yes","m21-ab-lexicalDecision.osexp","C:\Users\ekealey\Desktop","no","mono","no","18","no","white","no","yes","1080","legacy","9","9","C:/Users/ekealey/Desktop/subject-233.csv","xpyriment","Lentiform Loewenfeld","3.3.11","0","/","NA","NA","NA","NA","space","/","522","NA","NA","NA","NA","27589","522","2","legacy","1024","2","48000","-16","AB_m21","233","odd","CW_S","AWARENESS","1938","70829","69139","65783","29540","NA","NA","NA","NA","NA","69639","NA","NA","NA","68639","NA","68605","1950","71079","NA","NA","NA","69680","1938","1938","NA","70203","70226","68605","69639","69660","morph21_Oliver/Morris","7","6462","10","yes","1920","44"
"400","72.72727272727273","72.72727272727273","655.4545454545455","655.4545454545455","black","no","xpyriment","legacy","legacy","0","204","NA","uniform","NA","NA","NA","1","undefined","1","0","10","10","10","0","10","10","10","NA","0","10","NA","NA","0","10","NA","10","0","10","NA","NA","NA","10","0","0","NA","10","10","10","10","10","11","z","Fri Dec  8 11:11:41 2023","The main experiment item","yes","m21-ab-lexicalDecision.osexp","C:\Users\ekealey\Desktop","no","mono","no","18","no","white","no","yes","1080","legacy","10","10","C:/Users/ekealey/Desktop/subject-233.csv","xpyriment","Lentiform Loewenfeld","3.3.11","0","z","NA","NA","NA","NA","space","z","748","NA","NA","NA","NA","27589","748","2","legacy","1024","2","48000","-16","AB_m21","233","odd","NW_L_COMP","COLDITY","1938","74551","72632","65783","29540","NA","NA","NA","NA","NA","73133","NA","NA","NA","72132","NA","72103","1950","74951","NA","NA","NA","73174","1938","1938","NA","73923","73947","72103","73133","73154","morph21_Oliver/Morris","8","7210","11","yes","1920","10"
"250","75","75","643.75","643.75","black","no","xpyriment","legacy","legacy","0","207","NA","uniform","NA","NA","NA","1","undefined","1","0","11","11","11","0","11","11","11","NA","0","11","NA","NA","0","11","NA","11","0","11","NA","NA","NA","11","0","0","NA","11","11","11","11","11","12","/","Fri Dec  8 11:11:41 2023","The main experiment item","yes","m21-ab-lexicalDecision.osexp","C:\Users\ekealey\Desktop","no","mono","no","18","no","white","no","yes","1080","legacy","11","11","C:/Users/ekealey/Desktop/subject-233.csv","xpyriment","Lentiform Loewenfeld","3.3.11","0","/","NA","NA","NA","NA","space","/","515","NA","NA","NA","NA","27589","515","2","legacy","1024","2","48000","-16","AB_m21","233","odd","FILL_W","SOUGHT","1938","79733","76545","78229","29540","NA","NA","NA","NA","NA","77046","NA","NA","NA","76043","NA","76019","1950","79983","NA","NA","NA","77087","1938","1938","NA","77602","77626","76019","77046","77067","morph21_Oliver/Morris","9","7725","12","yes","1920","40"
"400","76.92307692307692","76.92307692307692","633.8461538461538","633.8461538461538","black","no","xpyriment","legacy","legacy","0","202","NA","uniform","NA","NA","NA","1","undefined","1","0","12","12","12","0","12","12","12","NA","0","12","NA","NA","0","12","NA","12","0","12","NA","NA","NA","12","0","0","NA","12","12","12","12","12","13","/","Fri Dec  8 11:11:41 2023","The main experiment item","yes","m21-ab-lexicalDecision.osexp","C:\Users\ekealey\Desktop","no","mono","no","18","no","white","no","yes","1080","legacy","12","12","C:/Users/ekealey/Desktop/subject-233.csv","xpyriment","Lentiform Loewenfeld","3.3.11","0","/","NA","NA","NA","NA","space","/","515","NA","NA","NA","NA","27589","515","2","legacy","1024","2","48000","-16","AB_m21","233","odd","CW_L","FAITHFUL","1938","83321","81633","78229","29540","NA","NA","NA","NA","NA","82135","NA","NA","NA","81133","NA","81104","1950","83722","NA","NA","NA","82175","1938","1938","NA","82691","82716","81104","82134","82155","morph21_Oliver/Morris","10","8240","13","yes","1920","20"
"350","78.57142857142857","78.57142857142857","653.9285714285714","653.9285714285714","black","no","xpyriment","legacy","legacy","0","203","NA","uniform","NA","NA","NA","1","undefined","1","0","13","13","13","0","13","13","13","NA","0","13","NA","NA","0","13","NA","13","0","13","NA","NA","NA","13","0","0","NA","13","13","13","13","13","14","z","Fri Dec  8 11:11:41 2023","The main experiment item","yes","m21-ab-lexicalDecision.osexp","C:\Users\ekealey\Desktop","no","mono","no","18","no","white","no","yes","1080","legacy","13","13","C:/Users/ekealey/Desktop/subject-233.csv","xpyriment","Lentiform Loewenfeld","3.3.11","0","z","NA","NA","NA","NA","space","z","915","NA","NA","NA","NA","27589","915","2","legacy","1024","2","48000","-16","AB_m21","233","odd","NW_S_COMP","HUMIDOUS","1938","87384","85298","78229","29540","NA","NA","NA","NA","NA","85799","NA","NA","NA","84796","NA","84769","1950","87734","NA","NA","NA","85839","1938","1938","NA","86755","86780","84769","85799","85819","morph21_Oliver/Morris","11","9155","14","yes","1920","25"
"250","73.33333333333333","73.33333333333333","632.6","632.6","black","no","xpyriment","legacy","legacy","0","204","NA","uniform","NA","NA","NA","0","undefined","0","0","14","14","14","0","14","14","14","NA","0","14","NA","NA","0","14","NA","14","0","14","NA","NA","NA","14","0","0","NA","14","14","14","14","14","15","z","Fri Dec  8 11:11:41 2023","The main experiment item","yes","m21-ab-lexicalDecision.osexp","C:\Users\ekealey\Desktop","no","mono","no","18","no","white","no","yes","1080","legacy","14","14","C:/Users/ekealey/Desktop/subject-233.csv","xpyriment","Lentiform Loewenfeld","3.3.11","0","/","NA","NA","NA","NA","space","/","334","NA","NA","NA","NA","27589","334","2","legacy","1024","2","48000","-16","AB_m21","233","odd","NW_L_COMP","STIRANCE","1938","92300","89295","90797","29540","NA","NA","NA","NA","NA","89795","NA","NA","NA","88795","NA","88767","1950","92550","NA","NA","NA","89836","1938","1938","NA","90171","90194","88766","89795","89816","morph21_Oliver/Morris","11","9489","15","yes","1920","1"
"250","75","75","636.1875","636.1875","black","no","xpyriment","legacy","legacy","0","201","NA","uniform","NA","NA","NA","1","undefined","1","0","15","15","15","0","15","15","15","NA","0","15","NA","NA","0","15","NA","15","0","15","NA","NA","NA","15","0","0","NA","15","15","15","15","15","16","/","Fri Dec  8 11:11:41 2023","The main experiment item","yes","m21-ab-lexicalDecision.osexp","C:\Users\ekealey\Desktop","no","mono","no","18","no","white","no","yes","1080","legacy","15","15","C:/Users/ekealey/Desktop/subject-233.csv","xpyriment","Lentiform Loewenfeld","3.3.11","0","/","NA","NA","NA","NA","space","/","690","NA","NA","NA","NA","27589","690","2","legacy","1024","2","48000","-16","AB_m21","233","odd","CW_S","JAILER","1938","95990","94130","90797","29540","NA","NA","NA","NA","NA","94630","NA","NA","NA","93628","NA","93601","1950","96240","NA","NA","NA","94672","1938","1938","NA","95362","95386","93601","94630","94651","morph21_Oliver/Morris","12","10179","16","yes","1920","13"
"200","76.47058823529412","76.47058823529412","637.4705882352941","637.4705882352941","black","no","xpyriment","legacy","legacy","0","202","NA","uniform","NA","NA","NA","1","undefined","1","0","16","16","16","0","16","16","16","NA","0","16","NA","NA","0","16","NA","16","0","16","NA","NA","NA","16","0","0","NA","16","16","16","16","16","17","/","Fri Dec  8 11:11:41 2023","The main experiment item","yes","m21-ab-lexicalDecision.osexp","C:\Users\ekealey\Desktop","no","mono","no","18","no","white","no","yes","1080","legacy","16","16","C:/Users/ekealey/Desktop/subject-233.csv","xpyriment","Lentiform Loewenfeld","3.3.11","0","/","NA","NA","NA","NA","space","/","658","NA","NA","NA","NA","27589","658","2","legacy","1024","2","48000","-16","AB_m21","233","odd","CW_L","SHAMEFUL","1938","99606","97779","90797","29540","NA","NA","NA","NA","NA","98280","NA","NA","NA","97279","NA","97249","1950","99806","NA","NA","NA","98320","1938","1938","NA","98979","99003","97249","98280","98300","morph21_Oliver/Morris","13","10837","17","yes","1920","19"
"300","77.77777777777777","77.77777777777777","628.9444444444445","628.9444444444445","black","no","xpyriment","legacy","legacy","0","205","NA","uniform","NA","NA","NA","1","undefined","1","0","17","17","17","0","17","17","17","NA","0","17","NA","NA","0","17","NA","17","0","17","NA","NA","NA","17","0","0","NA","17","17","17","17","17","18","z","Fri Dec  8 11:11:41 2023","The main experiment item","yes","m21-ab-lexicalDecision.osexp","C:\Users\ekealey\Desktop","no","mono","no","18","no","white","no","yes","1080","legacy","17","17","C:/Users/ekealey/Desktop/subject-233.csv","xpyriment","Lentiform Loewenfeld","3.3.11","0","z","NA","NA","NA","NA","space","z","484","NA","NA","NA","NA","27589","484","2","legacy","1024","2","48000","-16","AB_m21","233","odd","NW_S_SIMP","HELMETOES","1938","104510","101352","103007","29540","NA","NA","NA","NA","NA","101854","NA","NA","NA","100849","NA","100823","1950","104810","NA","NA","NA","101894","1938","1938","NA","102379","102403","100823","101853","101874","morph21_Oliver/Morris","14","11321","18","yes","1920","14"
"350","78.94736842105263","78.94736842105263","626","626","black","no","xpyriment","legacy","legacy","0","202","NA","uniform","NA","NA","NA","1","undefined","1","0","18","18","18","0","18","18","18","NA","0","18","NA","NA","0","18","NA","18","0","18","NA","NA","NA","18","0","0","NA","18","18","18","18","18","19","/","Fri Dec  8 11:11:41 2023","The main experiment item","yes","m21-ab-lexicalDecision.osexp","C:\Users\ekealey\Desktop","no","mono","no","18","no","white","no","yes","1080","legacy","18","18","C:/Users/ekealey/Desktop/subject-233.csv","xpyriment","Lentiform Loewenfeld","3.3.11","0","/","NA","NA","NA","NA","space","/","573","NA","NA","NA","NA","27589","573","2","legacy","1024","2","48000","-16","AB_m21","233","odd","CW_L","BOMBER","1938","108120","106375","103007","29540","NA","NA","NA","NA","NA","106877","NA","NA","NA","105875","NA","105840","1950","108470","NA","NA","NA","106917","1938","1938","NA","107491","107516","105840","106877","106897","morph21_Oliver/Morris","15","11894","19","yes","1920","7"
"300","80","80","621.6","621.6","black","no","xpyriment","legacy","legacy","0","205","NA","uniform","NA","NA","NA","1","undefined","1","0","19","19","19","0","19","19","19","NA","0","19","NA","NA","0","19","NA","19","0","19","NA","NA","NA","19","0","0","NA","19","19","19","19","19","20","z","Fri Dec  8 11:11:41 2023","The main experiment item","yes","m21-ab-lexicalDecision.osexp","C:\Users\ekealey\Desktop","no","mono","no","18","no","white","no","yes","1080","legacy","19","19","C:/Users/ekealey/Desktop/subject-233.csv","xpyriment","Lentiform Loewenfeld","3.3.11","0","z","NA","NA","NA","NA","space","z","538","NA","NA","NA","NA","27589","538","2","legacy","1024","2","48000","-16","AB_m21","233","odd","NW_S_SIMP","SOCKETEL","1938","111734","110027","103007","29540","NA","NA","NA","NA","NA","110527","NA","NA","NA","109526","NA","109494","1950","112034","NA","NA","NA","110568","1938","1938","NA","111107","111131","109494","110527","110548","morph21_Oliver/Morris","16","12432","20","yes","1920","1"
"300","80.95238095238095","80.95238095238095","609.952380952381","609.952380952381","black","no","xpyriment","legacy","legacy","0","207","NA","uniform","NA","NA","NA","1","undefined","1","0","20","20","20","0","20","20","20","NA","0","20","NA","NA","0","20","NA","20","0","20","NA","NA","NA","20","0","0","NA","20","20","20","20","20","21","/","Fri Dec  8 11:11:41 2023","The main experiment item","yes","m21-ab-lexicalDecision.osexp","C:\Users\ekealey\Desktop","no","mono","no","18","no","white","no","yes","1080","legacy","20","20","C:/Users/ekealey/Desktop/subject-233.csv","xpyriment","Lentiform Loewenfeld","3.3.11","0","/","NA","NA","NA","NA","space","/","377","NA","NA","NA","NA","27589","377","2","legacy","1024","2","48000","-16","AB_m21","233","odd","FILL_W","BOX","1938","116627","113579","115125","29540","NA","NA","NA","NA","NA","114081","NA","NA","NA","113076","NA","113051","1950","116927","NA","NA","NA","114121","1938","1938","NA","114498","114522","113051","114081","114101","morph21_Oliver/Morris","17","12809","21","yes","1920","42"
"400","81.81818181818181","81.81818181818181","623.2272727272727","623.2272727272727","black","no","xpyriment","legacy","legacy","0","203","NA","uniform","NA","NA","NA","1","undefined","1","0","21","21","21","0","21","21","21","NA","0","21","NA","NA","0","21","NA","21","0","21","NA","NA","NA","21","0","0","NA","21","21","21","21","21","22","z","Fri Dec  8 11:11:41 2023","The main experiment item","yes","m21-ab-lexicalDecision.osexp","C:\Users\ekealey\Desktop","no","mono","no","18","no","white","no","yes","1080","legacy","21","21","C:/Users/ekealey/Desktop/subject-233.csv","xpyriment","Lentiform Loewenfeld","3.3.11","0","z","NA","NA","NA","NA","space","z","902","NA","NA","NA","NA","27589","902","2","legacy","1024","2","48000","-16","AB_m21","233","odd","NW_S_COMP","ALTARIC","1938","120574","118504","115125","29540","NA","NA","NA","NA","NA","119005","NA","NA","NA","118004","NA","117976","1950","120974","NA","NA","NA","119045","1938","1938","NA","119948","119971","117976","119004","119025","morph21_Oliver/Morris","18","13711","22","yes","1920","7"
"200","82.6086956521739","82.6086956521739","627.7826086956521","627.7826086956521","black","no","xpyriment","legacy","legacy","0","203","NA","uniform","NA","NA","NA","1","undefined","1","0","22","22","22","0","22","22","22","NA","0","22","NA","NA","0","22","NA","22","0","22","NA","NA","NA","22","0","0","NA","22","22","22","22","22","23","z","Fri Dec  8 11:11:41 2023","The main experiment item","yes","m21-ab-lexicalDecision.osexp","C:\Users\ekealey\Desktop","no","mono","no","18","no","white","no","yes","1080","legacy","22","22","C:/Users/ekealey/Desktop/subject-233.csv","xpyriment","Lentiform Loewenfeld","3.3.11","0","z","NA","NA","NA","NA","space","z","728","NA","NA","NA","NA","27589","728","2","legacy","1024","2","48000","-16","AB_m21","233","odd","NW_S_COMP","ADOPTILP","1938","124416","122516","115125","29540","NA","NA","NA","NA","NA","123018","NA","NA","NA","122014","NA","121989","1950","124616","NA","NA","NA","123058","1938","1938","NA","123786","123812","121989","123018","123038","morph21_Oliver/Morris","19","14439","23","yes","1920","19"
"200","83.33333333333333","83.33333333333333","631.2083333333334","631.2083333333334","black","no","xpyriment","legacy","legacy","0","207","NA","uniform","NA","NA","NA","1","undefined","1","0","23","23","23","0","23","23","23","NA","0","23","NA","NA","0","23","NA","23","0","23","NA","NA","NA","23","0","0","NA","23","23","23","23","23","24","/","Fri Dec  8 11:11:41 2023","The main experiment item","yes","m21-ab-lexicalDecision.osexp","C:\Users\ekealey\Desktop","no","mono","no","18","no","white","no","yes","1080","legacy","23","23","C:/Users/ekealey/Desktop/subject-233.csv","xpyriment","Lentiform Loewenfeld","3.3.11","0","/","NA","NA","NA","NA","space","/","710","NA","NA","NA","NA","27589","710","2","legacy","1024","2","48000","-16","AB_m21","233","odd","FILL_W","STALK","1938","129533","126151","128030","29540","NA","NA","NA","NA","NA","126651","NA","NA","NA","125651","NA","125624","1950","129733","NA","NA","NA","126692","1938","1938","NA","127402","127427","125623","126651","126672","morph21_Oliver/Morris","20","15149","24","yes","1920","27"
"250","84","84","632.04","632.04","black","no","xpyriment","legacy","legacy","0","207","NA","uniform","NA","NA","NA","1","undefined","1","0","24","24","24","0","24","24","24","NA","0","24","NA","NA","0","24","NA","24","0","24","NA","NA","NA","24","0","0","NA","24","24","24","24","24","25","/","Fri Dec  8 11:11:41 2023","The main experiment item","yes","m21-ab-lexicalDecision.osexp","C:\Users\ekealey\Desktop","no","mono","no","18","no","white","no","yes","1080","legacy","24","24","C:/Users/ekealey/Desktop/subject-233.csv","xpyriment","Lentiform Loewenfeld","3.3.11","0","/","NA","NA","NA","NA","space","/","652","NA","NA","NA","NA","27589","652","2","legacy","1024","2","48000","-16","AB_m21","233","odd","FILL_W","SPLICE","1938","133120","131298","128030","29540","NA","NA","NA","NA","NA","131798","NA","NA","NA","130798","NA","130766","1950","133370","NA","NA","NA","131838","1938","1938","NA","132491","132515","130766","131798","131818","morph21_Oliver/Morris","21","15801","25","yes","1920","22"
"350","84.61538461538461","84.61538461538461","632.8846153846154","632.8846153846154","black","no","xpyriment","legacy","legacy","0","201","NA","uniform","NA","NA","NA","1","undefined","1","0","25","25","25","0","25","25","25","NA","0","25","NA","NA","0","25","NA","25","0","25","NA","NA","NA","25","0","0","NA","25","25","25","25","25","26","/","Fri Dec  8 11:11:41 2023","The main experiment item","yes","m21-ab-lexicalDecision.osexp","C:\Users\ekealey\Desktop","no","mono","no","18","no","white","no","yes","1080","legacy","25","25","C:/Users/ekealey/Desktop/subject-233.csv","xpyriment","Lentiform Loewenfeld","3.3.11","0","/","NA","NA","NA","NA","space","/","654","NA","NA","NA","NA","27589","654","2","legacy","1024","2","48000","-16","AB_m21","233","odd","CW_S","DENSELY","1938","136758","134936","128030","29540","NA","NA","NA","NA","NA","135436","NA","NA","NA","134436","NA","134406","1950","137108","NA","NA","NA","135476","1938","1938","NA","136131","136155","134406","135436","135456","morph21_Oliver/Morris","22","16455","26","yes","1920","32"
"350","85.18518518518519","85.18518518518519","634.5555555555555","634.5555555555555","black","no","xpyriment","legacy","legacy","0","201","NA","uniform","NA","NA","NA","1","undefined","1","0","26","26","26","0","26","26","26","NA","0","26","NA","NA","0","26","NA","26","0","26","NA","NA","NA","26","0","0","NA","26","26","26","26","26","27","/","Fri Dec  8 11:11:41 2023","The main experiment item","yes","m21-ab-lexicalDecision.osexp","C:\Users\ekealey\Desktop","no","mono","no","18","no","white","no","yes","1080","legacy","26","26","C:/Users/ekealey/Desktop/subject-233.csv","xpyriment","Lentiform Loewenfeld","3.3.11","0","/","NA","NA","NA","NA","space","/","678","NA","NA","NA","NA","27589","678","2","legacy","1024","2","48000","-16","AB_m21","233","odd","CW_S","AMAZEMENT","1938","142038","138687","140535","29540","NA","NA","NA","NA","NA","139188","NA","NA","NA","138187","NA","138161","1950","142388","NA","NA","NA","139228","1938","1938","NA","139907","139931","138161","139188","139208","morph21_Oliver/Morris","23","17133","27","yes","1920","39"
"250","85.71428571428571","85.71428571428571","635.0714285714286","635.0714285714286","black","no","xpyriment","legacy","legacy","0","207","NA","uniform","NA","NA","NA","1","undefined","1","0","27","27","27","0","27","27","27","NA","0","27","NA","NA","0","27","NA","27","0","27","NA","NA","NA","27","0","0","NA","27","27","27","27","27","28","/","Fri Dec  8 11:11:41 2023","The main experiment item","yes","m21-ab-lexicalDecision.osexp","C:\Users\ekealey\Desktop","no","mono","no","18","no","white","no","yes","1080","legacy","27","27","C:/Users/ekealey/Desktop/subject-233.csv","xpyriment","Lentiform Loewenfeld","3.3.11","0","/","NA","NA","NA","NA","space","/","649","NA","NA","NA","NA","27589","649","2","legacy","1024","2","48000","-16","AB_m21","233","odd","FILL_W","SHIP","1938","145805","143988","140535","29540","NA","NA","NA","NA","NA","144488","NA","NA","NA","143486","NA","143459","1950","146055","NA","NA","NA","144529","1938","1938","NA","145179","145202","143459","144488","144509","morph21_Oliver/Morris","24","17782","28","yes","1920","37"
"300","86.20689655172414","86.20689655172414","640.5172413793103","640.5172413793103","black","no","xpyriment","legacy","legacy","0","206","NA","uniform","NA","NA","NA","1","undefined","1","0","28","28","28","0","28","28","28","NA","0","28","NA","NA","0","28","NA","28","0","28","NA","NA","NA","28","0","0","NA","28","28","28","28","28","29","z","Fri Dec  8 11:11:41 2023","The main experiment item","yes","m21-ab-lexicalDecision.osexp","C:\Users\ekealey\Desktop","no","mono","no","18","no","white","no","yes","1080","legacy","28","28","C:/Users/ekealey/Desktop/subject-233.csv","xpyriment","Lentiform Loewenfeld","3.3.11","0","z","NA","NA","NA","NA","space","z","793","NA","NA","NA","NA","27589","793","2","legacy","1024","2","48000","-16","AB_m21","233","odd","NW_L_SIMP","ELBOWILM","1938","149565","147604","140535","29540","NA","NA","NA","NA","NA","148104","NA","NA","NA","147103","NA","147073","1950","149866","NA","NA","NA","148145","1938","1938","NA","148939","148962","147073","148104","148125","morph21_Oliver/Morris","25","18575","29","yes","1920","10"
"300","86.66666666666667","86.66666666666667","645.9333333333333","645.9333333333333","black","no","xpyriment","legacy","legacy","0","201","NA","uniform","NA","NA","NA","1","undefined","1","0","29","29","29","0","29","29","29","NA","0","29","NA","NA","0","29","NA","29","0","29","NA","NA","NA","29","0","0","NA","29","29","29","29","29","30","/","Fri Dec  8 11:11:41 2023","The main experiment item","yes","m21-ab-lexicalDecision.osexp","C:\Users\ekealey\Desktop","no","mono","no","18","no","white","no","yes","1080","legacy","29","29","C:/Users/ekealey/Desktop/subject-233.csv","xpyriment","Lentiform Loewenfeld","3.3.11","0","/","NA","NA","NA","NA","space","/","803","NA","NA","NA","NA","27589","803","2","legacy","1024","2","48000","-16","AB_m21","233","odd","CW_S","ATTACKER","1938","154901","151426","153397","29540","NA","NA","NA","NA","NA","151926","NA","NA","NA","150926","NA","150899","1950","155201","NA","NA","NA","151967","1938","1938","NA","152770","152794","150898","151926","151947","morph21_Oliver/Morris","26","19378","30","yes","1920","20"
"300","87.09677419354838","87.09677419354838","646.1935483870968","646.1935483870968","black","no","xpyriment","legacy","legacy","0","206","NA","uniform","NA","NA","NA","1","undefined","1","0","30","30","30","0","30","30","30","NA","0","30","NA","NA","0","30","NA","30","0","30","NA","NA","NA","30","0","0","NA","30","30","30","30","30","31","z","Fri Dec  8 11:11:41 2023","The main experiment item","yes","m21-ab-lexicalDecision.osexp","C:\Users\ekealey\Desktop","no","mono","no","18","no","white","no","yes","1080","legacy","30","30","C:/Users/ekealey/Desktop/subject-233.csv","xpyriment","Lentiform Loewenfeld","3.3.11","0","z","NA","NA","NA","NA","space","z","654","NA","NA","NA","NA","27589","654","2","legacy","1024","2","48000","-16","AB_m21","233","odd","NW_L_SIMP","EARILT","1938","158606","156783","153397","29540","NA","NA","NA","NA","NA","157285","NA","NA","NA","156280","NA","156249","1950","158906","NA","NA","NA","157325","1938","1938","NA","157980","158003","156249","157285","157305","morph21_Oliver/Morris","27","20032","31","yes","1920","12"
"400","87.5","87.5","645.8125","645.8125","black","no","xpyriment","legacy","legacy","0","207","NA","uniform","NA","NA","NA","1","undefined","1","0","31","31","31","0","31","31","31","NA","0","31","NA","NA","0","31","NA","31","0","31","NA","NA","NA","31","0","0","NA","31","31","31","31","31","32","/","Fri Dec  8 11:11:41 2023","The main experiment item","yes","m21-ab-lexicalDecision.osexp","C:\Users\ekealey\Desktop","no","mono","no","18","no","white","no","yes","1080","legacy","31","31","C:/Users/ekealey/Desktop/subject-233.csv","xpyriment","Lentiform Loewenfeld","3.3.11","0","/","NA","NA","NA","NA","space","/","634","NA","NA","NA","NA","27589","634","2","legacy","1024","2","48000","-16","AB_m21","233","odd","FILL_W","STEEP","1938","162270","160467","153397","29540","NA","NA","NA","NA","NA","160967","NA","NA","NA","159966","NA","159938","1950","162670","NA","NA","NA","161008","1938","1938","NA","161643","161667","159938","160967","160988","morph21_Oliver/Morris","28","20666","32","yes","1920","16"
"200","87.87878787878788","87.87878787878788","644.6363636363636","644.6363636363636","black","no","xpyriment","legacy","legacy","0","207","NA","uniform","NA","NA","NA","1","undefined","1","0","32","32","32","0","32","32","32","NA","0","32","NA","NA","0","32","NA","32","0","32","NA","NA","NA","32","0","0","NA","32","32","32","32","32","33","/","Fri Dec  8 11:11:41 2023","The main experiment item","yes","m21-ab-lexicalDecision.osexp","C:\Users\ekealey\Desktop","no","mono","no","18","no","white","no","yes","1080","legacy","32","32","C:/Users/ekealey/Desktop/subject-233.csv","xpyriment","Lentiform Loewenfeld","3.3.11","0","/","NA","NA","NA","NA","space","/","607","NA","NA","NA","NA","27589","607","2","legacy","1024","2","48000","-16","AB_m21","233","odd","FILL_W","FLOAT","1938","167493","164213","165990","29540","NA","NA","NA","NA","NA","164714","NA","NA","NA","163710","NA","163682","1950","167693","NA","NA","NA","164754","1938","1938","NA","165362","165386","163682","164714","164734","morph21_Oliver/Morris","29","21273","33","yes","1920","30"
"250","88.23529411764706","88.23529411764706","640.7058823529412","640.7058823529412","black","no","xpyriment","legacy","legacy","0","207","NA","uniform","NA","NA","NA","1","undefined","1","0","33","33","33","0","33","33","33","NA","0","33","NA","NA","0","33","NA","33","0","33","NA","NA","NA","33","0","0","NA","33","33","33","33","33","34","/","Fri Dec  8 11:11:41 2023","The main experiment item","yes","m21-ab-lexicalDecision.osexp","C:\Users\ekealey\Desktop","no","mono","no","18","no","white","no","yes","1080","legacy","33","33","C:/Users/ekealey/Desktop/subject-233.csv","xpyriment","Lentiform Loewenfeld","3.3.11","0","/","NA","NA","NA","NA","space","/","511","NA","NA","NA","NA","27589","511","2","legacy","1024","2","48000","-16","AB_m21","233","odd","FILL_W","COOK","1938","170957","169276","165990","29540","NA","NA","NA","NA","NA","169778","NA","NA","NA","168775","NA","168740","1950","171207","NA","NA","NA","169818","1938","1938","NA","170330","170354","168740","169778","169798","morph21_Oliver/Morris","30","21784","34","yes","1920","38"
"400","88.57142857142857","88.57142857142857","639.9142857142857","639.9142857142857","black","no","xpyriment","legacy","legacy","0","201","NA","uniform","NA","NA","NA","1","undefined","1","0","34","34","34","0","34","34","34","NA","0","34","NA","NA","0","34","NA","34","0","34","NA","NA","NA","34","0","0","NA","34","34","34","34","34","35","/","Fri Dec  8 11:11:41 2023","The main experiment item","yes","m21-ab-lexicalDecision.osexp","C:\Users\ekealey\Desktop","no","mono","no","18","no","white","no","yes","1080","legacy","34","34","C:/Users/ekealey/Desktop/subject-233.csv","xpyriment","Lentiform Loewenfeld","3.3.11","0","/","NA","NA","NA","NA","space","/","613","NA","NA","NA","NA","27589","613","2","legacy","1024","2","48000","-16","AB_m21","233","odd","CW_S","DIETARY","1938","174552","172768","165990","29540","NA","NA","NA","NA","NA","173268","NA","NA","NA","172267","NA","172238","1950","174952","NA","NA","NA","173309","1938","1938","NA","173923","173947","172238","173268","173289","morph21_Oliver/Morris","31","22397","35","yes","1920","6"
"250","88.88888888888889","88.88888888888889","639.6111111111111","639.6111111111111","black","no","xpyriment","legacy","legacy","0","202","NA","uniform","NA","NA","NA","1","undefined","1","0","35","35","35","0","35","35","35","NA","0","35","NA","NA","0","35","NA","35","0","35","NA","NA","NA","35","0","0","NA","35","35","35","35","35","36","/","Fri Dec  8 11:11:41 2023","The main experiment item","yes","m21-ab-lexicalDecision.osexp","C:\Users\ekealey\Desktop","no","mono","no","18","no","white","no","yes","1080","legacy","35","35","C:/Users/ekealey/Desktop/subject-233.csv","xpyriment","Lentiform Loewenfeld","3.3.11","0","/","NA","NA","NA","NA","space","/","629","NA","NA","NA","NA","27589","629","2","legacy","1024","2","48000","-16","AB_m21","233","odd","CW_L","FLEXIBLE","1938","179804","176504","178301","29540","NA","NA","NA","NA","NA","177004","NA","NA","NA","176004","NA","175968","1950","180054","NA","NA","NA","177045","1938","1938","NA","177675","177698","175968","177004","177025","morph21_Oliver/Morris","32","23026","36","yes","1920","22"
"400","89.1891891891892","89.1891891891892","639.8108108108108","639.8108108108108","black","no","xpyriment","legacy","legacy","0","206","NA","uniform","NA","NA","NA","1","undefined","1","0","36","36","36","0","36","36","36","NA","0","36","NA","NA","0","36","NA","36","0","36","NA","NA","NA","36","0","0","NA","36","36","36","36","36","37","z","Fri Dec  8 11:11:41 2023","The main experiment item","yes","m21-ab-lexicalDecision.osexp","C:\Users\ekealey\Desktop","no","mono","no","18","no","white","no","yes","1080","legacy","36","36","C:/Users/ekealey/Desktop/subject-233.csv","xpyriment","Lentiform Loewenfeld","3.3.11","0","z","NA","NA","NA","NA","space","z","647","NA","NA","NA","NA","27589","647","2","legacy","1024","2","48000","-16","AB_m21","233","odd","NW_L_SIMP","CLASSOES","1938","183421","181605","178301","29540","NA","NA","NA","NA","NA","182105","NA","NA","NA","181105","NA","181072","1950","183821","NA","NA","NA","182146","1938","1938","NA","182794","182818","181072","182105","182126","morph21_Oliver/Morris","33","23673","37","yes","1920","18"
"300","89.47368421052632","89.47368421052632","648.7105263157895","648.7105263157895","black","no","xpyriment","legacy","legacy","0","204","NA","uniform","NA","NA","NA","1","undefined","1","0","37","37","37","0","37","37","37","NA","0","37","NA","NA","0","37","NA","37","0","37","NA","NA","NA","37","0","0","NA","37","37","37","37","37","38","z","Fri Dec  8 11:11:41 2023","The main experiment item","yes","m21-ab-lexicalDecision.osexp","C:\Users\ekealey\Desktop","no","mono","no","18","no","white","no","yes","1080","legacy","37","37","C:/Users/ekealey/Desktop/subject-233.csv","xpyriment","Lentiform Loewenfeld","3.3.11","0","z","NA","NA","NA","NA","space","z","978","NA","NA","NA","NA","27589","978","2","legacy","1024","2","48000","-16","AB_m21","233","odd","NW_L_COMP","KINGISM","1938","187509","185363","178301","29540","NA","NA","NA","NA","NA","185863","NA","NA","NA","184863","NA","184833","1950","187810","NA","NA","NA","185904","1938","1938","NA","186882","186906","184833","185863","185884","morph21_Oliver/Morris","34","24651","38","yes","1920","19"
"200","89.74358974358974","89.74358974358974","643.025641025641","643.025641025641","black","no","xpyriment","legacy","legacy","0","207","NA","uniform","NA","NA","NA","1","undefined","1","0","38","38","38","0","38","38","38","NA","0","38","NA","NA","0","38","NA","38","0","38","NA","NA","NA","38","0","0","NA","38","38","38","38","38","39","/","Fri Dec  8 11:11:41 2023","The main experiment item","yes","m21-ab-lexicalDecision.osexp","C:\Users\ekealey\Desktop","no","mono","no","18","no","white","no","yes","1080","legacy","38","38","C:/Users/ekealey/Desktop/subject-233.csv","xpyriment","Lentiform Loewenfeld","3.3.11","0","/","NA","NA","NA","NA","space","/","427","NA","NA","NA","NA","27589","427","2","legacy","1024","2","48000","-16","AB_m21","233","odd","FILL_W","BRASS","1938","192456","189354","190952","29540","NA","NA","NA","NA","NA","189854","NA","NA","NA","188853","NA","188826","1950","192656","NA","NA","NA","189895","1938","1938","NA","190322","190347","188826","189854","189875","morph21_Oliver/Morris","35","25078","39","yes","1920","10"
"250","87.5","87.5","641.725","641.725","black","no","xpyriment","legacy","legacy","0","204","NA","uniform","NA","NA","NA","0","undefined","0","0","39","39","39","0","39","39","39","NA","0","39","NA","NA","0","39","NA","39","0","39","NA","NA","NA","39","0","0","NA","39","39","39","39","39","40","z","Fri Dec  8 11:11:41 2023","The main experiment item","yes","m21-ab-lexicalDecision.osexp","C:\Users\ekealey\Desktop","no","mono","no","18","no","white","no","yes","1080","legacy","39","39","C:/Users/ekealey/Desktop/subject-233.csv","xpyriment","Lentiform Loewenfeld","3.3.11","0","/","NA","NA","NA","NA","space","/","591","NA","NA","NA","NA","27589","591","2","legacy","1024","2","48000","-16","AB_m21","233","odd","NW_L_COMP","FREENESS","1938","195956","194198","190952","29540","NA","NA","NA","NA","NA","194698","NA","NA","NA","193697","NA","193668","1950","196207","NA","NA","NA","194738","1938","1938","NA","195330","195353","193668","194698","194718","morph21_Oliver/Morris","35","25669","40","yes","1920","15"
"400","87.8048780487805","87.8048780487805","642.609756097561","642.609756097561","black","no","xpyriment","legacy","legacy","0","207","NA","uniform","NA","NA","NA","1","undefined","1","0","40","40","40","0","40","40","40","NA","0","40","NA","NA","0","40","NA","40","0","40","NA","NA","NA","40","0","0","NA","40","40","40","40","40","41","/","Fri Dec  8 11:11:41 2023","The main experiment item","yes","m21-ab-lexicalDecision.osexp","C:\Users\ekealey\Desktop","no","mono","no","18","no","white","no","yes","1080","legacy","40","40","C:/Users/ekealey/Desktop/subject-233.csv","xpyriment","Lentiform Loewenfeld","3.3.11","0","/","NA","NA","NA","NA","space","/","678","NA","NA","NA","NA","27589","678","2","legacy","1024","2","48000","-16","AB_m21","233","odd","FILL_W","QUIT","1938","199605","197759","190952","29540","NA","NA","NA","NA","NA","198260","NA","NA","NA","197258","NA","197225","1950","200005","NA","NA","NA","198300","1938","1938","NA","198979","199002","197225","198260","198280","morph21_Oliver/Morris","36","26347","41","yes","1920","21"
"350","88.0952380952381","88.0952380952381","648.9047619047619","648.9047619047619","black","no","xpyriment","legacy","legacy","0","205","NA","uniform","NA","NA","NA","1","undefined","1","0","41","41","41","0","41","41","41","NA","0","41","NA","NA","0","41","NA","41","0","41","NA","NA","NA","41","0","0","NA","41","41","41","41","41","42","z","Fri Dec  8 11:11:41 2023","The main experiment item","yes","m21-ab-lexicalDecision.osexp","C:\Users\ekealey\Desktop","no","mono","no","18","no","white","no","yes","1080","legacy","41","41","C:/Users/ekealey/Desktop/subject-233.csv","xpyriment","Lentiform Loewenfeld","3.3.11","0","z","NA","NA","NA","NA","space","z","907","NA","NA","NA","NA","27589","907","2","legacy","1024","2","48000","-16","AB_m21","233","odd","NW_S_SIMP","ACREMANT","1938","205127","201544","203622","29540","NA","NA","NA","NA","NA","202046","NA","NA","NA","201044","NA","201018","1950","205477","NA","NA","NA","202086","1938","1938","NA","202994","203019","201018","202046","202066","morph21_Oliver/Morris","37","27254","42","yes","1920","16"
"350","86.04651162790698","86.04651162790698","648.046511627907","648.046511627907","black","no","xpyriment","legacy","legacy","0","204","NA","uniform","NA","NA","NA","0","undefined","0","0","42","42","42","0","42","42","42","NA","0","42","NA","NA","0","42","NA","42","0","42","NA","NA","NA","42","0","0","NA","42","42","42","42","42","43","z","Fri Dec  8 11:11:41 2023","The main experiment item","yes","m21-ab-lexicalDecision.osexp","C:\Users\ekealey\Desktop","no","mono","no","18","no","white","no","yes","1080","legacy","42","42","C:/Users/ekealey/Desktop/subject-233.csv","xpyriment","Lentiform Loewenfeld","3.3.11","0","/","NA","NA","NA","NA","space","/","612","NA","NA","NA","NA","27589","612","2","legacy","1024","2","48000","-16","AB_m21","233","odd","NW_L_COMP","AGREELY","1938","208837","207057","203622","29540","NA","NA","NA","NA","NA","207557","NA","NA","NA","206557","NA","206530","1950","209187","NA","NA","NA","207598","1938","1938","NA","208210","208234","206530","207557","207578","morph21_Oliver/Morris","37","27866","43","yes","1920","24"
"350","86.36363636363636","86.36363636363636","647.9545454545455","647.9545454545455","black","no","xpyriment","legacy","legacy","0","202","NA","uniform","NA","NA","NA","1","undefined","1","0","43","43","43","0","43","43","43","NA","0","43","NA","NA","0","43","NA","43","0","43","NA","NA","NA","43","0","0","NA","43","43","43","43","43","44","/","Fri Dec  8 11:11:41 2023","The main experiment item","yes","m21-ab-lexicalDecision.osexp","C:\Users\ekealey\Desktop","no","mono","no","18","no","white","no","yes","1080","legacy","43","43","C:/Users/ekealey/Desktop/subject-233.csv","xpyriment","Lentiform Loewenfeld","3.3.11","0","/","NA","NA","NA","NA","space","/","644","NA","NA","NA","NA","27589","644","2","legacy","1024","2","48000","-16","AB_m21","233","odd","CW_L","SWIMMER","1938","212565","210752","203622","29540","NA","NA","NA","NA","NA","211254","NA","NA","NA","210251","NA","210221","1950","212915","NA","NA","NA","211294","1938","1938","NA","211938","211962","210221","211253","211274","morph21_Oliver/Morris","38","28510","44","yes","1920","5"
"200","86.66666666666667","86.66666666666667","651.5333333333333","651.5333333333333","black","no","xpyriment","legacy","legacy","0","203","NA","uniform","NA","NA","NA","1","undefined","1","0","44","44","44","0","44","44","44","NA","0","44","NA","NA","0","44","NA","44","0","44","NA","NA","NA","44","0","0","NA","44","44","44","44","44","45","z","Fri Dec  8 11:11:41 2023","The main experiment item","yes","m21-ab-lexicalDecision.osexp","C:\Users\ekealey\Desktop","no","mono","no","18","no","white","no","yes","1080","legacy","44","44","C:/Users/ekealey/Desktop/subject-233.csv","xpyriment","Lentiform Loewenfeld","3.3.11","0","z","NA","NA","NA","NA","space","z","809","NA","NA","NA","NA","27589","809","2","legacy","1024","2","48000","-16","AB_m21","233","odd","NW_S_COMP","MELTANCE","1938","217960","214475","216455","29540","NA","NA","NA","NA","NA","214976","NA","NA","NA","213973","NA","213949","1950","218160","NA","NA","NA","215017","1938","1938","NA","215826","215851","213949","214976","214997","morph21_Oliver/Morris","39","29319","45","yes","1920","1"
"200","86.95652173913044","86.95652173913044","647.2391304347826","647.2391304347826","black","no","xpyriment","legacy","legacy","0","207","NA","uniform","NA","NA","NA","1","undefined","1","0","45","45","45","0","45","45","45","NA","0","45","NA","NA","0","45","NA","45","0","45","NA","NA","NA","45","0","0","NA","45","45","45","45","45","46","/","Fri Dec  8 11:11:41 2023","The main experiment item","yes","m21-ab-lexicalDecision.osexp","C:\Users\ekealey\Desktop","no","mono","no","18","no","white","no","yes","1080","legacy","45","45","C:/Users/ekealey/Desktop/subject-233.csv","xpyriment","Lentiform Loewenfeld","3.3.11","0","/","NA","NA","NA","NA","space","/","454","NA","NA","NA","NA","27589","454","2","legacy","1024","2","48000","-16","AB_m21","233","odd","FILL_W","WRECK","1938","221359","219735","216455","29540","NA","NA","NA","NA","NA","220235","NA","NA","NA","219234","NA","219200","1950","221559","NA","NA","NA","220276","1938","1938","NA","220730","220756","219200","220235","220256","morph21_Oliver/Morris","40","29773","46","yes","1920","13"
"400","87.23404255319149","87.23404255319149","641.9787234042553","641.9787234042553","black","no","xpyriment","legacy","legacy","0","202","NA","uniform","NA","NA","NA","1","undefined","1","0","46","46","46","0","46","46","46","NA","0","46","NA","NA","0","46","NA","46","0","46","NA","NA","NA","46","0","0","NA","46","46","46","46","46","47","/","Fri Dec  8 11:11:41 2023","The main experiment item","yes","m21-ab-lexicalDecision.osexp","C:\Users\ekealey\Desktop","no","mono","no","18","no","white","no","yes","1080","legacy","46","46","C:/Users/ekealey/Desktop/subject-233.csv","xpyriment","Lentiform Loewenfeld","3.3.11","0","/","NA","NA","NA","NA","space","/","400","NA","NA","NA","NA","27589","400","2","legacy","1024","2","48000","-16","AB_m21","233","odd","CW_L","BLINDNESS","1938","224678","223108","216455","29540","NA","NA","NA","NA","NA","223608","NA","NA","NA","222608","NA","222578","1950","225078","NA","NA","NA","223649","1938","1938","NA","224050","224074","222578","223608","223629","morph21_Oliver/Morris","41","30173","47","yes","1920","40"
"400","87.5","87.5","640.6458333333334","640.6458333333334","black","no","xpyriment","legacy","legacy","0","208","NA","uniform","NA","NA","NA","1","undefined","1","0","47","47","47","0","47","47","47","NA","0","47","NA","NA","0","47","NA","47","0","47","NA","NA","NA","47","0","0","NA","47","47","47","47","47","48","z","Fri Dec  8 11:11:41 2023","The main experiment item","yes","m21-ab-lexicalDecision.osexp","C:\Users\ekealey\Desktop","no","mono","no","18","no","white","no","yes","1080","legacy","47","47","C:/Users/ekealey/Desktop/subject-233.csv","xpyriment","Lentiform Loewenfeld","3.3.11","0","z","NA","NA","NA","NA","space","z","578","NA","NA","NA","NA","27589","578","2","legacy","1024","2","48000","-16","AB_m21","233","odd","FILL_NW","BALFS","1938","229919","226667","228415","29540","NA","NA","NA","NA","NA","227167","NA","NA","NA","226166","NA","226137","1950","230319","NA","NA","NA","227207","1938","1938","NA","227786","227811","226137","227167","227187","morph21_Oliver/Morris","42","30751","48","yes","1920","2"
"250","85.71428571428571","85.71428571428571","636.4081632653061","636.4081632653061","black","no","xpyriment","legacy","legacy","0","206","NA","uniform","NA","NA","NA","0","undefined","0","0","48","48","48","0","48","48","48","NA","0","48","NA","NA","0","48","NA","48","0","48","NA","NA","NA","48","0","0","NA","48","48","48","48","48","49","z","Fri Dec  8 11:11:41 2023","The main experiment item","yes","m21-ab-lexicalDecision.osexp","C:\Users\ekealey\Desktop","no","mono","no","18","no","white","no","yes","1080","legacy","48","48","C:/Users/ekealey/Desktop/subject-233.csv","xpyriment","Lentiform Loewenfeld","3.3.11","0","/","NA","NA","NA","NA","space","/","433","NA","NA","NA","NA","27589","433","2","legacy","1024","2","48000","-16","AB_m21","233","odd","NW_L_SIMP","BEARILT","1938","233487","231883","228415","29540","NA","NA","NA","NA","NA","232385","NA","NA","NA","231382","NA","231351","1950","233737","NA","NA","NA","232425","1938","1938","NA","232858","232884","231351","232385","232405","morph21_Oliver/Morris","42","31184","49","yes","1920","25"
"350","86","86","637.12","637.12","black","no","xpyriment","legacy","legacy","0","208","NA","uniform","NA","NA","NA","1","undefined","1","0","49","49","49","0","49","49","49","NA","0","49","NA","NA","0","49","NA","49","0","49","NA","NA","NA","49","0","0","NA","49","49","49","49","49","50","z","Fri Dec  8 11:11:41 2023","The main experiment item","yes","m21-ab-lexicalDecision.osexp","C:\Users\ekealey\Desktop","no","mono","no","18","no","white","no","yes","1080","legacy","49","49","C:/Users/ekealey/Desktop/subject-233.csv","xpyriment","Lentiform Loewenfeld","3.3.11","0","z","NA","NA","NA","NA","space","z","672","NA","NA","NA","NA","27589","672","2","legacy","1024","2","48000","-16","AB_m21","233","odd","FILL_NW","DASP","1938","237143","235299","228415","29540","NA","NA","NA","NA","NA","235800","NA","NA","NA","234798","NA","234768","1950","237493","NA","NA","NA","235841","1938","1938","NA","236514","236539","234768","235800","235821","morph21_Oliver/Morris","43","31856","50","yes","1920","13"
"400","86.27450980392157","86.27450980392157","634.0980392156863","634.0980392156863","black","no","xpyriment","legacy","legacy","0","208","NA","uniform","NA","NA","NA","1","undefined","1","0","50","50","50","0","50","50","50","NA","0","50","NA","NA","0","50","NA","50","0","50","NA","NA","NA","50","0","0","NA","50","50","50","50","50","51","z","Fri Dec  8 11:11:41 2023","The main experiment item","yes","m21-ab-lexicalDecision.osexp","C:\Users\ekealey\Desktop","no","mono","no","18","no","white","no","yes","1080","legacy","50","50","C:/Users/ekealey/Desktop/subject-233.csv","xpyriment","Lentiform Loewenfeld","3.3.11","0","z","NA","NA","NA","NA","space","z","483","NA","NA","NA","NA","27589","483","2","legacy","1024","2","48000","-16","AB_m21","233","odd","FILL_NW","HEND","1938","242230","239074","240727","29540","NA","NA","NA","NA","NA","239574","NA","NA","NA","238572","NA","238549","1950","242631","NA","NA","NA","239615","1938","1938","NA","240098","240123","238549","239574","239595","morph21_Oliver/Morris","44","32339","51","yes","1920","28"
"350","86.53846153846153","86.53846153846153","629.2692307692307","629.2692307692307","black","no","xpyriment","legacy","legacy","0","207","NA","uniform","NA","NA","NA","1","undefined","1","0","51","51","51","0","51","51","51","NA","0","51","NA","NA","0","51","NA","51","0","51","NA","NA","NA","51","0","0","NA","51","51","51","51","51","52","/","Fri Dec  8 11:11:41 2023","The main experiment item","yes","m21-ab-lexicalDecision.osexp","C:\Users\ekealey\Desktop","no","mono","no","18","no","white","no","yes","1080","legacy","51","51","C:/Users/ekealey/Desktop/subject-233.csv","xpyriment","Lentiform Loewenfeld","3.3.11","0","/","NA","NA","NA","NA","space","/","383","NA","NA","NA","NA","27589","383","2","legacy","1024","2","48000","-16","AB_m21","233","odd","FILL_W","WEIRD","1938","245742","244190","240727","29540","NA","NA","NA","NA","NA","244691","NA","NA","NA","243688","NA","243659","1950","246093","NA","NA","NA","244731","1938","1938","NA","245114","245139","243659","244691","244711","morph21_Oliver/Morris","45","32722","52","yes","1920","2"
"400","84.90566037735849","84.90566037735849","632","632","black","no","xpyriment","legacy","legacy","0","202","NA","uniform","NA","NA","NA","0","undefined","0","0","52","52","52","0","52","52","52","NA","0","52","NA","NA","0","52","NA","52","0","52","NA","NA","NA","52","0","0","NA","52","52","52","52","52","53","/","Fri Dec  8 11:11:41 2023","The main experiment item","yes","m21-ab-lexicalDecision.osexp","C:\Users\ekealey\Desktop","no","mono","no","18","no","white","no","yes","1080","legacy","52","52","C:/Users/ekealey/Desktop/subject-233.csv","xpyriment","Lentiform Loewenfeld","3.3.11","0","z","NA","NA","NA","NA","space","z","774","NA","NA","NA","NA","27589","774","2","legacy","1024","2","48000","-16","AB_m21","233","odd","CW_L","SHAPELY","1938","249596","247654","240727","29540","NA","NA","NA","NA","NA","248155","NA","NA","NA","247154","NA","247127","1950","249996","NA","NA","NA","248195","1938","1938","NA","248970","248993","247127","248155","248175","morph21_Oliver/Morris","45","33496","53","yes","1920","35"
"350","85.18518518518519","85.18518518518519","632.5370370370371","632.5370370370371","black","no","xpyriment","legacy","legacy","0","201","NA","uniform","NA","NA","NA","1","undefined","1","0","53","53","53","0","53","53","53","NA","0","53","NA","NA","0","53","NA","53","0","53","NA","NA","NA","53","0","0","NA","53","53","53","53","53","54","/","Fri Dec  8 11:11:41 2023","The main experiment item","yes","m21-ab-lexicalDecision.osexp","C:\Users\ekealey\Desktop","no","mono","no","18","no","white","no","yes","1080","legacy","53","53","C:/Users/ekealey/Desktop/subject-233.csv","xpyriment","Lentiform Loewenfeld","3.3.11","0","/","NA","NA","NA","NA","space","/","661","NA","NA","NA","NA","27589","661","2","legacy","1024","2","48000","-16","AB_m21","233","odd","CW_S","TOASTER","1938","254861","251526","253357","29540","NA","NA","NA","NA","NA","252027","NA","NA","NA","251026","NA","250997","1950","255211","NA","NA","NA","252068","1938","1938","NA","252730","252754","250996","252026","252047","morph21_Oliver/Morris","46","34157","54","yes","1920","10"
"250","85.45454545454545","85.45454545454545","634.4","634.4","black","no","xpyriment","legacy","legacy","0","204","NA","uniform","NA","NA","NA","1","undefined","1","0","54","54","54","0","54","54","54","NA","0","54","NA","NA","0","54","NA","54","0","54","NA","NA","NA","54","0","0","NA","54","54","54","54","54","55","z","Fri Dec  8 11:11:41 2023","The main experiment item","yes","m21-ab-lexicalDecision.osexp","C:\Users\ekealey\Desktop","no","mono","no","18","no","white","no","yes","1080","legacy","54","54","C:/Users/ekealey/Desktop/subject-233.csv","xpyriment","Lentiform Loewenfeld","3.3.11","0","z","NA","NA","NA","NA","space","z","735","NA","NA","NA","NA","27589","735","2","legacy","1024","2","48000","-16","AB_m21","233","odd","NW_L_COMP","TRIPARY","1938","258676","256774","253357","29540","NA","NA","NA","NA","NA","257274","NA","NA","NA","256274","NA","256242","1950","258926","NA","NA","NA","257314","1938","1938","NA","258050","258073","256242","257274","257294","morph21_Oliver/Morris","47","34892","55","yes","1920","2"
"400","85.71428571428571","85.71428571428571","635.4642857142857","635.4642857142857","black","no","xpyriment","legacy","legacy","0","202","NA","uniform","NA","NA","NA","1","undefined","1","0","55","55","55","0","55","55","55","NA","0","55","NA","NA","0","55","NA","55","0","55","NA","NA","NA","55","0","0","NA","55","55","55","55","55","56","/","Fri Dec  8 11:11:41 2023","The main experiment item","yes","m21-ab-lexicalDecision.osexp","C:\Users\ekealey\Desktop","no","mono","no","18","no","white","no","yes","1080","legacy","55","55","C:/Users/ekealey/Desktop/subject-233.csv","xpyriment","Lentiform Loewenfeld","3.3.11","0","/","NA","NA","NA","NA","space","/","694","NA","NA","NA","NA","27589","694","2","legacy","1024","2","48000","-16","AB_m21","233","odd","CW_L","STYLISH","1938","262365","260503","253357","29540","NA","NA","NA","NA","NA","261003","NA","NA","NA","260002","NA","259974","1950","262765","NA","NA","NA","261043","1938","1938","NA","261738","261761","259973","261003","261023","morph21_Oliver/Morris","48","35586","56","yes","1920","29"
"250","85.96491228070175","85.96491228070175","633.4561403508771","633.4561403508771","black","no","xpyriment","legacy","legacy","0","201","NA","uniform","NA","NA","NA","1","undefined","1","0","56","56","56","0","56","56","56","NA","0","56","NA","NA","0","56","NA","56","0","56","NA","NA","NA","56","0","0","NA","56","56","56","56","56","57","/","Fri Dec  8 11:11:41 2023","The main experiment item","yes","m21-ab-lexicalDecision.osexp","C:\Users\ekealey\Desktop","no","mono","no","18","no","white","no","yes","1080","legacy","56","56","C:/Users/ekealey/Desktop/subject-233.csv","xpyriment","Lentiform Loewenfeld","3.3.11","0","/","NA","NA","NA","NA","space","/","521","NA","NA","NA","NA","27589","521","2","legacy","1024","2","48000","-16","AB_m21","233","odd","CW_S","COSTLY","1938","267525","264331","266022","29540","NA","NA","NA","NA","NA","264831","NA","NA","NA","263830","NA","263802","1950","267775","NA","NA","NA","264872","1938","1938","NA","265394","265418","263802","264831","264852","morph21_Oliver/Morris","49","36107","57","yes","1920","36"
"350","84.48275862068965","84.48275862068965","632.0689655172414","632.0689655172414","black","no","xpyriment","legacy","legacy","0","201","NA","uniform","NA","NA","NA","0","undefined","0","0","57","57","57","0","57","57","57","NA","0","57","NA","NA","0","57","NA","57","0","57","NA","NA","NA","57","0","0","NA","57","57","57","57","57","58","/","Fri Dec  8 11:11:41 2023","The main experiment item","yes","m21-ab-lexicalDecision.osexp","C:\Users\ekealey\Desktop","no","mono","no","18","no","white","no","yes","1080","legacy","57","57","C:/Users/ekealey/Desktop/subject-233.csv","xpyriment","Lentiform Loewenfeld","3.3.11","0","z","NA","NA","NA","NA","space","z","553","NA","NA","NA","NA","27589","553","2","legacy","1024","2","48000","-16","AB_m21","233","odd","CW_S","DULLNESS","1938","271037","269314","266022","29540","NA","NA","NA","NA","NA","269815","NA","NA","NA","268813","NA","268787","1950","271387","NA","NA","NA","269856","1938","1938","NA","270410","270434","268787","269815","269836","morph21_Oliver/Morris","49","36660","58","yes","1920","43"
"350","83.05084745762711","83.05084745762711","629.1694915254237","629.1694915254237","black","no","xpyriment","legacy","legacy","0","204","NA","uniform","NA","NA","NA","0","undefined","0","0","58","58","58","0","58","58","58","NA","0","58","NA","NA","0","58","NA","58","0","58","NA","NA","NA","58","0","0","NA","58","58","58","58","58","59","z","Fri Dec  8 11:11:41 2023","The main experiment item","yes","m21-ab-lexicalDecision.osexp","C:\Users\ekealey\Desktop","no","mono","no","18","no","white","no","yes","1080","legacy","58","58","C:/Users/ekealey/Desktop/subject-233.csv","xpyriment","Lentiform Loewenfeld","3.3.11","0","/","NA","NA","NA","NA","space","/","461","NA","NA","NA","NA","27589","461","2","legacy","1024","2","48000","-16","AB_m21","233","odd","NW_L_COMP","INKISM","1938","274574","272944","266022","29540","NA","NA","NA","NA","NA","273444","NA","NA","NA","272443","NA","272415","1950","274924","NA","NA","NA","273485","1938","1938","NA","273947","273971","272415","273444","273465","morph21_Oliver/Morris","49","37121","59","yes","1920","8"
"400","81.66666666666667","81.66666666666667","626.6833333333333","626.6833333333333","black","no","xpyriment","legacy","legacy","0","204","NA","uniform","NA","NA","NA","0","undefined","0","0","59","59","59","0","59","59","59","NA","0","59","NA","NA","0","59","NA","59","0","59","NA","NA","NA","59","0","0","NA","59","59","59","59","59","60","z","Fri Dec  8 11:11:41 2023","The main experiment item","yes","m21-ab-lexicalDecision.osexp","C:\Users\ekealey\Desktop","no","mono","no","18","no","white","no","yes","1080","legacy","59","59","C:/Users/ekealey/Desktop/subject-233.csv","xpyriment","Lentiform Loewenfeld","3.3.11","0","/","NA","NA","NA","NA","space","/","480","NA","NA","NA","NA","27589","480","2","legacy","1024","2","48000","-16","AB_m21","233","odd","NW_L_COMP","RIPENCE","1938","279629","276476","278126","29540","NA","NA","NA","NA","NA","276976","NA","NA","NA","275976","NA","275952","1950","280029","NA","NA","NA","277017","1938","1938","NA","277498","277523","275951","276976","276997","morph21_Oliver/Morris","49","37601","60","yes","1920","4"
"400","81.9672131147541","81.9672131147541","628.8196721311475","628.8196721311475","black","no","xpyriment","legacy","legacy","0","206","NA","uniform","NA","NA","NA","1","undefined","1","0","60","60","60","0","60","60","60","NA","0","60","NA","NA","0","60","NA","60","0","60","NA","NA","NA","60","0","0","NA","60","60","60","60","60","61","z","Fri Dec  8 11:11:41 2023","The main experiment item","yes","m21-ab-lexicalDecision.osexp","C:\Users\ekealey\Desktop","no","mono","no","18","no","white","no","yes","1080","legacy","60","60","C:/Users/ekealey/Desktop/subject-233.csv","xpyriment","Lentiform Loewenfeld","3.3.11","0","z","NA","NA","NA","NA","space","z","757","NA","NA","NA","NA","27589","757","2","legacy","1024","2","48000","-16","AB_m21","233","odd","NW_L_SIMP","VALIDEL","1938","283519","281591","278126","29540","NA","NA","NA","NA","NA","282092","NA","NA","NA","281089","NA","281059","1950","283920","NA","NA","NA","282133","1938","1938","NA","282890","282916","281059","282092","282113","morph21_Oliver/Morris","50","38358","61","yes","1920","23"
"350","82.25806451612904","82.25806451612904","631.1451612903226","631.1451612903226","black","no","xpyriment","legacy","legacy","0","201","NA","uniform","NA","NA","NA","1","undefined","1","0","61","61","61","0","61","61","61","NA","0","61","NA","NA","0","61","NA","61","0","61","NA","NA","NA","61","0","0","NA","61","61","61","61","61","62","/","Fri Dec  8 11:11:41 2023","The main experiment item","yes","m21-ab-lexicalDecision.osexp","C:\Users\ekealey\Desktop","no","mono","no","18","no","white","no","yes","1080","legacy","61","61","C:/Users/ekealey/Desktop/subject-233.csv","xpyriment","Lentiform Loewenfeld","3.3.11","0","/","NA","NA","NA","NA","space","/","773","NA","NA","NA","NA","27589","773","2","legacy","1024","2","48000","-16","AB_m21","233","odd","CW_S","NEATLY","1938","287407","285464","278126","29540","NA","NA","NA","NA","NA","285964","NA","NA","NA","284963","NA","284934","1950","287757","NA","NA","NA","286004","1938","1938","NA","286778","286803","284934","285964","285984","morph21_Oliver/Morris","51","39131","62","yes","1920","33"
"250","82.53968253968254","82.53968253968254","638.5873015873016","638.5873015873016","black","no","xpyriment","legacy","legacy","0","208","NA","uniform","NA","NA","NA","1","undefined","1","0","62","62","62","0","62","62","62","NA","0","62","NA","NA","0","62","NA","62","0","62","NA","NA","NA","62","0","0","NA","62","62","62","62","62","63","z","Fri Dec  8 11:11:41 2023","The main experiment item","yes","m21-ab-lexicalDecision.osexp","C:\Users\ekealey\Desktop","no","mono","no","18","no","white","no","yes","1080","legacy","62","62","C:/Users/ekealey/Desktop/subject-233.csv","xpyriment","Lentiform Loewenfeld","3.3.11","0","z","NA","NA","NA","NA","space","z","1100","NA","NA","NA","NA","27589","1100","2","legacy","1024","2","48000","-16","AB_m21","233","odd","FILL_NW","POLT","1938","293079","289305","291574","29540","NA","NA","NA","NA","NA","289806","NA","NA","NA","288805","NA","288780","1950","293330","NA","NA","NA","289846","1938","1938","NA","290946","290970","288780","289806","289826","morph21_Oliver/Morris","52","40231","63","yes","1920","38"
"350","82.8125","82.8125","639.203125","639.203125","black","no","xpyriment","legacy","legacy","0","205","NA","uniform","NA","NA","NA","1","undefined","1","0","63","63","63","0","63","63","63","NA","0","63","NA","NA","0","63","NA","63","0","63","NA","NA","NA","63","0","0","NA","63","63","63","63","63","64","z","Fri Dec  8 11:11:41 2023","The main experiment item","yes","m21-ab-lexicalDecision.osexp","C:\Users\ekealey\Desktop","no","mono","no","18","no","white","no","yes","1080","legacy","63","63","C:/Users/ekealey/Desktop/subject-233.csv","xpyriment","Lentiform Loewenfeld","3.3.11","0","z","NA","NA","NA","NA","space","z","678","NA","NA","NA","NA","27589","678","2","legacy","1024","2","48000","-16","AB_m21","233","odd","NW_S_SIMP","BASKODY","1938","296740","294894","291574","29540","NA","NA","NA","NA","NA","295394","NA","NA","NA","294393","NA","294359","1950","297090","NA","NA","NA","295435","1938","1938","NA","296114","296137","294359","295394","295415","morph21_Oliver/Morris","53","40909","64","yes","1920","10"
"200","83.07692307692308","83.07692307692308","636.3538461538461","636.3538461538461","black","no","xpyriment","legacy","legacy","0","207","NA","uniform","NA","NA","NA","1","undefined","1","0","64","64","64","0","64","64","64","NA","0","64","NA","NA","0","64","NA","64","0","64","NA","NA","NA","64","0","0","NA","64","64","64","64","64","65","/","Fri Dec  8 11:11:41 2023","The main experiment item","yes","m21-ab-lexicalDecision.osexp","C:\Users\ekealey\Desktop","no","mono","no","18","no","white","no","yes","1080","legacy","64","64","C:/Users/ekealey/Desktop/subject-233.csv","xpyriment","Lentiform Loewenfeld","3.3.11","0","/","NA","NA","NA","NA","space","/","454","NA","NA","NA","NA","27589","454","2","legacy","1024","2","48000","-16","AB_m21","233","odd","FILL_W","FLESH","1938","300302","298678","291574","29540","NA","NA","NA","NA","NA","299180","NA","NA","NA","298175","NA","298152","1950","300502","NA","NA","NA","299220","1938","1938","NA","299674","299699","298152","299180","299200","morph21_Oliver/Morris","54","41363","65","yes","1920","32"
"250","83.33333333333333","83.33333333333333","643.0909090909091","643.0909090909091","black","no","xpyriment","legacy","legacy","0","208","NA","uniform","NA","NA","NA","1","undefined","1","0","65","65","65","0","65","65","65","NA","0","65","NA","NA","0","65","NA","65","0","65","NA","NA","NA","65","0","0","NA","65","65","65","65","65","66","z","Fri Dec  8 11:11:41 2023","The main experiment item","yes","m21-ab-lexicalDecision.osexp","C:\Users\ekealey\Desktop","no","mono","no","18","no","white","no","yes","1080","legacy","65","65","C:/Users/ekealey/Desktop/subject-233.csv","xpyriment","Lentiform Loewenfeld","3.3.11","0","z","NA","NA","NA","NA","space","z","1081","NA","NA","NA","NA","27589","1081","2","legacy","1024","2","48000","-16","AB_m21","233","odd","FILL_NW","PLAODS","1938","305817","302058","304311","29540","NA","NA","NA","NA","NA","302560","NA","NA","NA","301557","NA","301529","1950","306067","NA","NA","NA","302600","1938","1938","NA","303682","303707","301529","302560","302580","morph21_Oliver/Morris","55","42444","66","yes","1920","37"
"250","83.58208955223881","83.58208955223881","647.3582089552239","647.3582089552239","black","no","xpyriment","legacy","legacy","0","207","NA","uniform","NA","NA","NA","1","undefined","1","0","66","66","66","0","66","66","66","NA","0","66","NA","NA","0","66","NA","66","0","66","NA","NA","NA","66","0","0","NA","66","66","66","66","66","67","/","Fri Dec  8 11:11:41 2023","The main experiment item","yes","m21-ab-lexicalDecision.osexp","C:\Users\ekealey\Desktop","no","mono","no","18","no","white","no","yes","1080","legacy","66","66","C:/Users/ekealey/Desktop/subject-233.csv","xpyriment","Lentiform Loewenfeld","3.3.11","0","/","NA","NA","NA","NA","space","/","929","NA","NA","NA","NA","27589","929","2","legacy","1024","2","48000","-16","AB_m21","233","odd","FILL_W","PACK","1938","309732","307635","304311","29540","NA","NA","NA","NA","NA","308135","NA","NA","NA","307135","NA","307103","1950","309982","NA","NA","NA","308176","1938","1938","NA","309106","309129","307103","308135","308156","morph21_Oliver/Morris","56","43373","67","yes","1920","41"
"350","83.82352941176471","83.82352941176471","649.3823529411765","649.3823529411765","black","no","xpyriment","legacy","legacy","0","202","NA","uniform","NA","NA","NA","1","undefined","1","0","67","67","67","0","67","67","67","NA","0","67","NA","NA","0","67","NA","67","0","67","NA","NA","NA","67","0","0","NA","67","67","67","67","67","68","/","Fri Dec  8 11:11:41 2023","The main experiment item","yes","m21-ab-lexicalDecision.osexp","C:\Users\ekealey\Desktop","no","mono","no","18","no","white","no","yes","1080","legacy","67","67","C:/Users/ekealey/Desktop/subject-233.csv","xpyriment","Lentiform Loewenfeld","3.3.11","0","/","NA","NA","NA","NA","space","/","785","NA","NA","NA","NA","27589","785","2","legacy","1024","2","48000","-16","AB_m21","233","odd","CW_L","RENTER","1938","313494","311540","304311","29540","NA","NA","NA","NA","NA","312040","NA","NA","NA","311039","NA","311006","1950","313844","NA","NA","NA","312080","1938","1938","NA","312866","312891","311006","312040","312060","morph21_Oliver/Morris","57","44158","68","yes","1920","9"
"200","84.05797101449275","84.05797101449275","650.3913043478261","650.3913043478261","black","no","xpyriment","legacy","legacy","0","202","NA","uniform","NA","NA","NA","1","undefined","1","0","68","68","68","0","68","68","68","NA","0","68","NA","NA","0","68","NA","68","0","68","NA","NA","NA","68","0","0","NA","68","68","68","68","68","69","/","Fri Dec  8 11:11:41 2023","The main experiment item","yes","m21-ab-lexicalDecision.osexp","C:\Users\ekealey\Desktop","no","mono","no","18","no","white","no","yes","1080","legacy","68","68","C:/Users/ekealey/Desktop/subject-233.csv","xpyriment","Lentiform Loewenfeld","3.3.11","0","/","NA","NA","NA","NA","space","/","719","NA","NA","NA","NA","27589","719","2","legacy","1024","2","48000","-16","AB_m21","233","odd","CW_L","BONELESS","1938","318831","315437","317328","29540","NA","NA","NA","NA","NA","315938","NA","NA","NA","314937","NA","314908","1950","319031","NA","NA","NA","315979","1938","1938","NA","316698","316724","314908","315938","315959","morph21_Oliver/Morris","58","44877","69","yes","1920","34"
"200","84.28571428571429","84.28571428571429","655.3","655.3","black","no","xpyriment","legacy","legacy","0","203","NA","uniform","NA","NA","NA","1","undefined","1","0","69","69","69","0","69","69","69","NA","0","69","NA","NA","0","69","NA","69","0","69","NA","NA","NA","69","0","0","NA","69","69","69","69","69","70","z","Fri Dec  8 11:11:41 2023","The main experiment item","yes","m21-ab-lexicalDecision.osexp","C:\Users\ekealey\Desktop","no","mono","no","18","no","white","no","yes","1080","legacy","69","69","C:/Users/ekealey/Desktop/subject-233.csv","xpyriment","Lentiform Loewenfeld","3.3.11","0","z","NA","NA","NA","NA","space","z","994","NA","NA","NA","NA","27589","994","2","legacy","1024","2","48000","-16","AB_m21","233","odd","NW_S_COMP","FANFUL","1938","322783","320618","317328","29540","NA","NA","NA","NA","NA","321119","NA","NA","NA","320116","NA","320091","1950","322983","NA","NA","NA","321159","1938","1938","NA","322153","322180","320091","321119","321139","morph21_Oliver/Morris","59","45871","70","yes","1920","6"
"400","84.50704225352112","84.50704225352112","653.4225352112676","653.4225352112676","black","no","xpyriment","legacy","legacy","0","202","NA","uniform","NA","NA","NA","1","undefined","1","0","70","70","70","0","70","70","70","NA","0","70","NA","NA","0","70","NA","70","0","70","NA","NA","NA","70","0","0","NA","70","70","70","70","70","71","/","Fri Dec  8 11:11:41 2023","The main experiment item","yes","m21-ab-lexicalDecision.osexp","C:\Users\ekealey\Desktop","no","mono","no","18","no","white","no","yes","1080","legacy","70","70","C:/Users/ekealey/Desktop/subject-233.csv","xpyriment","Lentiform Loewenfeld","3.3.11","0","/","NA","NA","NA","NA","space","/","522","NA","NA","NA","NA","27589","522","2","legacy","1024","2","48000","-16","AB_m21","233","odd","CW_L","WRONGLY","1938","326229","324538","317328","29540","NA","NA","NA","NA","NA","325038","NA","NA","NA","324038","NA","324011","1950","326630","NA","NA","NA","325079","1938","1938","NA","325602","325626","324011","325038","325059","morph21_Oliver/Morris","60","46393","71","yes","1920","37"
"250","83.33333333333333","83.33333333333333","654.0833333333334","654.0833333333334","black","no","xpyriment","legacy","legacy","0","201","NA","uniform","NA","NA","NA","0","undefined","0","0","71","71","71","0","71","71","71","NA","0","71","NA","NA","0","71","NA","71","0","71","NA","NA","NA","71","0","0","NA","71","71","71","71","71","72","/","Fri Dec  8 11:11:41 2023","The main experiment item","yes","m21-ab-lexicalDecision.osexp","C:\Users\ekealey\Desktop","no","mono","no","18","no","white","no","yes","1080","legacy","71","71","C:/Users/ekealey/Desktop/subject-233.csv","xpyriment","Lentiform Loewenfeld","3.3.11","0","z","NA","NA","NA","NA","space","z","701","NA","NA","NA","NA","27589","701","2","legacy","1024","2","48000","-16","AB_m21","233","odd","CW_S","MOSSY","1938","331564","328190","330061","29540","NA","NA","NA","NA","NA","328690","NA","NA","NA","327690","NA","327663","1950","331814","NA","NA","NA","328732","1938","1938","NA","329434","329457","327662","328690","328711","morph21_Oliver/Morris","60","47094","72","yes","1920","47"
"250","83.56164383561644","83.56164383561644","651.8356164383562","651.8356164383562","black","no","xpyriment","legacy","legacy","0","207","NA","uniform","NA","NA","NA","1","undefined","1","0","72","72","72","0","72","72","72","NA","0","72","NA","NA","0","72","NA","72","0","72","NA","NA","NA","72","0","0","NA","72","72","72","72","72","73","/","Fri Dec  8 11:11:41 2023","The main experiment item","yes","m21-ab-lexicalDecision.osexp","C:\Users\ekealey\Desktop","no","mono","no","18","no","white","no","yes","1080","legacy","72","72","C:/Users/ekealey/Desktop/subject-233.csv","xpyriment","Lentiform Loewenfeld","3.3.11","0","/","NA","NA","NA","NA","space","/","490","NA","NA","NA","NA","27589","490","2","legacy","1024","2","48000","-16","AB_m21","233","odd","FILL_W","SUIT","1938","335030","333370","330061","29540","NA","NA","NA","NA","NA","333870","NA","NA","NA","332869","NA","332836","1950","335280","NA","NA","NA","333911","1938","1938","NA","334402","334426","332836","333870","333891","morph21_Oliver/Morris","61","47584","73","yes","1920","49"
"300","82.43243243243244","82.43243243243244","650.2972972972973","650.2972972972973","black","no","xpyriment","legacy","legacy","0","208","NA","uniform","NA","NA","NA","0","undefined","0","0","73","73","73","0","73","73","73","NA","0","73","NA","NA","0","73","NA","73","0","73","NA","NA","NA","73","0","0","NA","73","73","73","73","73","74","z","Fri Dec  8 11:11:41 2023","The main experiment item","yes","m21-ab-lexicalDecision.osexp","C:\Users\ekealey\Desktop","no","mono","no","18","no","white","no","yes","1080","legacy","73","73","C:/Users/ekealey/Desktop/subject-233.csv","xpyriment","Lentiform Loewenfeld","3.3.11","0","/","NA","NA","NA","NA","space","/","538","NA","NA","NA","NA","27589","538","2","legacy","1024","2","48000","-16","AB_m21","233","odd","FILL_NW","DULKS","1938","338552","336841","330061","29540","NA","NA","NA","NA","NA","337342","NA","NA","NA","336340","NA","336311","1950","338852","NA","NA","NA","337383","1938","1938","NA","337922","337949","336311","337342","337363","morph21_Oliver/Morris","61","48122","74","yes","1920","18"
"350","82.66666666666667","82.66666666666667","652.0266666666666","652.0266666666666","black","no","xpyriment","legacy","legacy","0","206","NA","uniform","NA","NA","NA","undefined","undefined","1","0","74","74","74","0","74","74","74","NA","0","74","NA","NA","0","74","NA","74","0","74","NA","NA","NA","74","0","0","NA","74","74","74","74","74","75","z","Fri Dec  8 11:11:41 2023","The main experiment item","yes","m21-ab-lexicalDecision.osexp","C:\Users\ekealey\Desktop","no","mono","no","18","no","white","no","yes","1080","legacy","74","74","C:/Users/ekealey/Desktop/subject-233.csv","xpyriment","Lentiform Loewenfeld","3.3.11","0","space","space","NA","NA","NA","space","z","7250","7250","NA","NA","NA","27589","780","2","legacy","1024","2","48000","-16","AB_m21","233","odd","NW_L_SIMP","PICKENGE","1938","343868","340415","342365","29540","344223","NA","NA","NA","NA","340916","NA","NA","NA","339913","NA","339888","1950","351473","NA","NA","NA","340957","1938","1938","NA","341738","341762","339888","340916","340937","morph21_Oliver/Morris","62","48902","75","yes","1920","5"
"350","82.89473684210526","82.89473684210526","651.421052631579","651.421052631579","black","no","xpyriment","legacy","legacy","0","202","NA","uniform","NA","NA","NA","1","undefined","1","0","75","75","75","0","75","75","75","NA","0","75","NA","NA","0","75","NA","75","0","75","NA","NA","NA","75","0","0","NA","75","75","75","75","75","76","/","Fri Dec  8 11:11:41 2023","The main experiment item","yes","m21-ab-lexicalDecision.osexp","C:\Users\ekealey\Desktop","no","mono","no","18","no","white","no","yes","1080","legacy","75","75","C:/Users/ekealey/Desktop/subject-233.csv","xpyriment","Lentiform Loewenfeld","3.3.11","0","/","space","NA","NA","NA","space","/","606","7250","NA","NA","NA","27589","606","2","legacy","1024","2","48000","-16","AB_m21","233","odd","CW_L","HUNTER","1938","354815","353038","342365","29540","344223","NA","NA","NA","NA","353538","NA","NA","NA","352538","NA","352506","1950","355165","NA","NA","NA","353579","1938","1938","NA","354186","354212","352506","353538","353559","morph21_Oliver/Morris","63","49508","76","yes","1920","10"
"250","83.11688311688312","83.11688311688312","651.1948051948052","651.1948051948052","black","no","xpyriment","legacy","legacy","0","206","NA","uniform","NA","NA","NA","1","undefined","1","0","76","76","76","0","76","76","76","NA","0","76","NA","NA","0","76","NA","76","0","76","NA","NA","NA","76","0","0","NA","76","76","76","76","76","77","z","Fri Dec  8 11:11:41 2023","The main experiment item","yes","m21-ab-lexicalDecision.osexp","C:\Users\ekealey\Desktop","no","mono","no","18","no","white","no","yes","1080","legacy","76","76","C:/Users/ekealey/Desktop/subject-233.csv","xpyriment","Lentiform Loewenfeld","3.3.11","0","z","space","NA","NA","NA","space","z","634","7250","NA","NA","NA","27589","634","2","legacy","1024","2","48000","-16","AB_m21","233","odd","NW_L_SIMP","SHOOTMANT","1938","358526","356723","342365","29540","344223","NA","NA","NA","NA","357223","NA","NA","NA","356222","NA","356193","1950","358776","NA","NA","NA","357263","1938","1938","NA","357898","357922","356193","357223","357243","morph21_Oliver/Morris","64","50142","77","yes","1920","16"
"250","83.33333333333333","83.33333333333333","650.7948717948718","650.7948717948718","black","no","xpyriment","legacy","legacy","0","207","NA","uniform","NA","NA","NA","1","undefined","1","0","77","77","77","0","77","77","77","NA","0","77","NA","NA","0","77","NA","77","0","77","NA","NA","NA","77","0","0","NA","77","77","77","77","77","78","/","Fri Dec  8 11:11:41 2023","The main experiment item","yes","m21-ab-lexicalDecision.osexp","C:\Users\ekealey\Desktop","no","mono","no","18","no","white","no","yes","1080","legacy","77","77","C:/Users/ekealey/Desktop/subject-233.csv","xpyriment","Lentiform Loewenfeld","3.3.11","0","/","space","NA","NA","NA","space","/","620","7250","NA","NA","NA","27589","620","2","legacy","1024","2","48000","-16","AB_m21","233","odd","FILL_W","SLIM","1938","363614","360320","362110","29540","344223","NA","NA","NA","NA","360821","NA","NA","NA","359819","NA","359792","1950","363864","NA","NA","NA","360861","1938","1938","NA","361482","361506","359792","360821","360841","morph21_Oliver/Morris","65","50762","78","yes","1920","6"
"250","83.54430379746836","83.54430379746836","650.0253164556962","650.0253164556962","black","no","xpyriment","legacy","legacy","0","205","NA","uniform","NA","NA","NA","1","undefined","1","0","78","78","78","0","78","78","78","NA","0","78","NA","NA","0","78","NA","78","0","78","NA","NA","NA","78","0","0","NA","78","78","78","78","78","79","z","Fri Dec  8 11:11:41 2023","The main experiment item","yes","m21-ab-lexicalDecision.osexp","C:\Users\ekealey\Desktop","no","mono","no","18","no","white","no","yes","1080","legacy","78","78","C:/Users/ekealey/Desktop/subject-233.csv","xpyriment","Lentiform Loewenfeld","3.3.11","0","z","space","NA","NA","NA","space","z","590","7250","NA","NA","NA","27589","590","2","legacy","1024","2","48000","-16","AB_m21","233","odd","NW_S_SIMP","ZOOMFIL","1938","367182","365421","362110","29540","344223","NA","NA","NA","NA","365922","NA","NA","NA","364920","NA","364889","1950","367432","NA","NA","NA","365963","1938","1938","NA","366554","366578","364889","365922","365943","morph21_Oliver/Morris","66","51352","79","yes","1920","19"
"400","83.75","83.75","649.15","649.15","black","no","xpyriment","legacy","legacy","0","201","NA","uniform","NA","NA","NA","1","undefined","1","0","79","79","79","0","79","79","79","NA","0","79","NA","NA","0","79","NA","79","0","79","NA","NA","NA","79","0","0","NA","79","79","79","79","79","80","/","Fri Dec  8 11:11:41 2023","The main experiment item","yes","m21-ab-lexicalDecision.osexp","C:\Users\ekealey\Desktop","no","mono","no","18","no","white","no","yes","1080","legacy","79","79","C:/Users/ekealey/Desktop/subject-233.csv","xpyriment","Lentiform Loewenfeld","3.3.11","0","/","space","NA","NA","NA","space","/","580","7250","NA","NA","NA","27589","580","2","legacy","1024","2","48000","-16","AB_m21","233","odd","CW_S","AVOIDABLE","1938","370741","368992","362110","29540","344223","NA","NA","NA","NA","369492","NA","NA","NA","368492","NA","368464","1950","371141","NA","NA","NA","369533","1938","1938","NA","370114","370137","368464","369492","369513","morph21_Oliver/Morris","67","51932","80","yes","1920","2"
"200","83.95061728395062","83.95061728395062","647.3703703703703","647.3703703703703","black","no","xpyriment","legacy","legacy","0","208","NA","uniform","NA","NA","NA","1","undefined","1","0","80","80","80","0","80","80","80","NA","0","80","NA","NA","0","80","NA","80","0","80","NA","NA","NA","80","0","0","NA","80","80","80","80","80","81","z","Fri Dec  8 11:11:41 2023","The main experiment item","yes","m21-ab-lexicalDecision.osexp","C:\Users\ekealey\Desktop","no","mono","no","18","no","white","no","yes","1080","legacy","80","80","C:/Users/ekealey/Desktop/subject-233.csv","xpyriment","Lentiform Loewenfeld","3.3.11","0","z","space","NA","NA","NA","space","z","505","7250","NA","NA","NA","27589","505","2","legacy","1024","2","48000","-16","AB_m21","233","odd","FILL_NW","VUNKS","1938","375879","372699","374375","29540","344223","NA","NA","NA","NA","373200","NA","NA","NA","372198","NA","372168","1950","376080","NA","NA","NA","373240","1938","1938","NA","373746","373770","372168","373200","373220","morph21_Oliver/Morris","68","52437","81","yes","1920","49"
"200","82.92682926829268","82.92682926829268","645.5365853658536","645.5365853658536","black","no","xpyriment","legacy","legacy","0","201","NA","uniform","NA","NA","NA","0","undefined","0","0","81","81","81","0","81","81","81","NA","0","81","NA","NA","0","81","NA","81","0","81","NA","NA","NA","81","0","0","NA","81","81","81","81","81","82","/","Fri Dec  8 11:11:41 2023","The main experiment item","yes","m21-ab-lexicalDecision.osexp","C:\Users\ekealey\Desktop","no","mono","no","18","no","white","no","yes","1080","legacy","81","81","C:/Users/ekealey/Desktop/subject-233.csv","xpyriment","Lentiform Loewenfeld","3.3.11","0","z","space","NA","NA","NA","space","z","497","7250","NA","NA","NA","27589","497","2","legacy","1024","2","48000","-16","AB_m21","233","odd","CW_S","ANGELIC","1938","379293","377627","374375","29540","344223","NA","NA","NA","NA","378127","NA","NA","NA","377127","NA","377098","1950","379493","NA","NA","NA","378168","1938","1938","NA","378666","378690","377097","378127","378148","morph21_Oliver/Morris","68","52934","82","yes","1920","25"
"400","81.92771084337349","81.92771084337349","643.5542168674699","643.5542168674699","black","no","xpyriment","legacy","legacy","0","204","NA","uniform","NA","NA","NA","0","undefined","0","0","82","82","82","0","82","82","82","NA","0","82","NA","NA","0","82","NA","82","0","82","NA","NA","NA","82","0","0","NA","82","82","82","82","82","83","z","Fri Dec  8 11:11:41 2023","The main experiment item","yes","m21-ab-lexicalDecision.osexp","C:\Users\ekealey\Desktop","no","mono","no","18","no","white","no","yes","1080","legacy","82","82","C:/Users/ekealey/Desktop/subject-233.csv","xpyriment","Lentiform Loewenfeld","3.3.11","0","/","space","NA","NA","NA","space","/","481","7250","NA","NA","NA","27589","481","2","legacy","1024","2","48000","-16","AB_m21","233","odd","NW_L_COMP","PASSMENT","1938","382687","381035","374375","29540","344223","NA","NA","NA","NA","381535","NA","NA","NA","380535","NA","380504","1950","383087","NA","NA","NA","381576","1938","1938","NA","382058","382083","380504","381535","381556","morph21_Oliver/Morris","68","53415","83","yes","1920","14"
"200","82.14285714285714","82.14285714285714","640.7261904761905","640.7261904761905","black","no","xpyriment","legacy","legacy","0","208","NA","uniform","NA","NA","NA","1","undefined","1","0","83","83","83","0","83","83","83","NA","0","83","NA","NA","0","83","NA","83","0","83","NA","NA","NA","83","0","0","NA","83","83","83","83","83","84","z","Fri Dec  8 11:11:41 2023","The main experiment item","yes","m21-ab-lexicalDecision.osexp","C:\Users\ekealey\Desktop","no","mono","no","18","no","white","no","yes","1080","legacy","83","83","C:/Users/ekealey/Desktop/subject-233.csv","xpyriment","Lentiform Loewenfeld","3.3.11","0","z","space","NA","NA","NA","space","z","406","7250","NA","NA","NA","27589","406","2","legacy","1024","2","48000","-16","AB_m21","233","odd","FILL_NW","SMADE","1938","387709","384630","386205","29540","344223","NA","NA","NA","NA","385130","NA","NA","NA","384130","NA","384102","1950","387909","NA","NA","NA","385171","1938","1938","NA","385578","385602","384102","385130","385151","morph21_Oliver/Morris","69","53821","84","yes","1920","42"
"200","82.3529411764706","82.3529411764706","640.0470588235294","640.0470588235294","black","no","xpyriment","legacy","legacy","0","207","NA","uniform","NA","NA","NA","1","undefined","1","0","84","84","84","0","84","84","84","NA","0","84","NA","NA","0","84","NA","84","0","84","NA","NA","NA","84","0","0","NA","84","84","84","84","84","85","/","Fri Dec  8 11:11:41 2023","The main experiment item","yes","m21-ab-lexicalDecision.osexp","C:\Users\ekealey\Desktop","no","mono","no","18","no","white","no","yes","1080","legacy","84","84","C:/Users/ekealey/Desktop/subject-233.csv","xpyriment","Lentiform Loewenfeld","3.3.11","0","/","space","NA","NA","NA","space","/","583","7250","NA","NA","NA","27589","583","2","legacy","1024","2","48000","-16","AB_m21","233","odd","FILL_W","OLD","1938","391221","389470","386205","29540","344223","NA","NA","NA","NA","389970","NA","NA","NA","388969","NA","388940","1950","391421","NA","NA","NA","390010","1938","1938","NA","390594","390618","388940","389970","389990","morph21_Oliver/Morris","70","54404","85","yes","1920","44"
"350","82.55813953488372","82.55813953488372","643.4302325581396","643.4302325581396","black","no","xpyriment","legacy","legacy","0","201","NA","uniform","NA","NA","NA","1","undefined","1","0","85","85","85","0","85","85","85","NA","0","85","NA","NA","0","85","NA","85","0","85","NA","NA","NA","85","0","0","NA","85","85","85","85","85","86","/","Fri Dec  8 11:11:41 2023","The main experiment item","yes","m21-ab-lexicalDecision.osexp","C:\Users\ekealey\Desktop","no","mono","no","18","no","white","no","yes","1080","legacy","85","85","C:/Users/ekealey/Desktop/subject-233.csv","xpyriment","Lentiform Loewenfeld","3.3.11","0","/","space","NA","NA","NA","space","/","931","7250","NA","NA","NA","27589","931","2","legacy","1024","2","48000","-16","AB_m21","233","odd","CW_S","LENDER","1938","395070","392969","386205","29540","344223","NA","NA","NA","NA","393469","NA","NA","NA","392469","NA","392438","1950","395420","NA","NA","NA","393510","1938","1938","NA","394442","394466","392438","393469","393490","morph21_Oliver/Morris","71","55335","86","yes","1920","11"
"400","82.75862068965517","82.75862068965517","641.7126436781609","641.7126436781609","black","no","xpyriment","legacy","legacy","0","205","NA","uniform","NA","NA","NA","1","undefined","1","0","86","86","86","0","86","86","86","NA","0","86","NA","NA","0","86","NA","86","0","86","NA","NA","NA","86","0","0","NA","86","86","86","86","86","87","z","Fri Dec  8 11:11:41 2023","The main experiment item","yes","m21-ab-lexicalDecision.osexp","C:\Users\ekealey\Desktop","no","mono","no","18","no","white","no","yes","1080","legacy","86","86","C:/Users/ekealey/Desktop/subject-233.csv","xpyriment","Lentiform Loewenfeld","3.3.11","0","z","space","NA","NA","NA","space","z","494","7250","NA","NA","NA","27589","494","2","legacy","1024","2","48000","-16","AB_m21","233","odd","NW_S_SIMP","URNILT","1938","400132","396966","398629","29540","344223","NA","NA","NA","NA","397467","NA","NA","NA","396465","NA","396435","1950","400532","NA","NA","NA","397507","1938","1938","NA","398002","398026","396435","397467","397487","morph21_Oliver/Morris","72","55829","87","yes","1920","5"
"250","82.95454545454545","82.95454545454545","640.2386363636364","640.2386363636364","black","no","xpyriment","legacy","legacy","0","201","NA","uniform","NA","NA","NA","1","undefined","1","0","87","87","87","0","87","87","87","NA","0","87","NA","NA","0","87","NA","87","0","87","NA","NA","NA","87","0","0","NA","87","87","87","87","87","88","/","Fri Dec  8 11:11:41 2023","The main experiment item","yes","m21-ab-lexicalDecision.osexp","C:\Users\ekealey\Desktop","no","mono","no","18","no","white","no","yes","1080","legacy","87","87","C:/Users/ekealey/Desktop/subject-233.csv","xpyriment","Lentiform Loewenfeld","3.3.11","0","/","space","NA","NA","NA","space","/","512","7250","NA","NA","NA","27589","512","2","legacy","1024","2","48000","-16","AB_m21","233","odd","CW_S","PLANNER","1938","403789","402108","398629","29540","344223","NA","NA","NA","NA","402608","NA","NA","NA","401606","NA","401576","1950","404039","NA","NA","NA","402649","1938","1938","NA","403162","403186","401576","402608","402629","morph21_Oliver/Morris","73","56341","88","yes","1920","22"
"250","83.14606741573034","83.14606741573034","639.5505617977528","639.5505617977528","black","no","xpyriment","legacy","legacy","0","202","NA","uniform","NA","NA","NA","1","undefined","1","0","88","88","88","0","88","88","88","NA","0","88","NA","NA","0","88","NA","88","0","88","NA","NA","NA","88","0","0","NA","88","88","88","88","88","89","/","Fri Dec  8 11:11:41 2023","The main experiment item","yes","m21-ab-lexicalDecision.osexp","C:\Users\ekealey\Desktop","no","mono","no","18","no","white","no","yes","1080","legacy","88","88","C:/Users/ekealey/Desktop/subject-233.csv","xpyriment","Lentiform Loewenfeld","3.3.11","0","/","space","NA","NA","NA","space","/","579","7250","NA","NA","NA","27589","579","2","legacy","1024","2","48000","-16","AB_m21","233","odd","CW_L","DANCER","1938","407333","405585","398629","29540","344223","NA","NA","NA","NA","406086","NA","NA","NA","405083","NA","405057","1950","407583","NA","NA","NA","406126","1938","1938","NA","406706","406730","405057","406086","406106","morph21_Oliver/Morris","74","56920","89","yes","1920","11"
"250","82.22222222222223","82.22222222222223","638.9666666666667","638.9666666666667","black","no","xpyriment","legacy","legacy","0","207","NA","uniform","NA","NA","NA","0","undefined","0","0","89","89","89","0","89","89","89","NA","0","89","NA","NA","0","89","NA","89","0","89","NA","NA","NA","89","0","0","NA","89","89","89","89","89","90","/","Fri Dec  8 11:11:41 2023","The main experiment item","yes","m21-ab-lexicalDecision.osexp","C:\Users\ekealey\Desktop","no","mono","no","18","no","white","no","yes","1080","legacy","89","89","C:/Users/ekealey/Desktop/subject-233.csv","xpyriment","Lentiform Loewenfeld","3.3.11","0","z","space","NA","NA","NA","space","z","587","7250","NA","NA","NA","27589","587","2","legacy","1024","2","48000","-16","AB_m21","233","odd","FILL_W","WEAVE","1938","412390","409129","410886","29540","344223","NA","NA","NA","NA","409630","NA","NA","NA","408629","NA","408601","1950","412640","NA","NA","NA","409670","1938","1938","NA","410258","410282","408601","409629","409650","morph21_Oliver/Morris","74","57507","90","yes","1920","12"
"200","82.41758241758242","82.41758241758242","638.2747252747253","638.2747252747253","black","no","xpyriment","legacy","legacy","0","203","NA","uniform","NA","NA","NA","1","undefined","1","0","90","90","90","0","90","90","90","NA","0","90","NA","NA","0","90","NA","90","0","90","NA","NA","NA","90","0","0","NA","90","90","90","90","90","91","z","Fri Dec  8 11:11:41 2023","The main experiment item","yes","m21-ab-lexicalDecision.osexp","C:\Users\ekealey\Desktop","no","mono","no","18","no","white","no","yes","1080","legacy","90","90","C:/Users/ekealey/Desktop/subject-233.csv","xpyriment","Lentiform Loewenfeld","3.3.11","0","z","space","NA","NA","NA","space","z","576","7250","NA","NA","NA","27589","576","2","legacy","1024","2","48000","-16","AB_m21","233","odd","NW_S_COMP","ELMIST","1938","415926","414178","410886","29540","344223","NA","NA","NA","NA","414680","NA","NA","NA","413678","NA","413645","1950","416126","NA","NA","NA","414721","1938","1938","NA","415298","415323","413645","414680","414701","morph21_Oliver/Morris","75","58083","91","yes","1920","10"
"200","81.52173913043478","81.52173913043478","637.2608695652174","637.2608695652174","black","no","xpyriment","legacy","legacy","0","208","NA","uniform","NA","NA","NA","0","undefined","0","0","91","91","91","0","91","91","91","NA","0","91","NA","NA","0","91","NA","91","0","91","NA","NA","NA","91","0","0","NA","91","91","91","91","91","92","z","Fri Dec  8 11:11:41 2023","The main experiment item","yes","m21-ab-lexicalDecision.osexp","C:\Users\ekealey\Desktop","no","mono","no","18","no","white","no","yes","1080","legacy","91","91","C:/Users/ekealey/Desktop/subject-233.csv","xpyriment","Lentiform Loewenfeld","3.3.11","0","/","space","NA","NA","NA","space","/","545","7250","NA","NA","NA","27589","545","2","legacy","1024","2","48000","-16","AB_m21","233","odd","FILL_NW","FALONS","1938","419383","417667","410886","29540","344223","NA","NA","NA","NA","418167","NA","NA","NA","417167","NA","417136","1950","419583","NA","NA","NA","418208","1938","1938","NA","418753","418779","417136","418167","418188","morph21_Oliver/Morris","75","58628","92","yes","1920","19"
"250","81.72043010752688","81.72043010752688","635.9462365591398","635.9462365591398","black","no","xpyriment","legacy","legacy","0","202","NA","uniform","NA","NA","NA","1","undefined","1","0","92","92","92","0","92","92","92","NA","0","92","NA","NA","0","92","NA","92","0","92","NA","NA","NA","92","0","0","NA","92","92","92","92","92","93","/","Fri Dec  8 11:11:41 2023","The main experiment item","yes","m21-ab-lexicalDecision.osexp","C:\Users\ekealey\Desktop","no","mono","no","18","no","white","no","yes","1080","legacy","92","92","C:/Users/ekealey/Desktop/subject-233.csv","xpyriment","Lentiform Loewenfeld","3.3.11","0","/","space","NA","NA","NA","space","/","515","7250","NA","NA","NA","27589","515","2","legacy","1024","2","48000","-16","AB_m21","233","odd","CW_L","PUSHER","1938","424333","421144","422830","29540","344223","NA","NA","NA","NA","421645","NA","NA","NA","420643","NA","420618","1950","424583","NA","NA","NA","421686","1938","1938","NA","422202","422227","420618","421645","421666","morph21_Oliver/Morris","76","59143","93","yes","1920","13"
