"ITI","acc","accuracy","average_response_time","avg_rt","background","bidi","canvas_backend","clock_backend","color_backend","compensation","cond_trig","condtrigtime","coordinates","coroutines_cycles","coroutines_duration","coroutines_mean_cycle_duration","correct","correct_instructions_1","correct_new_keyboard_response_1","count_AB_m21","count_ITI","count_blank_screen","count_blink_screen","count_block1","count_break1","count_break2","count_break3_1","count_canvas","count_close_port","count_cond_trigger","count_correct_trigger","count_def_chain","count_end_screen","count_fixation_1","count_getting_started","count_inc_counter","count_instructions_1","count_logger","count_logscript","count_new_inline_script","count_new_inline_script_2","count_new_keyboard_response_1","count_open_port","count_reset_counter_prep","count_reset_counter_run","count_response_trigger_trial","count_responsescreen","count_sequence","count_target_present","count_word_trigger","counter","cresp","datetime","description","disable_garbage_collection","experiment_file","experiment_path","font_bold","font_family","font_italic","font_size","font_underline","foreground","form_clicks","fullscreen","height","keyboard_backend","live_row","live_row_block1","logfile","mouse_backend","opensesame_codename","opensesame_version","repeat_cycle","response","response_break1","response_break2","response_break3_1","response_end_screen","response_instructions_1","response_new_keyboard_response_1","response_time","response_time_break1","response_time_break2","response_time_break3_1","response_time_end_screen","response_time_instructions_1","response_time_new_keyboard_response_1","round_decimals","sampler_backend","sound_buf_size","sound_channels","sound_freq","sound_sample_size","start","subject_nr","subject_parity","targ_type","target","time_AB_m21","time_ITI","time_blank_screen","time_blink_screen","time_block1","time_break1","time_break2","time_break3_1","time_canvas","time_close_port","time_cond_trigger","time_correct_trigger","time_def_chain","time_end_screen","time_fixation_1","time_getting_started","time_inc_counter","time_instructions_1","time_logger","time_logscript","time_new_inline_script","time_new_inline_script_2","time_new_keyboard_response_1","time_open_port","time_reset_counter_prep","time_reset_counter_run","time_response_trigger_trial","time_responsescreen","time_sequence","time_target_present","time_word_trigger","title","total_correct","total_response_time","total_responses","uniform_coordinates","width","word_trig"
"400","0","0","1200","1200","black","no","xpyriment","legacy","legacy","0","202","NA","uniform","NA","NA","NA","0","undefined","0","0","0","0","0","0","0","0","0","NA","0","0","NA","NA","0","0","NA","0","0","0","NA","NA","NA","0","0","0","NA","0","0","0","0","0","1","/","Tue Jun 27 17:37:26 2023","The main experiment item","yes","m21-ab-lexicalDecision.osexp","C:\Users\emoore8\Desktop\m21_vsl-main","no","mono","no","18","no","white","no","yes","1080","legacy","0","0","C:/Users/emoore8/Desktop/m21_vsl-main/subject-211.csv","xpyriment","Lentiform Loewenfeld","3.3.11","0","None","NA","NA","NA","NA","space","None","1200","NA","NA","NA","NA","45165","1200","2","legacy","1024","2","48000","-16","AB_m21","211","odd","CW_L","CLOUDLESS","1718","51027","48658","NA","46898","NA","NA","NA","NA","NA","49159","NA","NA","NA","48157","NA","48122","1731","51428","NA","NA","NA","49200","1718","1718","NA","50400","50423","48122","49159","49180","morph21_Oliver/Morris","0","1200","1","yes","1920","33"
"250","0","0","1200","1200","black","no","xpyriment","legacy","legacy","0","204","NA","uniform","NA","NA","NA","0","undefined","0","0","1","1","1","0","1","1","1","NA","0","1","NA","NA","0","1","NA","1","0","1","NA","NA","NA","1","0","0","NA","1","1","1","1","1","2","z","Tue Jun 27 17:37:26 2023","The main experiment item","yes","m21-ab-lexicalDecision.osexp","C:\Users\emoore8\Desktop\m21_vsl-main","no","mono","no","18","no","white","no","yes","1080","legacy","1","1","C:/Users/emoore8/Desktop/m21_vsl-main/subject-211.csv","xpyriment","Lentiform Loewenfeld","3.3.11","0","None","NA","NA","NA","NA","space","None","1200","NA","NA","NA","NA","45165","1200","2","legacy","1024","2","48000","-16","AB_m21","211","odd","NW_L_COMP","MUDLY","1718","55377","53004","NA","46898","NA","NA","NA","NA","NA","53507","NA","NA","NA","52503","NA","52477","1731","55627","NA","NA","NA","53548","1718","1718","NA","54748","54773","52477","53507","53528","morph21_Oliver/Morris","0","2400","2","yes","1920","12"
"350","33.333333333333336","33.333333333333336","1171.3333333333333","1171.3333333333333","black","no","xpyriment","legacy","legacy","0","202","NA","uniform","NA","NA","NA","1","undefined","1","0","2","2","2","0","2","2","2","NA","0","2","NA","NA","0","2","NA","2","0","2","NA","NA","NA","2","0","0","NA","2","2","2","2","2","3","/","Tue Jun 27 17:37:26 2023","The main experiment item","yes","m21-ab-lexicalDecision.osexp","C:\Users\emoore8\Desktop\m21_vsl-main","no","mono","no","18","no","white","no","yes","1080","legacy","2","2","C:/Users/emoore8/Desktop/m21_vsl-main/subject-211.csv","xpyriment","Lentiform Loewenfeld","3.3.11","0","/","NA","NA","NA","NA","space","/","1114","NA","NA","NA","NA","45165","1114","2","legacy","1024","2","48000","-16","AB_m21","211","odd","CW_L","SWIMMER","1718","60976","57186","59470","46898","NA","NA","NA","NA","NA","57686","NA","NA","NA","56685","NA","56657","1731","61326","NA","NA","NA","57726","1718","1718","NA","58841","58864","56657","57686","57706","morph21_Oliver/Morris","1","3514","3","yes","1920","5"
"250","50","50","1126","1126","black","no","xpyriment","legacy","legacy","0","202","NA","uniform","NA","NA","NA","1","undefined","1","0","3","3","3","0","3","3","3","NA","0","3","NA","NA","0","3","NA","3","0","3","NA","NA","NA","3","0","0","NA","3","3","3","3","3","4","/","Tue Jun 27 17:37:26 2023","The main experiment item","yes","m21-ab-lexicalDecision.osexp","C:\Users\emoore8\Desktop\m21_vsl-main","no","mono","no","18","no","white","no","yes","1080","legacy","3","3","C:/Users/emoore8/Desktop/m21_vsl-main/subject-211.csv","xpyriment","Lentiform Loewenfeld","3.3.11","0","/","NA","NA","NA","NA","space","/","990","NA","NA","NA","NA","45165","990","2","legacy","1024","2","48000","-16","AB_m21","211","odd","CW_L","STRIKER","1718","65342","63181","59470","46898","NA","NA","NA","NA","NA","63681","NA","NA","NA","62681","NA","62654","1731","65592","NA","NA","NA","63722","1718","1718","NA","64713","64738","62654","63681","63702","morph21_Oliver/Morris","2","4504","4","yes","1920","17"
"300","60","60","1054.4","1054.4","black","no","xpyriment","legacy","legacy","0","207","NA","uniform","NA","NA","NA","1","undefined","1","0","4","4","4","0","4","4","4","NA","0","4","NA","NA","0","4","NA","4","0","4","NA","NA","NA","4","0","0","NA","4","4","4","4","4","5","/","Tue Jun 27 17:37:26 2023","The main experiment item","yes","m21-ab-lexicalDecision.osexp","C:\Users\emoore8\Desktop\m21_vsl-main","no","mono","no","18","no","white","no","yes","1080","legacy","4","4","C:/Users/emoore8/Desktop/m21_vsl-main/subject-211.csv","xpyriment","Lentiform Loewenfeld","3.3.11","0","/","NA","NA","NA","NA","space","/","768","NA","NA","NA","NA","45165","768","2","legacy","1024","2","48000","-16","AB_m21","211","odd","FILL_W","BLUNT","1718","69059","67123","59470","46898","NA","NA","NA","NA","NA","67623","NA","NA","NA","66622","NA","66591","1731","69359","NA","NA","NA","67664","1718","1718","NA","68432","68456","66591","67623","67644","morph21_Oliver/Morris","3","5272","5","yes","1920","4"
"200","66.66666666666667","66.66666666666667","1039.1666666666667","1039.1666666666667","black","no","xpyriment","legacy","legacy","0","201","NA","uniform","NA","NA","NA","1","undefined","1","0","5","5","5","0","5","5","5","NA","0","5","NA","NA","0","5","NA","5","0","5","NA","NA","NA","5","0","0","NA","5","5","5","5","5","6","/","Tue Jun 27 17:37:26 2023","The main experiment item","yes","m21-ab-lexicalDecision.osexp","C:\Users\emoore8\Desktop\m21_vsl-main","no","mono","no","18","no","white","no","yes","1080","legacy","5","5","C:/Users/emoore8/Desktop/m21_vsl-main/subject-211.csv","xpyriment","Lentiform Loewenfeld","3.3.11","0","/","NA","NA","NA","NA","space","/","963","NA","NA","NA","NA","45165","963","2","legacy","1024","2","48000","-16","AB_m21","211","odd","CW_S","THRUSTER","1718","74550","70912","73045","46898","NA","NA","NA","NA","NA","71412","NA","NA","NA","70412","NA","70385","1731","74750","NA","NA","NA","71453","1718","1718","NA","72417","72442","70385","71412","71433","morph21_Oliver/Morris","4","6235","6","yes","1920","24"
"250","57.142857142857146","57.142857142857146","1062.142857142857","1062.142857142857","black","no","xpyriment","legacy","legacy","0","202","NA","uniform","NA","NA","NA","0","undefined","0","0","6","6","6","0","6","6","6","NA","0","6","NA","NA","0","6","NA","6","0","6","NA","NA","NA","6","0","0","NA","6","6","6","6","6","7","/","Tue Jun 27 17:37:26 2023","The main experiment item","yes","m21-ab-lexicalDecision.osexp","C:\Users\emoore8\Desktop\m21_vsl-main","no","mono","no","18","no","white","no","yes","1080","legacy","6","6","C:/Users/emoore8/Desktop/m21_vsl-main/subject-211.csv","xpyriment","Lentiform Loewenfeld","3.3.11","0","None","NA","NA","NA","NA","space","None","1200","NA","NA","NA","NA","45165","1200","2","legacy","1024","2","48000","-16","AB_m21","211","odd","CW_L","DREAMER","1718","78652","76285","73045","46898","NA","NA","NA","NA","NA","76785","NA","NA","NA","75785","NA","75758","1731","78902","NA","NA","NA","76825","1718","1718","NA","78025","78049","75758","76785","76805","morph21_Oliver/Morris","4","7435","7","yes","1920","12"
"250","50","50","1079.375","1079.375","black","no","xpyriment","legacy","legacy","0","201","NA","uniform","NA","NA","NA","0","undefined","0","0","7","7","7","0","7","7","7","NA","0","7","NA","NA","0","7","NA","7","0","7","NA","NA","NA","7","0","0","NA","7","7","7","7","7","8","/","Tue Jun 27 17:37:26 2023","The main experiment item","yes","m21-ab-lexicalDecision.osexp","C:\Users\emoore8\Desktop\m21_vsl-main","no","mono","no","18","no","white","no","yes","1080","legacy","7","7","C:/Users/emoore8/Desktop/m21_vsl-main/subject-211.csv","xpyriment","Lentiform Loewenfeld","3.3.11","0","None","NA","NA","NA","NA","space","None","1200","NA","NA","NA","NA","45165","1200","2","legacy","1024","2","48000","-16","AB_m21","211","odd","CW_S","COSTLY","1718","82824","80456","73045","46898","NA","NA","NA","NA","NA","80957","NA","NA","NA","79956","NA","79928","1731","83074","NA","NA","NA","80997","1718","1718","NA","82197","82221","79928","80957","80977","morph21_Oliver/Morris","4","8635","8","yes","1920","36"
"300","55.55555555555556","55.55555555555556","1070","1070","black","no","xpyriment","legacy","legacy","0","201","NA","uniform","NA","NA","NA","1","undefined","1","0","8","8","8","0","8","8","8","NA","0","8","NA","NA","0","8","NA","8","0","8","NA","NA","NA","8","0","0","NA","8","8","8","8","8","9","/","Tue Jun 27 17:37:26 2023","The main experiment item","yes","m21-ab-lexicalDecision.osexp","C:\Users\emoore8\Desktop\m21_vsl-main","no","mono","no","18","no","white","no","yes","1080","legacy","8","8","C:/Users/emoore8/Desktop/m21_vsl-main/subject-211.csv","xpyriment","Lentiform Loewenfeld","3.3.11","0","/","NA","NA","NA","NA","space","/","995","NA","NA","NA","NA","45165","995","2","legacy","1024","2","48000","-16","AB_m21","211","odd","CW_S","GUILTY","1718","88271","84599","86765","46898","NA","NA","NA","NA","NA","85101","NA","NA","NA","84097","NA","84073","1731","88571","NA","NA","NA","85141","1718","1718","NA","86136","86160","84073","85101","85121","morph21_Oliver/Morris","5","9630","9","yes","1920","34"
"400","50","50","1083","1083","black","no","xpyriment","legacy","legacy","0","208","NA","uniform","NA","NA","NA","0","undefined","0","0","9","9","9","0","9","9","9","NA","0","9","NA","NA","0","9","NA","9","0","9","NA","NA","NA","9","0","0","NA","9","9","9","9","9","10","z","Tue Jun 27 17:37:26 2023","The main experiment item","yes","m21-ab-lexicalDecision.osexp","C:\Users\emoore8\Desktop\m21_vsl-main","no","mono","no","18","no","white","no","yes","1080","legacy","9","9","C:/Users/emoore8/Desktop/m21_vsl-main/subject-211.csv","xpyriment","Lentiform Loewenfeld","3.3.11","0","None","NA","NA","NA","NA","space","None","1200","NA","NA","NA","NA","45165","1200","2","legacy","1024","2","48000","-16","AB_m21","211","odd","FILL_NW","GIKE","1718","92474","90103","86765","46898","NA","NA","NA","NA","NA","90605","NA","NA","NA","89602","NA","89579","1731","92874","NA","NA","NA","90645","1718","1718","NA","91845","91869","89579","90605","90625","morph21_Oliver/Morris","5","10830","10","yes","1920","24"
"200","54.54545454545455","54.54545454545455","1068.1818181818182","1068.1818181818182","black","no","xpyriment","legacy","legacy","0","208","NA","uniform","NA","NA","NA","1","undefined","1","0","10","10","10","0","10","10","10","NA","0","10","NA","NA","0","10","NA","10","0","10","NA","NA","NA","10","0","0","NA","10","10","10","10","10","11","z","Tue Jun 27 17:37:26 2023","The main experiment item","yes","m21-ab-lexicalDecision.osexp","C:\Users\emoore8\Desktop\m21_vsl-main","no","mono","no","18","no","white","no","yes","1080","legacy","10","10","C:/Users/emoore8/Desktop/m21_vsl-main/subject-211.csv","xpyriment","Lentiform Loewenfeld","3.3.11","0","z","NA","NA","NA","NA","space","z","920","NA","NA","NA","NA","45165","920","2","legacy","1024","2","48000","-16","AB_m21","211","odd","FILL_NW","BROUPS","1718","96508","94419","86765","46898","NA","NA","NA","NA","NA","94919","NA","NA","NA","93919","NA","93892","1731","96708","NA","NA","NA","94960","1718","1718","NA","95881","95905","93892","94919","94940","morph21_Oliver/Morris","6","11750","11","yes","1920","4"
"300","50","50","1079.1666666666667","1079.1666666666667","black","no","xpyriment","legacy","legacy","0","206","NA","uniform","NA","NA","NA","0","undefined","0","0","11","11","11","0","11","11","11","NA","0","11","NA","NA","0","11","NA","11","0","11","NA","NA","NA","11","0","0","NA","11","11","11","11","11","12","z","Tue Jun 27 17:37:26 2023","The main experiment item","yes","m21-ab-lexicalDecision.osexp","C:\Users\emoore8\Desktop\m21_vsl-main","no","mono","no","18","no","white","no","yes","1080","legacy","11","11","C:/Users/emoore8/Desktop/m21_vsl-main/subject-211.csv","xpyriment","Lentiform Loewenfeld","3.3.11","0","None","NA","NA","NA","NA","space","None","1200","NA","NA","NA","NA","45165","1200","2","legacy","1024","2","48000","-16","AB_m21","211","odd","NW_L_SIMP","LONGNELS","1718","102119","98247","100615","46898","NA","NA","NA","NA","NA","98747","NA","NA","NA","97747","NA","97720","1731","102419","NA","NA","NA","98788","1718","1718","NA","99988","100012","97720","98747","98767","morph21_Oliver/Morris","6","12950","12","yes","1920","17"
"350","46.15384615384615","46.15384615384615","1046.4615384615386","1046.4615384615386","black","no","xpyriment","legacy","legacy","0","208","NA","uniform","NA","NA","NA","0","undefined","0","0","12","12","12","0","12","12","12","NA","0","12","NA","NA","0","12","NA","12","0","12","NA","NA","NA","12","0","0","NA","12","12","12","12","12","13","z","Tue Jun 27 17:37:26 2023","The main experiment item","yes","m21-ab-lexicalDecision.osexp","C:\Users\emoore8\Desktop\m21_vsl-main","no","mono","no","18","no","white","no","yes","1080","legacy","12","12","C:/Users/emoore8/Desktop/m21_vsl-main/subject-211.csv","xpyriment","Lentiform Loewenfeld","3.3.11","0","/","NA","NA","NA","NA","space","/","654","NA","NA","NA","NA","45165","654","2","legacy","1024","2","48000","-16","AB_m21","211","odd","FILL_NW","DELP","1718","105787","103964","100615","46898","NA","NA","NA","NA","NA","104465","NA","NA","NA","103463","NA","103439","1731","106137","NA","NA","NA","104506","1718","1718","NA","105161","105184","103438","104465","104486","morph21_Oliver/Morris","6","13604","13","yes","1920","14"
"300","50","50","1034.7857142857142","1034.7857142857142","black","no","xpyriment","legacy","legacy","0","206","NA","uniform","NA","NA","NA","1","undefined","1","0","13","13","13","0","13","13","13","NA","0","13","NA","NA","0","13","NA","13","0","13","NA","NA","NA","13","0","0","NA","13","13","13","13","13","14","z","Tue Jun 27 17:37:26 2023","The main experiment item","yes","m21-ab-lexicalDecision.osexp","C:\Users\emoore8\Desktop\m21_vsl-main","no","mono","no","18","no","white","no","yes","1080","legacy","13","13","C:/Users/emoore8/Desktop/m21_vsl-main/subject-211.csv","xpyriment","Lentiform Loewenfeld","3.3.11","0","z","NA","NA","NA","NA","space","z","883","NA","NA","NA","NA","45165","883","2","legacy","1024","2","48000","-16","AB_m21","211","odd","NW_L_SIMP","ELBOWILM","1718","109709","107656","100615","46898","NA","NA","NA","NA","NA","108156","NA","NA","NA","107155","NA","107124","1731","110009","NA","NA","NA","108197","1718","1718","NA","109081","109106","107124","108156","108177","morph21_Oliver/Morris","7","14487","14","yes","1920","10"
"350","46.666666666666664","46.666666666666664","1045.8","1045.8","black","no","xpyriment","legacy","legacy","0","206","NA","uniform","NA","NA","NA","0","undefined","0","0","14","14","14","0","14","14","14","NA","0","14","NA","NA","0","14","NA","14","0","14","NA","NA","NA","14","0","0","NA","14","14","14","14","14","15","z","Tue Jun 27 17:37:26 2023","The main experiment item","yes","m21-ab-lexicalDecision.osexp","C:\Users\emoore8\Desktop\m21_vsl-main","no","mono","no","18","no","white","no","yes","1080","legacy","14","14","C:/Users/emoore8/Desktop/m21_vsl-main/subject-211.csv","xpyriment","Lentiform Loewenfeld","3.3.11","0","None","NA","NA","NA","NA","space","None","1200","NA","NA","NA","NA","45165","1200","2","legacy","1024","2","48000","-16","AB_m21","211","odd","NW_L_SIMP","WIGITH","1718","115411","111535","113905","46898","NA","NA","NA","NA","NA","112037","NA","NA","NA","111034","NA","111009","1731","115761","NA","NA","NA","112077","1718","1718","NA","113277","113301","111009","112036","112057","morph21_Oliver/Morris","7","15687","15","yes","1920","9"
"200","50","50","1027.125","1027.125","black","no","xpyriment","legacy","legacy","0","201","NA","uniform","NA","NA","NA","1","undefined","1","0","15","15","15","0","15","15","15","NA","0","15","NA","NA","0","15","NA","15","0","15","NA","NA","NA","15","0","0","NA","15","15","15","15","15","16","/","Tue Jun 27 17:37:26 2023","The main experiment item","yes","m21-ab-lexicalDecision.osexp","C:\Users\emoore8\Desktop\m21_vsl-main","no","mono","no","18","no","white","no","yes","1080","legacy","15","15","C:/Users/emoore8/Desktop/m21_vsl-main/subject-211.csv","xpyriment","Lentiform Loewenfeld","3.3.11","0","/","NA","NA","NA","NA","space","/","747","NA","NA","NA","NA","45165","747","2","legacy","1024","2","48000","-16","AB_m21","211","odd","CW_S","ANGELIC","1718","119220","117302","113905","46898","NA","NA","NA","NA","NA","117804","NA","NA","NA","116801","NA","116775","1731","119420","NA","NA","NA","117845","1718","1718","NA","118592","118617","116775","117804","117825","morph21_Oliver/Morris","8","16434","16","yes","1920","25"
"300","47.05882352941177","47.05882352941177","1035.8235294117646","1035.8235294117646","black","no","xpyriment","legacy","legacy","0","206","NA","uniform","NA","NA","NA","0","undefined","0","0","16","16","16","0","16","16","16","NA","0","16","NA","NA","0","16","NA","16","0","16","NA","NA","NA","16","0","0","NA","16","16","16","16","16","17","z","Tue Jun 27 17:37:26 2023","The main experiment item","yes","m21-ab-lexicalDecision.osexp","C:\Users\emoore8\Desktop\m21_vsl-main","no","mono","no","18","no","white","no","yes","1080","legacy","16","16","C:/Users/emoore8/Desktop/m21_vsl-main/subject-211.csv","xpyriment","Lentiform Loewenfeld","3.3.11","0","/","NA","NA","NA","NA","space","/","1175","NA","NA","NA","NA","45165","1175","2","legacy","1024","2","48000","-16","AB_m21","211","odd","NW_L_SIMP","PRAYANGE","1718","123291","120948","113905","46898","NA","NA","NA","NA","NA","121448","NA","NA","NA","120447","NA","120420","1731","123591","NA","NA","NA","121489","1718","1718","NA","122665","122688","120420","121448","121469","morph21_Oliver/Morris","8","17609","17","yes","1920","1"
"200","50","50","1018.3333333333334","1018.3333333333334","black","no","xpyriment","legacy","legacy","0","208","NA","uniform","NA","NA","NA","1","undefined","1","0","17","17","17","0","17","17","17","NA","0","17","NA","NA","0","17","NA","17","0","17","NA","NA","NA","17","0","0","NA","17","17","17","17","17","18","z","Tue Jun 27 17:37:26 2023","The main experiment item","yes","m21-ab-lexicalDecision.osexp","C:\Users\emoore8\Desktop\m21_vsl-main","no","mono","no","18","no","white","no","yes","1080","legacy","17","17","C:/Users/emoore8/Desktop/m21_vsl-main/subject-211.csv","xpyriment","Lentiform Loewenfeld","3.3.11","0","z","NA","NA","NA","NA","space","z","721","NA","NA","NA","NA","45165","721","2","legacy","1024","2","48000","-16","AB_m21","211","odd","FILL_NW","CINDS","1718","128516","125122","127013","46898","NA","NA","NA","NA","NA","125622","NA","NA","NA","124620","NA","124591","1731","128716","NA","NA","NA","125663","1718","1718","NA","126385","126409","124591","125622","125643","morph21_Oliver/Morris","9","18330","18","yes","1920","6"
"350","47.36842105263158","47.36842105263158","1027.8947368421052","1027.8947368421052","black","no","xpyriment","legacy","legacy","0","204","NA","uniform","NA","NA","NA","0","undefined","0","0","18","18","18","0","18","18","18","NA","0","18","NA","NA","0","18","NA","18","0","18","NA","NA","NA","18","0","0","NA","18","18","18","18","18","19","z","Tue Jun 27 17:37:26 2023","The main experiment item","yes","m21-ab-lexicalDecision.osexp","C:\Users\emoore8\Desktop\m21_vsl-main","no","mono","no","18","no","white","no","yes","1080","legacy","18","18","C:/Users/emoore8/Desktop/m21_vsl-main/subject-211.csv","xpyriment","Lentiform Loewenfeld","3.3.11","0","None","NA","NA","NA","NA","space","None","1200","NA","NA","NA","NA","45165","1200","2","legacy","1024","2","48000","-16","AB_m21","211","odd","NW_L_COMP","INKISM","1718","132638","130268","127013","46898","NA","NA","NA","NA","NA","130769","NA","NA","NA","129767","NA","129743","1731","132988","NA","NA","NA","130810","1718","1718","NA","132010","132034","129743","130769","130790","morph21_Oliver/Morris","9","19530","19","yes","1920","8"
"250","50","50","1009.9","1009.9","black","no","xpyriment","legacy","legacy","0","201","NA","uniform","NA","NA","NA","1","undefined","1","0","19","19","19","0","19","19","19","NA","0","19","NA","NA","0","19","NA","19","0","19","NA","NA","NA","19","0","0","NA","19","19","19","19","19","20","/","Tue Jun 27 17:37:26 2023","The main experiment item","yes","m21-ab-lexicalDecision.osexp","C:\Users\emoore8\Desktop\m21_vsl-main","no","mono","no","18","no","white","no","yes","1080","legacy","19","19","C:/Users/emoore8/Desktop/m21_vsl-main/subject-211.csv","xpyriment","Lentiform Loewenfeld","3.3.11","0","/","NA","NA","NA","NA","space","/","668","NA","NA","NA","NA","45165","668","2","legacy","1024","2","48000","-16","AB_m21","211","odd","CW_S","PLANNER","1718","136366","134528","127013","46898","NA","NA","NA","NA","NA","135028","NA","NA","NA","134028","NA","134003","1731","136616","NA","NA","NA","135068","1718","1718","NA","135736","135761","134003","135028","135048","morph21_Oliver/Morris","10","20198","20","yes","1920","22"
"400","47.61904761904762","47.61904761904762","1018.952380952381","1018.952380952381","black","no","xpyriment","legacy","legacy","0","204","NA","uniform","NA","NA","NA","0","undefined","0","0","20","20","20","0","20","20","20","NA","0","20","NA","NA","0","20","NA","20","0","20","NA","NA","NA","20","0","0","NA","20","20","20","20","20","21","z","Tue Jun 27 17:37:26 2023","The main experiment item","yes","m21-ab-lexicalDecision.osexp","C:\Users\emoore8\Desktop\m21_vsl-main","no","mono","no","18","no","white","no","yes","1080","legacy","20","20","C:/Users/emoore8/Desktop/m21_vsl-main/subject-211.csv","xpyriment","Lentiform Loewenfeld","3.3.11","0","None","NA","NA","NA","NA","space","None","1200","NA","NA","NA","NA","45165","1200","2","legacy","1024","2","48000","-16","AB_m21","211","odd","NW_L_COMP","RIPENCE","1718","142010","138135","140505","46898","NA","NA","NA","NA","NA","138636","NA","NA","NA","137633","NA","137606","1731","142410","NA","NA","NA","138677","1718","1718","NA","139877","139902","137606","138636","138657","morph21_Oliver/Morris","10","21398","21","yes","1920","4"
"200","50","50","1005.7272727272727","1005.7272727272727","black","no","xpyriment","legacy","legacy","0","208","NA","uniform","NA","NA","NA","1","undefined","1","0","21","21","21","0","21","21","21","NA","0","21","NA","NA","0","21","NA","21","0","21","NA","NA","NA","21","0","0","NA","21","21","21","21","21","22","z","Tue Jun 27 17:37:26 2023","The main experiment item","yes","m21-ab-lexicalDecision.osexp","C:\Users\emoore8\Desktop\m21_vsl-main","no","mono","no","18","no","white","no","yes","1080","legacy","21","21","C:/Users/emoore8/Desktop/m21_vsl-main/subject-211.csv","xpyriment","Lentiform Loewenfeld","3.3.11","0","z","NA","NA","NA","NA","space","z","728","NA","NA","NA","NA","45165","728","2","legacy","1024","2","48000","-16","AB_m21","211","odd","FILL_NW","TUEER","1718","145846","143947","140505","46898","NA","NA","NA","NA","NA","144448","NA","NA","NA","143446","NA","143420","1731","146046","NA","NA","NA","144488","1718","1718","NA","145216","145242","143420","144448","144468","morph21_Oliver/Morris","11","22126","22","yes","1920","44"
"400","52.17391304347826","52.17391304347826","989.4347826086956","989.4347826086956","black","no","xpyriment","legacy","legacy","0","201","NA","uniform","NA","NA","NA","1","undefined","1","0","22","22","22","0","22","22","22","NA","0","22","NA","NA","0","22","NA","22","0","22","NA","NA","NA","22","0","0","NA","22","22","22","22","22","23","/","Tue Jun 27 17:37:26 2023","The main experiment item","yes","m21-ab-lexicalDecision.osexp","C:\Users\emoore8\Desktop\m21_vsl-main","no","mono","no","18","no","white","no","yes","1080","legacy","22","22","C:/Users/emoore8/Desktop/m21_vsl-main/subject-211.csv","xpyriment","Lentiform Loewenfeld","3.3.11","0","/","NA","NA","NA","NA","space","/","631","NA","NA","NA","NA","45165","631","2","legacy","1024","2","48000","-16","AB_m21","211","odd","CW_S","RAIDER","1718","149374","147571","140505","46898","NA","NA","NA","NA","NA","148072","NA","NA","NA","147069","NA","147044","1731","149774","NA","NA","NA","148113","1718","1718","NA","148745","148770","147044","148072","148093","morph21_Oliver/Morris","12","22757","23","yes","1920","12"
"200","50","50","989.3333333333334","989.3333333333334","black","no","xpyriment","legacy","legacy","0","203","NA","uniform","NA","NA","NA","0","undefined","0","0","23","23","23","0","23","23","23","NA","0","23","NA","NA","0","23","NA","23","0","23","NA","NA","NA","23","0","0","NA","23","23","23","23","23","24","z","Tue Jun 27 17:37:26 2023","The main experiment item","yes","m21-ab-lexicalDecision.osexp","C:\Users\emoore8\Desktop\m21_vsl-main","no","mono","no","18","no","white","no","yes","1080","legacy","23","23","C:/Users/emoore8/Desktop/m21_vsl-main/subject-211.csv","xpyriment","Lentiform Loewenfeld","3.3.11","0","/","NA","NA","NA","NA","space","/","987","NA","NA","NA","NA","45165","987","2","legacy","1024","2","48000","-16","AB_m21","211","odd","NW_S_COMP","HAPPENANCE","1718","154955","151296","153451","46898","NA","NA","NA","NA","NA","151796","NA","NA","NA","150796","NA","150771","1731","155155","NA","NA","NA","151837","1718","1718","NA","152824","152848","150771","151796","151817","morph21_Oliver/Morris","12","23744","24","yes","1920","2"
"400","52","52","976.4","976.4","black","no","xpyriment","legacy","legacy","0","208","NA","uniform","NA","NA","NA","1","undefined","1","0","24","24","24","0","24","24","24","NA","0","24","NA","NA","0","24","NA","24","0","24","NA","NA","NA","24","0","0","NA","24","24","24","24","24","25","z","Tue Jun 27 17:37:26 2023","The main experiment item","yes","m21-ab-lexicalDecision.osexp","C:\Users\emoore8\Desktop\m21_vsl-main","no","mono","no","18","no","white","no","yes","1080","legacy","24","24","C:/Users/emoore8/Desktop/m21_vsl-main/subject-211.csv","xpyriment","Lentiform Loewenfeld","3.3.11","0","z","NA","NA","NA","NA","space","z","666","NA","NA","NA","NA","45165","666","2","legacy","1024","2","48000","-16","AB_m21","211","odd","FILL_NW","BUTE","1718","158541","156705","153451","46898","NA","NA","NA","NA","NA","157205","NA","NA","NA","156204","NA","156179","1731","158941","NA","NA","NA","157246","1718","1718","NA","157913","157938","156179","157205","157226","morph21_Oliver/Morris","13","24410","25","yes","1920","5"
"350","53.84615384615385","53.84615384615385","958.9615384615385","958.9615384615385","black","no","xpyriment","legacy","legacy","0","201","NA","uniform","NA","NA","NA","1","undefined","1","0","25","25","25","0","25","25","25","NA","0","25","NA","NA","0","25","NA","25","0","25","NA","NA","NA","25","0","0","NA","25","25","25","25","25","26","/","Tue Jun 27 17:37:26 2023","The main experiment item","yes","m21-ab-lexicalDecision.osexp","C:\Users\emoore8\Desktop\m21_vsl-main","no","mono","no","18","no","white","no","yes","1080","legacy","25","25","C:/Users/emoore8/Desktop/m21_vsl-main/subject-211.csv","xpyriment","Lentiform Loewenfeld","3.3.11","0","/","NA","NA","NA","NA","space","/","523","NA","NA","NA","NA","45165","523","2","legacy","1024","2","48000","-16","AB_m21","211","odd","CW_S","TEACHER","1718","162155","160463","153451","46898","NA","NA","NA","NA","NA","160965","NA","NA","NA","159963","NA","159938","1731","162505","NA","NA","NA","161005","1718","1718","NA","161529","161552","159938","160965","160985","morph21_Oliver/Morris","14","24933","26","yes","1920","23"
"400","51.851851851851855","51.851851851851855","943.0370370370371","943.0370370370371","black","no","xpyriment","legacy","legacy","0","208","NA","uniform","NA","NA","NA","0","undefined","0","0","26","26","26","0","26","26","26","NA","0","26","NA","NA","0","26","NA","26","0","26","NA","NA","NA","26","0","0","NA","26","26","26","26","26","27","z","Tue Jun 27 17:37:26 2023","The main experiment item","yes","m21-ab-lexicalDecision.osexp","C:\Users\emoore8\Desktop\m21_vsl-main","no","mono","no","18","no","white","no","yes","1080","legacy","26","26","C:/Users/emoore8/Desktop/m21_vsl-main/subject-211.csv","xpyriment","Lentiform Loewenfeld","3.3.11","0","/","NA","NA","NA","NA","space","/","529","NA","NA","NA","NA","45165","529","2","legacy","1024","2","48000","-16","AB_m21","211","odd","FILL_NW","ULNS","1718","167258","164058","165755","46898","NA","NA","NA","NA","NA","164558","NA","NA","NA","163558","NA","163530","1731","167658","NA","NA","NA","164599","1718","1718","NA","165129","165152","163530","164558","164579","morph21_Oliver/Morris","14","25462","27","yes","1920","45"
"400","50","50","952.2142857142857","952.2142857142857","black","no","xpyriment","legacy","legacy","0","206","NA","uniform","NA","NA","NA","0","undefined","0","0","27","27","27","0","27","27","27","NA","0","27","NA","NA","0","27","NA","27","0","27","NA","NA","NA","27","0","0","NA","27","27","27","27","27","28","z","Tue Jun 27 17:37:26 2023","The main experiment item","yes","m21-ab-lexicalDecision.osexp","C:\Users\emoore8\Desktop\m21_vsl-main","no","mono","no","18","no","white","no","yes","1080","legacy","27","27","C:/Users/emoore8/Desktop/m21_vsl-main/subject-211.csv","xpyriment","Lentiform Loewenfeld","3.3.11","0","None","NA","NA","NA","NA","space","None","1200","NA","NA","NA","NA","45165","1200","2","legacy","1024","2","48000","-16","AB_m21","211","odd","NW_L_SIMP","VALIDEL","1718","171563","169196","165755","46898","NA","NA","NA","NA","NA","169696","NA","NA","NA","168695","NA","168664","1731","171963","NA","NA","NA","169736","1718","1718","NA","170936","170960","168664","169696","169716","morph21_Oliver/Morris","14","26662","28","yes","1920","23"
"350","51.724137931034484","51.724137931034484","941.5172413793103","941.5172413793103","black","no","xpyriment","legacy","legacy","0","202","NA","uniform","NA","NA","NA","1","undefined","1","0","28","28","28","0","28","28","28","NA","0","28","NA","NA","0","28","NA","28","0","28","NA","NA","NA","28","0","0","NA","28","28","28","28","28","29","/","Tue Jun 27 17:37:26 2023","The main experiment item","yes","m21-ab-lexicalDecision.osexp","C:\Users\emoore8\Desktop\m21_vsl-main","no","mono","no","18","no","white","no","yes","1080","legacy","28","28","C:/Users/emoore8/Desktop/m21_vsl-main/subject-211.csv","xpyriment","Lentiform Loewenfeld","3.3.11","0","/","NA","NA","NA","NA","space","/","642","NA","NA","NA","NA","45165","642","2","legacy","1024","2","48000","-16","AB_m21","211","odd","CW_L","BOMBER","1718","175308","173496","165755","46898","NA","NA","NA","NA","NA","173997","NA","NA","NA","172995","NA","172969","1731","175658","NA","NA","NA","174038","1718","1718","NA","174681","174705","172968","173997","174018","morph21_Oliver/Morris","15","27304","29","yes","1920","7"
"200","50","50","929.6","929.6","black","no","xpyriment","legacy","legacy","0","203","NA","uniform","NA","NA","NA","0","undefined","0","0","29","29","29","0","29","29","29","NA","0","29","NA","NA","0","29","NA","29","0","29","NA","NA","NA","29","0","0","NA","29","29","29","29","29","30","z","Tue Jun 27 17:37:26 2023","The main experiment item","yes","m21-ab-lexicalDecision.osexp","C:\Users\emoore8\Desktop\m21_vsl-main","no","mono","no","18","no","white","no","yes","1080","legacy","29","29","C:/Users/emoore8/Desktop/m21_vsl-main/subject-211.csv","xpyriment","Lentiform Loewenfeld","3.3.11","0","/","NA","NA","NA","NA","space","/","584","NA","NA","NA","NA","45165","584","2","legacy","1024","2","48000","-16","AB_m21","211","odd","NW_S_COMP","DUMBITY","1718","180444","177189","178941","46898","NA","NA","NA","NA","NA","177689","NA","NA","NA","176688","NA","176660","1731","180644","NA","NA","NA","177729","1718","1718","NA","178313","178338","176660","177689","177709","morph21_Oliver/Morris","15","27888","30","yes","1920","12"
"200","51.61290322580645","51.61290322580645","920.5806451612904","920.5806451612904","black","no","xpyriment","legacy","legacy","0","202","NA","uniform","NA","NA","NA","1","undefined","1","0","30","30","30","0","30","30","30","NA","0","30","NA","NA","0","30","NA","30","0","30","NA","NA","NA","30","0","0","NA","30","30","30","30","30","31","/","Tue Jun 27 17:37:26 2023","The main experiment item","yes","m21-ab-lexicalDecision.osexp","C:\Users\emoore8\Desktop\m21_vsl-main","no","mono","no","18","no","white","no","yes","1080","legacy","30","30","C:/Users/emoore8/Desktop/m21_vsl-main/subject-211.csv","xpyriment","Lentiform Loewenfeld","3.3.11","0","/","NA","NA","NA","NA","space","/","650","NA","NA","NA","NA","45165","650","2","legacy","1024","2","48000","-16","AB_m21","211","odd","CW_L","COLLECTOR","1718","183987","182167","178941","46898","NA","NA","NA","NA","NA","182669","NA","NA","NA","181666","NA","181638","1731","184187","NA","NA","NA","182710","1718","1718","NA","183361","183384","181638","182669","182690","morph21_Oliver/Morris","16","28538","31","yes","1920","46"
"250","50","50","918.6875","918.6875","black","no","xpyriment","legacy","legacy","0","203","NA","uniform","NA","NA","NA","0","undefined","0","0","31","31","31","0","31","31","31","NA","0","31","NA","NA","0","31","NA","31","0","31","NA","NA","NA","31","0","0","NA","31","31","31","31","31","32","z","Tue Jun 27 17:37:26 2023","The main experiment item","yes","m21-ab-lexicalDecision.osexp","C:\Users\emoore8\Desktop\m21_vsl-main","no","mono","no","18","no","white","no","yes","1080","legacy","31","31","C:/Users/emoore8/Desktop/m21_vsl-main/subject-211.csv","xpyriment","Lentiform Loewenfeld","3.3.11","0","/","NA","NA","NA","NA","space","/","860","NA","NA","NA","NA","45165","860","2","legacy","1024","2","48000","-16","AB_m21","211","odd","NW_S_COMP","TREASONIZE","1718","187732","185703","178941","46898","NA","NA","NA","NA","NA","186204","NA","NA","NA","185200","NA","185176","1731","187982","NA","NA","NA","186245","1718","1718","NA","187105","187128","185176","186204","186225","morph21_Oliver/Morris","16","29398","32","yes","1920","14"
"350","51.515151515151516","51.515151515151516","912.3636363636364","912.3636363636364","black","no","xpyriment","legacy","legacy","0","201","NA","uniform","NA","NA","NA","1","undefined","1","0","32","32","32","0","32","32","32","NA","0","32","NA","NA","0","32","NA","32","0","32","NA","NA","NA","32","0","0","NA","32","32","32","32","32","33","/","Tue Jun 27 17:37:26 2023","The main experiment item","yes","m21-ab-lexicalDecision.osexp","C:\Users\emoore8\Desktop\m21_vsl-main","no","mono","no","18","no","white","no","yes","1080","legacy","32","32","C:/Users/emoore8/Desktop/m21_vsl-main/subject-211.csv","xpyriment","Lentiform Loewenfeld","3.3.11","0","/","NA","NA","NA","NA","space","/","710","NA","NA","NA","NA","45165","710","2","legacy","1024","2","48000","-16","AB_m21","211","odd","CW_S","RICHNESS","1718","192924","189540","191420","46898","NA","NA","NA","NA","NA","190042","NA","NA","NA","189039","NA","189014","1731","193274","NA","NA","NA","190082","1718","1718","NA","190792","190817","189014","190042","190062","morph21_Oliver/Morris","17","30108","33","yes","1920","45"
"300","52.94117647058823","52.94117647058823","905.7352941176471","905.7352941176471","black","no","xpyriment","legacy","legacy","0","202","NA","uniform","NA","NA","NA","1","undefined","1","0","33","33","33","0","33","33","33","NA","0","33","NA","NA","0","33","NA","33","0","33","NA","NA","NA","33","0","0","NA","33","33","33","33","33","34","/","Tue Jun 27 17:37:26 2023","The main experiment item","yes","m21-ab-lexicalDecision.osexp","C:\Users\emoore8\Desktop\m21_vsl-main","no","mono","no","18","no","white","no","yes","1080","legacy","33","33","C:/Users/emoore8/Desktop/m21_vsl-main/subject-211.csv","xpyriment","Lentiform Loewenfeld","3.3.11","0","/","NA","NA","NA","NA","space","/","687","NA","NA","NA","NA","45165","687","2","legacy","1024","2","48000","-16","AB_m21","211","odd","CW_L","DOUBTFUL","1718","196671","194814","191420","46898","NA","NA","NA","NA","NA","195314","NA","NA","NA","194313","NA","194286","1731","196971","NA","NA","NA","195354","1718","1718","NA","196041","196067","194286","195314","195334","morph21_Oliver/Morris","18","30795","34","yes","1920","21"
"400","54.285714285714285","54.285714285714285","911.9428571428572","911.9428571428572","black","no","xpyriment","legacy","legacy","0","203","NA","uniform","NA","NA","NA","1","undefined","1","0","34","34","34","0","34","34","34","NA","0","34","NA","NA","0","34","NA","34","0","34","NA","NA","NA","34","0","0","NA","34","34","34","34","34","35","z","Tue Jun 27 17:37:26 2023","The main experiment item","yes","m21-ab-lexicalDecision.osexp","C:\Users\emoore8\Desktop\m21_vsl-main","no","mono","no","18","no","white","no","yes","1080","legacy","34","34","C:/Users/emoore8/Desktop/m21_vsl-main/subject-211.csv","xpyriment","Lentiform Loewenfeld","3.3.11","0","z","NA","NA","NA","NA","space","z","1123","NA","NA","NA","NA","45165","1123","2","legacy","1024","2","48000","-16","AB_m21","211","odd","NW_S_COMP","ALTARIC","1718","200782","198489","191420","46898","NA","NA","NA","NA","NA","198989","NA","NA","NA","197988","NA","197960","1731","201182","NA","NA","NA","199030","1718","1718","NA","200153","200178","197960","198989","199010","morph21_Oliver/Morris","19","31918","35","yes","1920","7"
"350","55.55555555555556","55.55555555555556","901.5277777777778","901.5277777777778","black","no","xpyriment","legacy","legacy","0","202","NA","uniform","NA","NA","NA","1","undefined","1","0","35","35","35","0","35","35","35","NA","0","35","NA","NA","0","35","NA","35","0","35","NA","NA","NA","35","0","0","NA","35","35","35","35","35","36","/","Tue Jun 27 17:37:26 2023","The main experiment item","yes","m21-ab-lexicalDecision.osexp","C:\Users\emoore8\Desktop\m21_vsl-main","no","mono","no","18","no","white","no","yes","1080","legacy","35","35","C:/Users/emoore8/Desktop/m21_vsl-main/subject-211.csv","xpyriment","Lentiform Loewenfeld","3.3.11","0","/","NA","NA","NA","NA","space","/","537","NA","NA","NA","NA","45165","537","2","legacy","1024","2","48000","-16","AB_m21","211","odd","CW_L","JUMPING","1718","205923","202715","204420","46898","NA","NA","NA","NA","NA","203215","NA","NA","NA","202215","NA","202188","1731","206273","NA","NA","NA","203255","1718","1718","NA","203793","203816","202188","203215","203235","morph21_Oliver/Morris","20","32455","36","yes","1920","30"
"300","56.75675675675676","56.75675675675676","898.1891891891892","898.1891891891892","black","no","xpyriment","legacy","legacy","0","202","NA","uniform","NA","NA","NA","1","undefined","1","0","36","36","36","0","36","36","36","NA","0","36","NA","NA","0","36","NA","36","0","36","NA","NA","NA","36","0","0","NA","36","36","36","36","36","37","/","Tue Jun 27 17:37:26 2023","The main experiment item","yes","m21-ab-lexicalDecision.osexp","C:\Users\emoore8\Desktop\m21_vsl-main","no","mono","no","18","no","white","no","yes","1080","legacy","36","36","C:/Users/emoore8/Desktop/m21_vsl-main/subject-211.csv","xpyriment","Lentiform Loewenfeld","3.3.11","0","/","NA","NA","NA","NA","space","/","778","NA","NA","NA","NA","45165","778","2","legacy","1024","2","48000","-16","AB_m21","211","odd","CW_L","WEEDY","1718","209749","207801","204420","46898","NA","NA","NA","NA","NA","208303","NA","NA","NA","207300","NA","207275","1731","210049","NA","NA","NA","208343","1718","1718","NA","209121","209146","207274","208303","208323","morph21_Oliver/Morris","21","33233","37","yes","1920","48"
"350","55.26315789473684","55.26315789473684","895.078947368421","895.078947368421","black","no","xpyriment","legacy","legacy","0","208","NA","uniform","NA","NA","NA","0","undefined","0","0","37","37","37","0","37","37","37","NA","0","37","NA","NA","0","37","NA","37","0","37","NA","NA","NA","37","0","0","NA","37","37","37","37","37","38","z","Tue Jun 27 17:37:26 2023","The main experiment item","yes","m21-ab-lexicalDecision.osexp","C:\Users\emoore8\Desktop\m21_vsl-main","no","mono","no","18","no","white","no","yes","1080","legacy","37","37","C:/Users/emoore8/Desktop/m21_vsl-main/subject-211.csv","xpyriment","Lentiform Loewenfeld","3.3.11","0","/","NA","NA","NA","NA","space","/","780","NA","NA","NA","NA","45165","780","2","legacy","1024","2","48000","-16","AB_m21","211","odd","FILL_NW","JADS","1718","213516","211569","204420","46898","NA","NA","NA","NA","NA","212069","NA","NA","NA","211068","NA","211042","1731","213866","NA","NA","NA","212109","1718","1718","NA","212889","212913","211042","212069","212089","morph21_Oliver/Morris","21","34013","38","yes","1920","31"
"300","56.41025641025641","56.41025641025641","900.6153846153846","900.6153846153846","black","no","xpyriment","legacy","legacy","0","204","NA","uniform","NA","NA","NA","1","undefined","1","0","38","38","38","0","38","38","38","NA","0","38","NA","NA","0","38","NA","38","0","38","NA","NA","NA","38","0","0","NA","38","38","38","38","38","39","z","Tue Jun 27 17:37:26 2023","The main experiment item","yes","m21-ab-lexicalDecision.osexp","C:\Users\emoore8\Desktop\m21_vsl-main","no","mono","no","18","no","white","no","yes","1080","legacy","38","38","C:/Users/emoore8/Desktop/m21_vsl-main/subject-211.csv","xpyriment","Lentiform Loewenfeld","3.3.11","0","z","NA","NA","NA","NA","space","z","1111","NA","NA","NA","NA","45165","1111","2","legacy","1024","2","48000","-16","AB_m21","211","odd","NW_L_COMP","NORTHIZE","1718","219164","215380","217659","46898","NA","NA","NA","NA","NA","215880","NA","NA","NA","214879","NA","214853","1731","219464","NA","NA","NA","215921","1718","1718","NA","217033","217056","214853","215880","215901","morph21_Oliver/Morris","22","35124","39","yes","1920","20"
"400","57.5","57.5","899.55","899.55","black","no","xpyriment","legacy","legacy","0","207","NA","uniform","NA","NA","NA","1","undefined","1","0","39","39","39","0","39","39","39","NA","0","39","NA","NA","0","39","NA","39","0","39","NA","NA","NA","39","0","0","NA","39","39","39","39","39","40","/","Tue Jun 27 17:37:26 2023","The main experiment item","yes","m21-ab-lexicalDecision.osexp","C:\Users\emoore8\Desktop\m21_vsl-main","no","mono","no","18","no","white","no","yes","1080","legacy","39","39","C:/Users/emoore8/Desktop/m21_vsl-main/subject-211.csv","xpyriment","Lentiform Loewenfeld","3.3.11","0","/","NA","NA","NA","NA","space","/","858","NA","NA","NA","NA","45165","858","2","legacy","1024","2","48000","-16","AB_m21","211","odd","FILL_W","LITHE","1718","223027","221000","217659","46898","NA","NA","NA","NA","NA","221502","NA","NA","NA","220498","NA","220475","1731","223427","NA","NA","NA","221542","1718","1718","NA","222401","222424","220474","221502","221522","morph21_Oliver/Morris","23","35982","40","yes","1920","23"
"250","58.53658536585366","58.53658536585366","891.8536585365854","891.8536585365854","black","no","xpyriment","legacy","legacy","0","207","NA","uniform","NA","NA","NA","1","undefined","1","0","40","40","40","0","40","40","40","NA","0","40","NA","NA","0","40","NA","40","0","40","NA","NA","NA","40","0","0","NA","40","40","40","40","40","41","/","Tue Jun 27 17:37:26 2023","The main experiment item","yes","m21-ab-lexicalDecision.osexp","C:\Users\emoore8\Desktop\m21_vsl-main","no","mono","no","18","no","white","no","yes","1080","legacy","40","40","C:/Users/emoore8/Desktop/m21_vsl-main/subject-211.csv","xpyriment","Lentiform Loewenfeld","3.3.11","0","/","NA","NA","NA","NA","space","/","584","NA","NA","NA","NA","45165","584","2","legacy","1024","2","48000","-16","AB_m21","211","odd","FILL_W","SMOKE","1718","226715","224962","217659","46898","NA","NA","NA","NA","NA","225463","NA","NA","NA","224462","NA","224438","1731","226966","NA","NA","NA","225504","1718","1718","NA","226089","226112","224438","225463","225484","morph21_Oliver/Morris","24","36566","41","yes","1920","50"
"400","57.142857142857146","57.142857142857146","883.9761904761905","883.9761904761905","black","no","xpyriment","legacy","legacy","0","208","NA","uniform","NA","NA","NA","0","undefined","0","0","41","41","41","0","41","41","41","NA","0","41","NA","NA","0","41","NA","41","0","41","NA","NA","NA","41","0","0","NA","41","41","41","41","41","42","z","Tue Jun 27 17:37:26 2023","The main experiment item","yes","m21-ab-lexicalDecision.osexp","C:\Users\emoore8\Desktop\m21_vsl-main","no","mono","no","18","no","white","no","yes","1080","legacy","41","41","C:/Users/emoore8/Desktop/m21_vsl-main/subject-211.csv","xpyriment","Lentiform Loewenfeld","3.3.11","0","/","NA","NA","NA","NA","space","/","561","NA","NA","NA","NA","45165","561","2","legacy","1024","2","48000","-16","AB_m21","211","odd","FILL_NW","CORG","1718","231723","228490","230220","46898","NA","NA","NA","NA","NA","228990","NA","NA","NA","227990","NA","227959","1731","232123","NA","NA","NA","229031","1718","1718","NA","229593","229617","227959","228990","229011","morph21_Oliver/Morris","24","37127","42","yes","1920","7"
"300","58.13953488372093","58.13953488372093","889","889","black","no","xpyriment","legacy","legacy","0","205","NA","uniform","NA","NA","NA","1","undefined","1","0","42","42","42","0","42","42","42","NA","0","42","NA","NA","0","42","NA","42","0","42","NA","NA","NA","42","0","0","NA","42","42","42","42","42","43","z","Tue Jun 27 17:37:26 2023","The main experiment item","yes","m21-ab-lexicalDecision.osexp","C:\Users\emoore8\Desktop\m21_vsl-main","no","mono","no","18","no","white","no","yes","1080","legacy","42","42","C:/Users/emoore8/Desktop/m21_vsl-main/subject-211.csv","xpyriment","Lentiform Loewenfeld","3.3.11","0","z","NA","NA","NA","NA","space","z","1100","NA","NA","NA","NA","45165","1100","2","legacy","1024","2","48000","-16","AB_m21","211","odd","NW_S_SIMP","TILTADY","1718","235910","233638","230220","46898","NA","NA","NA","NA","NA","234140","NA","NA","NA","233136","NA","233113","1731","236210","NA","NA","NA","234181","1718","1718","NA","235281","235307","233113","234140","234161","morph21_Oliver/Morris","25","38227","43","yes","1920","17"
"200","59.09090909090909","59.09090909090909","895.5454545454545","895.5454545454545","black","no","xpyriment","legacy","legacy","0","203","NA","uniform","NA","NA","NA","1","undefined","1","0","43","43","43","0","43","43","43","NA","0","43","NA","NA","0","43","NA","43","0","43","NA","NA","NA","43","0","0","NA","43","43","43","43","43","44","z","Tue Jun 27 17:37:26 2023","The main experiment item","yes","m21-ab-lexicalDecision.osexp","C:\Users\emoore8\Desktop\m21_vsl-main","no","mono","no","18","no","white","no","yes","1080","legacy","43","43","C:/Users/emoore8/Desktop/m21_vsl-main/subject-211.csv","xpyriment","Lentiform Loewenfeld","3.3.11","0","z","NA","NA","NA","NA","space","z","1177","NA","NA","NA","NA","45165","1177","2","legacy","1024","2","48000","-16","AB_m21","211","odd","NW_S_COMP","ELMIST","1718","240085","237739","230220","46898","NA","NA","NA","NA","NA","238240","NA","NA","NA","237238","NA","237212","1731","240285","NA","NA","NA","238280","1718","1718","NA","239457","239481","237212","238240","238260","morph21_Oliver/Morris","26","39404","44","yes","1920","10"
"350","60","60","889.5777777777778","889.5777777777778","black","no","xpyriment","legacy","legacy","0","201","NA","uniform","NA","NA","NA","1","undefined","1","0","44","44","44","0","44","44","44","NA","0","44","NA","NA","0","44","NA","44","0","44","NA","NA","NA","44","0","0","NA","44","44","44","44","44","45","/","Tue Jun 27 17:37:26 2023","The main experiment item","yes","m21-ab-lexicalDecision.osexp","C:\Users\emoore8\Desktop\m21_vsl-main","no","mono","no","18","no","white","no","yes","1080","legacy","44","44","C:/Users/emoore8/Desktop/m21_vsl-main/subject-211.csv","xpyriment","Lentiform Loewenfeld","3.3.11","0","/","NA","NA","NA","NA","space","/","627","NA","NA","NA","NA","45165","627","2","legacy","1024","2","48000","-16","AB_m21","211","odd","CW_S","STRANGENESS","1718","245116","241817","243613","46898","NA","NA","NA","NA","NA","242317","NA","NA","NA","241317","NA","241288","1731","245466","NA","NA","NA","242358","1718","1718","NA","242985","243010","241288","242317","242338","morph21_Oliver/Morris","27","40031","45","yes","1920","46"
"300","58.69565217391305","58.69565217391305","894.3260869565217","894.3260869565217","black","no","xpyriment","legacy","legacy","0","204","NA","uniform","NA","NA","NA","0","undefined","0","0","45","45","45","0","45","45","45","NA","0","45","NA","NA","0","45","NA","45","0","45","NA","NA","NA","45","0","0","NA","45","45","45","45","45","46","z","Tue Jun 27 17:37:26 2023","The main experiment item","yes","m21-ab-lexicalDecision.osexp","C:\Users\emoore8\Desktop\m21_vsl-main","no","mono","no","18","no","white","no","yes","1080","legacy","45","45","C:/Users/emoore8/Desktop/m21_vsl-main/subject-211.csv","xpyriment","Lentiform Loewenfeld","3.3.11","0","/","NA","NA","NA","NA","space","/","1108","NA","NA","NA","NA","45165","1108","2","legacy","1024","2","48000","-16","AB_m21","211","odd","NW_L_COMP","ILLIST","1718","249276","246998","243613","46898","NA","NA","NA","NA","NA","247500","NA","NA","NA","246497","NA","246472","1731","249576","NA","NA","NA","247540","1718","1718","NA","248649","248673","246472","247500","247520","morph21_Oliver/Morris","27","41139","46","yes","1920","9"
"250","57.4468085106383","57.4468085106383","900.8297872340426","900.8297872340426","black","no","xpyriment","legacy","legacy","0","204","NA","uniform","NA","NA","NA","0","undefined","0","0","46","46","46","0","46","46","46","NA","0","46","NA","NA","0","46","NA","46","0","46","NA","NA","NA","46","0","0","NA","46","46","46","46","46","47","z","Tue Jun 27 17:37:26 2023","The main experiment item","yes","m21-ab-lexicalDecision.osexp","C:\Users\emoore8\Desktop\m21_vsl-main","no","mono","no","18","no","white","no","yes","1080","legacy","46","46","C:/Users/emoore8/Desktop/m21_vsl-main/subject-211.csv","xpyriment","Lentiform Loewenfeld","3.3.11","0","None","NA","NA","NA","NA","space","None","1200","NA","NA","NA","NA","45165","1200","2","legacy","1024","2","48000","-16","AB_m21","211","odd","NW_L_COMP","STIRANCE","1718","253462","251095","243613","46898","NA","NA","NA","NA","NA","251595","NA","NA","NA","250595","NA","250571","1731","253712","NA","NA","NA","251636","1718","1718","NA","252836","252859","250571","251595","251616","morph21_Oliver/Morris","27","42339","47","yes","1920","1"
"300","58.333333333333336","58.333333333333336","895.8125","895.8125","black","no","xpyriment","legacy","legacy","0","201","NA","uniform","NA","NA","NA","1","undefined","1","0","47","47","47","0","47","47","47","NA","0","47","NA","NA","0","47","NA","47","0","47","NA","NA","NA","47","0","0","NA","47","47","47","47","47","48","/","Tue Jun 27 17:37:26 2023","The main experiment item","yes","m21-ab-lexicalDecision.osexp","C:\Users\emoore8\Desktop\m21_vsl-main","no","mono","no","18","no","white","no","yes","1080","legacy","47","47","C:/Users/emoore8/Desktop/m21_vsl-main/subject-211.csv","xpyriment","Lentiform Loewenfeld","3.3.11","0","/","NA","NA","NA","NA","space","/","660","NA","NA","NA","NA","45165","660","2","legacy","1024","2","48000","-16","AB_m21","211","odd","CW_S","MAGICAL","1718","258586","255255","257083","46898","NA","NA","NA","NA","NA","255755","NA","NA","NA","254755","NA","254727","1731","258886","NA","NA","NA","255796","1718","1718","NA","256457","256480","254727","255755","255776","morph21_Oliver/Morris","28","42999","48","yes","1920","4"
"400","59.183673469387756","59.183673469387756","894.6938775510204","894.6938775510204","black","no","xpyriment","legacy","legacy","0","203","NA","uniform","NA","NA","NA","1","undefined","1","0","48","48","48","0","48","48","48","NA","0","48","NA","NA","0","48","NA","48","0","48","NA","NA","NA","48","0","0","NA","48","48","48","48","48","49","z","Tue Jun 27 17:37:26 2023","The main experiment item","yes","m21-ab-lexicalDecision.osexp","C:\Users\emoore8\Desktop\m21_vsl-main","no","mono","no","18","no","white","no","yes","1080","legacy","48","48","C:/Users/emoore8/Desktop/m21_vsl-main/subject-211.csv","xpyriment","Lentiform Loewenfeld","3.3.11","0","z","NA","NA","NA","NA","space","z","841","NA","NA","NA","NA","45165","841","2","legacy","1024","2","48000","-16","AB_m21","211","odd","NW_S_COMP","TRUENESS","1718","262438","260426","257083","46898","NA","NA","NA","NA","NA","260926","NA","NA","NA","259925","NA","259895","1731","262838","NA","NA","NA","260967","1718","1718","NA","261809","261834","259895","260926","260947","morph21_Oliver/Morris","29","43840","49","yes","1920","15"
"200","60","60","898.16","898.16","black","no","xpyriment","legacy","legacy","0","203","NA","uniform","NA","NA","NA","1","undefined","1","0","49","49","49","0","49","49","49","NA","0","49","NA","NA","0","49","NA","49","0","49","NA","NA","NA","49","0","0","NA","49","49","49","49","49","50","z","Tue Jun 27 17:37:26 2023","The main experiment item","yes","m21-ab-lexicalDecision.osexp","C:\Users\emoore8\Desktop\m21_vsl-main","no","mono","no","18","no","white","no","yes","1080","legacy","49","49","C:/Users/emoore8/Desktop/m21_vsl-main/subject-211.csv","xpyriment","Lentiform Loewenfeld","3.3.11","0","z","NA","NA","NA","NA","space","z","1068","NA","NA","NA","NA","45165","1068","2","legacy","1024","2","48000","-16","AB_m21","211","odd","NW_S_COMP","YANKORY","1718","266595","264358","257083","46898","NA","NA","NA","NA","NA","264858","NA","NA","NA","263858","NA","263831","1731","266796","NA","NA","NA","264900","1718","1718","NA","265969","265992","263831","264858","264879","morph21_Oliver/Morris","30","44908","50","yes","1920","23"
"250","60.78431372549019","60.78431372549019","891.4313725490196","891.4313725490196","black","no","xpyriment","legacy","legacy","0","207","NA","uniform","NA","NA","NA","1","undefined","1","0","50","50","50","0","50","50","50","NA","0","50","NA","NA","0","50","NA","50","0","50","NA","NA","NA","50","0","0","NA","50","50","50","50","50","51","/","Tue Jun 27 17:37:26 2023","The main experiment item","yes","m21-ab-lexicalDecision.osexp","C:\Users\emoore8\Desktop\m21_vsl-main","no","mono","no","18","no","white","no","yes","1080","legacy","50","50","C:/Users/emoore8/Desktop/m21_vsl-main/subject-211.csv","xpyriment","Lentiform Loewenfeld","3.3.11","0","/","NA","NA","NA","NA","space","/","555","NA","NA","NA","NA","45165","555","2","legacy","1024","2","48000","-16","AB_m21","211","odd","FILL_W","SUIT","1718","271547","268320","270044","46898","NA","NA","NA","NA","NA","268820","NA","NA","NA","267819","NA","267790","1731","271797","NA","NA","NA","268861","1718","1718","NA","269417","269441","267790","268820","268841","morph21_Oliver/Morris","31","45463","51","yes","1920","49"
"350","59.61538461538461","59.61538461538461","897.3653846153846","897.3653846153846","black","no","xpyriment","legacy","legacy","0","205","NA","uniform","NA","NA","NA","0","undefined","0","0","51","51","51","0","51","51","51","NA","0","51","NA","NA","0","51","NA","51","0","51","NA","NA","NA","51","0","0","NA","51","51","51","51","51","52","z","Tue Jun 27 17:37:26 2023","The main experiment item","yes","m21-ab-lexicalDecision.osexp","C:\Users\emoore8\Desktop\m21_vsl-main","no","mono","no","18","no","white","no","yes","1080","legacy","51","51","C:/Users/emoore8/Desktop/m21_vsl-main/subject-211.csv","xpyriment","Lentiform Loewenfeld","3.3.11","0","None","NA","NA","NA","NA","space","None","1200","NA","NA","NA","NA","45165","1200","2","legacy","1024","2","48000","-16","AB_m21","211","odd","NW_S_SIMP","BASKODY","1718","275693","273327","270044","46898","NA","NA","NA","NA","NA","273827","NA","NA","NA","272827","NA","272796","1731","276043","NA","NA","NA","273867","1718","1718","NA","275067","275090","272796","273827","273847","morph21_Oliver/Morris","31","46663","52","yes","1920","10"
"250","60.37735849056604","60.37735849056604","891.7735849056604","891.7735849056604","black","no","xpyriment","legacy","legacy","0","207","NA","uniform","NA","NA","NA","1","undefined","1","0","52","52","52","0","52","52","52","NA","0","52","NA","NA","0","52","NA","52","0","52","NA","NA","NA","52","0","0","NA","52","52","52","52","52","53","/","Tue Jun 27 17:37:26 2023","The main experiment item","yes","m21-ab-lexicalDecision.osexp","C:\Users\emoore8\Desktop\m21_vsl-main","no","mono","no","18","no","white","no","yes","1080","legacy","52","52","C:/Users/emoore8/Desktop/m21_vsl-main/subject-211.csv","xpyriment","Lentiform Loewenfeld","3.3.11","0","/","NA","NA","NA","NA","space","/","601","NA","NA","NA","NA","45165","601","2","legacy","1024","2","48000","-16","AB_m21","211","odd","FILL_W","SLIM","1718","279324","277555","270044","46898","NA","NA","NA","NA","NA","278055","NA","NA","NA","277056","NA","277029","1731","279574","NA","NA","NA","278095","1718","1718","NA","278697","278721","277029","278055","278075","morph21_Oliver/Morris","32","47264","53","yes","1920","6"
"200","61.111111111111114","61.111111111111114","886.0370370370371","886.0370370370371","black","no","xpyriment","legacy","legacy","0","207","NA","uniform","NA","NA","NA","1","undefined","1","0","53","53","53","0","53","53","53","NA","0","53","NA","NA","0","53","NA","53","0","53","NA","NA","NA","53","0","0","NA","53","53","53","53","53","54","/","Tue Jun 27 17:37:26 2023","The main experiment item","yes","m21-ab-lexicalDecision.osexp","C:\Users\emoore8\Desktop\m21_vsl-main","no","mono","no","18","no","white","no","yes","1080","legacy","53","53","C:/Users/emoore8/Desktop/m21_vsl-main/subject-211.csv","xpyriment","Lentiform Loewenfeld","3.3.11","0","/","NA","NA","NA","NA","space","/","582","NA","NA","NA","NA","45165","582","2","legacy","1024","2","48000","-16","AB_m21","211","odd","FILL_W","WRECK","1718","284354","281099","282851","46898","NA","NA","NA","NA","NA","281601","NA","NA","NA","280597","NA","280573","1731","284554","NA","NA","NA","281642","1718","1718","NA","282225","282248","280573","281601","281622","morph21_Oliver/Morris","33","47846","54","yes","1920","13"
"350","61.81818181818182","61.81818181818182","880.7818181818182","880.7818181818182","black","no","xpyriment","legacy","legacy","0","202","NA","uniform","NA","NA","NA","1","undefined","1","0","54","54","54","0","54","54","54","NA","0","54","NA","NA","0","54","NA","54","0","54","NA","NA","NA","54","0","0","NA","54","54","54","54","54","55","/","Tue Jun 27 17:37:26 2023","The main experiment item","yes","m21-ab-lexicalDecision.osexp","C:\Users\emoore8\Desktop\m21_vsl-main","no","mono","no","18","no","white","no","yes","1080","legacy","54","54","C:/Users/emoore8/Desktop/m21_vsl-main/subject-211.csv","xpyriment","Lentiform Loewenfeld","3.3.11","0","/","NA","NA","NA","NA","space","/","597","NA","NA","NA","NA","45165","597","2","legacy","1024","2","48000","-16","AB_m21","211","odd","CW_L","PUNCHER","1718","287851","286086","282851","46898","NA","NA","NA","NA","NA","286586","NA","NA","NA","285585","NA","285557","1731","288201","NA","NA","NA","286627","1718","1718","NA","287225","287248","285557","286586","286607","morph21_Oliver/Morris","34","48443","55","yes","1920","1"
"300","62.5","62.5","884.1785714285714","884.1785714285714","black","no","xpyriment","legacy","legacy","0","204","NA","uniform","NA","NA","NA","1","undefined","1","0","55","55","55","0","55","55","55","NA","0","55","NA","NA","0","55","NA","55","0","55","NA","NA","NA","55","0","0","NA","55","55","55","55","55","56","z","Tue Jun 27 17:37:26 2023","The main experiment item","yes","m21-ab-lexicalDecision.osexp","C:\Users\emoore8\Desktop\m21_vsl-main","no","mono","no","18","no","white","no","yes","1080","legacy","55","55","C:/Users/emoore8/Desktop/m21_vsl-main/subject-211.csv","xpyriment","Lentiform Loewenfeld","3.3.11","0","z","NA","NA","NA","NA","space","z","1071","NA","NA","NA","NA","45165","1071","2","legacy","1024","2","48000","-16","AB_m21","211","odd","NW_L_COMP","SHEETER","1718","291963","289725","282851","46898","NA","NA","NA","NA","NA","290225","NA","NA","NA","289225","NA","289197","1731","292263","NA","NA","NA","290265","1718","1718","NA","291337","291360","289197","290225","290245","morph21_Oliver/Morris","35","49514","56","yes","1920","5"
"400","61.40350877192982","61.40350877192982","887.8771929824561","887.8771929824561","black","no","xpyriment","legacy","legacy","0","206","NA","uniform","NA","NA","NA","0","undefined","0","0","56","56","56","0","56","56","56","NA","0","56","NA","NA","0","56","NA","56","0","56","NA","NA","NA","56","0","0","NA","56","56","56","56","56","57","z","Tue Jun 27 17:37:26 2023","The main experiment item","yes","m21-ab-lexicalDecision.osexp","C:\Users\emoore8\Desktop\m21_vsl-main","no","mono","no","18","no","white","no","yes","1080","legacy","56","56","C:/Users/emoore8/Desktop/m21_vsl-main/subject-211.csv","xpyriment","Lentiform Loewenfeld","3.3.11","0","/","NA","NA","NA","NA","space","/","1095","NA","NA","NA","NA","45165","1095","2","legacy","1024","2","48000","-16","AB_m21","211","odd","NW_L_SIMP","BOGADY","1718","297580","293811","296076","46898","NA","NA","NA","NA","NA","294311","NA","NA","NA","293310","NA","293284","1731","297980","NA","NA","NA","294353","1718","1718","NA","295449","295472","293284","294311","294332","morph21_Oliver/Morris","35","50609","57","yes","1920","2"
"200","60.3448275862069","60.3448275862069","890.6551724137931","890.6551724137931","black","no","xpyriment","legacy","legacy","0","205","NA","uniform","NA","NA","NA","0","undefined","0","0","57","57","57","0","57","57","57","NA","0","57","NA","NA","0","57","NA","57","0","57","NA","NA","NA","57","0","0","NA","57","57","57","57","57","58","z","Tue Jun 27 17:37:26 2023","The main experiment item","yes","m21-ab-lexicalDecision.osexp","C:\Users\emoore8\Desktop\m21_vsl-main","no","mono","no","18","no","white","no","yes","1080","legacy","57","57","C:/Users/emoore8/Desktop/m21_vsl-main/subject-211.csv","xpyriment","Lentiform Loewenfeld","3.3.11","0","/","NA","NA","NA","NA","space","/","1049","NA","NA","NA","NA","45165","1049","2","legacy","1024","2","48000","-16","AB_m21","211","odd","NW_S_SIMP","THRILLANGE","1718","301741","299523","296076","46898","NA","NA","NA","NA","NA","300023","NA","NA","NA","299023","NA","298993","1731","301941","NA","NA","NA","300063","1718","1718","NA","301113","301136","298993","300023","300043","morph21_Oliver/Morris","35","51658","58","yes","1920","22"
"200","61.016949152542374","61.016949152542374","891.9491525423729","891.9491525423729","black","no","xpyriment","legacy","legacy","0","207","NA","uniform","NA","NA","NA","1","undefined","1","0","58","58","58","0","58","58","58","NA","0","58","NA","NA","0","58","NA","58","0","58","NA","NA","NA","58","0","0","NA","58","58","58","58","58","59","/","Tue Jun 27 17:37:26 2023","The main experiment item","yes","m21-ab-lexicalDecision.osexp","C:\Users\emoore8\Desktop\m21_vsl-main","no","mono","no","18","no","white","no","yes","1080","legacy","58","58","C:/Users/emoore8/Desktop/m21_vsl-main/subject-211.csv","xpyriment","Lentiform Loewenfeld","3.3.11","0","/","NA","NA","NA","NA","space","/","967","NA","NA","NA","NA","45165","967","2","legacy","1024","2","48000","-16","AB_m21","211","odd","FILL_W","BRASS","1718","305644","303508","296076","46898","NA","NA","NA","NA","NA","304009","NA","NA","NA","303005","NA","302979","1731","305844","NA","NA","NA","304049","1718","1718","NA","305017","305041","302979","304008","304029","morph21_Oliver/Morris","36","52625","59","yes","1920","10"
"400","61.666666666666664","61.666666666666664","886.6833333333333","886.6833333333333","black","no","xpyriment","legacy","legacy","0","201","NA","uniform","NA","NA","NA","1","undefined","1","0","59","59","59","0","59","59","59","NA","0","59","NA","NA","0","59","NA","59","0","59","NA","NA","NA","59","0","0","NA","59","59","59","59","59","60","/","Tue Jun 27 17:37:26 2023","The main experiment item","yes","m21-ab-lexicalDecision.osexp","C:\Users\emoore8\Desktop\m21_vsl-main","no","mono","no","18","no","white","no","yes","1080","legacy","59","59","C:/Users/emoore8/Desktop/m21_vsl-main/subject-211.csv","xpyriment","Lentiform Loewenfeld","3.3.11","0","/","NA","NA","NA","NA","space","/","576","NA","NA","NA","NA","45165","576","2","legacy","1024","2","48000","-16","AB_m21","211","odd","CW_S","DESIGN","1718","310620","307370","309117","46898","NA","NA","NA","NA","NA","307872","NA","NA","NA","306869","NA","306844","1731","311020","NA","NA","NA","307912","1718","1718","NA","308489","308513","306844","307871","307892","morph21_Oliver/Morris","37","53201","60","yes","1920","19"
"200","62.295081967213115","62.295081967213115","881.6229508196722","881.6229508196722","black","no","xpyriment","legacy","legacy","0","202","NA","uniform","NA","NA","NA","1","undefined","1","0","60","60","60","0","60","60","60","NA","0","60","NA","NA","0","60","NA","60","0","60","NA","NA","NA","60","0","0","NA","60","60","60","60","60","61","/","Tue Jun 27 17:37:26 2023","The main experiment item","yes","m21-ab-lexicalDecision.osexp","C:\Users\emoore8\Desktop\m21_vsl-main","no","mono","no","18","no","white","no","yes","1080","legacy","60","60","C:/Users/emoore8/Desktop/m21_vsl-main/subject-211.csv","xpyriment","Lentiform Loewenfeld","3.3.11","0","/","NA","NA","NA","NA","space","/","578","NA","NA","NA","NA","45165","578","2","legacy","1024","2","48000","-16","AB_m21","211","odd","CW_L","BOOTLESS","1718","314307","312562","309117","46898","NA","NA","NA","NA","NA","313062","NA","NA","NA","312062","NA","312039","1731","314507","NA","NA","NA","313102","1718","1718","NA","313681","313704","312039","313062","313082","morph21_Oliver/Morris","38","53779","61","yes","1920","32"
"250","62.903225806451616","62.903225806451616","882.9516129032259","882.9516129032259","black","no","xpyriment","legacy","legacy","0","201","NA","uniform","NA","NA","NA","1","undefined","1","0","61","61","61","0","61","61","61","NA","0","61","NA","NA","0","61","NA","61","0","61","NA","NA","NA","61","0","0","NA","61","61","61","61","61","62","/","Tue Jun 27 17:37:26 2023","The main experiment item","yes","m21-ab-lexicalDecision.osexp","C:\Users\emoore8\Desktop\m21_vsl-main","no","mono","no","18","no","white","no","yes","1080","legacy","61","61","C:/Users/emoore8/Desktop/m21_vsl-main/subject-211.csv","xpyriment","Lentiform Loewenfeld","3.3.11","0","/","NA","NA","NA","NA","space","/","964","NA","NA","NA","NA","45165","964","2","legacy","1024","2","48000","-16","AB_m21","211","odd","CW_S","NOTICEABLE","1718","318157","316025","309117","46898","NA","NA","NA","NA","NA","316525","NA","NA","NA","315525","NA","315494","1731","318407","NA","NA","NA","316565","1718","1718","NA","317530","317553","315494","316525","316545","morph21_Oliver/Morris","39","54743","62","yes","1920","3"
"200","63.492063492063494","63.492063492063494","880.031746031746","880.031746031746","black","no","xpyriment","legacy","legacy","0","202","NA","uniform","NA","NA","NA","1","undefined","1","0","62","62","62","0","62","62","62","NA","0","62","NA","NA","0","62","NA","62","0","62","NA","NA","NA","62","0","0","NA","62","62","62","62","62","63","/","Tue Jun 27 17:37:26 2023","The main experiment item","yes","m21-ab-lexicalDecision.osexp","C:\Users\emoore8\Desktop\m21_vsl-main","no","mono","no","18","no","white","no","yes","1080","legacy","62","62","C:/Users/emoore8/Desktop/m21_vsl-main/subject-211.csv","xpyriment","Lentiform Loewenfeld","3.3.11","0","/","NA","NA","NA","NA","space","/","699","NA","NA","NA","NA","45165","699","2","legacy","1024","2","48000","-16","AB_m21","211","odd","CW_L","VERBAL","1718","323285","319912","321782","46898","NA","NA","NA","NA","NA","320413","NA","NA","NA","319412","NA","319386","1731","323485","NA","NA","NA","320453","1718","1718","NA","321153","321178","319386","320413","320433","morph21_Oliver/Morris","40","55442","63","yes","1920","50"
"300","64.0625","64.0625","881.5","881.5","black","no","xpyriment","legacy","legacy","0","208","NA","uniform","NA","NA","NA","1","undefined","1","0","63","63","63","0","63","63","63","NA","0","63","NA","NA","0","63","NA","63","0","63","NA","NA","NA","63","0","0","NA","63","63","63","63","63","64","z","Tue Jun 27 17:37:26 2023","The main experiment item","yes","m21-ab-lexicalDecision.osexp","C:\Users\emoore8\Desktop\m21_vsl-main","no","mono","no","18","no","white","no","yes","1080","legacy","63","63","C:/Users/emoore8/Desktop/m21_vsl-main/subject-211.csv","xpyriment","Lentiform Loewenfeld","3.3.11","0","z","NA","NA","NA","NA","space","z","974","NA","NA","NA","NA","45165","974","2","legacy","1024","2","48000","-16","AB_m21","211","odd","FILL_NW","DULKS","1718","327163","325022","321782","46898","NA","NA","NA","NA","NA","325522","NA","NA","NA","324522","NA","324492","1731","327463","NA","NA","NA","325562","1718","1718","NA","326537","326560","324492","325522","325542","morph21_Oliver/Morris","41","56416","64","yes","1920","18"
"250","64.61538461538461","64.61538461538461","877.8461538461538","877.8461538461538","black","no","xpyriment","legacy","legacy","0","201","NA","uniform","NA","NA","NA","1","undefined","1","0","64","64","64","0","64","64","64","NA","0","64","NA","NA","0","64","NA","64","0","64","NA","NA","NA","64","0","0","NA","64","64","64","64","64","65","/","Tue Jun 27 17:37:26 2023","The main experiment item","yes","m21-ab-lexicalDecision.osexp","C:\Users\emoore8\Desktop\m21_vsl-main","no","mono","no","18","no","white","no","yes","1080","legacy","64","64","C:/Users/emoore8/Desktop/m21_vsl-main/subject-211.csv","xpyriment","Lentiform Loewenfeld","3.3.11","0","/","NA","NA","NA","NA","space","/","644","NA","NA","NA","NA","45165","644","2","legacy","1024","2","48000","-16","AB_m21","211","odd","CW_S","MILDNESS","1718","330806","328992","321782","46898","NA","NA","NA","NA","NA","329492","NA","NA","NA","328491","NA","328462","1731","331056","NA","NA","NA","329532","1718","1718","NA","330177","330202","328462","329492","329512","morph21_Oliver/Morris","42","57060","65","yes","1920","42"
"400","65.15151515151516","65.15151515151516","882.0909090909091","882.0909090909091","black","no","xpyriment","legacy","legacy","0","205","NA","uniform","NA","NA","NA","1","undefined","1","0","65","65","65","0","65","65","65","NA","0","65","NA","NA","0","65","NA","65","0","65","NA","NA","NA","65","0","0","NA","65","65","65","65","65","66","z","Tue Jun 27 17:37:26 2023","The main experiment item","yes","m21-ab-lexicalDecision.osexp","C:\Users\emoore8\Desktop\m21_vsl-main","no","mono","no","18","no","white","no","yes","1080","legacy","65","65","C:/Users/emoore8/Desktop/m21_vsl-main/subject-211.csv","xpyriment","Lentiform Loewenfeld","3.3.11","0","z","NA","NA","NA","NA","space","z","1158","NA","NA","NA","NA","45165","1158","2","legacy","1024","2","48000","-16","AB_m21","211","odd","NW_S_SIMP","SCHEMENELS","1718","336421","332590","334916","46898","NA","NA","NA","NA","NA","333090","NA","NA","NA","332089","NA","332061","1731","336821","NA","NA","NA","333131","1718","1718","NA","334289","334313","332061","333090","333111","morph21_Oliver/Morris","43","58218","66","yes","1920","15"
"250","64.17910447761194","64.17910447761194","886.8358208955224","886.8358208955224","black","no","xpyriment","legacy","legacy","0","201","NA","uniform","NA","NA","NA","0","undefined","0","0","66","66","66","0","66","66","66","NA","0","66","NA","NA","0","66","NA","66","0","66","NA","NA","NA","66","0","0","NA","66","66","66","66","66","67","/","Tue Jun 27 17:37:26 2023","The main experiment item","yes","m21-ab-lexicalDecision.osexp","C:\Users\emoore8\Desktop\m21_vsl-main","no","mono","no","18","no","white","no","yes","1080","legacy","66","66","C:/Users/emoore8/Desktop/m21_vsl-main/subject-211.csv","xpyriment","Lentiform Loewenfeld","3.3.11","0","None","NA","NA","NA","NA","space","None","1200","NA","NA","NA","NA","45165","1200","2","legacy","1024","2","48000","-16","AB_m21","211","odd","CW_S","TOSSING","1718","340720","338354","334916","46898","NA","NA","NA","NA","NA","338854","NA","NA","NA","337854","NA","337827","1731","340970","NA","NA","NA","338894","1718","1718","NA","340094","340117","337827","338854","338874","morph21_Oliver/Morris","43","59418","67","yes","1920","26"
"250","64.70588235294117","64.70588235294117","880.8382352941177","880.8382352941177","black","no","xpyriment","legacy","legacy","0","207","NA","uniform","NA","NA","NA","1","undefined","1","0","67","67","67","0","67","67","67","NA","0","67","NA","NA","0","67","NA","67","0","67","NA","NA","NA","67","0","0","NA","67","67","67","67","67","68","/","Tue Jun 27 17:37:26 2023","The main experiment item","yes","m21-ab-lexicalDecision.osexp","C:\Users\emoore8\Desktop\m21_vsl-main","no","mono","no","18","no","white","no","yes","1080","legacy","67","67","C:/Users/emoore8/Desktop/m21_vsl-main/subject-211.csv","xpyriment","Lentiform Loewenfeld","3.3.11","0","/","NA","NA","NA","NA","space","/","479","NA","NA","NA","NA","45165","479","2","legacy","1024","2","48000","-16","AB_m21","211","odd","FILL_W","COOK","1718","344164","342517","334916","46898","NA","NA","NA","NA","NA","343017","NA","NA","NA","342017","NA","341989","1731","344414","NA","NA","NA","343058","1718","1718","NA","343537","343561","341989","343017","343038","morph21_Oliver/Morris","44","59897","68","yes","1920","38"
"300","63.768115942028984","63.768115942028984","876.3623188405797","876.3623188405797","black","no","xpyriment","legacy","legacy","0","208","NA","uniform","NA","NA","NA","0","undefined","0","0","68","68","68","0","68","68","68","NA","0","68","NA","NA","0","68","NA","68","0","68","NA","NA","NA","68","0","0","NA","68","68","68","68","68","69","z","Tue Jun 27 17:37:26 2023","The main experiment item","yes","m21-ab-lexicalDecision.osexp","C:\Users\emoore8\Desktop\m21_vsl-main","no","mono","no","18","no","white","no","yes","1080","legacy","68","68","C:/Users/emoore8/Desktop/m21_vsl-main/subject-211.csv","xpyriment","Lentiform Loewenfeld","3.3.11","0","/","NA","NA","NA","NA","space","/","572","NA","NA","NA","NA","45165","572","2","legacy","1024","2","48000","-16","AB_m21","211","odd","FILL_NW","KEMT","1718","349187","345943","347683","46898","NA","NA","NA","NA","NA","346444","NA","NA","NA","345442","NA","345417","1731","349487","NA","NA","NA","346484","1718","1718","NA","347057","347080","345417","346444","346464","morph21_Oliver/Morris","44","60469","69","yes","1920","32"
"200","64.28571428571429","64.28571428571429","872.1","872.1","black","no","xpyriment","legacy","legacy","0","207","NA","uniform","NA","NA","NA","1","undefined","1","0","69","69","69","0","69","69","69","NA","0","69","NA","NA","0","69","NA","69","0","69","NA","NA","NA","69","0","0","NA","69","69","69","69","69","70","/","Tue Jun 27 17:37:26 2023","The main experiment item","yes","m21-ab-lexicalDecision.osexp","C:\Users\emoore8\Desktop\m21_vsl-main","no","mono","no","18","no","white","no","yes","1080","legacy","69","69","C:/Users/emoore8/Desktop/m21_vsl-main/subject-211.csv","xpyriment","Lentiform Loewenfeld","3.3.11","0","/","NA","NA","NA","NA","space","/","578","NA","NA","NA","NA","45165","578","2","legacy","1024","2","48000","-16","AB_m21","211","odd","FILL_W","FLOAT","1718","352741","350995","347683","46898","NA","NA","NA","NA","NA","351495","NA","NA","NA","350495","NA","350471","1731","352941","NA","NA","NA","351535","1718","1718","NA","352113","352138","350471","351495","351515","morph21_Oliver/Morris","45","61047","70","yes","1920","30"
"250","63.38028169014085","63.38028169014085","876.7183098591549","876.7183098591549","black","no","xpyriment","legacy","legacy","0","205","NA","uniform","NA","NA","NA","0","undefined","0","0","70","70","70","0","70","70","70","NA","0","70","NA","NA","0","70","NA","70","0","70","NA","NA","NA","70","0","0","NA","70","70","70","70","70","71","z","Tue Jun 27 17:37:26 2023","The main experiment item","yes","m21-ab-lexicalDecision.osexp","C:\Users\emoore8\Desktop\m21_vsl-main","no","mono","no","18","no","white","no","yes","1080","legacy","70","70","C:/Users/emoore8/Desktop/m21_vsl-main/subject-211.csv","xpyriment","Lentiform Loewenfeld","3.3.11","0","None","NA","NA","NA","NA","space","None","1200","NA","NA","NA","NA","45165","1200","2","legacy","1024","2","48000","-16","AB_m21","211","odd","NW_S_SIMP","DIGODY","1718","356843","354473","347683","46898","NA","NA","NA","NA","NA","354973","NA","NA","NA","353972","NA","353945","1731","357093","NA","NA","NA","355014","1718","1718","NA","356214","356239","353945","354973","354994","morph21_Oliver/Morris","45","62247","71","yes","1920","11"
"250","63.888888888888886","63.888888888888886","875.3611111111111","875.3611111111111","black","no","xpyriment","legacy","legacy","0","201","NA","uniform","NA","NA","NA","1","undefined","1","0","71","71","71","0","71","71","71","NA","0","71","NA","NA","0","71","NA","71","0","71","NA","NA","NA","71","0","0","NA","71","71","71","71","71","72","/","Tue Jun 27 17:37:26 2023","The main experiment item","yes","m21-ab-lexicalDecision.osexp","C:\Users\emoore8\Desktop\m21_vsl-main","no","mono","no","18","no","white","no","yes","1080","legacy","71","71","C:/Users/emoore8/Desktop/m21_vsl-main/subject-211.csv","xpyriment","Lentiform Loewenfeld","3.3.11","0","/","NA","NA","NA","NA","space","/","779","NA","NA","NA","NA","45165","779","2","legacy","1024","2","48000","-16","AB_m21","211","odd","CW_S","TUTORING","1718","362068","358617","360563","46898","NA","NA","NA","NA","NA","359117","NA","NA","NA","358116","NA","358089","1731","362318","NA","NA","NA","359157","1718","1718","NA","359937","359960","358089","359117","359137","morph21_Oliver/Morris","46","63026","72","yes","1920","27"
"400","64.38356164383562","64.38356164383562","871.5205479452055","871.5205479452055","black","no","xpyriment","legacy","legacy","0","202","NA","uniform","NA","NA","NA","1","undefined","1","0","72","72","72","0","72","72","72","NA","0","72","NA","NA","0","72","NA","72","0","72","NA","NA","NA","72","0","0","NA","72","72","72","72","72","73","/","Tue Jun 27 17:37:26 2023","The main experiment item","yes","m21-ab-lexicalDecision.osexp","C:\Users\emoore8\Desktop\m21_vsl-main","no","mono","no","18","no","white","no","yes","1080","legacy","72","72","C:/Users/emoore8/Desktop/m21_vsl-main/subject-211.csv","xpyriment","Lentiform Loewenfeld","3.3.11","0","/","NA","NA","NA","NA","space","/","595","NA","NA","NA","NA","45165","595","2","legacy","1024","2","48000","-16","AB_m21","211","odd","CW_L","DRYNESS","1718","365606","363840","360563","46898","NA","NA","NA","NA","NA","364341","NA","NA","NA","363340","NA","363313","1731","366006","NA","NA","NA","364381","1718","1718","NA","364977","365002","363313","364341","364361","morph21_Oliver/Morris","47","63621","73","yes","1920","42"
"400","64.86486486486487","64.86486486486487","872.8513513513514","872.8513513513514","black","no","xpyriment","legacy","legacy","0","208","NA","uniform","NA","NA","NA","1","undefined","1","0","73","73","73","0","73","73","73","NA","0","73","NA","NA","0","73","NA","73","0","73","NA","NA","NA","73","0","0","NA","73","73","73","73","73","74","z","Tue Jun 27 17:37:26 2023","The main experiment item","yes","m21-ab-lexicalDecision.osexp","C:\Users\emoore8\Desktop\m21_vsl-main","no","mono","no","18","no","white","no","yes","1080","legacy","73","73","C:/Users/emoore8/Desktop/m21_vsl-main/subject-211.csv","xpyriment","Lentiform Loewenfeld","3.3.11","0","z","NA","NA","NA","NA","space","z","970","NA","NA","NA","NA","45165","970","2","legacy","1024","2","48000","-16","AB_m21","211","odd","FILL_NW","SOISE","1718","369670","367528","360563","46898","NA","NA","NA","NA","NA","368028","NA","NA","NA","367027","NA","367003","1731","370070","NA","NA","NA","368070","1718","1718","NA","369041","369065","367003","368028","368050","morph21_Oliver/Morris","48","64591","74","yes","1920","43"
"300","64","64","869.7866666666666","869.7866666666666","black","no","xpyriment","legacy","legacy","0","205","NA","uniform","NA","NA","NA","undefined","undefined","0","0","74","74","74","0","74","74","74","NA","0","74","NA","NA","0","74","NA","74","0","74","NA","NA","NA","74","0","0","NA","74","74","74","74","74","75","z","Tue Jun 27 17:37:26 2023","The main experiment item","yes","m21-ab-lexicalDecision.osexp","C:\Users\emoore8\Desktop\m21_vsl-main","no","mono","no","18","no","white","no","yes","1080","legacy","74","74","C:/Users/emoore8/Desktop/m21_vsl-main/subject-211.csv","xpyriment","Lentiform Loewenfeld","3.3.11","0","space","space","NA","NA","NA","space","/","47836","47836","NA","NA","NA","45165","643","2","legacy","1024","2","48000","-16","AB_m21","211","odd","NW_S_SIMP","SOCKETEL","1718","374924","371606","373419","46898","375229","NA","NA","NA","NA","372108","NA","NA","NA","371104","NA","371079","1731","423065","NA","NA","NA","372149","1718","1718","NA","372793","372816","371079","372108","372129","morph21_Oliver/Morris","48","65234","75","yes","1920","1"
"400","64.47368421052632","64.47368421052632","872.6184210526316","872.6184210526316","black","no","xpyriment","legacy","legacy","0","207","NA","uniform","NA","NA","NA","1","undefined","1","0","75","75","75","0","75","75","75","NA","0","75","NA","NA","0","75","NA","75","0","75","NA","NA","NA","75","0","0","NA","75","75","75","75","75","76","/","Tue Jun 27 17:37:26 2023","The main experiment item","yes","m21-ab-lexicalDecision.osexp","C:\Users\emoore8\Desktop\m21_vsl-main","no","mono","no","18","no","white","no","yes","1080","legacy","75","75","C:/Users/emoore8/Desktop/m21_vsl-main/subject-211.csv","xpyriment","Lentiform Loewenfeld","3.3.11","0","/","space","NA","NA","NA","space","/","1085","47836","NA","NA","NA","45165","1085","2","legacy","1024","2","48000","-16","AB_m21","211","odd","FILL_W","EAT","1718","426860","424605","373419","46898","375229","NA","NA","NA","NA","425106","NA","NA","NA","424104","NA","424079","1731","427260","NA","NA","NA","425147","1718","1718","NA","426233","426257","424079","425106","425127","morph21_Oliver/Morris","49","66319","76","yes","1920","25"
"250","63.63636363636363","63.63636363636363","873.1298701298701","873.1298701298701","black","no","xpyriment","legacy","legacy","0","208","NA","uniform","NA","NA","NA","0","undefined","0","0","76","76","76","0","76","76","76","NA","0","76","NA","NA","0","76","NA","76","0","76","NA","NA","NA","76","0","0","NA","76","76","76","76","76","77","z","Tue Jun 27 17:37:26 2023","The main experiment item","yes","m21-ab-lexicalDecision.osexp","C:\Users\emoore8\Desktop\m21_vsl-main","no","mono","no","18","no","white","no","yes","1080","legacy","76","76","C:/Users/emoore8/Desktop/m21_vsl-main/subject-211.csv","xpyriment","Lentiform Loewenfeld","3.3.11","0","/","space","NA","NA","NA","space","/","912","47836","NA","NA","NA","45165","912","2","legacy","1024","2","48000","-16","AB_m21","211","odd","FILL_NW","POLT","1718","430883","428802","373419","46898","375229","NA","NA","NA","NA","429304","NA","NA","NA","428300","NA","428276","1731","431133","NA","NA","NA","429344","1718","1718","NA","430257","430280","428276","429303","429324","morph21_Oliver/Morris","49","67231","77","yes","1920","38"
"350","62.82051282051282","62.82051282051282","877.3205128205128","877.3205128205128","black","no","xpyriment","legacy","legacy","0","206","NA","uniform","NA","NA","NA","0","undefined","0","0","77","77","77","0","77","77","77","NA","0","77","NA","NA","0","77","NA","77","0","77","NA","NA","NA","77","0","0","NA","77","77","77","77","77","78","z","Tue Jun 27 17:37:26 2023","The main experiment item","yes","m21-ab-lexicalDecision.osexp","C:\Users\emoore8\Desktop\m21_vsl-main","no","mono","no","18","no","white","no","yes","1080","legacy","77","77","C:/Users/emoore8/Desktop/m21_vsl-main/subject-211.csv","xpyriment","Lentiform Loewenfeld","3.3.11","0","None","space","NA","NA","NA","space","None","1200","47836","NA","NA","NA","45165","1200","2","legacy","1024","2","48000","-16","AB_m21","211","odd","NW_L_SIMP","CRITICANGE","1718","436571","432697","435066","46898","375229","NA","NA","NA","NA","433197","NA","NA","NA","432197","NA","432170","1731","436921","NA","NA","NA","433238","1718","1718","NA","434438","434461","432170","433197","433218","morph21_Oliver/Morris","49","68431","78","yes","1920","22"
"250","62.0253164556962","62.0253164556962","881.4050632911392","881.4050632911392","black","no","xpyriment","legacy","legacy","0","206","NA","uniform","NA","NA","NA","0","undefined","0","0","78","78","78","0","78","78","78","NA","0","78","NA","NA","0","78","NA","78","0","78","NA","NA","NA","78","0","0","NA","78","78","78","78","78","79","z","Tue Jun 27 17:37:26 2023","The main experiment item","yes","m21-ab-lexicalDecision.osexp","C:\Users\emoore8\Desktop\m21_vsl-main","no","mono","no","18","no","white","no","yes","1080","legacy","78","78","C:/Users/emoore8/Desktop/m21_vsl-main/subject-211.csv","xpyriment","Lentiform Loewenfeld","3.3.11","0","None","space","NA","NA","NA","space","None","1200","47836","NA","NA","NA","45165","1200","2","legacy","1024","2","48000","-16","AB_m21","211","odd","NW_L_SIMP","SHOOTMANT","1718","440823","438456","435066","46898","375229","NA","NA","NA","NA","438956","NA","NA","NA","437955","NA","437926","1731","441073","NA","NA","NA","438996","1718","1718","NA","440196","440220","437926","438956","438976","morph21_Oliver/Morris","49","69631","79","yes","1920","16"
"350","61.25","61.25","878.25","878.25","black","no","xpyriment","legacy","legacy","0","204","NA","uniform","NA","NA","NA","0","undefined","0","0","79","79","79","0","79","79","79","NA","0","79","NA","NA","0","79","NA","79","0","79","NA","NA","NA","79","0","0","NA","79","79","79","79","79","80","z","Tue Jun 27 17:37:26 2023","The main experiment item","yes","m21-ab-lexicalDecision.osexp","C:\Users\emoore8\Desktop\m21_vsl-main","no","mono","no","18","no","white","no","yes","1080","legacy","79","79","C:/Users/emoore8/Desktop/m21_vsl-main/subject-211.csv","xpyriment","Lentiform Loewenfeld","3.3.11","0","/","space","NA","NA","NA","space","/","629","47836","NA","NA","NA","45165","629","2","legacy","1024","2","48000","-16","AB_m21","211","odd","NW_L_COMP","MOUTHIZE","1718","444396","442598","435066","46898","375229","NA","NA","NA","NA","443099","NA","NA","NA","442098","NA","442071","1731","444746","NA","NA","NA","443140","1718","1718","NA","443770","443793","442070","443099","443120","morph21_Oliver/Morris","49","70260","80","yes","1920","11"
"250","61.72839506172839","61.72839506172839","874.5432098765432","874.5432098765432","black","no","xpyriment","legacy","legacy","0","202","NA","uniform","NA","NA","NA","1","undefined","1","0","80","80","80","0","80","80","80","NA","0","80","NA","NA","0","80","NA","80","0","80","NA","NA","NA","80","0","0","NA","80","80","80","80","80","81","/","Tue Jun 27 17:37:26 2023","The main experiment item","yes","m21-ab-lexicalDecision.osexp","C:\Users\emoore8\Desktop\m21_vsl-main","no","mono","no","18","no","white","no","yes","1080","legacy","80","80","C:/Users/emoore8/Desktop/m21_vsl-main/subject-211.csv","xpyriment","Lentiform Loewenfeld","3.3.11","0","/","space","NA","NA","NA","space","/","578","47836","NA","NA","NA","45165","578","2","legacy","1024","2","48000","-16","AB_m21","211","odd","CW_L","LAUGHING","1718","449531","446282","448028","46898","375229","NA","NA","NA","NA","446783","NA","NA","NA","445782","NA","445755","1731","449781","NA","NA","NA","446823","1718","1718","NA","447402","447425","445755","446783","446803","morph21_Oliver/Morris","50","70838","81","yes","1920","27"
"250","62.19512195121951","62.19512195121951","872.6341463414634","872.6341463414634","black","no","xpyriment","legacy","legacy","0","208","NA","uniform","NA","NA","NA","1","undefined","1","0","81","81","81","0","81","81","81","NA","0","81","NA","NA","0","81","NA","81","0","81","NA","NA","NA","81","0","0","NA","81","81","81","81","81","82","z","Tue Jun 27 17:37:26 2023","The main experiment item","yes","m21-ab-lexicalDecision.osexp","C:\Users\emoore8\Desktop\m21_vsl-main","no","mono","no","18","no","white","no","yes","1080","legacy","81","81","C:/Users/emoore8/Desktop/m21_vsl-main/subject-211.csv","xpyriment","Lentiform Loewenfeld","3.3.11","0","z","space","NA","NA","NA","space","z","718","47836","NA","NA","NA","45165","718","2","legacy","1024","2","48000","-16","AB_m21","211","odd","FILL_NW","PLAODS","1718","453188","451301","448028","46898","375229","NA","NA","NA","NA","451803","NA","NA","NA","450799","NA","450775","1731","453438","NA","NA","NA","451843","1718","1718","NA","452561","452585","450775","451803","451823","morph21_Oliver/Morris","51","71556","82","yes","1920","37"
"300","62.65060240963855","62.65060240963855","873.2530120481928","873.2530120481928","black","no","xpyriment","legacy","legacy","0","206","NA","uniform","NA","NA","NA","1","undefined","1","0","82","82","82","0","82","82","82","NA","0","82","NA","NA","0","82","NA","82","0","82","NA","NA","NA","82","0","0","NA","82","82","82","82","82","83","z","Tue Jun 27 17:37:26 2023","The main experiment item","yes","m21-ab-lexicalDecision.osexp","C:\Users\emoore8\Desktop\m21_vsl-main","no","mono","no","18","no","white","no","yes","1080","legacy","82","82","C:/Users/emoore8/Desktop/m21_vsl-main/subject-211.csv","xpyriment","Lentiform Loewenfeld","3.3.11","0","z","space","NA","NA","NA","space","z","924","47836","NA","NA","NA","45165","924","2","legacy","1024","2","48000","-16","AB_m21","211","odd","NW_L_SIMP","EARILT","1718","457058","454967","448028","46898","375229","NA","NA","NA","NA","455468","NA","NA","NA","454466","NA","454441","1731","457358","NA","NA","NA","455508","1718","1718","NA","456433","456456","454441","455468","455488","morph21_Oliver/Morris","52","72480","83","yes","1920","12"
"250","63.095238095238095","63.095238095238095","870.1190476190476","870.1190476190476","black","no","xpyriment","legacy","legacy","0","201","NA","uniform","NA","NA","NA","1","undefined","1","0","83","83","83","0","83","83","83","NA","0","83","NA","NA","0","83","NA","83","0","83","NA","NA","NA","83","0","0","NA","83","83","83","83","83","84","/","Tue Jun 27 17:37:26 2023","The main experiment item","yes","m21-ab-lexicalDecision.osexp","C:\Users\emoore8\Desktop\m21_vsl-main","no","mono","no","18","no","white","no","yes","1080","legacy","83","83","C:/Users/emoore8/Desktop/m21_vsl-main/subject-211.csv","xpyriment","Lentiform Loewenfeld","3.3.11","0","/","space","NA","NA","NA","space","/","610","47836","NA","NA","NA","45165","610","2","legacy","1024","2","48000","-16","AB_m21","211","odd","CW_S","MOSSY","1718","462172","458890","460668","46898","375229","NA","NA","NA","NA","459390","NA","NA","NA","458390","NA","458357","1731","462422","NA","NA","NA","459430","1718","1718","NA","460041","460064","458357","459390","459410","morph21_Oliver/Morris","53","73090","84","yes","1920","47"
"250","62.35294117647059","62.35294117647059","872.435294117647","872.435294117647","black","no","xpyriment","legacy","legacy","0","204","NA","uniform","NA","NA","NA","0","undefined","0","0","84","84","84","0","84","84","84","NA","0","84","NA","NA","0","84","NA","84","0","84","NA","NA","NA","84","0","0","NA","84","84","84","84","84","85","z","Tue Jun 27 17:37:26 2023","The main experiment item","yes","m21-ab-lexicalDecision.osexp","C:\Users\emoore8\Desktop\m21_vsl-main","no","mono","no","18","no","white","no","yes","1080","legacy","84","84","C:/Users/emoore8/Desktop/m21_vsl-main/subject-211.csv","xpyriment","Lentiform Loewenfeld","3.3.11","0","/","space","NA","NA","NA","space","/","1067","47836","NA","NA","NA","45165","1067","2","legacy","1024","2","48000","-16","AB_m21","211","odd","NW_L_COMP","FREENESS","1718","466179","463944","460668","46898","375229","NA","NA","NA","NA","464444","NA","NA","NA","463441","NA","463416","1731","466429","NA","NA","NA","464485","1718","1718","NA","465553","465576","463416","464444","464465","morph21_Oliver/Morris","53","74157","85","yes","1920","15"
"350","61.627906976744185","61.627906976744185","875.7209302325581","875.7209302325581","black","no","xpyriment","legacy","legacy","0","203","NA","uniform","NA","NA","NA","0","undefined","0","0","85","85","85","0","85","85","85","NA","0","85","NA","NA","0","85","NA","85","0","85","NA","NA","NA","85","0","0","NA","85","85","85","85","85","86","z","Tue Jun 27 17:37:26 2023","The main experiment item","yes","m21-ab-lexicalDecision.osexp","C:\Users\emoore8\Desktop\m21_vsl-main","no","mono","no","18","no","white","no","yes","1080","legacy","85","85","C:/Users/emoore8/Desktop/m21_vsl-main/subject-211.csv","xpyriment","Lentiform Loewenfeld","3.3.11","0","/","space","NA","NA","NA","space","/","1155","47836","NA","NA","NA","45165","1155","2","legacy","1024","2","48000","-16","AB_m21","211","odd","NW_S_COMP","DEBTISH","1718","470276","467953","460668","46898","375229","NA","NA","NA","NA","468453","NA","NA","NA","467452","NA","467424","1731","470626","NA","NA","NA","468493","1718","1718","NA","469649","469673","467424","468453","468473","morph21_Oliver/Morris","53","75312","86","yes","1920","22"
"400","60.91954022988506","60.91954022988506","879.448275862069","879.448275862069","black","no","xpyriment","legacy","legacy","0","204","NA","uniform","NA","NA","NA","0","undefined","0","0","86","86","86","0","86","86","86","NA","0","86","NA","NA","0","86","NA","86","0","86","NA","NA","NA","86","0","0","NA","86","86","86","86","86","87","z","Tue Jun 27 17:37:26 2023","The main experiment item","yes","m21-ab-lexicalDecision.osexp","C:\Users\emoore8\Desktop\m21_vsl-main","no","mono","no","18","no","white","no","yes","1080","legacy","86","86","C:/Users/emoore8/Desktop/m21_vsl-main/subject-211.csv","xpyriment","Lentiform Loewenfeld","3.3.11","0","None","space","NA","NA","NA","space","None","1200","47836","NA","NA","NA","45165","1200","2","legacy","1024","2","48000","-16","AB_m21","211","odd","NW_L_COMP","COLDITY","1718","476027","472154","474522","46898","375229","NA","NA","NA","NA","472654","NA","NA","NA","471654","NA","471624","1731","476427","NA","NA","NA","472694","1718","1718","NA","473894","473919","471624","472654","472674","morph21_Oliver/Morris","53","76512","87","yes","1920","10"
"350","61.36363636363637","61.36363636363637","876.8295454545455","876.8295454545455","black","no","xpyriment","legacy","legacy","0","208","NA","uniform","NA","NA","NA","1","undefined","1","0","87","87","87","0","87","87","87","NA","0","87","NA","NA","0","87","NA","87","0","87","NA","NA","NA","87","0","0","NA","87","87","87","87","87","88","z","Tue Jun 27 17:37:26 2023","The main experiment item","yes","m21-ab-lexicalDecision.osexp","C:\Users\emoore8\Desktop\m21_vsl-main","no","mono","no","18","no","white","no","yes","1080","legacy","87","87","C:/Users/emoore8/Desktop/m21_vsl-main/subject-211.csv","xpyriment","Lentiform Loewenfeld","3.3.11","0","z","space","NA","NA","NA","space","z","649","47836","NA","NA","NA","45165","649","2","legacy","1024","2","48000","-16","AB_m21","211","odd","FILL_NW","DOADS","1718","479779","477961","474522","46898","375229","NA","NA","NA","NA","478461","NA","NA","NA","477461","NA","477435","1731","480129","NA","NA","NA","478503","1718","1718","NA","479153","479176","477435","478461","478483","morph21_Oliver/Morris","54","77161","88","yes","1920","15"
"350","61.79775280898876","61.79775280898876","873.1123595505618","873.1123595505618","black","no","xpyriment","legacy","legacy","0","207","NA","uniform","NA","NA","NA","1","undefined","1","0","88","88","88","0","88","88","88","NA","0","88","NA","NA","0","88","NA","88","0","88","NA","NA","NA","88","0","0","NA","88","88","88","88","88","89","/","Tue Jun 27 17:37:26 2023","The main experiment item","yes","m21-ab-lexicalDecision.osexp","C:\Users\emoore8\Desktop\m21_vsl-main","no","mono","no","18","no","white","no","yes","1080","legacy","88","88","C:/Users/emoore8/Desktop/m21_vsl-main/subject-211.csv","xpyriment","Lentiform Loewenfeld","3.3.11","0","/","space","NA","NA","NA","space","/","546","47836","NA","NA","NA","45165","546","2","legacy","1024","2","48000","-16","AB_m21","211","odd","FILL_W","FAINT","1718","483388","481672","474522","46898","375229","NA","NA","NA","NA","482173","NA","NA","NA","481170","NA","481146","1731","483738","NA","NA","NA","482214","1718","1718","NA","482761","482785","481146","482173","482193","morph21_Oliver/Morris","55","77707","89","yes","1920","31"
"300","62.22222222222222","62.22222222222222","871.8555555555556","871.8555555555556","black","no","xpyriment","legacy","legacy","0","205","NA","uniform","NA","NA","NA","1","undefined","1","0","89","89","89","0","89","89","89","NA","0","89","NA","NA","0","89","NA","89","0","89","NA","NA","NA","89","0","0","NA","89","89","89","89","89","90","z","Tue Jun 27 17:37:26 2023","The main experiment item","yes","m21-ab-lexicalDecision.osexp","C:\Users\emoore8\Desktop\m21_vsl-main","no","mono","no","18","no","white","no","yes","1080","legacy","89","89","C:/Users/emoore8/Desktop/m21_vsl-main/subject-211.csv","xpyriment","Lentiform Loewenfeld","3.3.11","0","z","space","NA","NA","NA","space","z","760","47836","NA","NA","NA","45165","760","2","legacy","1024","2","48000","-16","AB_m21","211","odd","NW_S_SIMP","FEVERIME","1718","488692","485260","487189","46898","375229","NA","NA","NA","NA","485760","NA","NA","NA","484760","NA","484737","1731","488992","NA","NA","NA","485800","1718","1718","NA","486561","486586","484737","485760","485780","morph21_Oliver/Morris","56","78467","90","yes","1920","24"
