"ITI","acc","accuracy","average_response_time","avg_rt","background","bidi","canvas_backend","clock_backend","color_backend","compensation","cond_trig","condtrigtime","coordinates","coroutines_cycles","coroutines_duration","coroutines_mean_cycle_duration","correct","correct_instructions_1","correct_new_keyboard_response_1","count_AB_m21","count_ITI","count_blank_screen","count_blink_screen","count_block1","count_break1","count_break2","count_break3_1","count_canvas","count_close_port","count_cond_trigger","count_correct_trigger","count_def_chain","count_end_screen","count_fixation_1","count_getting_started","count_inc_counter","count_instructions_1","count_logger","count_logscript","count_new_inline_script","count_new_inline_script_2","count_new_keyboard_response_1","count_open_port","count_reset_counter_prep","count_reset_counter_run","count_response_trigger_trial","count_responsescreen","count_sequence","count_target_present","count_word_trigger","counter","cresp","datetime","description","disable_garbage_collection","experiment_file","experiment_path","font_bold","font_family","font_italic","font_size","font_underline","foreground","form_clicks","fullscreen","height","keyboard_backend","live_row","live_row_block1","logfile","mouse_backend","opensesame_codename","opensesame_version","repeat_cycle","response","response_break1","response_break2","response_break3_1","response_end_screen","response_instructions_1","response_new_keyboard_response_1","response_time","response_time_break1","response_time_break2","response_time_break3_1","response_time_end_screen","response_time_instructions_1","response_time_new_keyboard_response_1","round_decimals","sampler_backend","sound_buf_size","sound_channels","sound_freq","sound_sample_size","start","subject_nr","subject_parity","targ_type","target","time_AB_m21","time_ITI","time_blank_screen","time_blink_screen","time_block1","time_break1","time_break2","time_break3_1","time_canvas","time_close_port","time_cond_trigger","time_correct_trigger","time_def_chain","time_end_screen","time_fixation_1","time_getting_started","time_inc_counter","time_instructions_1","time_logger","time_logscript","time_new_inline_script","time_new_inline_script_2","time_new_keyboard_response_1","time_open_port","time_reset_counter_prep","time_reset_counter_run","time_response_trigger_trial","time_responsescreen","time_sequence","time_target_present","time_word_trigger","title","total_correct","total_response_time","total_responses","uniform_coordinates","width","word_trig"
"250","0","0","1200","1200","black","no","xpyriment","legacy","legacy","0","203","NA","uniform","NA","NA","NA","0","undefined","0","0","0","0","0","0","0","0","0","NA","0","0","NA","NA","0","0","NA","0","0","0","NA","NA","NA","0","0","0","NA","0","0","0","0","0","1","z","Thu Apr  4 13:39:36 2024","The main experiment item","yes","m21-ab-lexicalDecision.osexp","C:\Users\ekealey\Desktop","no","mono","no","18","no","white","no","yes","1080","legacy","0","0","C:/Users/ekealey/Desktop/subject-241.csv","xpyriment","Lentiform Loewenfeld","3.3.11","0","None","NA","NA","NA","NA","space","None","1200","NA","NA","NA","NA","41923","1200","2","legacy","1024","2","48000","-16","AB_m21","241","odd","NW_S_COMP","BEERER","1924","48146","45776","NA","43857","NA","NA","NA","NA","NA","46277","NA","NA","NA","45275","NA","45242","1933","48396","NA","NA","NA","46317","1924","1924","NA","47517","47542","45242","46277","46297","morph21_Oliver/Morris","0","1200","1","yes","1920","5"
"400","50","50","780","780","black","no","xpyriment","legacy","legacy","0","208","NA","uniform","NA","NA","NA","1","undefined","1","0","1","1","1","0","1","1","1","NA","0","1","NA","NA","0","1","NA","1","0","1","NA","NA","NA","1","0","0","NA","1","1","1","1","1","2","z","Thu Apr  4 13:39:36 2024","The main experiment item","yes","m21-ab-lexicalDecision.osexp","C:\Users\ekealey\Desktop","no","mono","no","18","no","white","no","yes","1080","legacy","1","1","C:/Users/ekealey/Desktop/subject-241.csv","xpyriment","Lentiform Loewenfeld","3.3.11","0","z","NA","NA","NA","NA","space","z","360","NA","NA","NA","NA","41923","360","2","legacy","1024","2","48000","-16","AB_m21","241","odd","FILL_NW","GIKE","1924","51532","50002","NA","43857","NA","NA","NA","NA","NA","50504","NA","NA","NA","49501","NA","49476","1933","51932","NA","NA","NA","50544","1924","1924","NA","50905","50929","49476","50503","50524","morph21_Oliver/Morris","1","1560","2","yes","1920","24"
"350","66.66666666666667","66.66666666666667","753.6666666666666","753.6666666666666","black","no","xpyriment","legacy","legacy","0","207","NA","uniform","NA","NA","NA","1","undefined","1","0","2","2","2","0","2","2","2","NA","0","2","NA","NA","0","2","NA","2","0","2","NA","NA","NA","2","0","0","NA","2","2","2","2","2","3","/","Thu Apr  4 13:39:36 2024","The main experiment item","yes","m21-ab-lexicalDecision.osexp","C:\Users\ekealey\Desktop","no","mono","no","18","no","white","no","yes","1080","legacy","2","2","C:/Users/ekealey/Desktop/subject-241.csv","xpyriment","Lentiform Loewenfeld","3.3.11","0","/","NA","NA","NA","NA","space","/","701","NA","NA","NA","NA","41923","701","2","legacy","1024","2","48000","-16","AB_m21","241","odd","FILL_W","LIFT","1924","56910","53533","55404","43857","NA","NA","NA","NA","NA","54033","NA","NA","NA","53033","NA","53004","1933","57260","NA","NA","NA","54075","1924","1924","NA","54777","54800","53004","54033","54055","morph21_Oliver/Morris","2","2261","3","yes","1920","39"
"200","75","75","747.75","747.75","black","no","xpyriment","legacy","legacy","0","208","NA","uniform","NA","NA","NA","1","undefined","1","0","3","3","3","0","3","3","3","NA","0","3","NA","NA","0","3","NA","3","0","3","NA","NA","NA","3","0","0","NA","3","3","3","3","3","4","z","Thu Apr  4 13:39:36 2024","The main experiment item","yes","m21-ab-lexicalDecision.osexp","C:\Users\ekealey\Desktop","no","mono","no","18","no","white","no","yes","1080","legacy","3","3","C:/Users/ekealey/Desktop/subject-241.csv","xpyriment","Lentiform Loewenfeld","3.3.11","0","z","NA","NA","NA","NA","space","z","730","NA","NA","NA","NA","41923","730","2","legacy","1024","2","48000","-16","AB_m21","241","odd","FILL_NW","GAIRS","1924","60741","58840","55404","43857","NA","NA","NA","NA","NA","59341","NA","NA","NA","58338","NA","58303","1933","60941","NA","NA","NA","59382","1924","1924","NA","60113","60136","58303","59341","59362","morph21_Oliver/Morris","3","2991","4","yes","1920","23"
"400","80","80","733","733","black","no","xpyriment","legacy","legacy","0","207","NA","uniform","NA","NA","NA","1","undefined","1","0","4","4","4","0","4","4","4","NA","0","4","NA","NA","0","4","NA","4","0","4","NA","NA","NA","4","0","0","NA","4","4","4","4","4","5","/","Thu Apr  4 13:39:36 2024","The main experiment item","yes","m21-ab-lexicalDecision.osexp","C:\Users\ekealey\Desktop","no","mono","no","18","no","white","no","yes","1080","legacy","4","4","C:/Users/ekealey/Desktop/subject-241.csv","xpyriment","Lentiform Loewenfeld","3.3.11","0","/","NA","NA","NA","NA","space","/","674","NA","NA","NA","NA","41923","674","2","legacy","1024","2","48000","-16","AB_m21","241","odd","FILL_W","DRUNK","1924","64349","62504","55404","43857","NA","NA","NA","NA","NA","63005","NA","NA","NA","62002","NA","61976","1933","64749","NA","NA","NA","63046","1924","1924","NA","63720","63746","61976","63005","63026","morph21_Oliver/Morris","4","3665","5","yes","1920","19"
"300","66.66666666666667","66.66666666666667","810.8333333333334","810.8333333333334","black","no","xpyriment","legacy","legacy","0","204","NA","uniform","NA","NA","NA","0","undefined","0","0","5","5","5","0","5","5","5","NA","0","5","NA","NA","0","5","NA","5","0","5","NA","NA","NA","5","0","0","NA","5","5","5","5","5","6","z","Thu Apr  4 13:39:36 2024","The main experiment item","yes","m21-ab-lexicalDecision.osexp","C:\Users\ekealey\Desktop","no","mono","no","18","no","white","no","yes","1080","legacy","5","5","C:/Users/ekealey/Desktop/subject-241.csv","xpyriment","Lentiform Loewenfeld","3.3.11","0","None","NA","NA","NA","NA","space","None","1200","NA","NA","NA","NA","41923","1200","2","legacy","1024","2","48000","-16","AB_m21","241","odd","NW_L_COMP","EMPLOYNESS","1924","70192","66319","68687","43857","NA","NA","NA","NA","NA","66819","NA","NA","NA","65818","NA","65790","1933","70492","NA","NA","NA","66860","1924","1924","NA","68060","68084","65790","66819","66840","morph21_Oliver/Morris","4","4865","6","yes","1920","21"
"300","57.142857142857146","57.142857142857146","866.4285714285714","866.4285714285714","black","no","xpyriment","legacy","legacy","0","205","NA","uniform","NA","NA","NA","0","undefined","0","0","6","6","6","0","6","6","6","NA","0","6","NA","NA","0","6","NA","6","0","6","NA","NA","NA","6","0","0","NA","6","6","6","6","6","7","z","Thu Apr  4 13:39:36 2024","The main experiment item","yes","m21-ab-lexicalDecision.osexp","C:\Users\ekealey\Desktop","no","mono","no","18","no","white","no","yes","1080","legacy","6","6","C:/Users/ekealey/Desktop/subject-241.csv","xpyriment","Lentiform Loewenfeld","3.3.11","0","None","NA","NA","NA","NA","space","None","1200","NA","NA","NA","NA","41923","1200","2","legacy","1024","2","48000","-16","AB_m21","241","odd","NW_S_SIMP","FEVERIME","1924","74458","72086","68687","43857","NA","NA","NA","NA","NA","72586","NA","NA","NA","71585","NA","71556","1933","74758","NA","NA","NA","72629","1924","1924","NA","73829","73855","71556","72586","72607","morph21_Oliver/Morris","4","6065","7","yes","1920","24"
"350","62.5","62.5","872.5","872.5","black","no","xpyriment","legacy","legacy","0","201","NA","uniform","NA","NA","NA","1","undefined","1","0","7","7","7","0","7","7","7","NA","0","7","NA","NA","0","7","NA","7","0","7","NA","NA","NA","7","0","0","NA","7","7","7","7","7","8","/","Thu Apr  4 13:39:36 2024","The main experiment item","yes","m21-ab-lexicalDecision.osexp","C:\Users\ekealey\Desktop","no","mono","no","18","no","white","no","yes","1080","legacy","7","7","C:/Users/ekealey/Desktop/subject-241.csv","xpyriment","Lentiform Loewenfeld","3.3.11","0","/","NA","NA","NA","NA","space","/","915","NA","NA","NA","NA","41923","915","2","legacy","1024","2","48000","-16","AB_m21","241","odd","CW_S","LENDER","1924","78419","76336","68687","43857","NA","NA","NA","NA","NA","76836","NA","NA","NA","75836","NA","75811","1933","78769","NA","NA","NA","76877","1924","1924","NA","77793","77816","75811","76836","76857","morph21_Oliver/Morris","5","6980","8","yes","1920","11"
"250","66.66666666666667","66.66666666666667","872.3333333333334","872.3333333333334","black","no","xpyriment","legacy","legacy","0","206","NA","uniform","NA","NA","NA","1","undefined","1","0","8","8","8","0","8","8","8","NA","0","8","NA","NA","0","8","NA","8","0","8","NA","NA","NA","8","0","0","NA","8","8","8","8","8","9","z","Thu Apr  4 13:39:36 2024","The main experiment item","yes","m21-ab-lexicalDecision.osexp","C:\Users\ekealey\Desktop","no","mono","no","18","no","white","no","yes","1080","legacy","8","8","C:/Users/ekealey/Desktop/subject-241.csv","xpyriment","Lentiform Loewenfeld","3.3.11","0","z","NA","NA","NA","NA","space","z","871","NA","NA","NA","NA","41923","871","2","legacy","1024","2","48000","-16","AB_m21","241","odd","NW_L_SIMP","BEARILT","1924","83862","80316","82355","43857","NA","NA","NA","NA","NA","80816","NA","NA","NA","79815","NA","79789","1933","84112","NA","NA","NA","80857","1924","1924","NA","81729","81752","79789","80816","80837","morph21_Oliver/Morris","6","7851","9","yes","1920","25"
"300","60","60","905.1","905.1","black","no","xpyriment","legacy","legacy","0","204","NA","uniform","NA","NA","NA","0","undefined","0","0","9","9","9","0","9","9","9","NA","0","9","NA","NA","0","9","NA","9","0","9","NA","NA","NA","9","0","0","NA","9","9","9","9","9","10","z","Thu Apr  4 13:39:36 2024","The main experiment item","yes","m21-ab-lexicalDecision.osexp","C:\Users\ekealey\Desktop","no","mono","no","18","no","white","no","yes","1080","legacy","9","9","C:/Users/ekealey/Desktop/subject-241.csv","xpyriment","Lentiform Loewenfeld","3.3.11","0","None","NA","NA","NA","NA","space","None","1200","NA","NA","NA","NA","41923","1200","2","legacy","1024","2","48000","-16","AB_m21","241","odd","NW_L_COMP","KINGISM","1924","88086","85717","82355","43857","NA","NA","NA","NA","NA","86218","NA","NA","NA","85216","NA","85188","1933","88386","NA","NA","NA","86258","1924","1924","NA","87458","87483","85188","86218","86238","morph21_Oliver/Morris","6","9051","10","yes","1920","19"
"350","63.63636363636363","63.63636363636363","871","871","black","no","xpyriment","legacy","legacy","0","202","NA","uniform","NA","NA","NA","1","undefined","1","0","10","10","10","0","10","10","10","NA","0","10","NA","NA","0","10","NA","10","0","10","NA","NA","NA","10","0","0","NA","10","10","10","10","10","11","/","Thu Apr  4 13:39:36 2024","The main experiment item","yes","m21-ab-lexicalDecision.osexp","C:\Users\ekealey\Desktop","no","mono","no","18","no","white","no","yes","1080","legacy","10","10","C:/Users/ekealey/Desktop/subject-241.csv","xpyriment","Lentiform Loewenfeld","3.3.11","0","/","NA","NA","NA","NA","space","/","530","NA","NA","NA","NA","41923","530","2","legacy","1024","2","48000","-16","AB_m21","241","odd","CW_L","PAINTER","1924","91653","89952","82355","43857","NA","NA","NA","NA","NA","90453","NA","NA","NA","89451","NA","89424","1933","92003","NA","NA","NA","90494","1924","1924","NA","91025","91049","89424","90453","90474","morph21_Oliver/Morris","7","9581","11","yes","1920","18"
"350","66.66666666666667","66.66666666666667","861.5","861.5","black","no","xpyriment","legacy","legacy","0","203","NA","uniform","NA","NA","NA","1","undefined","1","0","11","11","11","0","11","11","11","NA","0","11","NA","NA","0","11","NA","11","0","11","NA","NA","NA","11","0","0","NA","11","11","11","11","11","12","z","Thu Apr  4 13:39:36 2024","The main experiment item","yes","m21-ab-lexicalDecision.osexp","C:\Users\ekealey\Desktop","no","mono","no","18","no","white","no","yes","1080","legacy","11","11","C:/Users/ekealey/Desktop/subject-241.csv","xpyriment","Lentiform Loewenfeld","3.3.11","0","z","NA","NA","NA","NA","space","z","757","NA","NA","NA","NA","41923","757","2","legacy","1024","2","48000","-16","AB_m21","241","odd","NW_S_COMP","HEIGHTENCE","1924","96995","93566","95492","43857","NA","NA","NA","NA","NA","94067","NA","NA","NA","93066","NA","93036","1933","97345","NA","NA","NA","94107","1924","1924","NA","94865","94888","93036","94066","94087","morph21_Oliver/Morris","8","10338","12","yes","1920","18"
"400","69.23076923076923","69.23076923076923","882.5384615384615","882.5384615384615","black","no","xpyriment","legacy","legacy","0","205","NA","uniform","NA","NA","NA","1","undefined","1","0","12","12","12","0","12","12","12","NA","0","12","NA","NA","0","12","NA","12","0","12","NA","NA","NA","12","0","0","NA","12","12","12","12","12","13","z","Thu Apr  4 13:39:36 2024","The main experiment item","yes","m21-ab-lexicalDecision.osexp","C:\Users\ekealey\Desktop","no","mono","no","18","no","white","no","yes","1080","legacy","12","12","C:/Users/ekealey/Desktop/subject-241.csv","xpyriment","Lentiform Loewenfeld","3.3.11","0","z","NA","NA","NA","NA","space","z","1135","NA","NA","NA","NA","41923","1135","2","legacy","1024","2","48000","-16","AB_m21","241","odd","NW_S_SIMP","URNILT","1924","101213","98907","95492","43857","NA","NA","NA","NA","NA","99408","NA","NA","NA","98405","NA","98375","1933","101613","NA","NA","NA","99449","1924","1924","NA","100585","100610","98375","99408","99428","morph21_Oliver/Morris","9","11473","13","yes","1920","5"
"350","64.28571428571429","64.28571428571429","905.2142857142857","905.2142857142857","black","no","xpyriment","legacy","legacy","0","206","NA","uniform","NA","NA","NA","0","undefined","0","0","13","13","13","0","13","13","13","NA","0","13","NA","NA","0","13","NA","13","0","13","NA","NA","NA","13","0","0","NA","13","13","13","13","13","14","z","Thu Apr  4 13:39:36 2024","The main experiment item","yes","m21-ab-lexicalDecision.osexp","C:\Users\ekealey\Desktop","no","mono","no","18","no","white","no","yes","1080","legacy","13","13","C:/Users/ekealey/Desktop/subject-241.csv","xpyriment","Lentiform Loewenfeld","3.3.11","0","None","NA","NA","NA","NA","space","None","1200","NA","NA","NA","NA","41923","1200","2","legacy","1024","2","48000","-16","AB_m21","241","odd","NW_L_SIMP","WITCHITH","1924","105565","103197","95492","43857","NA","NA","NA","NA","NA","103698","NA","NA","NA","102695","NA","102671","1933","105915","NA","NA","NA","103738","1924","1924","NA","104938","104961","102671","103698","103718","morph21_Oliver/Morris","9","12673","14","yes","1920","11"
"350","60","60","924.8666666666667","924.8666666666667","black","no","xpyriment","legacy","legacy","0","206","NA","uniform","NA","NA","NA","0","undefined","0","0","14","14","14","0","14","14","14","NA","0","14","NA","NA","0","14","NA","14","0","14","NA","NA","NA","14","0","0","NA","14","14","14","14","14","15","z","Thu Apr  4 13:39:36 2024","The main experiment item","yes","m21-ab-lexicalDecision.osexp","C:\Users\ekealey\Desktop","no","mono","no","18","no","white","no","yes","1080","legacy","14","14","C:/Users/ekealey/Desktop/subject-241.csv","xpyriment","Lentiform Loewenfeld","3.3.11","0","None","NA","NA","NA","NA","space","None","1200","NA","NA","NA","NA","41923","1200","2","legacy","1024","2","48000","-16","AB_m21","241","odd","NW_L_SIMP","WIGITH","1924","111352","107477","109847","43857","NA","NA","NA","NA","NA","107978","NA","NA","NA","106974","NA","106949","1933","111702","NA","NA","NA","108019","1924","1924","NA","109219","109243","106949","107978","107999","morph21_Oliver/Morris","9","13873","15","yes","1920","9"
"400","56.25","56.25","942.0625","942.0625","black","no","xpyriment","legacy","legacy","0","208","NA","uniform","NA","NA","NA","0","undefined","0","0","15","15","15","0","15","15","15","NA","0","15","NA","NA","0","15","NA","15","0","15","NA","NA","NA","15","0","0","NA","15","15","15","15","15","16","z","Thu Apr  4 13:39:36 2024","The main experiment item","yes","m21-ab-lexicalDecision.osexp","C:\Users\ekealey\Desktop","no","mono","no","18","no","white","no","yes","1080","legacy","15","15","C:/Users/ekealey/Desktop/subject-241.csv","xpyriment","Lentiform Loewenfeld","3.3.11","0","None","NA","NA","NA","NA","space","None","1200","NA","NA","NA","NA","41923","1200","2","legacy","1024","2","48000","-16","AB_m21","241","odd","FILL_NW","DROES","1924","115648","113279","109847","43857","NA","NA","NA","NA","NA","113780","NA","NA","NA","112779","NA","112749","1933","116048","NA","NA","NA","113820","1924","1924","NA","115020","115044","112749","113780","113800","morph21_Oliver/Morris","9","15073","16","yes","1920","17"
"350","58.8235294117647","58.8235294117647","923.6470588235294","923.6470588235294","black","no","xpyriment","legacy","legacy","0","202","NA","uniform","NA","NA","NA","1","undefined","1","0","16","16","16","0","16","16","16","NA","0","16","NA","NA","0","16","NA","16","0","16","NA","NA","NA","16","0","0","NA","16","16","16","16","16","17","/","Thu Apr  4 13:39:36 2024","The main experiment item","yes","m21-ab-lexicalDecision.osexp","C:\Users\ekealey\Desktop","no","mono","no","18","no","white","no","yes","1080","legacy","16","16","C:/Users/ekealey/Desktop/subject-241.csv","xpyriment","Lentiform Loewenfeld","3.3.11","0","/","NA","NA","NA","NA","space","/","629","NA","NA","NA","NA","41923","629","2","legacy","1024","2","48000","-16","AB_m21","241","odd","CW_L","PARKING","1924","119397","117599","109847","43857","NA","NA","NA","NA","NA","118099","NA","NA","NA","117099","NA","117072","1933","119747","NA","NA","NA","118139","1924","1924","NA","118769","118793","117072","118099","118119","morph21_Oliver/Morris","10","15702","17","yes","1920","25"
"400","61.111111111111114","61.111111111111114","908.1111111111111","908.1111111111111","black","no","xpyriment","legacy","legacy","0","202","NA","uniform","NA","NA","NA","1","undefined","1","0","17","17","17","0","17","17","17","NA","0","17","NA","NA","0","17","NA","17","0","17","NA","NA","NA","17","0","0","NA","17","17","17","17","17","18","/","Thu Apr  4 13:39:36 2024","The main experiment item","yes","m21-ab-lexicalDecision.osexp","C:\Users\ekealey\Desktop","no","mono","no","18","no","white","no","yes","1080","legacy","17","17","C:/Users/ekealey/Desktop/subject-241.csv","xpyriment","Lentiform Loewenfeld","3.3.11","0","/","NA","NA","NA","NA","space","/","644","NA","NA","NA","NA","41923","644","2","legacy","1024","2","48000","-16","AB_m21","241","odd","CW_L","DRYNESS","1924","124645","121326","123141","43857","NA","NA","NA","NA","NA","121826","NA","NA","NA","120825","NA","120795","1933","125045","NA","NA","NA","121868","1924","1924","NA","122513","122536","120795","121826","121847","morph21_Oliver/Morris","11","16346","18","yes","1920","42"
"400","63.1578947368421","63.1578947368421","899.3684210526316","899.3684210526316","black","no","xpyriment","legacy","legacy","0","206","NA","uniform","NA","NA","NA","1","undefined","1","0","18","18","18","0","18","18","18","NA","0","18","NA","NA","0","18","NA","18","0","18","NA","NA","NA","18","0","0","NA","18","18","18","18","18","19","z","Thu Apr  4 13:39:36 2024","The main experiment item","yes","m21-ab-lexicalDecision.osexp","C:\Users\ekealey\Desktop","no","mono","no","18","no","white","no","yes","1080","legacy","18","18","C:/Users/ekealey/Desktop/subject-241.csv","xpyriment","Lentiform Loewenfeld","3.3.11","0","z","NA","NA","NA","NA","space","z","742","NA","NA","NA","NA","41923","742","2","legacy","1024","2","48000","-16","AB_m21","241","odd","NW_L_SIMP","BOGADY","1924","128532","126619","123141","43857","NA","NA","NA","NA","NA","127120","NA","NA","NA","126117","NA","126084","1933","128932","NA","NA","NA","127162","1924","1924","NA","127905","127929","126084","127120","127141","morph21_Oliver/Morris","12","17088","19","yes","1920","2"
"250","65","65","882","882","black","no","xpyriment","legacy","legacy","0","202","NA","uniform","NA","NA","NA","1","undefined","1","0","19","19","19","0","19","19","19","NA","0","19","NA","NA","0","19","NA","19","0","19","NA","NA","NA","19","0","0","NA","19","19","19","19","19","20","/","Thu Apr  4 13:39:36 2024","The main experiment item","yes","m21-ab-lexicalDecision.osexp","C:\Users\ekealey\Desktop","no","mono","no","18","no","white","no","yes","1080","legacy","19","19","C:/Users/ekealey/Desktop/subject-241.csv","xpyriment","Lentiform Loewenfeld","3.3.11","0","/","NA","NA","NA","NA","space","/","552","NA","NA","NA","NA","41923","552","2","legacy","1024","2","48000","-16","AB_m21","241","odd","CW_L","DREAMER","1924","132204","130483","123141","43857","NA","NA","NA","NA","NA","130984","NA","NA","NA","129981","NA","129953","1933","132454","NA","NA","NA","131024","1924","1924","NA","131576","131600","129953","130983","131004","morph21_Oliver/Morris","13","17640","20","yes","1920","12"
"350","66.66666666666667","66.66666666666667","871.952380952381","871.952380952381","black","no","xpyriment","legacy","legacy","0","207","NA","uniform","NA","NA","NA","1","undefined","1","0","20","20","20","0","20","20","20","NA","0","20","NA","NA","0","20","NA","20","0","20","NA","NA","NA","20","0","0","NA","20","20","20","20","20","21","/","Thu Apr  4 13:39:36 2024","The main experiment item","yes","m21-ab-lexicalDecision.osexp","C:\Users\ekealey\Desktop","no","mono","no","18","no","white","no","yes","1080","legacy","20","20","C:/Users/ekealey/Desktop/subject-241.csv","xpyriment","Lentiform Loewenfeld","3.3.11","0","/","NA","NA","NA","NA","space","/","671","NA","NA","NA","NA","41923","671","2","legacy","1024","2","48000","-16","AB_m21","241","odd","FILL_W","BRISK","1924","137339","133994","135834","43857","NA","NA","NA","NA","NA","134494","NA","NA","NA","133494","NA","133461","1933","137689","NA","NA","NA","134536","1924","1924","NA","135208","135231","133461","134494","134516","morph21_Oliver/Morris","14","18311","21","yes","1920","8"
"200","68.18181818181819","68.18181818181819","863.5","863.5","black","no","xpyriment","legacy","legacy","0","208","NA","uniform","NA","NA","NA","1","undefined","1","0","21","21","21","0","21","21","21","NA","0","21","NA","NA","0","21","NA","21","0","21","NA","NA","NA","21","0","0","NA","21","21","21","21","21","22","z","Thu Apr  4 13:39:36 2024","The main experiment item","yes","m21-ab-lexicalDecision.osexp","C:\Users\ekealey\Desktop","no","mono","no","18","no","white","no","yes","1080","legacy","21","21","C:/Users/ekealey/Desktop/subject-241.csv","xpyriment","Lentiform Loewenfeld","3.3.11","0","z","NA","NA","NA","NA","space","z","686","NA","NA","NA","NA","41923","686","2","legacy","1024","2","48000","-16","AB_m21","241","odd","FILL_NW","PUCTS","1924","141125","139269","135834","43857","NA","NA","NA","NA","NA","139770","NA","NA","NA","138768","NA","138738","1933","141325","NA","NA","NA","139810","1924","1924","NA","140496","140522","138738","139769","139790","morph21_Oliver/Morris","15","18997","22","yes","1920","40"
"200","69.56521739130434","69.56521739130434","862.4347826086956","862.4347826086956","black","no","xpyriment","legacy","legacy","0","208","NA","uniform","NA","NA","NA","1","undefined","1","0","22","22","22","0","22","22","22","NA","0","22","NA","NA","0","22","NA","22","0","22","NA","NA","NA","22","0","0","NA","22","22","22","22","22","23","z","Thu Apr  4 13:39:36 2024","The main experiment item","yes","m21-ab-lexicalDecision.osexp","C:\Users\ekealey\Desktop","no","mono","no","18","no","white","no","yes","1080","legacy","22","22","C:/Users/ekealey/Desktop/subject-241.csv","xpyriment","Lentiform Loewenfeld","3.3.11","0","z","NA","NA","NA","NA","space","z","839","NA","NA","NA","NA","41923","839","2","legacy","1024","2","48000","-16","AB_m21","241","odd","FILL_NW","BROUPS","1924","144891","142882","135834","43857","NA","NA","NA","NA","NA","143383","NA","NA","NA","142382","NA","142356","1933","145091","NA","NA","NA","143424","1924","1924","NA","144264","144288","142356","143383","143404","morph21_Oliver/Morris","16","19836","23","yes","1920","4"
"200","70.83333333333333","70.83333333333333","861.8333333333334","861.8333333333334","black","no","xpyriment","legacy","legacy","0","208","NA","uniform","NA","NA","NA","1","undefined","1","0","23","23","23","0","23","23","23","NA","0","23","NA","NA","0","23","NA","23","0","23","NA","NA","NA","23","0","0","NA","23","23","23","23","23","24","z","Thu Apr  4 13:39:36 2024","The main experiment item","yes","m21-ab-lexicalDecision.osexp","C:\Users\ekealey\Desktop","no","mono","no","18","no","white","no","yes","1080","legacy","23","23","C:/Users/ekealey/Desktop/subject-241.csv","xpyriment","Lentiform Loewenfeld","3.3.11","0","z","NA","NA","NA","NA","space","z","848","NA","NA","NA","NA","41923","848","2","legacy","1024","2","48000","-16","AB_m21","241","odd","FILL_NW","FROT","1924","150164","146642","148659","43857","NA","NA","NA","NA","NA","147144","NA","NA","NA","146141","NA","146116","1933","150364","NA","NA","NA","147184","1924","1924","NA","148032","148056","146116","147144","147164","morph21_Oliver/Morris","17","20684","24","yes","1920","22"
"300","72","72","857.56","857.56","black","no","xpyriment","legacy","legacy","0","206","NA","uniform","NA","NA","NA","1","undefined","1","0","24","24","24","0","24","24","24","NA","0","24","NA","NA","0","24","NA","24","0","24","NA","NA","NA","24","0","0","NA","24","24","24","24","24","25","z","Thu Apr  4 13:39:36 2024","The main experiment item","yes","m21-ab-lexicalDecision.osexp","C:\Users\ekealey\Desktop","no","mono","no","18","no","white","no","yes","1080","legacy","24","24","C:/Users/ekealey/Desktop/subject-241.csv","xpyriment","Lentiform Loewenfeld","3.3.11","0","z","NA","NA","NA","NA","space","z","755","NA","NA","NA","NA","41923","755","2","legacy","1024","2","48000","-16","AB_m21","241","odd","NW_L_SIMP","BEGENGE","1924","153852","151927","148659","43857","NA","NA","NA","NA","NA","152427","NA","NA","NA","151426","NA","151394","1933","154152","NA","NA","NA","152468","1924","1924","NA","153224","153249","151394","152427","152448","morph21_Oliver/Morris","18","21439","25","yes","1920","4"
"250","73.07692307692308","73.07692307692308","864.2307692307693","864.2307692307693","black","no","xpyriment","legacy","legacy","0","206","NA","uniform","NA","NA","NA","1","undefined","1","0","25","25","25","0","25","25","25","NA","0","25","NA","NA","0","25","NA","25","0","25","NA","NA","NA","25","0","0","NA","25","25","25","25","25","26","z","Thu Apr  4 13:39:36 2024","The main experiment item","yes","m21-ab-lexicalDecision.osexp","C:\Users\ekealey\Desktop","no","mono","no","18","no","white","no","yes","1080","legacy","25","25","C:/Users/ekealey/Desktop/subject-241.csv","xpyriment","Lentiform Loewenfeld","3.3.11","0","z","NA","NA","NA","NA","space","z","1031","NA","NA","NA","NA","41923","1031","2","legacy","1024","2","48000","-16","AB_m21","241","odd","NW_L_SIMP","SHOOTMANT","1924","157955","155756","148659","43857","NA","NA","NA","NA","NA","156256","NA","NA","NA","155256","NA","155228","1933","158205","NA","NA","NA","156297","1924","1924","NA","157328","157352","155228","156256","156277","morph21_Oliver/Morris","19","22470","26","yes","1920","16"
"200","74.07407407407408","74.07407407407408","866.1111111111111","866.1111111111111","black","no","xpyriment","legacy","legacy","0","202","NA","uniform","NA","NA","NA","1","undefined","1","0","26","26","26","0","26","26","26","NA","0","26","NA","NA","0","26","NA","26","0","26","NA","NA","NA","26","0","0","NA","26","26","26","26","26","27","/","Thu Apr  4 13:39:36 2024","The main experiment item","yes","m21-ab-lexicalDecision.osexp","C:\Users\ekealey\Desktop","no","mono","no","18","no","white","no","yes","1080","legacy","26","26","C:/Users/ekealey/Desktop/subject-241.csv","xpyriment","Lentiform Loewenfeld","3.3.11","0","/","NA","NA","NA","NA","space","/","915","NA","NA","NA","NA","41923","915","2","legacy","1024","2","48000","-16","AB_m21","241","odd","CW_L","BOOTLESS","1924","163357","159769","161852","43857","NA","NA","NA","NA","NA","160269","NA","NA","NA","159269","NA","159244","1933","163557","NA","NA","NA","160309","1924","1924","NA","161224","161249","159244","160269","160289","morph21_Oliver/Morris","20","23385","27","yes","1920","32"
"300","75","75","868.3571428571429","868.3571428571429","black","no","xpyriment","legacy","legacy","0","204","NA","uniform","NA","NA","NA","1","undefined","1","0","27","27","27","0","27","27","27","NA","0","27","NA","NA","0","27","NA","27","0","27","NA","NA","NA","27","0","0","NA","27","27","27","27","27","28","z","Thu Apr  4 13:39:36 2024","The main experiment item","yes","m21-ab-lexicalDecision.osexp","C:\Users\ekealey\Desktop","no","mono","no","18","no","white","no","yes","1080","legacy","27","27","C:/Users/ekealey/Desktop/subject-241.csv","xpyriment","Lentiform Loewenfeld","3.3.11","0","z","NA","NA","NA","NA","space","z","929","NA","NA","NA","NA","41923","929","2","legacy","1024","2","48000","-16","AB_m21","241","odd","NW_L_COMP","BINDIC","1924","167250","165153","161852","43857","NA","NA","NA","NA","NA","165653","NA","NA","NA","164653","NA","164624","1933","167550","NA","NA","NA","165694","1924","1924","NA","166624","166647","164624","165653","165674","morph21_Oliver/Morris","21","24314","28","yes","1920","22"
"300","75.86206896551724","75.86206896551724","865.9310344827586","865.9310344827586","black","no","xpyriment","legacy","legacy","0","208","NA","uniform","NA","NA","NA","1","undefined","1","0","28","28","28","0","28","28","28","NA","0","28","NA","NA","0","28","NA","28","0","28","NA","NA","NA","28","0","0","NA","28","28","28","28","28","29","z","Thu Apr  4 13:39:36 2024","The main experiment item","yes","m21-ab-lexicalDecision.osexp","C:\Users\ekealey\Desktop","no","mono","no","18","no","white","no","yes","1080","legacy","28","28","C:/Users/ekealey/Desktop/subject-241.csv","xpyriment","Lentiform Loewenfeld","3.3.11","0","z","NA","NA","NA","NA","space","z","798","NA","NA","NA","NA","41923","798","2","legacy","1024","2","48000","-16","AB_m21","241","odd","FILL_NW","VOGS","1924","171077","169107","161852","43857","NA","NA","NA","NA","NA","169609","NA","NA","NA","168605","NA","168579","1933","171378","NA","NA","NA","169650","1924","1924","NA","170449","170474","168579","169609","169629","morph21_Oliver/Morris","22","25112","29","yes","1920","47"
"300","76.66666666666667","76.66666666666667","861.6666666666666","861.6666666666666","black","no","xpyriment","legacy","legacy","0","201","NA","uniform","NA","NA","NA","1","undefined","1","0","29","29","29","0","29","29","29","NA","0","29","NA","NA","0","29","NA","29","0","29","NA","NA","NA","29","0","0","NA","29","29","29","29","29","30","/","Thu Apr  4 13:39:36 2024","The main experiment item","yes","m21-ab-lexicalDecision.osexp","C:\Users\ekealey\Desktop","no","mono","no","18","no","white","no","yes","1080","legacy","29","29","C:/Users/ekealey/Desktop/subject-241.csv","xpyriment","Lentiform Loewenfeld","3.3.11","0","/","NA","NA","NA","NA","space","/","738","NA","NA","NA","NA","41923","738","2","legacy","1024","2","48000","-16","AB_m21","241","odd","CW_S","DETECTABLE","1924","176339","172929","174835","43857","NA","NA","NA","NA","NA","173429","NA","NA","NA","172428","NA","172395","1933","176640","NA","NA","NA","173470","1924","1924","NA","174209","174232","172395","173429","173450","morph21_Oliver/Morris","23","25850","30","yes","1920","1"
"200","77.41935483870968","77.41935483870968","855.5483870967741","855.5483870967741","black","no","xpyriment","legacy","legacy","0","208","NA","uniform","NA","NA","NA","1","undefined","1","0","30","30","30","0","30","30","30","NA","0","30","NA","NA","0","30","NA","30","0","30","NA","NA","NA","30","0","0","NA","30","30","30","30","30","31","z","Thu Apr  4 13:39:36 2024","The main experiment item","yes","m21-ab-lexicalDecision.osexp","C:\Users\ekealey\Desktop","no","mono","no","18","no","white","no","yes","1080","legacy","30","30","C:/Users/ekealey/Desktop/subject-241.csv","xpyriment","Lentiform Loewenfeld","3.3.11","0","z","NA","NA","NA","NA","space","z","672","NA","NA","NA","NA","41923","672","2","legacy","1024","2","48000","-16","AB_m21","241","odd","FILL_NW","DARM","1924","180020","178177","174835","43857","NA","NA","NA","NA","NA","178679","NA","NA","NA","177676","NA","177647","1933","180220","NA","NA","NA","178720","1924","1924","NA","179392","179417","177647","178679","178700","morph21_Oliver/Morris","24","26522","31","yes","1920","11"
"200","78.125","78.125","857.21875","857.21875","black","no","xpyriment","legacy","legacy","0","206","NA","uniform","NA","NA","NA","1","undefined","1","0","31","31","31","0","31","31","31","NA","0","31","NA","NA","0","31","NA","31","0","31","NA","NA","NA","31","0","0","NA","31","31","31","31","31","32","z","Thu Apr  4 13:39:36 2024","The main experiment item","yes","m21-ab-lexicalDecision.osexp","C:\Users\ekealey\Desktop","no","mono","no","18","no","white","no","yes","1080","legacy","31","31","C:/Users/ekealey/Desktop/subject-241.csv","xpyriment","Lentiform Loewenfeld","3.3.11","0","z","NA","NA","NA","NA","space","z","909","NA","NA","NA","NA","41923","909","2","legacy","1024","2","48000","-16","AB_m21","241","odd","NW_L_SIMP","TOWERLA","1924","183846","181766","174835","43857","NA","NA","NA","NA","NA","182267","NA","NA","NA","181266","NA","181240","1933","184046","NA","NA","NA","182307","1924","1924","NA","183216","183242","181239","182267","182287","morph21_Oliver/Morris","25","27431","32","yes","1920","15"
"300","78.78787878787878","78.78787878787878","851.2424242424242","851.2424242424242","black","no","xpyriment","legacy","legacy","0","202","NA","uniform","NA","NA","NA","1","undefined","1","0","32","32","32","0","32","32","32","NA","0","32","NA","NA","0","32","NA","32","0","32","NA","NA","NA","32","0","0","NA","32","32","32","32","32","33","/","Thu Apr  4 13:39:36 2024","The main experiment item","yes","m21-ab-lexicalDecision.osexp","C:\Users\ekealey\Desktop","no","mono","no","18","no","white","no","yes","1080","legacy","32","32","C:/Users/ekealey/Desktop/subject-241.csv","xpyriment","Lentiform Loewenfeld","3.3.11","0","/","NA","NA","NA","NA","space","/","660","NA","NA","NA","NA","41923","660","2","legacy","1024","2","48000","-16","AB_m21","241","odd","CW_L","PROFESSOR","1924","188941","185606","187438","43857","NA","NA","NA","NA","NA","186108","NA","NA","NA","185105","NA","185080","1933","189241","NA","NA","NA","186148","1924","1924","NA","186808","186833","185080","186108","186128","morph21_Oliver/Morris","26","28091","33","yes","1920","47"
"400","79.41176470588235","79.41176470588235","853.8823529411765","853.8823529411765","black","no","xpyriment","legacy","legacy","0","206","NA","uniform","NA","NA","NA","1","undefined","1","0","33","33","33","0","33","33","33","NA","0","33","NA","NA","0","33","NA","33","0","33","NA","NA","NA","33","0","0","NA","33","33","33","33","33","34","z","Thu Apr  4 13:39:36 2024","The main experiment item","yes","m21-ab-lexicalDecision.osexp","C:\Users\ekealey\Desktop","no","mono","no","18","no","white","no","yes","1080","legacy","33","33","C:/Users/ekealey/Desktop/subject-241.csv","xpyriment","Lentiform Loewenfeld","3.3.11","0","z","NA","NA","NA","NA","space","z","941","NA","NA","NA","NA","41923","941","2","legacy","1024","2","48000","-16","AB_m21","241","odd","NW_L_SIMP","CLASSOES","1924","192922","190811","187438","43857","NA","NA","NA","NA","NA","191311","NA","NA","NA","190311","NA","190280","1933","193322","NA","NA","NA","191354","1924","1924","NA","192296","192319","190280","191311","191332","morph21_Oliver/Morris","27","29032","34","yes","1920","18"
"250","77.14285714285714","77.14285714285714","863.7714285714286","863.7714285714286","black","no","xpyriment","legacy","legacy","0","208","NA","uniform","NA","NA","NA","0","undefined","0","0","34","34","34","0","34","34","34","NA","0","34","NA","NA","0","34","NA","34","0","34","NA","NA","NA","34","0","0","NA","34","34","34","34","34","35","z","Thu Apr  4 13:39:36 2024","The main experiment item","yes","m21-ab-lexicalDecision.osexp","C:\Users\ekealey\Desktop","no","mono","no","18","no","white","no","yes","1080","legacy","34","34","C:/Users/ekealey/Desktop/subject-241.csv","xpyriment","Lentiform Loewenfeld","3.3.11","0","None","NA","NA","NA","NA","space","None","1200","NA","NA","NA","NA","41923","1200","2","legacy","1024","2","48000","-16","AB_m21","241","odd","FILL_NW","PIFTH","1924","197260","194892","187438","43857","NA","NA","NA","NA","NA","195393","NA","NA","NA","194392","NA","194364","1933","197510","NA","NA","NA","195433","1924","1924","NA","196633","196657","194364","195393","195413","morph21_Oliver/Morris","27","30232","35","yes","1920","36"
"300","77.77777777777777","77.77777777777777","870.3055555555555","870.3055555555555","black","no","xpyriment","legacy","legacy","0","202","NA","uniform","NA","NA","NA","1","undefined","1","0","35","35","35","0","35","35","35","NA","0","35","NA","NA","0","35","NA","35","0","35","NA","NA","NA","35","0","0","NA","35","35","35","35","35","36","/","Thu Apr  4 13:39:36 2024","The main experiment item","yes","m21-ab-lexicalDecision.osexp","C:\Users\ekealey\Desktop","no","mono","no","18","no","white","no","yes","1080","legacy","35","35","C:/Users/ekealey/Desktop/subject-241.csv","xpyriment","Lentiform Loewenfeld","3.3.11","0","/","NA","NA","NA","NA","space","/","1099","NA","NA","NA","NA","41923","1099","2","legacy","1024","2","48000","-16","AB_m21","241","odd","CW_L","DAMPISH","1924","202828","199056","201323","43857","NA","NA","NA","NA","NA","199556","NA","NA","NA","198556","NA","198529","1933","203128","NA","NA","NA","199597","1924","1924","NA","200696","200720","198529","199556","199577","morph21_Oliver/Morris","28","31331","36","yes","1920","28"
"400","78.37837837837837","78.37837837837837","863.1891891891892","863.1891891891892","black","no","xpyriment","legacy","legacy","0","208","NA","uniform","NA","NA","NA","1","undefined","1","0","36","36","36","0","36","36","36","NA","0","36","NA","NA","0","36","NA","36","0","36","NA","NA","NA","36","0","0","NA","36","36","36","36","36","37","z","Thu Apr  4 13:39:36 2024","The main experiment item","yes","m21-ab-lexicalDecision.osexp","C:\Users\ekealey\Desktop","no","mono","no","18","no","white","no","yes","1080","legacy","36","36","C:/Users/ekealey/Desktop/subject-241.csv","xpyriment","Lentiform Loewenfeld","3.3.11","0","z","NA","NA","NA","NA","space","z","607","NA","NA","NA","NA","41923","607","2","legacy","1024","2","48000","-16","AB_m21","241","odd","FILL_NW","BUTE","1924","206510","204732","201323","43857","NA","NA","NA","NA","NA","205232","NA","NA","NA","204231","NA","204205","1933","206910","NA","NA","NA","205273","1924","1924","NA","205880","205905","204205","205232","205253","morph21_Oliver/Morris","29","31938","37","yes","1920","5"
"250","78.94736842105263","78.94736842105263","859.4736842105264","859.4736842105264","black","no","xpyriment","legacy","legacy","0","201","NA","uniform","NA","NA","NA","1","undefined","1","0","37","37","37","0","37","37","37","NA","0","37","NA","NA","0","37","NA","37","0","37","NA","NA","NA","37","0","0","NA","37","37","37","37","37","38","/","Thu Apr  4 13:39:36 2024","The main experiment item","yes","m21-ab-lexicalDecision.osexp","C:\Users\ekealey\Desktop","no","mono","no","18","no","white","no","yes","1080","legacy","37","37","C:/Users/ekealey/Desktop/subject-241.csv","xpyriment","Lentiform Loewenfeld","3.3.11","0","/","NA","NA","NA","NA","space","/","722","NA","NA","NA","NA","41923","722","2","legacy","1024","2","48000","-16","AB_m21","241","odd","CW_S","COSTLY","1924","210356","208465","201323","43857","NA","NA","NA","NA","NA","208966","NA","NA","NA","207965","NA","207937","1933","210606","NA","NA","NA","209006","1924","1924","NA","209728","209753","207937","208965","208986","morph21_Oliver/Morris","30","32660","38","yes","1920","36"
"400","79.48717948717949","79.48717948717949","865.0512820512821","865.0512820512821","black","no","xpyriment","legacy","legacy","0","208","NA","uniform","NA","NA","NA","1","undefined","1","0","38","38","38","0","38","38","38","NA","0","38","NA","NA","0","38","NA","38","0","38","NA","NA","NA","38","0","0","NA","38","38","38","38","38","39","z","Thu Apr  4 13:39:36 2024","The main experiment item","yes","m21-ab-lexicalDecision.osexp","C:\Users\ekealey\Desktop","no","mono","no","18","no","white","no","yes","1080","legacy","38","38","C:/Users/ekealey/Desktop/subject-241.csv","xpyriment","Lentiform Loewenfeld","3.3.11","0","z","NA","NA","NA","NA","space","z","1077","NA","NA","NA","NA","41923","1077","2","legacy","1024","2","48000","-16","AB_m21","241","odd","FILL_NW","HEND","1924","215957","212204","214452","43857","NA","NA","NA","NA","NA","212706","NA","NA","NA","211703","NA","211676","1933","216357","NA","NA","NA","212747","1924","1924","NA","213824","213849","211676","212706","212727","morph21_Oliver/Morris","31","33737","39","yes","1920","28"
"350","80","80","856.625","856.625","black","no","xpyriment","legacy","legacy","0","201","NA","uniform","NA","NA","NA","1","undefined","1","0","39","39","39","0","39","39","39","NA","0","39","NA","NA","0","39","NA","39","0","39","NA","NA","NA","39","0","0","NA","39","39","39","39","39","40","/","Thu Apr  4 13:39:36 2024","The main experiment item","yes","m21-ab-lexicalDecision.osexp","C:\Users\ekealey\Desktop","no","mono","no","18","no","white","no","yes","1080","legacy","39","39","C:/Users/ekealey/Desktop/subject-241.csv","xpyriment","Lentiform Loewenfeld","3.3.11","0","/","NA","NA","NA","NA","space","/","528","NA","NA","NA","NA","41923","528","2","legacy","1024","2","48000","-16","AB_m21","241","odd","CW_S","SINGER","1924","219636","217937","214452","43857","NA","NA","NA","NA","NA","218438","NA","NA","NA","217436","NA","217406","1933","219986","NA","NA","NA","218479","1924","1924","NA","219008","219032","217406","218438","218459","morph21_Oliver/Morris","32","34265","40","yes","1920","17"
"250","80.48780487804878","80.48780487804878","855.2439024390244","855.2439024390244","black","no","xpyriment","legacy","legacy","0","201","NA","uniform","NA","NA","NA","1","undefined","1","0","40","40","40","0","40","40","40","NA","0","40","NA","NA","0","40","NA","40","0","40","NA","NA","NA","40","0","0","NA","40","40","40","40","40","41","/","Thu Apr  4 13:39:36 2024","The main experiment item","yes","m21-ab-lexicalDecision.osexp","C:\Users\ekealey\Desktop","no","mono","no","18","no","white","no","yes","1080","legacy","40","40","C:/Users/ekealey/Desktop/subject-241.csv","xpyriment","Lentiform Loewenfeld","3.3.11","0","/","NA","NA","NA","NA","space","/","800","NA","NA","NA","NA","41923","800","2","legacy","1024","2","48000","-16","AB_m21","241","odd","CW_S","TOSSING","1924","223564","221594","214452","43857","NA","NA","NA","NA","NA","222094","NA","NA","NA","221094","NA","221066","1933","223814","NA","NA","NA","222135","1924","1924","NA","222936","222960","221066","222094","222115","morph21_Oliver/Morris","33","35065","41","yes","1920","26"
"300","80.95238095238095","80.95238095238095","857.8333333333334","857.8333333333334","black","no","xpyriment","legacy","legacy","0","205","NA","uniform","NA","NA","NA","1","undefined","1","0","41","41","41","0","41","41","41","NA","0","41","NA","NA","0","41","NA","41","0","41","NA","NA","NA","41","0","0","NA","41","41","41","41","41","42","z","Thu Apr  4 13:39:36 2024","The main experiment item","yes","m21-ab-lexicalDecision.osexp","C:\Users\ekealey\Desktop","no","mono","no","18","no","white","no","yes","1080","legacy","41","41","C:/Users/ekealey/Desktop/subject-241.csv","xpyriment","Lentiform Loewenfeld","3.3.11","0","z","NA","NA","NA","NA","space","z","964","NA","NA","NA","NA","41923","964","2","legacy","1024","2","48000","-16","AB_m21","241","odd","NW_S_SIMP","HEIRIG","1924","229005","225365","227500","43857","NA","NA","NA","NA","NA","225866","NA","NA","NA","224865","NA","224835","1933","229305","NA","NA","NA","225907","1924","1924","NA","226872","226896","224835","225866","225887","morph21_Oliver/Morris","34","36029","42","yes","1920","3"
"250","79.06976744186046","79.06976744186046","865.7906976744187","865.7906976744187","black","no","xpyriment","legacy","legacy","0","204","NA","uniform","NA","NA","NA","0","undefined","0","0","42","42","42","0","42","42","42","NA","0","42","NA","NA","0","42","NA","42","0","42","NA","NA","NA","42","0","0","NA","42","42","42","42","42","43","z","Thu Apr  4 13:39:36 2024","The main experiment item","yes","m21-ab-lexicalDecision.osexp","C:\Users\ekealey\Desktop","no","mono","no","18","no","white","no","yes","1080","legacy","42","42","C:/Users/ekealey/Desktop/subject-241.csv","xpyriment","Lentiform Loewenfeld","3.3.11","0","None","NA","NA","NA","NA","space","None","1200","NA","NA","NA","NA","41923","1200","2","legacy","1024","2","48000","-16","AB_m21","241","odd","NW_L_COMP","FREENESS","1924","233286","230919","227500","43857","NA","NA","NA","NA","NA","231419","NA","NA","NA","230419","NA","230392","1933","233536","NA","NA","NA","231460","1924","1924","NA","232660","232683","230392","231419","231440","morph21_Oliver/Morris","34","37229","43","yes","1920","15"
"400","79.54545454545455","79.54545454545455","866.9545454545455","866.9545454545455","black","no","xpyriment","legacy","legacy","0","207","NA","uniform","NA","NA","NA","1","undefined","1","0","43","43","43","0","43","43","43","NA","0","43","NA","NA","0","43","NA","43","0","43","NA","NA","NA","43","0","0","NA","43","43","43","43","43","44","/","Thu Apr  4 13:39:36 2024","The main experiment item","yes","m21-ab-lexicalDecision.osexp","C:\Users\ekealey\Desktop","no","mono","no","18","no","white","no","yes","1080","legacy","43","43","C:/Users/ekealey/Desktop/subject-241.csv","xpyriment","Lentiform Loewenfeld","3.3.11","0","/","NA","NA","NA","NA","space","/","917","NA","NA","NA","NA","41923","917","2","legacy","1024","2","48000","-16","AB_m21","241","odd","FILL_W","CRUNCH","1924","237181","235093","227500","43857","NA","NA","NA","NA","NA","235593","NA","NA","NA","234593","NA","234562","1933","237581","NA","NA","NA","235634","1924","1924","NA","236552","236577","234562","235593","235614","morph21_Oliver/Morris","35","38146","44","yes","1920","20"
"200","80","80","870.2666666666667","870.2666666666667","black","no","xpyriment","legacy","legacy","0","204","NA","uniform","NA","NA","NA","1","undefined","1","0","44","44","44","0","44","44","44","NA","0","44","NA","NA","0","44","NA","44","0","44","NA","NA","NA","44","0","0","NA","44","44","44","44","44","45","z","Thu Apr  4 13:39:36 2024","The main experiment item","yes","m21-ab-lexicalDecision.osexp","C:\Users\ekealey\Desktop","no","mono","no","18","no","white","no","yes","1080","legacy","44","44","C:/Users/ekealey/Desktop/subject-241.csv","xpyriment","Lentiform Loewenfeld","3.3.11","0","z","NA","NA","NA","NA","space","z","1016","NA","NA","NA","NA","41923","1016","2","legacy","1024","2","48000","-16","AB_m21","241","odd","NW_L_COMP","FLIPORY","1924","242829","239137","241323","43857","NA","NA","NA","NA","NA","239638","NA","NA","NA","238636","NA","238610","1933","243029","NA","NA","NA","239679","1924","1924","NA","240696","240720","238610","239638","239659","morph21_Oliver/Morris","36","39162","45","yes","1920","16"
"350","80.43478260869566","80.43478260869566","874.3478260869565","874.3478260869565","black","no","xpyriment","legacy","legacy","0","203","NA","uniform","NA","NA","NA","1","undefined","1","0","45","45","45","0","45","45","45","NA","0","45","NA","NA","0","45","NA","45","0","45","NA","NA","NA","45","0","0","NA","45","45","45","45","45","46","z","Thu Apr  4 13:39:36 2024","The main experiment item","yes","m21-ab-lexicalDecision.osexp","C:\Users\ekealey\Desktop","no","mono","no","18","no","white","no","yes","1080","legacy","45","45","C:/Users/ekealey/Desktop/subject-241.csv","xpyriment","Lentiform Loewenfeld","3.3.11","0","z","NA","NA","NA","NA","space","z","1058","NA","NA","NA","NA","41923","1058","2","legacy","1024","2","48000","-16","AB_m21","241","odd","NW_S_COMP","HUMIDOUS","1924","246835","244607","241323","43857","NA","NA","NA","NA","NA","245108","NA","NA","NA","244106","NA","244081","1933","247185","NA","NA","NA","245149","1924","1924","NA","246208","246232","244081","245108","245129","morph21_Oliver/Morris","37","40220","46","yes","1920","25"
"350","78.72340425531915","78.72340425531915","881.2765957446809","881.2765957446809","black","no","xpyriment","legacy","legacy","0","202","NA","uniform","NA","NA","NA","0","undefined","0","0","46","46","46","0","46","46","46","NA","0","46","NA","NA","0","46","NA","46","0","46","NA","NA","NA","46","0","0","NA","46","46","46","46","46","47","/","Thu Apr  4 13:39:36 2024","The main experiment item","yes","m21-ab-lexicalDecision.osexp","C:\Users\ekealey\Desktop","no","mono","no","18","no","white","no","yes","1080","legacy","46","46","C:/Users/ekealey/Desktop/subject-241.csv","xpyriment","Lentiform Loewenfeld","3.3.11","0","None","NA","NA","NA","NA","space","None","1200","NA","NA","NA","NA","41923","1200","2","legacy","1024","2","48000","-16","AB_m21","241","odd","CW_L","GUILELESS","1924","251138","248769","241323","43857","NA","NA","NA","NA","NA","249269","NA","NA","NA","248269","NA","248242","1933","251489","NA","NA","NA","249310","1924","1924","NA","250510","250534","248242","249269","249290","morph21_Oliver/Morris","37","41420","47","yes","1920","31"
"350","79.16666666666667","79.16666666666667","875.375","875.375","black","no","xpyriment","legacy","legacy","0","207","NA","uniform","NA","NA","NA","1","undefined","1","0","47","47","47","0","47","47","47","NA","0","47","NA","NA","0","47","NA","47","0","47","NA","NA","NA","47","0","0","NA","47","47","47","47","47","48","/","Thu Apr  4 13:39:36 2024","The main experiment item","yes","m21-ab-lexicalDecision.osexp","C:\Users\ekealey\Desktop","no","mono","no","18","no","white","no","yes","1080","legacy","47","47","C:/Users/ekealey/Desktop/subject-241.csv","xpyriment","Lentiform Loewenfeld","3.3.11","0","/","NA","NA","NA","NA","space","/","598","NA","NA","NA","NA","41923","598","2","legacy","1024","2","48000","-16","AB_m21","241","odd","FILL_W","FAINT","1924","256329","253060","254826","43857","NA","NA","NA","NA","NA","253560","NA","NA","NA","252559","NA","252529","1933","256679","NA","NA","NA","253601","1924","1924","NA","254200","254223","252529","253560","253580","morph21_Oliver/Morris","38","42018","48","yes","1920","31"
"350","79.59183673469387","79.59183673469387","873.4081632653061","873.4081632653061","black","no","xpyriment","legacy","legacy","0","205","NA","uniform","NA","NA","NA","1","undefined","1","0","48","48","48","0","48","48","48","NA","0","48","NA","NA","0","48","NA","48","0","48","NA","NA","NA","48","0","0","NA","48","48","48","48","48","49","z","Thu Apr  4 13:39:36 2024","The main experiment item","yes","m21-ab-lexicalDecision.osexp","C:\Users\ekealey\Desktop","no","mono","no","18","no","white","no","yes","1080","legacy","48","48","C:/Users/ekealey/Desktop/subject-241.csv","xpyriment","Lentiform Loewenfeld","3.3.11","0","z","NA","NA","NA","NA","space","z","779","NA","NA","NA","NA","41923","779","2","legacy","1024","2","48000","-16","AB_m21","241","odd","NW_S_SIMP","BASKODY","1924","260205","258255","254826","43857","NA","NA","NA","NA","NA","258756","NA","NA","NA","257755","NA","257722","1933","260556","NA","NA","NA","258797","1924","1924","NA","259577","259601","257722","258756","258777","morph21_Oliver/Morris","39","42797","49","yes","1920","10"
"350","80","80","869.72","869.72","black","no","xpyriment","legacy","legacy","0","201","NA","uniform","NA","NA","NA","1","undefined","1","0","49","49","49","0","49","49","49","NA","0","49","NA","NA","0","49","NA","49","0","49","NA","NA","NA","49","0","0","NA","49","49","49","49","49","50","/","Thu Apr  4 13:39:36 2024","The main experiment item","yes","m21-ab-lexicalDecision.osexp","C:\Users\ekealey\Desktop","no","mono","no","18","no","white","no","yes","1080","legacy","49","49","C:/Users/ekealey/Desktop/subject-241.csv","xpyriment","Lentiform Loewenfeld","3.3.11","0","/","NA","NA","NA","NA","space","/","689","NA","NA","NA","NA","41923","689","2","legacy","1024","2","48000","-16","AB_m21","241","odd","CW_S","CHILLY","1924","263971","262113","254826","43857","NA","NA","NA","NA","NA","262613","NA","NA","NA","261612","NA","261582","1933","264321","NA","NA","NA","262654","1924","1924","NA","263344","263368","261582","262613","262634","morph21_Oliver/Morris","40","43486","50","yes","1920","48"
"200","80.3921568627451","80.3921568627451","866.5490196078431","866.5490196078431","black","no","xpyriment","legacy","legacy","0","208","NA","uniform","NA","NA","NA","1","undefined","1","0","50","50","50","0","50","50","50","NA","0","50","NA","NA","0","50","NA","50","0","50","NA","NA","NA","50","0","0","NA","50","50","50","50","50","51","z","Thu Apr  4 13:39:36 2024","The main experiment item","yes","m21-ab-lexicalDecision.osexp","C:\Users\ekealey\Desktop","no","mono","no","18","no","white","no","yes","1080","legacy","50","50","C:/Users/ekealey/Desktop/subject-241.csv","xpyriment","Lentiform Loewenfeld","3.3.11","0","z","NA","NA","NA","NA","space","z","708","NA","NA","NA","NA","41923","708","2","legacy","1024","2","48000","-16","AB_m21","241","odd","FILL_NW","CINDS","1924","269290","265909","267787","43857","NA","NA","NA","NA","NA","266410","NA","NA","NA","265407","NA","265383","1933","269490","NA","NA","NA","266452","1924","1924","NA","267160","267184","265383","266410","266431","morph21_Oliver/Morris","41","44194","51","yes","1920","6"
"300","80.76923076923077","80.76923076923077","861.4230769230769","861.4230769230769","black","no","xpyriment","legacy","legacy","0","207","NA","uniform","NA","NA","NA","1","undefined","1","0","51","51","51","0","51","51","51","NA","0","51","NA","NA","0","51","NA","51","0","51","NA","NA","NA","51","0","0","NA","51","51","51","51","51","52","/","Thu Apr  4 13:39:36 2024","The main experiment item","yes","m21-ab-lexicalDecision.osexp","C:\Users\ekealey\Desktop","no","mono","no","18","no","white","no","yes","1080","legacy","51","51","C:/Users/ekealey/Desktop/subject-241.csv","xpyriment","Lentiform Loewenfeld","3.3.11","0","/","NA","NA","NA","NA","space","/","600","NA","NA","NA","NA","41923","600","2","legacy","1024","2","48000","-16","AB_m21","241","odd","FILL_W","MOURN","1924","272829","271060","267787","43857","NA","NA","NA","NA","NA","271560","NA","NA","NA","270559","NA","270526","1933","273129","NA","NA","NA","271600","1924","1924","NA","272200","272225","270526","271560","271580","morph21_Oliver/Morris","42","44794","52","yes","1920","26"
"400","81.13207547169812","81.13207547169812","866.2830188679245","866.2830188679245","black","no","xpyriment","legacy","legacy","0","205","NA","uniform","NA","NA","NA","1","undefined","1","0","52","52","52","0","52","52","52","NA","0","52","NA","NA","0","52","NA","52","0","52","NA","NA","NA","52","0","0","NA","52","52","52","52","52","53","z","Thu Apr  4 13:39:36 2024","The main experiment item","yes","m21-ab-lexicalDecision.osexp","C:\Users\ekealey\Desktop","no","mono","no","18","no","white","no","yes","1080","legacy","52","52","C:/Users/ekealey/Desktop/subject-241.csv","xpyriment","Lentiform Loewenfeld","3.3.11","0","z","NA","NA","NA","NA","space","z","1119","NA","NA","NA","NA","41923","1119","2","legacy","1024","2","48000","-16","AB_m21","241","odd","NW_S_SIMP","MEDICALADY","1924","276963","274674","267787","43857","NA","NA","NA","NA","NA","275175","NA","NA","NA","274173","NA","274147","1933","277363","NA","NA","NA","275216","1924","1924","NA","276336","276360","274147","275175","275196","morph21_Oliver/Morris","43","45913","53","yes","1920","18"
"350","81.48148148148148","81.48148148148148","863.8148148148148","863.8148148148148","black","no","xpyriment","legacy","legacy","0","206","NA","uniform","NA","NA","NA","1","undefined","1","0","53","53","53","0","53","53","53","NA","0","53","NA","NA","0","53","NA","53","0","53","NA","NA","NA","53","0","0","NA","53","53","53","53","53","54","z","Thu Apr  4 13:39:36 2024","The main experiment item","yes","m21-ab-lexicalDecision.osexp","C:\Users\ekealey\Desktop","no","mono","no","18","no","white","no","yes","1080","legacy","53","53","C:/Users/ekealey/Desktop/subject-241.csv","xpyriment","Lentiform Loewenfeld","3.3.11","0","z","NA","NA","NA","NA","space","z","733","NA","NA","NA","NA","41923","733","2","legacy","1024","2","48000","-16","AB_m21","241","odd","NW_L_SIMP","HABITIG","1924","282322","278918","280819","43857","NA","NA","NA","NA","NA","279418","NA","NA","NA","278417","NA","278388","1933","282672","NA","NA","NA","279458","1924","1924","NA","280192","280216","278388","279418","279438","morph21_Oliver/Morris","44","46646","54","yes","1920","7"
"200","80","80","869.9272727272727","869.9272727272727","black","no","xpyriment","legacy","legacy","0","201","NA","uniform","NA","NA","NA","0","undefined","0","0","54","54","54","0","54","54","54","NA","0","54","NA","NA","0","54","NA","54","0","54","NA","NA","NA","54","0","0","NA","54","54","54","54","54","55","/","Thu Apr  4 13:39:36 2024","The main experiment item","yes","m21-ab-lexicalDecision.osexp","C:\Users\ekealey\Desktop","no","mono","no","18","no","white","no","yes","1080","legacy","54","54","C:/Users/ekealey/Desktop/subject-241.csv","xpyriment","Lentiform Loewenfeld","3.3.11","0","None","NA","NA","NA","NA","space","None","1200","NA","NA","NA","NA","41923","1200","2","legacy","1024","2","48000","-16","AB_m21","241","odd","CW_S","THRUSTER","1924","286636","284268","280819","43857","NA","NA","NA","NA","NA","284768","NA","NA","NA","283768","NA","283740","1933","286837","NA","NA","NA","284809","1924","1924","NA","286009","286033","283740","284768","284789","morph21_Oliver/Morris","44","47846","55","yes","1920","24"
"350","80.35714285714286","80.35714285714286","866.5714285714286","866.5714285714286","black","no","xpyriment","legacy","legacy","0","208","NA","uniform","NA","NA","NA","1","undefined","1","0","55","55","55","0","55","55","55","NA","0","55","NA","NA","0","55","NA","55","0","55","NA","NA","NA","55","0","0","NA","55","55","55","55","55","56","z","Thu Apr  4 13:39:36 2024","The main experiment item","yes","m21-ab-lexicalDecision.osexp","C:\Users\ekealey\Desktop","no","mono","no","18","no","white","no","yes","1080","legacy","55","55","C:/Users/ekealey/Desktop/subject-241.csv","xpyriment","Lentiform Loewenfeld","3.3.11","0","z","NA","NA","NA","NA","space","z","682","NA","NA","NA","NA","41923","682","2","legacy","1024","2","48000","-16","AB_m21","241","odd","FILL_NW","DARF","1924","290277","288424","280819","43857","NA","NA","NA","NA","NA","288924","NA","NA","NA","287923","NA","287896","1933","290627","NA","NA","NA","288965","1924","1924","NA","289648","289674","287896","288924","288945","morph21_Oliver/Morris","45","48528","56","yes","1920","10"
"400","80.70175438596492","80.70175438596492","864.0877192982456","864.0877192982456","black","no","xpyriment","legacy","legacy","0","201","NA","uniform","NA","NA","NA","1","undefined","1","0","56","56","56","0","56","56","56","NA","0","56","NA","NA","0","56","NA","56","0","56","NA","NA","NA","56","0","0","NA","56","56","56","56","56","57","/","Thu Apr  4 13:39:36 2024","The main experiment item","yes","m21-ab-lexicalDecision.osexp","C:\Users\ekealey\Desktop","no","mono","no","18","no","white","no","yes","1080","legacy","56","56","C:/Users/ekealey/Desktop/subject-241.csv","xpyriment","Lentiform Loewenfeld","3.3.11","0","/","NA","NA","NA","NA","space","/","725","NA","NA","NA","NA","41923","725","2","legacy","1024","2","48000","-16","AB_m21","241","odd","CW_S","DIETARY","1924","295612","292213","294108","43857","NA","NA","NA","NA","NA","292713","NA","NA","NA","291712","NA","291684","1933","296012","NA","NA","NA","292754","1924","1924","NA","293480","293504","291684","292713","292734","morph21_Oliver/Morris","46","49253","57","yes","1920","6"
"350","81.03448275862068","81.03448275862068","859.3620689655172","859.3620689655172","black","no","xpyriment","legacy","legacy","0","201","NA","uniform","NA","NA","NA","1","undefined","1","0","57","57","57","0","57","57","57","NA","0","57","NA","NA","0","57","NA","57","0","57","NA","NA","NA","57","0","0","NA","57","57","57","57","57","58","/","Thu Apr  4 13:39:36 2024","The main experiment item","yes","m21-ab-lexicalDecision.osexp","C:\Users\ekealey\Desktop","no","mono","no","18","no","white","no","yes","1080","legacy","57","57","C:/Users/ekealey/Desktop/subject-241.csv","xpyriment","Lentiform Loewenfeld","3.3.11","0","/","NA","NA","NA","NA","space","/","590","NA","NA","NA","NA","41923","590","2","legacy","1024","2","48000","-16","AB_m21","241","odd","CW_S","TEACHER","1924","299332","297573","294108","43857","NA","NA","NA","NA","NA","298073","NA","NA","NA","297071","NA","297042","1933","299682","NA","NA","NA","298114","1924","1924","NA","298705","298729","297042","298073","298094","morph21_Oliver/Morris","47","49843","58","yes","1920","23"
"400","81.35593220338983","81.35593220338983","853.9830508474577","853.9830508474577","black","no","xpyriment","legacy","legacy","0","202","NA","uniform","NA","NA","NA","1","undefined","1","0","58","58","58","0","58","58","58","NA","0","58","NA","NA","0","58","NA","58","0","58","NA","NA","NA","58","0","0","NA","58","58","58","58","58","59","/","Thu Apr  4 13:39:36 2024","The main experiment item","yes","m21-ab-lexicalDecision.osexp","C:\Users\ekealey\Desktop","no","mono","no","18","no","white","no","yes","1080","legacy","58","58","C:/Users/ekealey/Desktop/subject-241.csv","xpyriment","Lentiform Loewenfeld","3.3.11","0","/","NA","NA","NA","NA","space","/","542","NA","NA","NA","NA","41923","542","2","legacy","1024","2","48000","-16","AB_m21","241","odd","CW_L","CONDUCTOR","1924","302956","301243","294108","43857","NA","NA","NA","NA","NA","301744","NA","NA","NA","300742","NA","300717","1933","303356","NA","NA","NA","301785","1924","1924","NA","302327","302352","300717","301744","301765","morph21_Oliver/Morris","48","50385","59","yes","1920","44"
"400","81.66666666666667","81.66666666666667","848.6666666666666","848.6666666666666","black","no","xpyriment","legacy","legacy","0","201","NA","uniform","NA","NA","NA","1","undefined","1","0","59","59","59","0","59","59","59","NA","0","59","NA","NA","0","59","NA","59","0","59","NA","NA","NA","59","0","0","NA","59","59","59","59","59","60","/","Thu Apr  4 13:39:36 2024","The main experiment item","yes","m21-ab-lexicalDecision.osexp","C:\Users\ekealey\Desktop","no","mono","no","18","no","white","no","yes","1080","legacy","59","59","C:/Users/ekealey/Desktop/subject-241.csv","xpyriment","Lentiform Loewenfeld","3.3.11","0","/","NA","NA","NA","NA","space","/","535","NA","NA","NA","NA","41923","535","2","legacy","1024","2","48000","-16","AB_m21","241","odd","CW_S","WIDOWED","1924","308118","304907","306614","43857","NA","NA","NA","NA","NA","305408","NA","NA","NA","304406","NA","304381","1933","308518","NA","NA","NA","305449","1924","1924","NA","305984","306011","304381","305408","305429","morph21_Oliver/Morris","49","50920","60","yes","1920","7"
"200","81.9672131147541","81.9672131147541","854.360655737705","854.360655737705","black","no","xpyriment","legacy","legacy","0","205","NA","uniform","NA","NA","NA","1","undefined","1","0","60","60","60","0","60","60","60","NA","0","60","NA","NA","0","60","NA","60","0","60","NA","NA","NA","60","0","0","NA","60","60","60","60","60","61","z","Thu Apr  4 13:39:36 2024","The main experiment item","yes","m21-ab-lexicalDecision.osexp","C:\Users\ekealey\Desktop","no","mono","no","18","no","white","no","yes","1080","legacy","60","60","C:/Users/ekealey/Desktop/subject-241.csv","xpyriment","Lentiform Loewenfeld","3.3.11","0","z","NA","NA","NA","NA","space","z","1196","NA","NA","NA","NA","41923","1196","2","legacy","1024","2","48000","-16","AB_m21","241","odd","NW_S_SIMP","NULLITH","1924","312469","310101","306614","43857","NA","NA","NA","NA","NA","310602","NA","NA","NA","309600","NA","309572","1933","312669","NA","NA","NA","310643","1924","1924","NA","311840","311864","309572","310602","310623","morph21_Oliver/Morris","50","52116","61","yes","1920","23"
"350","82.25806451612904","82.25806451612904","855.4516129032259","855.4516129032259","black","no","xpyriment","legacy","legacy","0","203","NA","uniform","NA","NA","NA","1","undefined","1","0","61","61","61","0","61","61","61","NA","0","61","NA","NA","0","61","NA","61","0","61","NA","NA","NA","61","0","0","NA","61","61","61","61","61","62","z","Thu Apr  4 13:39:36 2024","The main experiment item","yes","m21-ab-lexicalDecision.osexp","C:\Users\ekealey\Desktop","no","mono","no","18","no","white","no","yes","1080","legacy","61","61","C:/Users/ekealey/Desktop/subject-241.csv","xpyriment","Lentiform Loewenfeld","3.3.11","0","z","NA","NA","NA","NA","space","z","922","NA","NA","NA","NA","41923","922","2","legacy","1024","2","48000","-16","AB_m21","241","odd","NW_S_COMP","WELDIC","1924","316318","314224","306614","43857","NA","NA","NA","NA","NA","314724","NA","NA","NA","313724","NA","313689","1933","316668","NA","NA","NA","314765","1924","1924","NA","315688","315713","313688","314724","314745","morph21_Oliver/Morris","51","53038","62","yes","1920","21"
"300","80.95238095238095","80.95238095238095","860.9206349206349","860.9206349206349","black","no","xpyriment","legacy","legacy","0","202","NA","uniform","NA","NA","NA","0","undefined","0","0","62","62","62","0","62","62","62","NA","0","62","NA","NA","0","62","NA","62","0","62","NA","NA","NA","62","0","0","NA","62","62","62","62","62","63","/","Thu Apr  4 13:39:36 2024","The main experiment item","yes","m21-ab-lexicalDecision.osexp","C:\Users\ekealey\Desktop","no","mono","no","18","no","white","no","yes","1080","legacy","62","62","C:/Users/ekealey/Desktop/subject-241.csv","xpyriment","Lentiform Loewenfeld","3.3.11","0","None","NA","NA","NA","NA","space","None","1200","NA","NA","NA","NA","41923","1200","2","legacy","1024","2","48000","-16","AB_m21","241","odd","CW_L","WEEDY","1924","322118","318243","320613","43857","NA","NA","NA","NA","NA","318744","NA","NA","NA","317742","NA","317712","1933","322418","NA","NA","NA","318785","1924","1924","NA","319985","320010","317712","318744","318765","morph21_Oliver/Morris","51","54238","63","yes","1920","48"
"250","81.25","81.25","857.21875","857.21875","black","no","xpyriment","legacy","legacy","0","207","NA","uniform","NA","NA","NA","1","undefined","1","0","63","63","63","0","63","63","63","NA","0","63","NA","NA","0","63","NA","63","0","63","NA","NA","NA","63","0","0","NA","63","63","63","63","63","64","/","Thu Apr  4 13:39:36 2024","The main experiment item","yes","m21-ab-lexicalDecision.osexp","C:\Users\ekealey\Desktop","no","mono","no","18","no","white","no","yes","1080","legacy","63","63","C:/Users/ekealey/Desktop/subject-241.csv","xpyriment","Lentiform Loewenfeld","3.3.11","0","/","NA","NA","NA","NA","space","/","624","NA","NA","NA","NA","41923","624","2","legacy","1024","2","48000","-16","AB_m21","241","odd","FILL_W","SHIP","1924","325779","323986","320613","43857","NA","NA","NA","NA","NA","324486","NA","NA","NA","323485","NA","323452","1933","326029","NA","NA","NA","324527","1924","1924","NA","325152","325175","323452","324486","324507","morph21_Oliver/Morris","52","54862","64","yes","1920","37"
"400","81.53846153846153","81.53846153846153","854.4153846153846","854.4153846153846","black","no","xpyriment","legacy","legacy","0","201","NA","uniform","NA","NA","NA","1","undefined","1","0","64","64","64","0","64","64","64","NA","0","64","NA","NA","0","64","NA","64","0","64","NA","NA","NA","64","0","0","NA","64","64","64","64","64","65","/","Thu Apr  4 13:39:36 2024","The main experiment item","yes","m21-ab-lexicalDecision.osexp","C:\Users\ekealey\Desktop","no","mono","no","18","no","white","no","yes","1080","legacy","64","64","C:/Users/ekealey/Desktop/subject-241.csv","xpyriment","Lentiform Loewenfeld","3.3.11","0","/","NA","NA","NA","NA","space","/","675","NA","NA","NA","NA","41923","675","2","legacy","1024","2","48000","-16","AB_m21","241","odd","CW_S","ALLOWANCE","1924","329458","327615","320613","43857","NA","NA","NA","NA","NA","328115","NA","NA","NA","327115","NA","327088","1933","329858","NA","NA","NA","328156","1924","1924","NA","328832","328855","327088","328115","328136","morph21_Oliver/Morris","53","55537","65","yes","1920","5"
"200","81.81818181818181","81.81818181818181","851.3636363636364","851.3636363636364","black","no","xpyriment","legacy","legacy","0","201","NA","uniform","NA","NA","NA","1","undefined","1","0","65","65","65","0","65","65","65","NA","0","65","NA","NA","0","65","NA","65","0","65","NA","NA","NA","65","0","0","NA","65","65","65","65","65","66","/","Thu Apr  4 13:39:36 2024","The main experiment item","yes","m21-ab-lexicalDecision.osexp","C:\Users\ekealey\Desktop","no","mono","no","18","no","white","no","yes","1080","legacy","65","65","C:/Users/ekealey/Desktop/subject-241.csv","xpyriment","Lentiform Loewenfeld","3.3.11","0","/","NA","NA","NA","NA","space","/","653","NA","NA","NA","NA","41923","653","2","legacy","1024","2","48000","-16","AB_m21","241","odd","CW_S","LOCALLY","1924","334730","331404","333227","43857","NA","NA","NA","NA","NA","331904","NA","NA","NA","330904","NA","330878","1933","334930","NA","NA","NA","331946","1924","1924","NA","332599","332623","330878","331904","331925","morph21_Oliver/Morris","54","56190","66","yes","1920","37"
"300","82.08955223880596","82.08955223880596","851.0298507462686","851.0298507462686","black","no","xpyriment","legacy","legacy","0","205","NA","uniform","NA","NA","NA","1","undefined","1","0","66","66","66","0","66","66","66","NA","0","66","NA","NA","0","66","NA","66","0","66","NA","NA","NA","66","0","0","NA","66","66","66","66","66","67","z","Thu Apr  4 13:39:36 2024","The main experiment item","yes","m21-ab-lexicalDecision.osexp","C:\Users\ekealey\Desktop","no","mono","no","18","no","white","no","yes","1080","legacy","66","66","C:/Users/ekealey/Desktop/subject-241.csv","xpyriment","Lentiform Loewenfeld","3.3.11","0","z","NA","NA","NA","NA","space","z","829","NA","NA","NA","NA","41923","829","2","legacy","1024","2","48000","-16","AB_m21","241","odd","NW_S_SIMP","YIELDILT","1924","338499","336502","333227","43857","NA","NA","NA","NA","NA","337002","NA","NA","NA","336001","NA","335967","1933","338799","NA","NA","NA","337042","1924","1924","NA","337872","337895","335967","337002","337022","morph21_Oliver/Morris","55","57019","67","yes","1920","20"
"300","82.3529411764706","82.3529411764706","848.4411764705883","848.4411764705883","black","no","xpyriment","legacy","legacy","0","207","NA","uniform","NA","NA","NA","1","undefined","1","0","67","67","67","0","67","67","67","NA","0","67","NA","NA","0","67","NA","67","0","67","NA","NA","NA","67","0","0","NA","67","67","67","67","67","68","/","Thu Apr  4 13:39:36 2024","The main experiment item","yes","m21-ab-lexicalDecision.osexp","C:\Users\ekealey\Desktop","no","mono","no","18","no","white","no","yes","1080","legacy","67","67","C:/Users/ekealey/Desktop/subject-241.csv","xpyriment","Lentiform Loewenfeld","3.3.11","0","/","NA","NA","NA","NA","space","/","675","NA","NA","NA","NA","41923","675","2","legacy","1024","2","48000","-16","AB_m21","241","odd","FILL_W","BAKE","1924","342218","340373","333227","43857","NA","NA","NA","NA","NA","340874","NA","NA","NA","339872","NA","339848","1933","342518","NA","NA","NA","340916","1924","1924","NA","341592","341615","339848","340874","340895","morph21_Oliver/Morris","56","57694","68","yes","1920","29"
"300","82.6086956521739","82.6086956521739","844.7536231884058","844.7536231884058","black","no","xpyriment","legacy","legacy","0","201","NA","uniform","NA","NA","NA","1","undefined","1","0","68","68","68","0","68","68","68","NA","0","68","NA","NA","0","68","NA","68","0","68","NA","NA","NA","68","0","0","NA","68","68","68","68","68","69","/","Thu Apr  4 13:39:36 2024","The main experiment item","yes","m21-ab-lexicalDecision.osexp","C:\Users\ekealey\Desktop","no","mono","no","18","no","white","no","yes","1080","legacy","68","68","C:/Users/ekealey/Desktop/subject-241.csv","xpyriment","Lentiform Loewenfeld","3.3.11","0","/","NA","NA","NA","NA","space","/","594","NA","NA","NA","NA","41923","594","2","legacy","1024","2","48000","-16","AB_m21","241","odd","CW_S","ATTACKER","1924","347372","344103","345867","43857","NA","NA","NA","NA","NA","344604","NA","NA","NA","343601","NA","343577","1933","347672","NA","NA","NA","344645","1924","1924","NA","345240","345263","343577","344604","344625","morph21_Oliver/Morris","57","58288","69","yes","1920","20"
"400","82.85714285714286","82.85714285714286","840.1714285714286","840.1714285714286","black","no","xpyriment","legacy","legacy","0","202","NA","uniform","NA","NA","NA","1","undefined","1","0","69","69","69","0","69","69","69","NA","0","69","NA","NA","0","69","NA","69","0","69","NA","NA","NA","69","0","0","NA","69","69","69","69","69","70","/","Thu Apr  4 13:39:36 2024","The main experiment item","yes","m21-ab-lexicalDecision.osexp","C:\Users\ekealey\Desktop","no","mono","no","18","no","white","no","yes","1080","legacy","69","69","C:/Users/ekealey/Desktop/subject-241.csv","xpyriment","Lentiform Loewenfeld","3.3.11","0","/","NA","NA","NA","NA","space","/","524","NA","NA","NA","NA","41923","524","2","legacy","1024","2","48000","-16","AB_m21","241","odd","CW_L","QUIETLY","1924","350941","349245","345867","43857","NA","NA","NA","NA","NA","349746","NA","NA","NA","348743","NA","348713","1933","351341","NA","NA","NA","349787","1924","1924","NA","350311","350336","348713","349746","349767","morph21_Oliver/Morris","58","58812","70","yes","1920","36"
"250","83.09859154929578","83.09859154929578","836.7323943661971","836.7323943661971","black","no","xpyriment","legacy","legacy","0","201","NA","uniform","NA","NA","NA","1","undefined","1","0","70","70","70","0","70","70","70","NA","0","70","NA","NA","0","70","NA","70","0","70","NA","NA","NA","70","0","0","NA","70","70","70","70","70","71","/","Thu Apr  4 13:39:36 2024","The main experiment item","yes","m21-ab-lexicalDecision.osexp","C:\Users\ekealey\Desktop","no","mono","no","18","no","white","no","yes","1080","legacy","70","70","C:/Users/ekealey/Desktop/subject-241.csv","xpyriment","Lentiform Loewenfeld","3.3.11","0","/","NA","NA","NA","NA","space","/","596","NA","NA","NA","NA","41923","596","2","legacy","1024","2","48000","-16","AB_m21","241","odd","CW_S","NOTICEABLE","1924","354658","352894","345867","43857","NA","NA","NA","NA","NA","353394","NA","NA","NA","352394","NA","352365","1933","354908","NA","NA","NA","353435","1924","1924","NA","354031","354055","352365","353394","353415","morph21_Oliver/Morris","59","59408","71","yes","1920","3"
"350","81.94444444444444","81.94444444444444","836.3333333333334","836.3333333333334","black","no","xpyriment","legacy","legacy","0","204","NA","uniform","NA","NA","NA","0","undefined","0","0","71","71","71","0","71","71","71","NA","0","71","NA","NA","0","71","NA","71","0","71","NA","NA","NA","71","0","0","NA","71","71","71","71","71","72","z","Thu Apr  4 13:39:36 2024","The main experiment item","yes","m21-ab-lexicalDecision.osexp","C:\Users\ekealey\Desktop","no","mono","no","18","no","white","no","yes","1080","legacy","71","71","C:/Users/ekealey/Desktop/subject-241.csv","xpyriment","Lentiform Loewenfeld","3.3.11","0","/","NA","NA","NA","NA","space","/","808","NA","NA","NA","NA","41923","808","2","legacy","1024","2","48000","-16","AB_m21","241","odd","NW_L_COMP","INKISM","1924","359949","356466","358445","43857","NA","NA","NA","NA","NA","356966","NA","NA","NA","355965","NA","355937","1933","360299","NA","NA","NA","357006","1924","1924","NA","357815","357841","355937","356966","356986","morph21_Oliver/Morris","59","60216","72","yes","1920","8"
"300","82.1917808219178","82.1917808219178","833.6575342465753","833.6575342465753","black","no","xpyriment","legacy","legacy","0","202","NA","uniform","NA","NA","NA","1","undefined","1","0","72","72","72","0","72","72","72","NA","0","72","NA","NA","0","72","NA","72","0","72","NA","NA","NA","72","0","0","NA","72","72","72","72","72","73","/","Thu Apr  4 13:39:36 2024","The main experiment item","yes","m21-ab-lexicalDecision.osexp","C:\Users\ekealey\Desktop","no","mono","no","18","no","white","no","yes","1080","legacy","72","72","C:/Users/ekealey/Desktop/subject-241.csv","xpyriment","Lentiform Loewenfeld","3.3.11","0","/","NA","NA","NA","NA","space","/","641","NA","NA","NA","NA","41923","641","2","legacy","1024","2","48000","-16","AB_m21","241","odd","CW_L","DOUBTFUL","1924","363659","361849","358445","43857","NA","NA","NA","NA","NA","362350","NA","NA","NA","361349","NA","361317","1933","363959","NA","NA","NA","362390","1924","1924","NA","363032","363056","361317","362350","362370","morph21_Oliver/Morris","60","60857","73","yes","1920","21"
"400","82.43243243243244","82.43243243243244","830.581081081081","830.581081081081","black","no","xpyriment","legacy","legacy","0","207","NA","uniform","NA","NA","NA","1","undefined","1","0","73","73","73","0","73","73","73","NA","0","73","NA","NA","0","73","NA","73","0","73","NA","NA","NA","73","0","0","NA","73","73","73","73","73","74","/","Thu Apr  4 13:39:36 2024","The main experiment item","yes","m21-ab-lexicalDecision.osexp","C:\Users\ekealey\Desktop","no","mono","no","18","no","white","no","yes","1080","legacy","73","73","C:/Users/ekealey/Desktop/subject-241.csv","xpyriment","Lentiform Loewenfeld","3.3.11","0","/","NA","NA","NA","NA","space","/","606","NA","NA","NA","NA","41923","606","2","legacy","1024","2","48000","-16","AB_m21","241","odd","FILL_W","EAT","1924","367306","365532","358445","43857","NA","NA","NA","NA","NA","366033","NA","NA","NA","365031","NA","365000","1933","367707","NA","NA","NA","366073","1924","1924","NA","366680","366703","365000","366033","366053","morph21_Oliver/Morris","61","61463","74","yes","1920","25"
"350","82.66666666666667","82.66666666666667","827.04","827.04","black","no","xpyriment","legacy","legacy","0","202","NA","uniform","NA","NA","NA","undefined","undefined","1","0","74","74","74","0","74","74","74","NA","0","74","NA","NA","0","74","NA","74","0","74","NA","NA","NA","74","0","0","NA","74","74","74","74","74","75","/","Thu Apr  4 13:39:36 2024","The main experiment item","yes","m21-ab-lexicalDecision.osexp","C:\Users\ekealey\Desktop","no","mono","no","18","no","white","no","yes","1080","legacy","74","74","C:/Users/ekealey/Desktop/subject-241.csv","xpyriment","Lentiform Loewenfeld","3.3.11","0","space","space","NA","NA","NA","space","/","9914","9914","NA","NA","NA","41923","565","2","legacy","1024","2","48000","-16","AB_m21","241","odd","CW_L","BOMBER","1924","372498","369262","370995","43857","372853","NA","NA","NA","NA","369762","NA","NA","NA","368762","NA","368733","1933","382767","NA","NA","NA","369802","1924","1924","NA","370368","370392","368733","369762","369782","morph21_Oliver/Morris","62","62028","75","yes","1920","7"
"400","82.89473684210526","82.89473684210526","829.25","829.25","black","no","xpyriment","legacy","legacy","0","207","NA","uniform","NA","NA","NA","1","undefined","1","0","75","75","75","0","75","75","75","NA","0","75","NA","NA","0","75","NA","75","0","75","NA","NA","NA","75","0","0","NA","75","75","75","75","75","76","/","Thu Apr  4 13:39:36 2024","The main experiment item","yes","m21-ab-lexicalDecision.osexp","C:\Users\ekealey\Desktop","no","mono","no","18","no","white","no","yes","1080","legacy","75","75","C:/Users/ekealey/Desktop/subject-241.csv","xpyriment","Lentiform Loewenfeld","3.3.11","0","/","space","NA","NA","NA","space","/","995","9914","NA","NA","NA","41923","995","2","legacy","1024","2","48000","-16","AB_m21","241","odd","FILL_W","QUIT","1924","386516","384352","370995","43857","372853","NA","NA","NA","NA","384852","NA","NA","NA","383851","NA","383821","1933","386917","NA","NA","NA","384892","1924","1924","NA","385888","385913","383821","384852","384872","morph21_Oliver/Morris","63","63023","76","yes","1920","21"
"250","83.11688311688312","83.11688311688312","829.0649350649351","829.0649350649351","black","no","xpyriment","legacy","legacy","0","201","NA","uniform","NA","NA","NA","1","undefined","1","0","76","76","76","0","76","76","76","NA","0","76","NA","NA","0","76","NA","76","0","76","NA","NA","NA","76","0","0","NA","76","76","76","76","76","77","/","Thu Apr  4 13:39:36 2024","The main experiment item","yes","m21-ab-lexicalDecision.osexp","C:\Users\ekealey\Desktop","no","mono","no","18","no","white","no","yes","1080","legacy","76","76","C:/Users/ekealey/Desktop/subject-241.csv","xpyriment","Lentiform Loewenfeld","3.3.11","0","/","space","NA","NA","NA","space","/","815","9914","NA","NA","NA","41923","815","2","legacy","1024","2","48000","-16","AB_m21","241","odd","CW_S","MILDNESS","1924","390445","388458","370995","43857","372853","NA","NA","NA","NA","388959","NA","NA","NA","387957","NA","387929","1933","390695","NA","NA","NA","388999","1924","1924","NA","389815","389840","387929","388959","388979","morph21_Oliver/Morris","64","63838","77","yes","1920","42"
"300","83.33333333333333","83.33333333333333","832.0897435897435","832.0897435897435","black","no","xpyriment","legacy","legacy","0","206","NA","uniform","NA","NA","NA","1","undefined","1","0","77","77","77","0","77","77","77","NA","0","77","NA","NA","0","77","NA","77","0","77","NA","NA","NA","77","0","0","NA","77","77","77","77","77","78","z","Thu Apr  4 13:39:36 2024","The main experiment item","yes","m21-ab-lexicalDecision.osexp","C:\Users\ekealey\Desktop","no","mono","no","18","no","white","no","yes","1080","legacy","77","77","C:/Users/ekealey/Desktop/subject-241.csv","xpyriment","Lentiform Loewenfeld","3.3.11","0","z","space","NA","NA","NA","space","z","1065","9914","NA","NA","NA","41923","1065","2","legacy","1024","2","48000","-16","AB_m21","241","odd","NW_L_SIMP","ELBOWILM","1924","396005","392265","394499","43857","372853","NA","NA","NA","NA","392765","NA","NA","NA","391764","NA","391740","1933","396305","NA","NA","NA","392806","1924","1924","NA","393872","393896","391740","392765","392786","morph21_Oliver/Morris","65","64903","78","yes","1920","10"
"350","83.54430379746836","83.54430379746836","829.6835443037975","829.6835443037975","black","no","xpyriment","legacy","legacy","0","208","NA","uniform","NA","NA","NA","1","undefined","1","0","78","78","78","0","78","78","78","NA","0","78","NA","NA","0","78","NA","78","0","78","NA","NA","NA","78","0","0","NA","78","78","78","78","78","79","z","Thu Apr  4 13:39:36 2024","The main experiment item","yes","m21-ab-lexicalDecision.osexp","C:\Users\ekealey\Desktop","no","mono","no","18","no","white","no","yes","1080","legacy","78","78","C:/Users/ekealey/Desktop/subject-241.csv","xpyriment","Lentiform Loewenfeld","3.3.11","0","z","space","NA","NA","NA","space","z","642","9914","NA","NA","NA","41923","642","2","legacy","1024","2","48000","-16","AB_m21","241","odd","FILL_NW","HEAS","1924","399690","397879","394499","43857","372853","NA","NA","NA","NA","398380","NA","NA","NA","397377","NA","397350","1933","400040","NA","NA","NA","398421","1924","1924","NA","399064","399087","397350","398380","398400","morph21_Oliver/Morris","66","65545","79","yes","1920","26"
"200","83.75","83.75","827.1","827.1","black","no","xpyriment","legacy","legacy","0","201","NA","uniform","NA","NA","NA","1","undefined","1","0","79","79","79","0","79","79","79","NA","0","79","NA","NA","0","79","NA","79","0","79","NA","NA","NA","79","0","0","NA","79","79","79","79","79","80","/","Thu Apr  4 13:39:36 2024","The main experiment item","yes","m21-ab-lexicalDecision.osexp","C:\Users\ekealey\Desktop","no","mono","no","18","no","white","no","yes","1080","legacy","79","79","C:/Users/ekealey/Desktop/subject-241.csv","xpyriment","Lentiform Loewenfeld","3.3.11","0","/","space","NA","NA","NA","space","/","623","9914","NA","NA","NA","41923","623","2","legacy","1024","2","48000","-16","AB_m21","241","odd","CW_S","AMUSEMENT","1924","403394","401603","394499","43857","372853","NA","NA","NA","NA","402103","NA","NA","NA","401103","NA","401074","1933","403594","NA","NA","NA","402144","1924","1924","NA","402768","402791","401074","402103","402124","morph21_Oliver/Morris","67","66168","80","yes","1920","38"
"400","83.95061728395062","83.95061728395062","824.3827160493827","824.3827160493827","black","no","xpyriment","legacy","legacy","0","201","NA","uniform","NA","NA","NA","1","undefined","1","0","80","80","80","0","80","80","80","NA","0","80","NA","NA","0","80","NA","80","0","80","NA","NA","NA","80","0","0","NA","80","80","80","80","80","81","/","Thu Apr  4 13:39:36 2024","The main experiment item","yes","m21-ab-lexicalDecision.osexp","C:\Users\ekealey\Desktop","no","mono","no","18","no","white","no","yes","1080","legacy","80","80","C:/Users/ekealey/Desktop/subject-241.csv","xpyriment","Lentiform Loewenfeld","3.3.11","0","/","space","NA","NA","NA","space","/","607","9914","NA","NA","NA","41923","607","2","legacy","1024","2","48000","-16","AB_m21","241","odd","CW_S","AVOIDABLE","1924","408444","405163","406940","43857","372853","NA","NA","NA","NA","405663","NA","NA","NA","404663","NA","404634","1933","408844","NA","NA","NA","405703","1924","1924","NA","406311","406335","404634","405663","405683","morph21_Oliver/Morris","68","66775","81","yes","1920","2"
"300","84.14634146341463","84.14634146341463","822.5","822.5","black","no","xpyriment","legacy","legacy","0","205","NA","uniform","NA","NA","NA","1","undefined","1","0","81","81","81","0","81","81","81","NA","0","81","NA","NA","0","81","NA","81","0","81","NA","NA","NA","81","0","0","NA","81","81","81","81","81","82","z","Thu Apr  4 13:39:36 2024","The main experiment item","yes","m21-ab-lexicalDecision.osexp","C:\Users\ekealey\Desktop","no","mono","no","18","no","white","no","yes","1080","legacy","81","81","C:/Users/ekealey/Desktop/subject-241.csv","xpyriment","Lentiform Loewenfeld","3.3.11","0","z","space","NA","NA","NA","space","z","670","9914","NA","NA","NA","41923","670","2","legacy","1024","2","48000","-16","AB_m21","241","odd","NW_S_SIMP","HELMETOES","1924","412277","410435","406940","43857","372853","NA","NA","NA","NA","410936","NA","NA","NA","409934","NA","409906","1933","412577","NA","NA","NA","410977","1924","1924","NA","411648","411673","409906","410936","410957","morph21_Oliver/Morris","69","67445","82","yes","1920","14"
"400","84.33734939759036","84.33734939759036","823.7349397590361","823.7349397590361","black","no","xpyriment","legacy","legacy","0","205","NA","uniform","NA","NA","NA","1","undefined","1","0","82","82","82","0","82","82","82","NA","0","82","NA","NA","0","82","NA","82","0","82","NA","NA","NA","82","0","0","NA","82","82","82","82","82","83","z","Thu Apr  4 13:39:36 2024","The main experiment item","yes","m21-ab-lexicalDecision.osexp","C:\Users\ekealey\Desktop","no","mono","no","18","no","white","no","yes","1080","legacy","82","82","C:/Users/ekealey/Desktop/subject-241.csv","xpyriment","Lentiform Loewenfeld","3.3.11","0","z","space","NA","NA","NA","space","z","925","9914","NA","NA","NA","41923","925","2","legacy","1024","2","48000","-16","AB_m21","241","odd","NW_S_SIMP","ADVERTISELA","1924","416250","414156","406940","43857","372853","NA","NA","NA","NA","414656","NA","NA","NA","413655","NA","413622","1933","416650","NA","NA","NA","414697","1924","1924","NA","415623","415647","413622","414656","414677","morph21_Oliver/Morris","70","68370","83","yes","1920","25"
"300","84.52380952380952","84.52380952380952","825.202380952381","825.202380952381","black","no","xpyriment","legacy","legacy","0","204","NA","uniform","NA","NA","NA","1","undefined","1","0","83","83","83","0","83","83","83","NA","0","83","NA","NA","0","83","NA","83","0","83","NA","NA","NA","83","0","0","NA","83","83","83","83","83","84","z","Thu Apr  4 13:39:36 2024","The main experiment item","yes","m21-ab-lexicalDecision.osexp","C:\Users\ekealey\Desktop","no","mono","no","18","no","white","no","yes","1080","legacy","83","83","C:/Users/ekealey/Desktop/subject-241.csv","xpyriment","Lentiform Loewenfeld","3.3.11","0","z","space","NA","NA","NA","space","z","947","9914","NA","NA","NA","41923","947","2","legacy","1024","2","48000","-16","AB_m21","241","odd","NW_L_COMP","FELLOWOUS","1924","421886","418263","420381","43857","372853","NA","NA","NA","NA","418763","NA","NA","NA","417762","NA","417738","1933","422186","NA","NA","NA","418804","1924","1924","NA","419752","419777","417738","418763","418784","morph21_Oliver/Morris","71","69317","84","yes","1920","17"
"350","84.70588235294117","84.70588235294117","828.2117647058824","828.2117647058824","black","no","xpyriment","legacy","legacy","0","206","NA","uniform","NA","NA","NA","1","undefined","1","0","84","84","84","0","84","84","84","NA","0","84","NA","NA","0","84","NA","84","0","84","NA","NA","NA","84","0","0","NA","84","84","84","84","84","85","z","Thu Apr  4 13:39:36 2024","The main experiment item","yes","m21-ab-lexicalDecision.osexp","C:\Users\ekealey\Desktop","no","mono","no","18","no","white","no","yes","1080","legacy","84","84","C:/Users/ekealey/Desktop/subject-241.csv","xpyriment","Lentiform Loewenfeld","3.3.11","0","z","space","NA","NA","NA","space","z","1081","9914","NA","NA","NA","41923","1081","2","legacy","1024","2","48000","-16","AB_m21","241","odd","NW_L_SIMP","CRITICANGE","1924","426004","423754","420381","43857","372853","NA","NA","NA","NA","424254","NA","NA","NA","423254","NA","423223","1933","426354","NA","NA","NA","424294","1924","1924","NA","425375","425400","423223","424254","424274","morph21_Oliver/Morris","72","70398","85","yes","1920","22"
"350","84.88372093023256","84.88372093023256","830.6162790697674","830.6162790697674","black","no","xpyriment","legacy","legacy","0","203","NA","uniform","NA","NA","NA","1","undefined","1","0","85","85","85","0","85","85","85","NA","0","85","NA","NA","0","85","NA","85","0","85","NA","NA","NA","85","0","0","NA","85","85","85","85","85","86","z","Thu Apr  4 13:39:36 2024","The main experiment item","yes","m21-ab-lexicalDecision.osexp","C:\Users\ekealey\Desktop","no","mono","no","18","no","white","no","yes","1080","legacy","85","85","C:/Users/ekealey/Desktop/subject-241.csv","xpyriment","Lentiform Loewenfeld","3.3.11","0","z","space","NA","NA","NA","space","z","1035","9914","NA","NA","NA","41923","1035","2","legacy","1024","2","48000","-16","AB_m21","241","odd","NW_S_COMP","DEBTISH","1924","430115","427910","420381","43857","372853","NA","NA","NA","NA","428411","NA","NA","NA","427410","NA","427384","1933","430465","NA","NA","NA","428452","1924","1924","NA","429488","429512","427384","428411","428432","morph21_Oliver/Morris","73","71433","86","yes","1920","22"
"350","85.05747126436782","85.05747126436782","827.528735632184","827.528735632184","black","no","xpyriment","legacy","legacy","0","202","NA","uniform","NA","NA","NA","1","undefined","1","0","86","86","86","0","86","86","86","NA","0","86","NA","NA","0","86","NA","86","0","86","NA","NA","NA","86","0","0","NA","86","86","86","86","86","87","/","Thu Apr  4 13:39:36 2024","The main experiment item","yes","m21-ab-lexicalDecision.osexp","C:\Users\ekealey\Desktop","no","mono","no","18","no","white","no","yes","1080","legacy","86","86","C:/Users/ekealey/Desktop/subject-241.csv","xpyriment","Lentiform Loewenfeld","3.3.11","0","/","space","NA","NA","NA","space","/","562","9914","NA","NA","NA","41923","562","2","legacy","1024","2","48000","-16","AB_m21","241","odd","CW_L","RENTER","1924","435245","432008","433741","43857","372853","NA","NA","NA","NA","432509","NA","NA","NA","431507","NA","431481","1933","435595","NA","NA","NA","432549","1924","1924","NA","433112","433136","431481","432509","432529","morph21_Oliver/Morris","74","71995","87","yes","1920","9"
"300","85.22727272727273","85.22727272727273","830.1931818181819","830.1931818181819","black","no","xpyriment","legacy","legacy","0","207","NA","uniform","NA","NA","NA","1","undefined","1","0","87","87","87","0","87","87","87","NA","0","87","NA","NA","0","87","NA","87","0","87","NA","NA","NA","87","0","0","NA","87","87","87","87","87","88","/","Thu Apr  4 13:39:36 2024","The main experiment item","yes","m21-ab-lexicalDecision.osexp","C:\Users\ekealey\Desktop","no","mono","no","18","no","white","no","yes","1080","legacy","87","87","C:/Users/ekealey/Desktop/subject-241.csv","xpyriment","Lentiform Loewenfeld","3.3.11","0","/","space","NA","NA","NA","space","/","1062","9914","NA","NA","NA","41923","1062","2","legacy","1024","2","48000","-16","AB_m21","241","odd","FILL_W","SICK","1924","439402","437171","433741","43857","372853","NA","NA","NA","NA","437672","NA","NA","NA","436671","NA","436644","1933","439702","NA","NA","NA","437713","1924","1924","NA","438776","438799","436644","437672","437693","morph21_Oliver/Morris","75","73057","88","yes","1920","36"
"200","85.3932584269663","85.3932584269663","828.7528089887641","828.7528089887641","black","no","xpyriment","legacy","legacy","0","208","NA","uniform","NA","NA","NA","1","undefined","1","0","88","88","88","0","88","88","88","NA","0","88","NA","NA","0","88","NA","88","0","88","NA","NA","NA","88","0","0","NA","88","88","88","88","88","89","z","Thu Apr  4 13:39:36 2024","The main experiment item","yes","m21-ab-lexicalDecision.osexp","C:\Users\ekealey\Desktop","no","mono","no","18","no","white","no","yes","1080","legacy","88","88","C:/Users/ekealey/Desktop/subject-241.csv","xpyriment","Lentiform Loewenfeld","3.3.11","0","z","space","NA","NA","NA","space","z","702","9914","NA","NA","NA","41923","702","2","legacy","1024","2","48000","-16","AB_m21","241","odd","FILL_NW","PORDS","1924","443131","441259","433741","43857","372853","NA","NA","NA","NA","441759","NA","NA","NA","440759","NA","440731","1933","443331","NA","NA","NA","441800","1924","1924","NA","442504","442527","440731","441759","441780","morph21_Oliver/Morris","76","73759","89","yes","1920","39"
"200","85.55555555555556","85.55555555555556","826.4111111111112","826.4111111111112","black","no","xpyriment","legacy","legacy","0","205","NA","uniform","NA","NA","NA","1","undefined","1","0","89","89","89","0","89","89","89","NA","0","89","NA","NA","0","89","NA","89","0","89","NA","NA","NA","89","0","0","NA","89","89","89","89","89","90","z","Thu Apr  4 13:39:36 2024","The main experiment item","yes","m21-ab-lexicalDecision.osexp","C:\Users\ekealey\Desktop","no","mono","no","18","no","white","no","yes","1080","legacy","89","89","C:/Users/ekealey/Desktop/subject-241.csv","xpyriment","Lentiform Loewenfeld","3.3.11","0","z","space","NA","NA","NA","space","z","618","9914","NA","NA","NA","41923","618","2","legacy","1024","2","48000","-16","AB_m21","241","odd","NW_S_SIMP","JAWLA","1924","448180","444888","446677","43857","372853","NA","NA","NA","NA","445388","NA","NA","NA","444388","NA","444360","1933","448380","NA","NA","NA","445429","1924","1924","NA","446048","446073","444360","445388","445409","morph21_Oliver/Morris","77","74377","90","yes","1920","7"
"250","85.71428571428571","85.71428571428571","822.6043956043956","822.6043956043956","black","no","xpyriment","legacy","legacy","0","202","NA","uniform","NA","NA","NA","1","undefined","1","0","90","90","90","0","90","90","90","NA","0","90","NA","NA","0","90","NA","90","0","90","NA","NA","NA","90","0","0","NA","90","90","90","90","90","91","/","Thu Apr  4 13:39:36 2024","The main experiment item","yes","m21-ab-lexicalDecision.osexp","C:\Users\ekealey\Desktop","no","mono","no","18","no","white","no","yes","1080","legacy","90","90","C:/Users/ekealey/Desktop/subject-241.csv","xpyriment","Lentiform Loewenfeld","3.3.11","0","/","space","NA","NA","NA","space","/","480","9914","NA","NA","NA","41923","480","2","legacy","1024","2","48000","-16","AB_m21","241","odd","CW_L","CREAMY","1924","451603","449954","446677","43857","372853","NA","NA","NA","NA","450454","NA","NA","NA","449454","NA","449424","1933","451853","NA","NA","NA","450494","1924","1924","NA","450975","450999","449423","450454","450474","morph21_Oliver/Morris","78","74857","91","yes","1920","49"
"250","85.8695652173913","85.8695652173913","819.9782608695652","819.9782608695652","black","no","xpyriment","legacy","legacy","0","207","NA","uniform","NA","NA","NA","1","undefined","1","0","91","91","91","0","91","91","91","NA","0","91","NA","NA","0","91","NA","91","0","91","NA","NA","NA","91","0","0","NA","91","91","91","91","91","92","/","Thu Apr  4 13:39:36 2024","The main experiment item","yes","m21-ab-lexicalDecision.osexp","C:\Users\ekealey\Desktop","no","mono","no","18","no","white","no","yes","1080","legacy","91","91","C:/Users/ekealey/Desktop/subject-241.csv","xpyriment","Lentiform Loewenfeld","3.3.11","0","/","space","NA","NA","NA","space","/","581","9914","NA","NA","NA","41923","581","2","legacy","1024","2","48000","-16","AB_m21","241","odd","FILL_W","TASTE","1924","455139","453390","446677","43857","372853","NA","NA","NA","NA","453890","NA","NA","NA","452890","NA","452858","1933","455389","NA","NA","NA","453930","1924","1924","NA","454512","454535","452858","453890","453910","morph21_Oliver/Morris","79","75438","92","yes","1920","34"
"200","86.02150537634408","86.02150537634408","818.4516129032259","818.4516129032259","black","no","xpyriment","legacy","legacy","0","206","NA","uniform","NA","NA","NA","1","undefined","1","0","92","92","92","0","92","92","92","NA","0","92","NA","NA","0","92","NA","92","0","92","NA","NA","NA","92","0","0","NA","92","92","92","92","92","93","z","Thu Apr  4 13:39:36 2024","The main experiment item","yes","m21-ab-lexicalDecision.osexp","C:\Users\ekealey\Desktop","no","mono","no","18","no","white","no","yes","1080","legacy","92","92","C:/Users/ekealey/Desktop/subject-241.csv","xpyriment","Lentiform Loewenfeld","3.3.11","0","z","space","NA","NA","NA","space","z","678","9914","NA","NA","NA","41923","678","2","legacy","1024","2","48000","-16","AB_m21","241","odd","NW_L_SIMP","GROWILT","1924","460348","456995","458845","43857","372853","NA","NA","NA","NA","457495","NA","NA","NA","456494","NA","456466","1933","460548","NA","NA","NA","457536","1924","1924","NA","458215","458241","456466","457495","457516","morph21_Oliver/Morris","80","76116","93","yes","1920","20"
