"ITI","acc","accuracy","average_response_time","avg_rt","background","bidi","canvas_backend","clock_backend","color_backend","compensation","cond_trig","condtrigtime","coordinates","coroutines_cycles","coroutines_duration","coroutines_mean_cycle_duration","correct","correct_instructions_1","correct_new_keyboard_response_1","count_AB_m21","count_ITI","count_blank_screen","count_blink_screen","count_block1","count_break1","count_break2","count_break3_1","count_canvas","count_close_port","count_cond_trigger","count_correct_trigger","count_def_chain","count_end_screen","count_fixation_1","count_getting_started","count_inc_counter","count_instructions_1","count_logger","count_logscript","count_new_inline_script","count_new_inline_script_2","count_new_keyboard_response_1","count_open_port","count_reset_counter_prep","count_reset_counter_run","count_response_trigger_trial","count_responsescreen","count_sequence","count_target_present","count_word_trigger","counter","cresp","datetime","description","disable_garbage_collection","experiment_file","experiment_path","font_bold","font_family","font_italic","font_size","font_underline","foreground","form_clicks","fullscreen","height","keyboard_backend","live_row","live_row_block1","logfile","mouse_backend","opensesame_codename","opensesame_version","repeat_cycle","response","response_break1","response_break2","response_break3_1","response_end_screen","response_instructions_1","response_new_keyboard_response_1","response_time","response_time_break1","response_time_break2","response_time_break3_1","response_time_end_screen","response_time_instructions_1","response_time_new_keyboard_response_1","round_decimals","sampler_backend","sound_buf_size","sound_channels","sound_freq","sound_sample_size","start","subject_nr","subject_parity","targ_type","target","time_AB_m21","time_ITI","time_blank_screen","time_blink_screen","time_block1","time_break1","time_break2","time_break3_1","time_canvas","time_close_port","time_cond_trigger","time_correct_trigger","time_def_chain","time_end_screen","time_fixation_1","time_getting_started","time_inc_counter","time_instructions_1","time_logger","time_logscript","time_new_inline_script","time_new_inline_script_2","time_new_keyboard_response_1","time_open_port","time_reset_counter_prep","time_reset_counter_run","time_response_trigger_trial","time_responsescreen","time_sequence","time_target_present","time_word_trigger","title","total_correct","total_response_time","total_responses","uniform_coordinates","width","word_trig"
"200","0","0","1200","1200","black","no","xpyriment","legacy","legacy","0","207","NA","uniform","NA","NA","NA","0","undefined","0","0","0","0","0","0","0","0","0","NA","0","0","NA","NA","0","0","NA","0","0","0","NA","NA","NA","0","0","0","NA","0","0","0","0","0","1","/","Thu Feb 29 14:36:05 2024","The main experiment item","yes","m21-ab-lexicalDecision.osexp","C:\Users\ekealey\Desktop","no","mono","no","18","no","white","no","yes","1080","legacy","0","0","C:/Users/ekealey/Desktop/subject-239.csv","xpyriment","Lentiform Loewenfeld","3.3.11","0","None","NA","NA","NA","NA","z","None","1200","NA","NA","NA","NA","32303","1200","2","legacy","1024","2","48000","-16","AB_m21","239","odd","FILL_W","OLD","1883","38520","36152","NA","34198","NA","NA","NA","NA","NA","36653","NA","NA","NA","35651","NA","35621","1894","38720","NA","NA","NA","36693","1883","1883","NA","37893","37916","35621","36652","36673","morph21_Oliver/Morris","0","1200","1","yes","1920","44"
"250","0","0","916","916","black","no","xpyriment","legacy","legacy","0","207","NA","uniform","NA","NA","NA","0","undefined","0","0","1","1","1","0","1","1","1","NA","0","1","NA","NA","0","1","NA","1","0","1","NA","NA","NA","1","0","0","NA","1","1","1","1","1","2","/","Thu Feb 29 14:36:05 2024","The main experiment item","yes","m21-ab-lexicalDecision.osexp","C:\Users\ekealey\Desktop","no","mono","no","18","no","white","no","yes","1080","legacy","1","1","C:/Users/ekealey/Desktop/subject-239.csv","xpyriment","Lentiform Loewenfeld","3.3.11","0","z","NA","NA","NA","NA","z","z","632","NA","NA","NA","NA","32303","632","2","legacy","1024","2","48000","-16","AB_m21","239","odd","FILL_W","SLIM","1883","42100","40296","NA","34198","NA","NA","NA","NA","NA","40797","NA","NA","NA","39795","NA","39769","1894","42350","NA","NA","NA","40837","1883","1883","NA","41469","41495","39769","40797","40817","morph21_Oliver/Morris","0","1832","2","yes","1920","6"
"400","0","0","782.3333333333334","782.3333333333334","black","no","xpyriment","legacy","legacy","0","202","NA","uniform","NA","NA","NA","0","undefined","0","0","2","2","2","0","2","2","2","NA","0","2","NA","NA","0","2","NA","2","0","2","NA","NA","NA","2","0","0","NA","2","2","2","2","2","3","/","Thu Feb 29 14:36:05 2024","The main experiment item","yes","m21-ab-lexicalDecision.osexp","C:\Users\ekealey\Desktop","no","mono","no","18","no","white","no","yes","1080","legacy","2","2","C:/Users/ekealey/Desktop/subject-239.csv","xpyriment","Lentiform Loewenfeld","3.3.11","0","z","NA","NA","NA","NA","z","z","515","NA","NA","NA","NA","32303","515","2","legacy","1024","2","48000","-16","AB_m21","239","odd","CW_L","FAITHFUL","1883","47145","43957","45642","34198","NA","NA","NA","NA","NA","44457","NA","NA","NA","43457","NA","43431","1894","47545","NA","NA","NA","44498","1883","1883","NA","45013","45038","43431","44457","44478","morph21_Oliver/Morris","0","2347","3","yes","1920","20"
"200","0","0","862.25","862.25","black","no","xpyriment","legacy","legacy","0","208","NA","uniform","NA","NA","NA","0","undefined","0","0","3","3","3","0","3","3","3","NA","0","3","NA","NA","0","3","NA","3","0","3","NA","NA","NA","3","0","0","NA","3","3","3","3","3","4","z","Thu Feb 29 14:36:05 2024","The main experiment item","yes","m21-ab-lexicalDecision.osexp","C:\Users\ekealey\Desktop","no","mono","no","18","no","white","no","yes","1080","legacy","3","3","C:/Users/ekealey/Desktop/subject-239.csv","xpyriment","Lentiform Loewenfeld","3.3.11","0","/","NA","NA","NA","NA","z","/","1102","NA","NA","NA","NA","32303","1102","2","legacy","1024","2","48000","-16","AB_m21","239","odd","FILL_NW","SMADE","1883","51402","49129","45642","34198","NA","NA","NA","NA","NA","49631","NA","NA","NA","48626","NA","48597","1894","51602","NA","NA","NA","49671","1883","1883","NA","50773","50798","48597","49631","49651","morph21_Oliver/Morris","0","3449","4","yes","1920","42"
"250","0","0","802.4","802.4","black","no","xpyriment","legacy","legacy","0","202","NA","uniform","NA","NA","NA","0","undefined","0","0","4","4","4","0","4","4","4","NA","0","4","NA","NA","0","4","NA","4","0","4","NA","NA","NA","4","0","0","NA","4","4","4","4","4","5","/","Thu Feb 29 14:36:05 2024","The main experiment item","yes","m21-ab-lexicalDecision.osexp","C:\Users\ekealey\Desktop","no","mono","no","18","no","white","no","yes","1080","legacy","4","4","C:/Users/ekealey/Desktop/subject-239.csv","xpyriment","Lentiform Loewenfeld","3.3.11","0","z","NA","NA","NA","NA","z","z","563","NA","NA","NA","NA","32303","563","2","legacy","1024","2","48000","-16","AB_m21","239","odd","CW_L","EXCITEMENT","1883","54890","53156","45642","34198","NA","NA","NA","NA","NA","53658","NA","NA","NA","52655","NA","52628","1894","55140","NA","NA","NA","53698","1883","1883","NA","54261","54285","52628","53658","53678","morph21_Oliver/Morris","0","4012","5","yes","1920","38"
"400","0","0","784","784","black","no","xpyriment","legacy","legacy","0","202","NA","uniform","NA","NA","NA","0","undefined","0","0","5","5","5","0","5","5","5","NA","0","5","NA","NA","0","5","NA","5","0","5","NA","NA","NA","5","0","0","NA","5","5","5","5","5","6","/","Thu Feb 29 14:36:05 2024","The main experiment item","yes","m21-ab-lexicalDecision.osexp","C:\Users\ekealey\Desktop","no","mono","no","18","no","white","no","yes","1080","legacy","5","5","C:/Users/ekealey/Desktop/subject-239.csv","xpyriment","Lentiform Loewenfeld","3.3.11","0","z","NA","NA","NA","NA","z","z","692","NA","NA","NA","NA","32303","692","2","legacy","1024","2","48000","-16","AB_m21","239","odd","CW_L","SHAPELY","1883","60073","56708","58569","34198","NA","NA","NA","NA","NA","57209","NA","NA","NA","56208","NA","56179","1894","60473","NA","NA","NA","57249","1883","1883","NA","57942","57966","56179","57208","57229","morph21_Oliver/Morris","0","4704","6","yes","1920","35"
"300","0","0","757.7142857142857","757.7142857142857","black","no","xpyriment","legacy","legacy","0","201","NA","uniform","NA","NA","NA","0","undefined","0","0","6","6","6","0","6","6","6","NA","0","6","NA","NA","0","6","NA","6","0","6","NA","NA","NA","6","0","0","NA","6","6","6","6","6","7","/","Thu Feb 29 14:36:05 2024","The main experiment item","yes","m21-ab-lexicalDecision.osexp","C:\Users\ekealey\Desktop","no","mono","no","18","no","white","no","yes","1080","legacy","6","6","C:/Users/ekealey/Desktop/subject-239.csv","xpyriment","Lentiform Loewenfeld","3.3.11","0","z","NA","NA","NA","NA","z","z","600","NA","NA","NA","NA","32303","600","2","legacy","1024","2","48000","-16","AB_m21","239","odd","CW_S","BUYER","1883","63802","62029","58569","34198","NA","NA","NA","NA","NA","62532","NA","NA","NA","61527","NA","61493","1894","64102","NA","NA","NA","62573","1883","1883","NA","63173","63199","61493","62532","62552","morph21_Oliver/Morris","0","5304","7","yes","1920","21"
"350","0","0","769.125","769.125","black","no","xpyriment","legacy","legacy","0","205","NA","uniform","NA","NA","NA","0","undefined","0","0","7","7","7","0","7","7","7","NA","0","7","NA","NA","0","7","NA","7","0","7","NA","NA","NA","7","0","0","NA","7","7","7","7","7","8","z","Thu Feb 29 14:36:05 2024","The main experiment item","yes","m21-ab-lexicalDecision.osexp","C:\Users\ekealey\Desktop","no","mono","no","18","no","white","no","yes","1080","legacy","7","7","C:/Users/ekealey/Desktop/subject-239.csv","xpyriment","Lentiform Loewenfeld","3.3.11","0","/","NA","NA","NA","NA","z","/","849","NA","NA","NA","NA","32303","849","2","legacy","1024","2","48000","-16","AB_m21","239","odd","NW_S_SIMP","BASKODY","1883","67672","65655","58569","34198","NA","NA","NA","NA","NA","66155","NA","NA","NA","65155","NA","65126","1894","68023","NA","NA","NA","66196","1883","1883","NA","67045","67069","65126","66155","66176","morph21_Oliver/Morris","0","6153","8","yes","1920","10"
"350","0","0","817","817","black","no","xpyriment","legacy","legacy","0","201","NA","uniform","NA","NA","NA","0","undefined","0","0","8","8","8","0","8","8","8","NA","0","8","NA","NA","0","8","NA","8","0","8","NA","NA","NA","8","0","0","NA","8","8","8","8","8","9","/","Thu Feb 29 14:36:05 2024","The main experiment item","yes","m21-ab-lexicalDecision.osexp","C:\Users\ekealey\Desktop","no","mono","no","18","no","white","no","yes","1080","legacy","8","8","C:/Users/ekealey/Desktop/subject-239.csv","xpyriment","Lentiform Loewenfeld","3.3.11","0","None","NA","NA","NA","NA","z","None","1200","NA","NA","NA","NA","32303","1200","2","legacy","1024","2","48000","-16","AB_m21","239","odd","CW_S","LENDER","1883","73491","69617","71985","34198","NA","NA","NA","NA","NA","70117","NA","NA","NA","69117","NA","69087","1894","73842","NA","NA","NA","70159","1883","1883","NA","71359","71382","69087","70117","70139","morph21_Oliver/Morris","0","7353","9","yes","1920","11"
"300","10","10","839.9","839.9","black","no","xpyriment","legacy","legacy","0","203","NA","uniform","NA","NA","NA","1","undefined","1","0","9","9","9","0","9","9","9","NA","0","9","NA","NA","0","9","NA","9","0","9","NA","NA","NA","9","0","0","NA","9","9","9","9","9","10","z","Thu Feb 29 14:36:05 2024","The main experiment item","yes","m21-ab-lexicalDecision.osexp","C:\Users\ekealey\Desktop","no","mono","no","18","no","white","no","yes","1080","legacy","9","9","C:/Users/ekealey/Desktop/subject-239.csv","xpyriment","Lentiform Loewenfeld","3.3.11","0","z","NA","NA","NA","NA","z","z","1046","NA","NA","NA","NA","32303","1046","2","legacy","1024","2","48000","-16","AB_m21","239","odd","NW_S_COMP","CURTITY","1883","77626","75410","71985","34198","NA","NA","NA","NA","NA","75911","NA","NA","NA","74909","NA","74878","1894","77926","NA","NA","NA","75951","1883","1883","NA","76998","77021","74878","75911","75931","morph21_Oliver/Morris","1","8399","10","yes","1920","11"
"400","9.090909090909092","9.090909090909092","812.3636363636364","812.3636363636364","black","no","xpyriment","legacy","legacy","0","207","NA","uniform","NA","NA","NA","0","undefined","0","0","10","10","10","0","10","10","10","NA","0","10","NA","NA","0","10","NA","10","0","10","NA","NA","NA","10","0","0","NA","10","10","10","10","10","11","/","Thu Feb 29 14:36:05 2024","The main experiment item","yes","m21-ab-lexicalDecision.osexp","C:\Users\ekealey\Desktop","no","mono","no","18","no","white","no","yes","1080","legacy","10","10","C:/Users/ekealey/Desktop/subject-239.csv","xpyriment","Lentiform Loewenfeld","3.3.11","0","z","NA","NA","NA","NA","z","z","537","NA","NA","NA","NA","32303","537","2","legacy","1024","2","48000","-16","AB_m21","239","odd","FILL_W","EAT","1883","81202","79494","71985","34198","NA","NA","NA","NA","NA","79995","NA","NA","NA","78993","NA","78966","1894","81602","NA","NA","NA","80036","1883","1883","NA","80574","80598","78966","79995","80016","morph21_Oliver/Morris","1","8936","11","yes","1920","25"
"250","8.333333333333334","8.333333333333334","805.0833333333334","805.0833333333334","black","no","xpyriment","legacy","legacy","0","208","NA","uniform","NA","NA","NA","0","undefined","0","0","11","11","11","0","11","11","11","NA","0","11","NA","NA","0","11","NA","11","0","11","NA","NA","NA","11","0","0","NA","11","11","11","11","11","12","z","Thu Feb 29 14:36:05 2024","The main experiment item","yes","m21-ab-lexicalDecision.osexp","C:\Users\ekealey\Desktop","no","mono","no","18","no","white","no","yes","1080","legacy","11","11","C:/Users/ekealey/Desktop/subject-239.csv","xpyriment","Lentiform Loewenfeld","3.3.11","0","/","NA","NA","NA","NA","z","/","725","NA","NA","NA","NA","32303","725","2","legacy","1024","2","48000","-16","AB_m21","239","odd","FILL_NW","PLAODS","1883","86624","83225","85121","34198","NA","NA","NA","NA","NA","83727","NA","NA","NA","82723","NA","82699","1894","86874","NA","NA","NA","83768","1883","1883","NA","84493","84517","82699","83727","83748","morph21_Oliver/Morris","1","9661","12","yes","1920","37"
"200","7.6923076923076925","7.6923076923076925","807.5384615384615","807.5384615384615","black","no","xpyriment","legacy","legacy","0","208","NA","uniform","NA","NA","NA","0","undefined","0","0","12","12","12","0","12","12","12","NA","0","12","NA","NA","0","12","NA","12","0","12","NA","NA","NA","12","0","0","NA","12","12","12","12","12","13","z","Thu Feb 29 14:36:05 2024","The main experiment item","yes","m21-ab-lexicalDecision.osexp","C:\Users\ekealey\Desktop","no","mono","no","18","no","white","no","yes","1080","legacy","12","12","C:/Users/ekealey/Desktop/subject-239.csv","xpyriment","Lentiform Loewenfeld","3.3.11","0","/","NA","NA","NA","NA","z","/","837","NA","NA","NA","NA","32303","837","2","legacy","1024","2","48000","-16","AB_m21","239","odd","FILL_NW","BLAYS","1883","90459","88451","85121","34198","NA","NA","NA","NA","NA","88952","NA","NA","NA","87949","NA","87916","1894","90659","NA","NA","NA","88992","1883","1883","NA","89830","89854","87916","88952","88972","morph21_Oliver/Morris","1","10498","13","yes","1920","8"
"250","7.142857142857143","7.142857142857143","788.2142857142857","788.2142857142857","black","no","xpyriment","legacy","legacy","0","207","NA","uniform","NA","NA","NA","0","undefined","0","0","13","13","13","0","13","13","13","NA","0","13","NA","NA","0","13","NA","13","0","13","NA","NA","NA","13","0","0","NA","13","13","13","13","13","14","/","Thu Feb 29 14:36:05 2024","The main experiment item","yes","m21-ab-lexicalDecision.osexp","C:\Users\ekealey\Desktop","no","mono","no","18","no","white","no","yes","1080","legacy","13","13","C:/Users/ekealey/Desktop/subject-239.csv","xpyriment","Lentiform Loewenfeld","3.3.11","0","z","NA","NA","NA","NA","z","z","537","NA","NA","NA","NA","32303","537","2","legacy","1024","2","48000","-16","AB_m21","239","odd","FILL_W","TASTE","1883","93963","92254","85121","34198","NA","NA","NA","NA","NA","92756","NA","NA","NA","91753","NA","91729","1894","94213","NA","NA","NA","92796","1883","1883","NA","93333","93359","91729","92755","92776","morph21_Oliver/Morris","1","11035","14","yes","1920","34"
"200","6.666666666666667","6.666666666666667","796.7333333333333","796.7333333333333","black","no","xpyriment","legacy","legacy","0","206","NA","uniform","NA","NA","NA","0","undefined","0","0","14","14","14","0","14","14","14","NA","0","14","NA","NA","0","14","NA","14","0","14","NA","NA","NA","14","0","0","NA","14","14","14","14","14","15","z","Thu Feb 29 14:36:05 2024","The main experiment item","yes","m21-ab-lexicalDecision.osexp","C:\Users\ekealey\Desktop","no","mono","no","18","no","white","no","yes","1080","legacy","14","14","C:/Users/ekealey/Desktop/subject-239.csv","xpyriment","Lentiform Loewenfeld","3.3.11","0","/","NA","NA","NA","NA","z","/","916","NA","NA","NA","NA","32303","916","2","legacy","1024","2","48000","-16","AB_m21","239","odd","NW_L_SIMP","GROWILT","1883","99355","95763","97849","34198","NA","NA","NA","NA","NA","96265","NA","NA","NA","95260","NA","95234","1894","99555","NA","NA","NA","96305","1883","1883","NA","97222","97245","95234","96265","96285","morph21_Oliver/Morris","1","11951","15","yes","1920","20"
"350","6.25","6.25","783.875","783.875","black","no","xpyriment","legacy","legacy","0","202","NA","uniform","NA","NA","NA","0","undefined","0","0","15","15","15","0","15","15","15","NA","0","15","NA","NA","0","15","NA","15","0","15","NA","NA","NA","15","0","0","NA","15","15","15","15","15","16","/","Thu Feb 29 14:36:05 2024","The main experiment item","yes","m21-ab-lexicalDecision.osexp","C:\Users\ekealey\Desktop","no","mono","no","18","no","white","no","yes","1080","legacy","15","15","C:/Users/ekealey/Desktop/subject-239.csv","xpyriment","Lentiform Loewenfeld","3.3.11","0","z","NA","NA","NA","NA","z","z","591","NA","NA","NA","NA","32303","591","2","legacy","1024","2","48000","-16","AB_m21","239","odd","CW_L","PARKING","1883","102912","101154","97849","34198","NA","NA","NA","NA","NA","101654","NA","NA","NA","100654","NA","100626","1894","103262","NA","NA","NA","101694","1883","1883","NA","102285","102309","100626","101654","101674","morph21_Oliver/Morris","1","12542","16","yes","1920","25"
"400","5.882352941176471","5.882352941176471","808.3529411764706","808.3529411764706","black","no","xpyriment","legacy","legacy","0","206","NA","uniform","NA","NA","NA","0","undefined","0","0","16","16","16","0","16","16","16","NA","0","16","NA","NA","0","16","NA","16","0","16","NA","NA","NA","16","0","0","NA","16","16","16","16","16","17","z","Thu Feb 29 14:36:05 2024","The main experiment item","yes","m21-ab-lexicalDecision.osexp","C:\Users\ekealey\Desktop","no","mono","no","18","no","white","no","yes","1080","legacy","16","16","C:/Users/ekealey/Desktop/subject-239.csv","xpyriment","Lentiform Loewenfeld","3.3.11","0","None","NA","NA","NA","NA","z","None","1200","NA","NA","NA","NA","32303","1200","2","legacy","1024","2","48000","-16","AB_m21","239","odd","NW_L_SIMP","VALIDEL","1883","107201","104828","97849","34198","NA","NA","NA","NA","NA","105329","NA","NA","NA","104325","NA","104300","1894","107601","NA","NA","NA","105370","1883","1883","NA","106570","106597","104300","105329","105349","morph21_Oliver/Morris","1","13742","17","yes","1920","23"
"200","11.11111111111111","11.11111111111111","828.9444444444445","828.9444444444445","black","no","xpyriment","legacy","legacy","0","205","NA","uniform","NA","NA","NA","1","undefined","1","0","17","17","17","0","17","17","17","NA","0","17","NA","NA","0","17","NA","17","0","17","NA","NA","NA","17","0","0","NA","17","17","17","17","17","18","z","Thu Feb 29 14:36:05 2024","The main experiment item","yes","m21-ab-lexicalDecision.osexp","C:\Users\ekealey\Desktop","no","mono","no","18","no","white","no","yes","1080","legacy","17","17","C:/Users/ekealey/Desktop/subject-239.csv","xpyriment","Lentiform Loewenfeld","3.3.11","0","z","NA","NA","NA","NA","z","z","1179","NA","NA","NA","NA","32303","1179","2","legacy","1024","2","48000","-16","AB_m21","239","odd","NW_S_SIMP","OPPOSEMANT","1883","113003","109149","111499","34198","NA","NA","NA","NA","NA","109649","NA","NA","NA","108648","NA","108614","1894","113203","NA","NA","NA","109690","1883","1883","NA","110869","110896","108614","109649","109670","morph21_Oliver/Morris","2","14921","18","yes","1920","8"
"250","10.526315789473685","10.526315789473685","813.421052631579","813.421052631579","black","no","xpyriment","legacy","legacy","0","201","NA","uniform","NA","NA","NA","0","undefined","0","0","18","18","18","0","18","18","18","NA","0","18","NA","NA","0","18","NA","18","0","18","NA","NA","NA","18","0","0","NA","18","18","18","18","18","19","/","Thu Feb 29 14:36:05 2024","The main experiment item","yes","m21-ab-lexicalDecision.osexp","C:\Users\ekealey\Desktop","no","mono","no","18","no","white","no","yes","1080","legacy","18","18","C:/Users/ekealey/Desktop/subject-239.csv","xpyriment","Lentiform Loewenfeld","3.3.11","0","z","NA","NA","NA","NA","z","z","534","NA","NA","NA","NA","32303","534","2","legacy","1024","2","48000","-16","AB_m21","239","odd","CW_S","TUTORING","1883","116513","114808","111499","34198","NA","NA","NA","NA","NA","115308","NA","NA","NA","114308","NA","114279","1894","116763","NA","NA","NA","115350","1883","1883","NA","115885","115909","114279","115308","115329","morph21_Oliver/Morris","2","15455","19","yes","1920","27"
"250","10","10","814.7","814.7","black","no","xpyriment","legacy","legacy","0","204","NA","uniform","NA","NA","NA","0","undefined","0","0","19","19","19","0","19","19","19","NA","0","19","NA","NA","0","19","NA","19","0","19","NA","NA","NA","19","0","0","NA","19","19","19","19","19","20","z","Thu Feb 29 14:36:05 2024","The main experiment item","yes","m21-ab-lexicalDecision.osexp","C:\Users\ekealey\Desktop","no","mono","no","18","no","white","no","yes","1080","legacy","19","19","C:/Users/ekealey/Desktop/subject-239.csv","xpyriment","Lentiform Loewenfeld","3.3.11","0","/","NA","NA","NA","NA","z","/","839","NA","NA","NA","NA","32303","839","2","legacy","1024","2","48000","-16","AB_m21","239","odd","NW_L_COMP","STIRANCE","1883","120330","118320","111499","34198","NA","NA","NA","NA","NA","118820","NA","NA","NA","117820","NA","117790","1894","120580","NA","NA","NA","118861","1883","1883","NA","119701","119724","117790","118820","118841","morph21_Oliver/Morris","2","16294","20","yes","1920","1"
"350","9.523809523809524","9.523809523809524","820.8571428571429","820.8571428571429","black","no","xpyriment","legacy","legacy","0","206","NA","uniform","NA","NA","NA","0","undefined","0","0","20","20","20","0","20","20","20","NA","0","20","NA","NA","0","20","NA","20","0","20","NA","NA","NA","20","0","0","NA","20","20","20","20","20","21","z","Thu Feb 29 14:36:05 2024","The main experiment item","yes","m21-ab-lexicalDecision.osexp","C:\Users\ekealey\Desktop","no","mono","no","18","no","white","no","yes","1080","legacy","20","20","C:/Users/ekealey/Desktop/subject-239.csv","xpyriment","Lentiform Loewenfeld","3.3.11","0","/","NA","NA","NA","NA","z","/","944","NA","NA","NA","NA","32303","944","2","legacy","1024","2","48000","-16","AB_m21","239","odd","NW_L_SIMP","WIGITH","1883","125816","122199","124312","34198","NA","NA","NA","NA","NA","122700","NA","NA","NA","121698","NA","121672","1894","126167","NA","NA","NA","122740","1883","1883","NA","123685","123708","121672","122700","122720","morph21_Oliver/Morris","2","17238","21","yes","1920","9"
"350","9.090909090909092","9.090909090909092","807.4545454545455","807.4545454545455","black","no","xpyriment","legacy","legacy","0","201","NA","uniform","NA","NA","NA","0","undefined","0","0","21","21","21","0","21","21","21","NA","0","21","NA","NA","0","21","NA","21","0","21","NA","NA","NA","21","0","0","NA","21","21","21","21","21","22","/","Thu Feb 29 14:36:05 2024","The main experiment item","yes","m21-ab-lexicalDecision.osexp","C:\Users\ekealey\Desktop","no","mono","no","18","no","white","no","yes","1080","legacy","21","21","C:/Users/ekealey/Desktop/subject-239.csv","xpyriment","Lentiform Loewenfeld","3.3.11","0","z","NA","NA","NA","NA","z","z","526","NA","NA","NA","NA","32303","526","2","legacy","1024","2","48000","-16","AB_m21","239","odd","CW_S","DENSELY","1883","129435","127738","124312","34198","NA","NA","NA","NA","NA","128239","NA","NA","NA","127238","NA","127208","1894","129785","NA","NA","NA","128279","1883","1883","NA","128805","128830","127208","128239","128259","morph21_Oliver/Morris","2","17764","22","yes","1920","32"
"350","8.695652173913043","8.695652173913043","799.8695652173913","799.8695652173913","black","no","xpyriment","legacy","legacy","0","202","NA","uniform","NA","NA","NA","0","undefined","0","0","22","22","22","0","22","22","22","NA","0","22","NA","NA","0","22","NA","22","0","22","NA","NA","NA","22","0","0","NA","22","22","22","22","22","23","/","Thu Feb 29 14:36:05 2024","The main experiment item","yes","m21-ab-lexicalDecision.osexp","C:\Users\ekealey\Desktop","no","mono","no","18","no","white","no","yes","1080","legacy","22","22","C:/Users/ekealey/Desktop/subject-239.csv","xpyriment","Lentiform Loewenfeld","3.3.11","0","z","NA","NA","NA","NA","z","z","633","NA","NA","NA","NA","32303","633","2","legacy","1024","2","48000","-16","AB_m21","239","odd","CW_L","SWIMMER","1883","133193","131391","124312","34198","NA","NA","NA","NA","NA","131891","NA","NA","NA","130891","NA","130867","1894","133543","NA","NA","NA","131931","1883","1883","NA","132565","132589","130867","131891","131911","morph21_Oliver/Morris","2","18397","23","yes","1920","5"
"350","8.333333333333334","8.333333333333334","792.2916666666666","792.2916666666666","black","no","xpyriment","legacy","legacy","0","208","NA","uniform","NA","NA","NA","0","undefined","0","0","23","23","23","0","23","23","23","NA","0","23","NA","NA","0","23","NA","23","0","23","NA","NA","NA","23","0","0","NA","23","23","23","23","23","24","z","Thu Feb 29 14:36:05 2024","The main experiment item","yes","m21-ab-lexicalDecision.osexp","C:\Users\ekealey\Desktop","no","mono","no","18","no","white","no","yes","1080","legacy","23","23","C:/Users/ekealey/Desktop/subject-239.csv","xpyriment","Lentiform Loewenfeld","3.3.11","0","/","NA","NA","NA","NA","z","/","618","NA","NA","NA","NA","32303","618","2","legacy","1024","2","48000","-16","AB_m21","239","odd","FILL_NW","HEAS","1883","138408","135117","136905","34198","NA","NA","NA","NA","NA","135618","NA","NA","NA","134617","NA","134588","1894","138758","NA","NA","NA","135659","1883","1883","NA","136277","136301","134588","135618","135639","morph21_Oliver/Morris","2","19015","24","yes","1920","26"
"350","8","8","798.52","798.52","black","no","xpyriment","legacy","legacy","0","202","NA","uniform","NA","NA","NA","0","undefined","0","0","24","24","24","0","24","24","24","NA","0","24","NA","NA","0","24","NA","24","0","24","NA","NA","NA","24","0","0","NA","24","24","24","24","24","25","/","Thu Feb 29 14:36:05 2024","The main experiment item","yes","m21-ab-lexicalDecision.osexp","C:\Users\ekealey\Desktop","no","mono","no","18","no","white","no","yes","1080","legacy","24","24","C:/Users/ekealey/Desktop/subject-239.csv","xpyriment","Lentiform Loewenfeld","3.3.11","0","z","NA","NA","NA","NA","z","z","948","NA","NA","NA","NA","32303","948","2","legacy","1024","2","48000","-16","AB_m21","239","odd","CW_L","RENTER","1883","142456","140338","136905","34198","NA","NA","NA","NA","NA","140838","NA","NA","NA","139838","NA","139809","1894","142806","NA","NA","NA","140880","1883","1883","NA","141829","141852","139809","140838","140859","morph21_Oliver/Morris","2","19963","25","yes","1920","9"
"400","7.6923076923076925","7.6923076923076925","791.4615384615385","791.4615384615385","black","no","xpyriment","legacy","legacy","0","201","NA","uniform","NA","NA","NA","0","undefined","0","0","25","25","25","0","25","25","25","NA","0","25","NA","NA","0","25","NA","25","0","25","NA","NA","NA","25","0","0","NA","25","25","25","25","25","26","/","Thu Feb 29 14:36:05 2024","The main experiment item","yes","m21-ab-lexicalDecision.osexp","C:\Users\ekealey\Desktop","no","mono","no","18","no","white","no","yes","1080","legacy","25","25","C:/Users/ekealey/Desktop/subject-239.csv","xpyriment","Lentiform Loewenfeld","3.3.11","0","z","NA","NA","NA","NA","z","z","615","NA","NA","NA","NA","32303","615","2","legacy","1024","2","48000","-16","AB_m21","239","odd","CW_S","EFFORTLESS","1883","146135","144352","136905","34198","NA","NA","NA","NA","NA","144852","NA","NA","NA","143852","NA","143820","1894","146535","NA","NA","NA","144893","1883","1883","NA","145509","145532","143820","144852","144873","morph21_Oliver/Morris","2","20578","26","yes","1920","30"
"250","7.407407407407407","7.407407407407407","805.5185185185185","805.5185185185185","black","no","xpyriment","legacy","legacy","0","208","NA","uniform","NA","NA","NA","0","undefined","0","0","26","26","26","0","26","26","26","NA","0","26","NA","NA","0","26","NA","26","0","26","NA","NA","NA","26","0","0","NA","26","26","26","26","26","27","z","Thu Feb 29 14:36:05 2024","The main experiment item","yes","m21-ab-lexicalDecision.osexp","C:\Users\ekealey\Desktop","no","mono","no","18","no","white","no","yes","1080","legacy","26","26","C:/Users/ekealey/Desktop/subject-239.csv","xpyriment","Lentiform Loewenfeld","3.3.11","0","/","NA","NA","NA","NA","z","/","1171","NA","NA","NA","NA","32303","1171","2","legacy","1024","2","48000","-16","AB_m21","239","odd","FILL_NW","DOWED","1883","151940","148092","150435","34198","NA","NA","NA","NA","NA","148593","NA","NA","NA","147591","NA","147563","1894","152190","NA","NA","NA","148634","1883","1883","NA","149806","149831","147562","148593","148614","morph21_Oliver/Morris","2","21749","27","yes","1920","16"
"350","7.142857142857143","7.142857142857143","801.5","801.5","black","no","xpyriment","legacy","legacy","0","206","NA","uniform","NA","NA","NA","0","undefined","0","0","27","27","27","0","27","27","27","NA","0","27","NA","NA","0","27","NA","27","0","27","NA","NA","NA","27","0","0","NA","27","27","27","27","27","28","z","Thu Feb 29 14:36:05 2024","The main experiment item","yes","m21-ab-lexicalDecision.osexp","C:\Users\ekealey\Desktop","no","mono","no","18","no","white","no","yes","1080","legacy","27","27","C:/Users/ekealey/Desktop/subject-239.csv","xpyriment","Lentiform Loewenfeld","3.3.11","0","/","NA","NA","NA","NA","z","/","693","NA","NA","NA","NA","32303","693","2","legacy","1024","2","48000","-16","AB_m21","239","odd","NW_L_SIMP","NUTLA","1883","155641","153780","150435","34198","NA","NA","NA","NA","NA","154280","NA","NA","NA","153280","NA","153247","1894","155991","NA","NA","NA","154320","1883","1883","NA","155013","155038","153247","154280","154300","morph21_Oliver/Morris","2","22442","28","yes","1920","14"
"250","6.896551724137931","6.896551724137931","795.3448275862069","795.3448275862069","black","no","xpyriment","legacy","legacy","0","202","NA","uniform","NA","NA","NA","0","undefined","0","0","28","28","28","0","28","28","28","NA","0","28","NA","NA","0","28","NA","28","0","28","NA","NA","NA","28","0","0","NA","28","28","28","28","28","29","/","Thu Feb 29 14:36:05 2024","The main experiment item","yes","m21-ab-lexicalDecision.osexp","C:\Users\ekealey\Desktop","no","mono","no","18","no","white","no","yes","1080","legacy","28","28","C:/Users/ekealey/Desktop/subject-239.csv","xpyriment","Lentiform Loewenfeld","3.3.11","0","z","NA","NA","NA","NA","z","z","623","NA","NA","NA","NA","32303","623","2","legacy","1024","2","48000","-16","AB_m21","239","odd","CW_L","STRIKER","1883","159337","157545","150435","34198","NA","NA","NA","NA","NA","158045","NA","NA","NA","157044","NA","157015","1894","159587","NA","NA","NA","158086","1883","1883","NA","158709","158734","157015","158045","158066","morph21_Oliver/Morris","2","23065","29","yes","1920","17"
"200","6.666666666666667","6.666666666666667","803.4333333333333","803.4333333333333","black","no","xpyriment","legacy","legacy","0","207","NA","uniform","NA","NA","NA","0","undefined","0","0","29","29","29","0","29","29","29","NA","0","29","NA","NA","0","29","NA","29","0","29","NA","NA","NA","29","0","0","NA","29","29","29","29","29","30","/","Thu Feb 29 14:36:05 2024","The main experiment item","yes","m21-ab-lexicalDecision.osexp","C:\Users\ekealey\Desktop","no","mono","no","18","no","white","no","yes","1080","legacy","29","29","C:/Users/ekealey/Desktop/subject-239.csv","xpyriment","Lentiform Loewenfeld","3.3.11","0","z","NA","NA","NA","NA","z","z","1038","NA","NA","NA","NA","32303","1038","2","legacy","1024","2","48000","-16","AB_m21","239","odd","FILL_W","BLEAK","1883","164899","161185","163393","34198","NA","NA","NA","NA","NA","161685","NA","NA","NA","160685","NA","160661","1894","165099","NA","NA","NA","161726","1883","1883","NA","162765","162789","160661","161685","161706","morph21_Oliver/Morris","2","24103","30","yes","1920","5"
"400","6.451612903225806","6.451612903225806","809.0645161290323","809.0645161290323","black","no","xpyriment","legacy","legacy","0","205","NA","uniform","NA","NA","NA","0","undefined","0","0","30","30","30","0","30","30","30","NA","0","30","NA","NA","0","30","NA","30","0","30","NA","NA","NA","30","0","0","NA","30","30","30","30","30","31","z","Thu Feb 29 14:36:05 2024","The main experiment item","yes","m21-ab-lexicalDecision.osexp","C:\Users\ekealey\Desktop","no","mono","no","18","no","white","no","yes","1080","legacy","30","30","C:/Users/ekealey/Desktop/subject-239.csv","xpyriment","Lentiform Loewenfeld","3.3.11","0","/","NA","NA","NA","NA","z","/","978","NA","NA","NA","NA","32303","978","2","legacy","1024","2","48000","-16","AB_m21","239","odd","NW_S_SIMP","SCHEMENELS","1883","168816","166669","163393","34198","NA","NA","NA","NA","NA","167170","NA","NA","NA","166169","NA","166141","1894","169216","NA","NA","NA","167210","1883","1883","NA","168189","168213","166141","167170","167190","morph21_Oliver/Morris","2","25081","31","yes","1920","15"
"300","6.25","6.25","810.96875","810.96875","black","no","xpyriment","legacy","legacy","0","206","NA","uniform","NA","NA","NA","0","undefined","0","0","31","31","31","0","31","31","31","NA","0","31","NA","NA","0","31","NA","31","0","31","NA","NA","NA","31","0","0","NA","31","31","31","31","31","32","z","Thu Feb 29 14:36:05 2024","The main experiment item","yes","m21-ab-lexicalDecision.osexp","C:\Users\ekealey\Desktop","no","mono","no","18","no","white","no","yes","1080","legacy","31","31","C:/Users/ekealey/Desktop/subject-239.csv","xpyriment","Lentiform Loewenfeld","3.3.11","0","/","NA","NA","NA","NA","z","/","870","NA","NA","NA","NA","32303","870","2","legacy","1024","2","48000","-16","AB_m21","239","odd","NW_L_SIMP","BEANITH","1883","172817","170778","163393","34198","NA","NA","NA","NA","NA","171278","NA","NA","NA","170278","NA","170250","1894","173117","NA","NA","NA","171319","1883","1883","NA","172189","172214","170249","171278","171299","morph21_Oliver/Morris","2","25951","32","yes","1920","8"
"350","6.0606060606060606","6.0606060606060606","806.4545454545455","806.4545454545455","black","no","xpyriment","legacy","legacy","0","202","NA","uniform","NA","NA","NA","0","undefined","0","0","32","32","32","0","32","32","32","NA","0","32","NA","NA","0","32","NA","32","0","32","NA","NA","NA","32","0","0","NA","32","32","32","32","32","33","/","Thu Feb 29 14:36:05 2024","The main experiment item","yes","m21-ab-lexicalDecision.osexp","C:\Users\ekealey\Desktop","no","mono","no","18","no","white","no","yes","1080","legacy","32","32","C:/Users/ekealey/Desktop/subject-239.csv","xpyriment","Lentiform Loewenfeld","3.3.11","0","z","NA","NA","NA","NA","z","z","662","NA","NA","NA","NA","32303","662","2","legacy","1024","2","48000","-16","AB_m21","239","odd","CW_L","PUNCHER","1883","178034","174696","176530","34198","NA","NA","NA","NA","NA","175197","NA","NA","NA","174194","NA","174170","1894","178384","NA","NA","NA","175238","1883","1883","NA","175901","175926","174170","175197","175218","morph21_Oliver/Morris","2","26613","33","yes","1920","1"
"350","8.823529411764707","8.823529411764707","799.9117647058823","799.9117647058823","black","no","xpyriment","legacy","legacy","0","204","NA","uniform","NA","NA","NA","1","undefined","1","0","33","33","33","0","33","33","33","NA","0","33","NA","NA","0","33","NA","33","0","33","NA","NA","NA","33","0","0","NA","33","33","33","33","33","34","z","Thu Feb 29 14:36:05 2024","The main experiment item","yes","m21-ab-lexicalDecision.osexp","C:\Users\ekealey\Desktop","no","mono","no","18","no","white","no","yes","1080","legacy","33","33","C:/Users/ekealey/Desktop/subject-239.csv","xpyriment","Lentiform Loewenfeld","3.3.11","0","z","NA","NA","NA","NA","z","z","584","NA","NA","NA","NA","32303","584","2","legacy","1024","2","48000","-16","AB_m21","239","odd","NW_L_COMP","AGREELY","1883","181737","179984","176530","34198","NA","NA","NA","NA","NA","180484","NA","NA","NA","179484","NA","179456","1894","182087","NA","NA","NA","180524","1883","1883","NA","181109","181134","179456","180484","180504","morph21_Oliver/Morris","3","27197","34","yes","1920","24"
"300","8.571428571428571","8.571428571428571","803.6","803.6","black","no","xpyriment","legacy","legacy","0","205","NA","uniform","NA","NA","NA","0","undefined","0","0","34","34","34","0","34","34","34","NA","0","34","NA","NA","0","34","NA","34","0","34","NA","NA","NA","34","0","0","NA","34","34","34","34","34","35","z","Thu Feb 29 14:36:05 2024","The main experiment item","yes","m21-ab-lexicalDecision.osexp","C:\Users\ekealey\Desktop","no","mono","no","18","no","white","no","yes","1080","legacy","34","34","C:/Users/ekealey/Desktop/subject-239.csv","xpyriment","Lentiform Loewenfeld","3.3.11","0","/","NA","NA","NA","NA","z","/","929","NA","NA","NA","NA","32303","929","2","legacy","1024","2","48000","-16","AB_m21","239","odd","NW_S_SIMP","SOCKETEL","1883","185752","183653","176530","34198","NA","NA","NA","NA","NA","184153","NA","NA","NA","183153","NA","183128","1894","186052","NA","NA","NA","184195","1883","1883","NA","185125","185148","183128","184153","184175","morph21_Oliver/Morris","3","28126","35","yes","1920","1"
"400","8.333333333333334","8.333333333333334","802.1944444444445","802.1944444444445","black","no","xpyriment","legacy","legacy","0","203","NA","uniform","NA","NA","NA","0","undefined","0","0","35","35","35","0","35","35","35","NA","0","35","NA","NA","0","35","NA","35","0","35","NA","NA","NA","35","0","0","NA","35","35","35","35","35","36","z","Thu Feb 29 14:36:05 2024","The main experiment item","yes","m21-ab-lexicalDecision.osexp","C:\Users\ekealey\Desktop","no","mono","no","18","no","white","no","yes","1080","legacy","35","35","C:/Users/ekealey/Desktop/subject-239.csv","xpyriment","Lentiform Loewenfeld","3.3.11","0","/","NA","NA","NA","NA","z","/","753","NA","NA","NA","NA","32303","753","2","legacy","1024","2","48000","-16","AB_m21","239","odd","NW_S_COMP","TRUENESS","1883","191041","187616","189537","34198","NA","NA","NA","NA","NA","188116","NA","NA","NA","187116","NA","187087","1894","191441","NA","NA","NA","188156","1883","1883","NA","188909","188934","187087","188116","188136","morph21_Oliver/Morris","3","28879","36","yes","1920","15"
"200","8.108108108108109","8.108108108108109","796.8108108108108","796.8108108108108","black","no","xpyriment","legacy","legacy","0","202","NA","uniform","NA","NA","NA","0","undefined","0","0","36","36","36","0","36","36","36","NA","0","36","NA","NA","0","36","NA","36","0","36","NA","NA","NA","36","0","0","NA","36","36","36","36","36","37","/","Thu Feb 29 14:36:05 2024","The main experiment item","yes","m21-ab-lexicalDecision.osexp","C:\Users\ekealey\Desktop","no","mono","no","18","no","white","no","yes","1080","legacy","36","36","C:/Users/ekealey/Desktop/subject-239.csv","xpyriment","Lentiform Loewenfeld","3.3.11","0","z","NA","NA","NA","NA","z","z","603","NA","NA","NA","NA","32303","603","2","legacy","1024","2","48000","-16","AB_m21","239","odd","CW_L","BONELESS","1883","194768","192996","189537","34198","NA","NA","NA","NA","NA","193497","NA","NA","NA","192494","NA","192464","1894","194968","NA","NA","NA","193537","1883","1883","NA","194141","194165","192464","193497","193517","morph21_Oliver/Morris","3","29482","37","yes","1920","34"
"300","7.894736842105263","7.894736842105263","797.2368421052631","797.2368421052631","black","no","xpyriment","legacy","legacy","0","204","NA","uniform","NA","NA","NA","0","undefined","0","0","37","37","37","0","37","37","37","NA","0","37","NA","NA","0","37","NA","37","0","37","NA","NA","NA","37","0","0","NA","37","37","37","37","37","38","z","Thu Feb 29 14:36:05 2024","The main experiment item","yes","m21-ab-lexicalDecision.osexp","C:\Users\ekealey\Desktop","no","mono","no","18","no","white","no","yes","1080","legacy","37","37","C:/Users/ekealey/Desktop/subject-239.csv","xpyriment","Lentiform Loewenfeld","3.3.11","0","/","NA","NA","NA","NA","z","/","813","NA","NA","NA","NA","32303","813","2","legacy","1024","2","48000","-16","AB_m21","239","odd","NW_L_COMP","SHEETER","1883","198513","196528","189537","34198","NA","NA","NA","NA","NA","197029","NA","NA","NA","196024","NA","196000","1894","198813","NA","NA","NA","197071","1883","1883","NA","197885","197909","196000","197029","197050","morph21_Oliver/Morris","3","30295","38","yes","1920","5"
"350","7.6923076923076925","7.6923076923076925","792.2307692307693","792.2307692307693","black","no","xpyriment","legacy","legacy","0","202","NA","uniform","NA","NA","NA","0","undefined","0","0","38","38","38","0","38","38","38","NA","0","38","NA","NA","0","38","NA","38","0","38","NA","NA","NA","38","0","0","NA","38","38","38","38","38","39","/","Thu Feb 29 14:36:05 2024","The main experiment item","yes","m21-ab-lexicalDecision.osexp","C:\Users\ekealey\Desktop","no","mono","no","18","no","white","no","yes","1080","legacy","38","38","C:/Users/ekealey/Desktop/subject-239.csv","xpyriment","Lentiform Loewenfeld","3.3.11","0","z","NA","NA","NA","NA","z","z","602","NA","NA","NA","NA","32303","602","2","legacy","1024","2","48000","-16","AB_m21","239","odd","CW_L","HUNTER","1883","203657","200381","202154","34198","NA","NA","NA","NA","NA","200881","NA","NA","NA","199880","NA","199851","1894","204007","NA","NA","NA","200922","1883","1883","NA","201525","201551","199851","200881","200902","morph21_Oliver/Morris","3","30897","39","yes","1920","10"
"350","10","10","800.85","800.85","black","no","xpyriment","legacy","legacy","0","202","NA","uniform","NA","NA","NA","1","undefined","1","0","39","39","39","0","39","39","39","NA","0","39","NA","NA","0","39","NA","39","0","39","NA","NA","NA","39","0","0","NA","39","39","39","39","39","40","/","Thu Feb 29 14:36:05 2024","The main experiment item","yes","m21-ab-lexicalDecision.osexp","C:\Users\ekealey\Desktop","no","mono","no","18","no","white","no","yes","1080","legacy","39","39","C:/Users/ekealey/Desktop/subject-239.csv","xpyriment","Lentiform Loewenfeld","3.3.11","0","/","NA","NA","NA","NA","z","/","1137","NA","NA","NA","NA","32303","1137","2","legacy","1024","2","48000","-16","AB_m21","239","odd","CW_L","GUILELESS","1883","207871","205565","202154","34198","NA","NA","NA","NA","NA","206067","NA","NA","NA","205064","NA","205034","1894","208221","NA","NA","NA","206107","1883","1883","NA","207245","207268","205034","206067","206087","morph21_Oliver/Morris","4","32034","40","yes","1920","31"
"250","9.75609756097561","9.75609756097561","798.2439024390244","798.2439024390244","black","no","xpyriment","legacy","legacy","0","201","NA","uniform","NA","NA","NA","0","undefined","0","0","40","40","40","0","40","40","40","NA","0","40","NA","NA","0","40","NA","40","0","40","NA","NA","NA","40","0","0","NA","40","40","40","40","40","41","/","Thu Feb 29 14:36:05 2024","The main experiment item","yes","m21-ab-lexicalDecision.osexp","C:\Users\ekealey\Desktop","no","mono","no","18","no","white","no","yes","1080","legacy","40","40","C:/Users/ekealey/Desktop/subject-239.csv","xpyriment","Lentiform Loewenfeld","3.3.11","0","z","NA","NA","NA","NA","z","z","694","NA","NA","NA","NA","32303","694","2","legacy","1024","2","48000","-16","AB_m21","239","odd","CW_S","AWARENESS","1883","211671","209809","202154","34198","NA","NA","NA","NA","NA","210310","NA","NA","NA","209308","NA","209281","1894","211921","NA","NA","NA","210350","1883","1883","NA","211045","211068","209281","210310","210330","morph21_Oliver/Morris","4","32728","41","yes","1920","44"
"250","9.523809523809524","9.523809523809524","794.4285714285714","794.4285714285714","black","no","xpyriment","legacy","legacy","0","207","NA","uniform","NA","NA","NA","0","undefined","0","0","41","41","41","0","41","41","41","NA","0","41","NA","NA","0","41","NA","41","0","41","NA","NA","NA","41","0","0","NA","41","41","41","41","41","42","/","Thu Feb 29 14:36:05 2024","The main experiment item","yes","m21-ab-lexicalDecision.osexp","C:\Users\ekealey\Desktop","no","mono","no","18","no","white","no","yes","1080","legacy","41","41","C:/Users/ekealey/Desktop/subject-239.csv","xpyriment","Lentiform Loewenfeld","3.3.11","0","z","NA","NA","NA","NA","z","z","638","NA","NA","NA","NA","32303","638","2","legacy","1024","2","48000","-16","AB_m21","239","odd","FILL_W","WEAVE","1883","216806","213497","215303","34198","NA","NA","NA","NA","NA","213998","NA","NA","NA","212996","NA","212971","1894","217056","NA","NA","NA","214038","1883","1883","NA","214677","214700","212970","213998","214018","morph21_Oliver/Morris","4","33366","42","yes","1920","12"
"250","9.30232558139535","9.30232558139535","794.1860465116279","794.1860465116279","black","no","xpyriment","legacy","legacy","0","204","NA","uniform","NA","NA","NA","0","undefined","0","0","42","42","42","0","42","42","42","NA","0","42","NA","NA","0","42","NA","42","0","42","NA","NA","NA","42","0","0","NA","42","42","42","42","42","43","z","Thu Feb 29 14:36:05 2024","The main experiment item","yes","m21-ab-lexicalDecision.osexp","C:\Users\ekealey\Desktop","no","mono","no","18","no","white","no","yes","1080","legacy","42","42","C:/Users/ekealey/Desktop/subject-239.csv","xpyriment","Lentiform Loewenfeld","3.3.11","0","/","NA","NA","NA","NA","z","/","784","NA","NA","NA","NA","32303","784","2","legacy","1024","2","48000","-16","AB_m21","239","odd","NW_L_COMP","TRIPARY","1883","220584","218632","215303","34198","NA","NA","NA","NA","NA","219132","NA","NA","NA","218130","NA","218099","1894","220834","NA","NA","NA","219173","1883","1883","NA","219957","219981","218099","219132","219153","morph21_Oliver/Morris","4","34150","43","yes","1920","2"
"200","9.090909090909092","9.090909090909092","792.4090909090909","792.4090909090909","black","no","xpyriment","legacy","legacy","0","208","NA","uniform","NA","NA","NA","0","undefined","0","0","43","43","43","0","43","43","43","NA","0","43","NA","NA","0","43","NA","43","0","43","NA","NA","NA","43","0","0","NA","43","43","43","43","43","44","z","Thu Feb 29 14:36:05 2024","The main experiment item","yes","m21-ab-lexicalDecision.osexp","C:\Users\ekealey\Desktop","no","mono","no","18","no","white","no","yes","1080","legacy","43","43","C:/Users/ekealey/Desktop/subject-239.csv","xpyriment","Lentiform Loewenfeld","3.3.11","0","/","NA","NA","NA","NA","z","/","716","NA","NA","NA","NA","32303","716","2","legacy","1024","2","48000","-16","AB_m21","239","odd","FILL_NW","TUEER","1883","224298","222411","215303","34198","NA","NA","NA","NA","NA","222911","NA","NA","NA","221911","NA","221884","1894","224498","NA","NA","NA","222952","1883","1883","NA","223669","223693","221884","222911","222932","morph21_Oliver/Morris","4","34866","44","yes","1920","44"
"400","8.88888888888889","8.88888888888889","790","790","black","no","xpyriment","legacy","legacy","0","208","NA","uniform","NA","NA","NA","0","undefined","0","0","44","44","44","0","44","44","44","NA","0","44","NA","NA","0","44","NA","44","0","44","NA","NA","NA","44","0","0","NA","44","44","44","44","44","45","z","Thu Feb 29 14:36:05 2024","The main experiment item","yes","m21-ab-lexicalDecision.osexp","C:\Users\ekealey\Desktop","no","mono","no","18","no","white","no","yes","1080","legacy","44","44","C:/Users/ekealey/Desktop/subject-239.csv","xpyriment","Lentiform Loewenfeld","3.3.11","0","/","NA","NA","NA","NA","z","/","684","NA","NA","NA","NA","32303","684","2","legacy","1024","2","48000","-16","AB_m21","239","odd","FILL_NW","ULNS","1883","229422","226066","227919","34198","NA","NA","NA","NA","NA","226568","NA","NA","NA","225566","NA","225539","1894","229822","NA","NA","NA","226608","1883","1883","NA","227293","227316","225539","226568","226588","morph21_Oliver/Morris","4","35550","45","yes","1920","45"
"200","8.695652173913043","8.695652173913043","787.9782608695652","787.9782608695652","black","no","xpyriment","legacy","legacy","0","201","NA","uniform","NA","NA","NA","0","undefined","0","0","45","45","45","0","45","45","45","NA","0","45","NA","NA","0","45","NA","45","0","45","NA","NA","NA","45","0","0","NA","45","45","45","45","45","46","/","Thu Feb 29 14:36:05 2024","The main experiment item","yes","m21-ab-lexicalDecision.osexp","C:\Users\ekealey\Desktop","no","mono","no","18","no","white","no","yes","1080","legacy","45","45","C:/Users/ekealey/Desktop/subject-239.csv","xpyriment","Lentiform Loewenfeld","3.3.11","0","z","NA","NA","NA","NA","z","z","697","NA","NA","NA","NA","32303","697","2","legacy","1024","2","48000","-16","AB_m21","239","odd","CW_S","AMUSEMENT","1883","233259","231389","227919","34198","NA","NA","NA","NA","NA","231891","NA","NA","NA","230888","NA","230851","1894","233459","NA","NA","NA","231931","1883","1883","NA","232629","232653","230851","231890","231911","morph21_Oliver/Morris","4","36247","46","yes","1920","38"
"400","8.51063829787234","8.51063829787234","790.7659574468086","790.7659574468086","black","no","xpyriment","legacy","legacy","0","205","NA","uniform","NA","NA","NA","0","undefined","0","0","46","46","46","0","46","46","46","NA","0","46","NA","NA","0","46","NA","46","0","46","NA","NA","NA","46","0","0","NA","46","46","46","46","46","47","z","Thu Feb 29 14:36:05 2024","The main experiment item","yes","m21-ab-lexicalDecision.osexp","C:\Users\ekealey\Desktop","no","mono","no","18","no","white","no","yes","1080","legacy","46","46","C:/Users/ekealey/Desktop/subject-239.csv","xpyriment","Lentiform Loewenfeld","3.3.11","0","/","NA","NA","NA","NA","z","/","919","NA","NA","NA","NA","32303","919","2","legacy","1024","2","48000","-16","AB_m21","239","odd","NW_S_SIMP","ADVERTISELA","1883","237138","235047","227919","34198","NA","NA","NA","NA","NA","235547","NA","NA","NA","234546","NA","234516","1894","237538","NA","NA","NA","235589","1883","1883","NA","236509","236534","234516","235547","235569","morph21_Oliver/Morris","4","37166","47","yes","1920","25"
"300","8.333333333333334","8.333333333333334","791.9791666666666","791.9791666666666","black","no","xpyriment","legacy","legacy","0","201","NA","uniform","NA","NA","NA","0","undefined","0","0","47","47","47","0","47","47","47","NA","0","47","NA","NA","0","47","NA","47","0","47","NA","NA","NA","47","0","0","NA","47","47","47","47","47","48","/","Thu Feb 29 14:36:05 2024","The main experiment item","yes","m21-ab-lexicalDecision.osexp","C:\Users\ekealey\Desktop","no","mono","no","18","no","white","no","yes","1080","legacy","47","47","C:/Users/ekealey/Desktop/subject-239.csv","xpyriment","Lentiform Loewenfeld","3.3.11","0","z","NA","NA","NA","NA","z","z","849","NA","NA","NA","NA","32303","849","2","legacy","1024","2","48000","-16","AB_m21","239","odd","CW_S","MAGICAL","1883","242611","239087","241106","34198","NA","NA","NA","NA","NA","239587","NA","NA","NA","238588","NA","238560","1894","242911","NA","NA","NA","239627","1883","1883","NA","240477","240502","238560","239587","239607","morph21_Oliver/Morris","4","38015","48","yes","1920","4"
"300","8.16326530612245","8.16326530612245","793.7142857142857","793.7142857142857","black","no","xpyriment","legacy","legacy","0","205","NA","uniform","NA","NA","NA","0","undefined","0","0","48","48","48","0","48","48","48","NA","0","48","NA","NA","0","48","NA","48","0","48","NA","NA","NA","48","0","0","NA","48","48","48","48","48","49","z","Thu Feb 29 14:36:05 2024","The main experiment item","yes","m21-ab-lexicalDecision.osexp","C:\Users\ekealey\Desktop","no","mono","no","18","no","white","no","yes","1080","legacy","48","48","C:/Users/ekealey/Desktop/subject-239.csv","xpyriment","Lentiform Loewenfeld","3.3.11","0","/","NA","NA","NA","NA","z","/","877","NA","NA","NA","NA","32303","877","2","legacy","1024","2","48000","-16","AB_m21","239","odd","NW_S_SIMP","HELMETOES","1883","246552","244507","241106","34198","NA","NA","NA","NA","NA","245007","NA","NA","NA","244006","NA","243979","1894","246852","NA","NA","NA","245048","1883","1883","NA","245925","245949","243979","245007","245028","morph21_Oliver/Morris","4","38892","49","yes","1920","14"
"400","8","8","789.1","789.1","black","no","xpyriment","legacy","legacy","0","207","NA","uniform","NA","NA","NA","0","undefined","0","0","49","49","49","0","49","49","49","NA","0","49","NA","NA","0","49","NA","49","0","49","NA","NA","NA","49","0","0","NA","49","49","49","49","49","50","/","Thu Feb 29 14:36:05 2024","The main experiment item","yes","m21-ab-lexicalDecision.osexp","C:\Users\ekealey\Desktop","no","mono","no","18","no","white","no","yes","1080","legacy","49","49","C:/Users/ekealey/Desktop/subject-239.csv","xpyriment","Lentiform Loewenfeld","3.3.11","0","z","NA","NA","NA","NA","z","z","563","NA","NA","NA","NA","32303","563","2","legacy","1024","2","48000","-16","AB_m21","239","odd","FILL_W","STEEP","1883","250145","248412","241106","34198","NA","NA","NA","NA","NA","248912","NA","NA","NA","247910","NA","247879","1894","250545","NA","NA","NA","248953","1883","1883","NA","249516","249541","247879","248912","248933","morph21_Oliver/Morris","4","39455","50","yes","1920","16"
"400","7.8431372549019605","7.8431372549019605","788.2549019607843","788.2549019607843","black","no","xpyriment","legacy","legacy","0","207","NA","uniform","NA","NA","NA","0","undefined","0","0","50","50","50","0","50","50","50","NA","0","50","NA","NA","0","50","NA","50","0","50","NA","NA","NA","50","0","0","NA","50","50","50","50","50","51","/","Thu Feb 29 14:36:05 2024","The main experiment item","yes","m21-ab-lexicalDecision.osexp","C:\Users\ekealey\Desktop","no","mono","no","18","no","white","no","yes","1080","legacy","50","50","C:/Users/ekealey/Desktop/subject-239.csv","xpyriment","Lentiform Loewenfeld","3.3.11","0","z","NA","NA","NA","NA","z","z","746","NA","NA","NA","NA","32303","746","2","legacy","1024","2","48000","-16","AB_m21","239","odd","FILL_W","CEASE","1883","255538","252117","254033","34198","NA","NA","NA","NA","NA","252617","NA","NA","NA","251617","NA","251593","1894","255938","NA","NA","NA","252658","1883","1883","NA","253405","253429","251593","252617","252638","morph21_Oliver/Morris","4","40201","51","yes","1920","18"
"350","7.6923076923076925","7.6923076923076925","786.7307692307693","786.7307692307693","black","no","xpyriment","legacy","legacy","0","202","NA","uniform","NA","NA","NA","0","undefined","0","0","51","51","51","0","51","51","51","NA","0","51","NA","NA","0","51","NA","51","0","51","NA","NA","NA","51","0","0","NA","51","51","51","51","51","52","/","Thu Feb 29 14:36:05 2024","The main experiment item","yes","m21-ab-lexicalDecision.osexp","C:\Users\ekealey\Desktop","no","mono","no","18","no","white","no","yes","1080","legacy","51","51","C:/Users/ekealey/Desktop/subject-239.csv","xpyriment","Lentiform Loewenfeld","3.3.11","0","z","NA","NA","NA","NA","z","z","709","NA","NA","NA","NA","32303","709","2","legacy","1024","2","48000","-16","AB_m21","239","odd","CW_L","KICKING","1883","259394","257514","254033","34198","NA","NA","NA","NA","NA","258014","NA","NA","NA","257013","NA","256982","1894","259744","NA","NA","NA","258055","1883","1883","NA","258765","258789","256982","258014","258035","morph21_Oliver/Morris","4","40910","52","yes","1920","23"
"400","7.547169811320755","7.547169811320755","785.5471698113207","785.5471698113207","black","no","xpyriment","legacy","legacy","0","204","NA","uniform","NA","NA","NA","0","undefined","0","0","52","52","52","0","52","52","52","NA","0","52","NA","NA","0","52","NA","52","0","52","NA","NA","NA","52","0","0","NA","52","52","52","52","52","53","z","Thu Feb 29 14:36:05 2024","The main experiment item","yes","m21-ab-lexicalDecision.osexp","C:\Users\ekealey\Desktop","no","mono","no","18","no","white","no","yes","1080","legacy","52","52","C:/Users/ekealey/Desktop/subject-239.csv","xpyriment","Lentiform Loewenfeld","3.3.11","0","/","NA","NA","NA","NA","z","/","724","NA","NA","NA","NA","32303","724","2","legacy","1024","2","48000","-16","AB_m21","239","odd","NW_L_COMP","RIPENCE","1883","263226","261331","254033","34198","NA","NA","NA","NA","NA","261831","NA","NA","NA","260829","NA","260804","1894","263626","NA","NA","NA","261872","1883","1883","NA","262597","262621","260804","261831","261852","morph21_Oliver/Morris","4","41634","53","yes","1920","4"
"300","7.407407407407407","7.407407407407407","786.4629629629629","786.4629629629629","black","no","xpyriment","legacy","legacy","0","206","NA","uniform","NA","NA","NA","0","undefined","0","0","53","53","53","0","53","53","53","NA","0","53","NA","NA","0","53","NA","53","0","53","NA","NA","NA","53","0","0","NA","53","53","53","53","53","54","z","Thu Feb 29 14:36:05 2024","The main experiment item","yes","m21-ab-lexicalDecision.osexp","C:\Users\ekealey\Desktop","no","mono","no","18","no","white","no","yes","1080","legacy","53","53","C:/Users/ekealey/Desktop/subject-239.csv","xpyriment","Lentiform Loewenfeld","3.3.11","0","/","NA","NA","NA","NA","z","/","835","NA","NA","NA","NA","32303","835","2","legacy","1024","2","48000","-16","AB_m21","239","odd","NW_L_SIMP","ELBOWILM","1883","268704","265195","267200","34198","NA","NA","NA","NA","NA","265697","NA","NA","NA","264694","NA","264669","1894","269004","NA","NA","NA","265737","1883","1883","NA","266573","266597","264669","265697","265717","morph21_Oliver/Morris","4","42469","54","yes","1920","10"
"300","7.2727272727272725","7.2727272727272725","787.0909090909091","787.0909090909091","black","no","xpyriment","legacy","legacy","0","205","NA","uniform","NA","NA","NA","0","undefined","0","0","54","54","54","0","54","54","54","NA","0","54","NA","NA","0","54","NA","54","0","54","NA","NA","NA","54","0","0","NA","54","54","54","54","54","55","z","Thu Feb 29 14:36:05 2024","The main experiment item","yes","m21-ab-lexicalDecision.osexp","C:\Users\ekealey\Desktop","no","mono","no","18","no","white","no","yes","1080","legacy","54","54","C:/Users/ekealey/Desktop/subject-239.csv","xpyriment","Lentiform Loewenfeld","3.3.11","0","/","NA","NA","NA","NA","z","/","821","NA","NA","NA","NA","32303","821","2","legacy","1024","2","48000","-16","AB_m21","239","odd","NW_S_SIMP","WARNODY","1883","272562","270570","267200","34198","NA","NA","NA","NA","NA","271071","NA","NA","NA","270069","NA","270036","1894","272862","NA","NA","NA","271112","1883","1883","NA","271933","271957","270036","271071","271092","morph21_Oliver/Morris","4","43290","55","yes","1920","12"
"400","7.142857142857143","7.142857142857143","785.9285714285714","785.9285714285714","black","no","xpyriment","legacy","legacy","0","208","NA","uniform","NA","NA","NA","0","undefined","0","0","55","55","55","0","55","55","55","NA","0","55","NA","NA","0","55","NA","55","0","55","NA","NA","NA","55","0","0","NA","55","55","55","55","55","56","z","Thu Feb 29 14:36:05 2024","The main experiment item","yes","m21-ab-lexicalDecision.osexp","C:\Users\ekealey\Desktop","no","mono","no","18","no","white","no","yes","1080","legacy","55","55","C:/Users/ekealey/Desktop/subject-239.csv","xpyriment","Lentiform Loewenfeld","3.3.11","0","/","NA","NA","NA","NA","z","/","722","NA","NA","NA","NA","32303","722","2","legacy","1024","2","48000","-16","AB_m21","239","odd","FILL_NW","HEND","1883","276306","274413","267200","34198","NA","NA","NA","NA","NA","274913","NA","NA","NA","273913","NA","273885","1894","276706","NA","NA","NA","274954","1883","1883","NA","275676","275702","273885","274913","274934","morph21_Oliver/Morris","4","44012","56","yes","1920","28"
"250","7.017543859649122","7.017543859649122","783.561403508772","783.561403508772","black","no","xpyriment","legacy","legacy","0","201","NA","uniform","NA","NA","NA","0","undefined","0","0","56","56","56","0","56","56","56","NA","0","56","NA","NA","0","56","NA","56","0","56","NA","NA","NA","56","0","0","NA","56","56","56","56","56","57","/","Thu Feb 29 14:36:05 2024","The main experiment item","yes","m21-ab-lexicalDecision.osexp","C:\Users\ekealey\Desktop","no","mono","no","18","no","white","no","yes","1080","legacy","56","56","C:/Users/ekealey/Desktop/subject-239.csv","xpyriment","Lentiform Loewenfeld","3.3.11","0","z","NA","NA","NA","NA","z","z","651","NA","NA","NA","NA","32303","651","2","legacy","1024","2","48000","-16","AB_m21","239","odd","CW_S","JAILER","1883","281593","278268","280088","34198","NA","NA","NA","NA","NA","278769","NA","NA","NA","277767","NA","277740","1894","281843","NA","NA","NA","278809","1883","1883","NA","279461","279485","277740","278769","278789","morph21_Oliver/Morris","4","44663","57","yes","1920","13"
"400","6.896551724137931","6.896551724137931","781.8965517241379","781.8965517241379","black","no","xpyriment","legacy","legacy","0","207","NA","uniform","NA","NA","NA","0","undefined","0","0","57","57","57","0","57","57","57","NA","0","57","NA","NA","0","57","NA","57","0","57","NA","NA","NA","57","0","0","NA","57","57","57","57","57","58","/","Thu Feb 29 14:36:05 2024","The main experiment item","yes","m21-ab-lexicalDecision.osexp","C:\Users\ekealey\Desktop","no","mono","no","18","no","white","no","yes","1080","legacy","57","57","C:/Users/ekealey/Desktop/subject-239.csv","xpyriment","Lentiform Loewenfeld","3.3.11","0","z","NA","NA","NA","NA","z","z","687","NA","NA","NA","NA","32303","687","2","legacy","1024","2","48000","-16","AB_m21","239","odd","FILL_W","FLIRT","1883","285313","283455","280088","34198","NA","NA","NA","NA","NA","283956","NA","NA","NA","282954","NA","282927","1894","285713","NA","NA","NA","283997","1883","1883","NA","284685","284709","282927","283956","283977","morph21_Oliver/Morris","4","45350","58","yes","1920","1"
"300","6.779661016949152","6.779661016949152","785.1355932203389","785.1355932203389","black","no","xpyriment","legacy","legacy","0","208","NA","uniform","NA","NA","NA","0","undefined","0","0","58","58","58","0","58","58","58","NA","0","58","NA","NA","0","58","NA","58","0","58","NA","NA","NA","58","0","0","NA","58","58","58","58","58","59","z","Thu Feb 29 14:36:05 2024","The main experiment item","yes","m21-ab-lexicalDecision.osexp","C:\Users\ekealey\Desktop","no","mono","no","18","no","white","no","yes","1080","legacy","58","58","C:/Users/ekealey/Desktop/subject-239.csv","xpyriment","Lentiform Loewenfeld","3.3.11","0","/","NA","NA","NA","NA","z","/","973","NA","NA","NA","NA","32303","973","2","legacy","1024","2","48000","-16","AB_m21","239","odd","FILL_NW","BAFED","1883","289402","287259","280088","34198","NA","NA","NA","NA","NA","287759","NA","NA","NA","286758","NA","286732","1894","289702","NA","NA","NA","287799","1883","1883","NA","288773","288798","286732","287759","287779","morph21_Oliver/Morris","4","46323","59","yes","1920","1"
"400","6.666666666666667","6.666666666666667","785.0166666666667","785.0166666666667","black","no","xpyriment","legacy","legacy","0","201","NA","uniform","NA","NA","NA","0","undefined","0","0","59","59","59","0","59","59","59","NA","0","59","NA","NA","0","59","NA","59","0","59","NA","NA","NA","59","0","0","NA","59","59","59","59","59","60","/","Thu Feb 29 14:36:05 2024","The main experiment item","yes","m21-ab-lexicalDecision.osexp","C:\Users\ekealey\Desktop","no","mono","no","18","no","white","no","yes","1080","legacy","59","59","C:/Users/ekealey/Desktop/subject-239.csv","xpyriment","Lentiform Loewenfeld","3.3.11","0","z","NA","NA","NA","NA","z","z","778","NA","NA","NA","NA","32303","778","2","legacy","1024","2","48000","-16","AB_m21","239","odd","CW_S","DIETARY","1883","294718","291268","293215","34198","NA","NA","NA","NA","NA","291770","NA","NA","NA","290768","NA","290740","1894","295118","NA","NA","NA","291810","1883","1883","NA","292589","292612","290740","291770","291790","morph21_Oliver/Morris","4","47101","60","yes","1920","6"
"250","6.557377049180328","6.557377049180328","788.8688524590164","788.8688524590164","black","no","xpyriment","legacy","legacy","0","206","NA","uniform","NA","NA","NA","0","undefined","0","0","60","60","60","0","60","60","60","NA","0","60","NA","NA","0","60","NA","60","0","60","NA","NA","NA","60","0","0","NA","60","60","60","60","60","61","z","Thu Feb 29 14:36:05 2024","The main experiment item","yes","m21-ab-lexicalDecision.osexp","C:\Users\ekealey\Desktop","no","mono","no","18","no","white","no","yes","1080","legacy","60","60","C:/Users/ekealey/Desktop/subject-239.csv","xpyriment","Lentiform Loewenfeld","3.3.11","0","/","NA","NA","NA","NA","z","/","1020","NA","NA","NA","NA","32303","1020","2","legacy","1024","2","48000","-16","AB_m21","239","odd","NW_L_SIMP","SMOOTHFIL","1883","298888","296699","293215","34198","NA","NA","NA","NA","NA","297199","NA","NA","NA","296197","NA","296168","1894","299138","NA","NA","NA","297240","1883","1883","NA","298260","298284","296168","297199","297220","morph21_Oliver/Morris","4","48121","61","yes","1920","19"
"400","6.451612903225806","6.451612903225806","792.5322580645161","792.5322580645161","black","no","xpyriment","legacy","legacy","0","205","NA","uniform","NA","NA","NA","0","undefined","0","0","61","61","61","0","61","61","61","NA","0","61","NA","NA","0","61","NA","61","0","61","NA","NA","NA","61","0","0","NA","61","61","61","61","61","62","z","Thu Feb 29 14:36:05 2024","The main experiment item","yes","m21-ab-lexicalDecision.osexp","C:\Users\ekealey\Desktop","no","mono","no","18","no","white","no","yes","1080","legacy","61","61","C:/Users/ekealey/Desktop/subject-239.csv","xpyriment","Lentiform Loewenfeld","3.3.11","0","/","NA","NA","NA","NA","z","/","1016","NA","NA","NA","NA","32303","1016","2","legacy","1024","2","48000","-16","AB_m21","239","odd","NW_S_SIMP","MEDICALADY","1883","302911","300726","293215","34198","NA","NA","NA","NA","NA","301227","NA","NA","NA","300224","NA","300198","1894","303311","NA","NA","NA","301268","1883","1883","NA","302284","302308","300198","301227","301248","morph21_Oliver/Morris","4","49137","62","yes","1920","18"
"300","6.349206349206349","6.349206349206349","794.8888888888889","794.8888888888889","black","no","xpyriment","legacy","legacy","0","205","NA","uniform","NA","NA","NA","0","undefined","0","0","62","62","62","0","62","62","62","NA","0","62","NA","NA","0","62","NA","62","0","62","NA","NA","NA","62","0","0","NA","62","62","62","62","62","63","z","Thu Feb 29 14:36:05 2024","The main experiment item","yes","m21-ab-lexicalDecision.osexp","C:\Users\ekealey\Desktop","no","mono","no","18","no","white","no","yes","1080","legacy","62","62","C:/Users/ekealey/Desktop/subject-239.csv","xpyriment","Lentiform Loewenfeld","3.3.11","0","/","NA","NA","NA","NA","z","/","941","NA","NA","NA","NA","32303","941","2","legacy","1024","2","48000","-16","AB_m21","239","odd","NW_S_SIMP","HEIRIG","1883","308513","304898","307009","34198","NA","NA","NA","NA","NA","305399","NA","NA","NA","304397","NA","304371","1894","308813","NA","NA","NA","305439","1883","1883","NA","306380","306404","304371","305398","305419","morph21_Oliver/Morris","4","50078","63","yes","1920","3"
"250","6.25","6.25","794.25","794.25","black","no","xpyriment","legacy","legacy","0","202","NA","uniform","NA","NA","NA","0","undefined","0","0","63","63","63","0","63","63","63","NA","0","63","NA","NA","0","63","NA","63","0","63","NA","NA","NA","63","0","0","NA","63","63","63","63","63","64","/","Thu Feb 29 14:36:05 2024","The main experiment item","yes","m21-ab-lexicalDecision.osexp","C:\Users\ekealey\Desktop","no","mono","no","18","no","white","no","yes","1080","legacy","63","63","C:/Users/ekealey/Desktop/subject-239.csv","xpyriment","Lentiform Loewenfeld","3.3.11","0","z","NA","NA","NA","NA","z","z","754","NA","NA","NA","NA","32303","754","2","legacy","1024","2","48000","-16","AB_m21","239","odd","CW_L","DEAFNESS","1883","312337","310413","307009","34198","NA","NA","NA","NA","NA","310913","NA","NA","NA","309912","NA","309884","1894","312587","NA","NA","NA","310954","1883","1883","NA","311709","311732","309884","310913","310934","morph21_Oliver/Morris","4","50832","64","yes","1920","39"
"200","6.153846153846154","6.153846153846154","800.4923076923077","800.4923076923077","black","no","xpyriment","legacy","legacy","0","201","NA","uniform","NA","NA","NA","0","undefined","0","0","64","64","64","0","64","64","64","NA","0","64","NA","NA","0","64","NA","64","0","64","NA","NA","NA","64","0","0","NA","64","64","64","64","64","65","/","Thu Feb 29 14:36:05 2024","The main experiment item","yes","m21-ab-lexicalDecision.osexp","C:\Users\ekealey\Desktop","no","mono","no","18","no","white","no","yes","1080","legacy","64","64","C:/Users/ekealey/Desktop/subject-239.csv","xpyriment","Lentiform Loewenfeld","3.3.11","0","None","NA","NA","NA","NA","z","None","1200","NA","NA","NA","NA","32303","1200","2","legacy","1024","2","48000","-16","AB_m21","239","odd","CW_S","CAMPAIGNER","1883","316542","314174","307009","34198","NA","NA","NA","NA","NA","314674","NA","NA","NA","313673","NA","313646","1894","316742","NA","NA","NA","314716","1883","1883","NA","315916","315939","313646","314674","314695","morph21_Oliver/Morris","4","52032","65","yes","1920","15"
"400","6.0606060606060606","6.0606060606060606","798.7727272727273","798.7727272727273","black","no","xpyriment","legacy","legacy","0","202","NA","uniform","NA","NA","NA","0","undefined","0","0","65","65","65","0","65","65","65","NA","0","65","NA","NA","0","65","NA","65","0","65","NA","NA","NA","65","0","0","NA","65","65","65","65","65","66","/","Thu Feb 29 14:36:05 2024","The main experiment item","yes","m21-ab-lexicalDecision.osexp","C:\Users\ekealey\Desktop","no","mono","no","18","no","white","no","yes","1080","legacy","65","65","C:/Users/ekealey/Desktop/subject-239.csv","xpyriment","Lentiform Loewenfeld","3.3.11","0","z","NA","NA","NA","NA","z","z","687","NA","NA","NA","NA","32303","687","2","legacy","1024","2","48000","-16","AB_m21","239","odd","CW_L","WRONGLY","1883","321688","318327","320184","34198","NA","NA","NA","NA","NA","318828","NA","NA","NA","317826","NA","317802","1894","322088","NA","NA","NA","318869","1883","1883","NA","319556","319580","317801","318828","318849","morph21_Oliver/Morris","4","52719","66","yes","1920","37"
"350","5.970149253731344","5.970149253731344","798.1194029850747","798.1194029850747","black","no","xpyriment","legacy","legacy","0","208","NA","uniform","NA","NA","NA","0","undefined","0","0","66","66","66","0","66","66","66","NA","0","66","NA","NA","0","66","NA","66","0","66","NA","NA","NA","66","0","0","NA","66","66","66","66","66","67","z","Thu Feb 29 14:36:05 2024","The main experiment item","yes","m21-ab-lexicalDecision.osexp","C:\Users\ekealey\Desktop","no","mono","no","18","no","white","no","yes","1080","legacy","66","66","C:/Users/ekealey/Desktop/subject-239.csv","xpyriment","Lentiform Loewenfeld","3.3.11","0","/","NA","NA","NA","NA","z","/","755","NA","NA","NA","NA","32303","755","2","legacy","1024","2","48000","-16","AB_m21","239","odd","FILL_NW","DOADS","1883","325634","323706","320184","34198","NA","NA","NA","NA","NA","324207","NA","NA","NA","323206","NA","323178","1894","325984","NA","NA","NA","324249","1883","1883","NA","325005","325029","323178","324207","324228","morph21_Oliver/Morris","4","53474","67","yes","1920","15"
"400","5.882352941176471","5.882352941176471","796.6764705882352","796.6764705882352","black","no","xpyriment","legacy","legacy","0","201","NA","uniform","NA","NA","NA","0","undefined","0","0","67","67","67","0","67","67","67","NA","0","67","NA","NA","0","67","NA","67","0","67","NA","NA","NA","67","0","0","NA","67","67","67","67","67","68","/","Thu Feb 29 14:36:05 2024","The main experiment item","yes","m21-ab-lexicalDecision.osexp","C:\Users\ekealey\Desktop","no","mono","no","18","no","white","no","yes","1080","legacy","67","67","C:/Users/ekealey/Desktop/subject-239.csv","xpyriment","Lentiform Loewenfeld","3.3.11","0","z","NA","NA","NA","NA","z","z","700","NA","NA","NA","NA","32303","700","2","legacy","1024","2","48000","-16","AB_m21","239","odd","CW_S","RAIDER","1883","329409","327539","320184","34198","NA","NA","NA","NA","NA","328039","NA","NA","NA","327039","NA","327010","1894","329809","NA","NA","NA","328080","1883","1883","NA","328780","328806","327010","328039","328060","morph21_Oliver/Morris","4","54174","68","yes","1920","12"
"300","5.797101449275362","5.797101449275362","793.6086956521739","793.6086956521739","black","no","xpyriment","legacy","legacy","0","208","NA","uniform","NA","NA","NA","0","undefined","0","0","68","68","68","0","68","68","68","NA","0","68","NA","NA","0","68","NA","68","0","68","NA","NA","NA","68","0","0","NA","68","68","68","68","68","69","z","Thu Feb 29 14:36:05 2024","The main experiment item","yes","m21-ab-lexicalDecision.osexp","C:\Users\ekealey\Desktop","no","mono","no","18","no","white","no","yes","1080","legacy","68","68","C:/Users/ekealey/Desktop/subject-239.csv","xpyriment","Lentiform Loewenfeld","3.3.11","0","/","NA","NA","NA","NA","z","/","585","NA","NA","NA","NA","32303","585","2","legacy","1024","2","48000","-16","AB_m21","239","odd","FILL_NW","KEMT","1883","334607","331349","333104","34198","NA","NA","NA","NA","NA","331849","NA","NA","NA","330848","NA","330814","1894","334907","NA","NA","NA","331891","1883","1883","NA","332476","332501","330814","331849","331871","morph21_Oliver/Morris","4","54759","69","yes","1920","32"
"400","7.142857142857143","7.142857142857143","798.7142857142857","798.7142857142857","black","no","xpyriment","legacy","legacy","0","205","NA","uniform","NA","NA","NA","1","undefined","1","0","69","69","69","0","69","69","69","NA","0","69","NA","NA","0","69","NA","69","0","69","NA","NA","NA","69","0","0","NA","69","69","69","69","69","70","z","Thu Feb 29 14:36:05 2024","The main experiment item","yes","m21-ab-lexicalDecision.osexp","C:\Users\ekealey\Desktop","no","mono","no","18","no","white","no","yes","1080","legacy","69","69","C:/Users/ekealey/Desktop/subject-239.csv","xpyriment","Lentiform Loewenfeld","3.3.11","0","z","NA","NA","NA","NA","z","z","1151","NA","NA","NA","NA","32303","1151","2","legacy","1024","2","48000","-16","AB_m21","239","odd","NW_S_SIMP","URNILT","1883","338826","336504","333104","34198","NA","NA","NA","NA","NA","337004","NA","NA","NA","336003","NA","335976","1894","339226","NA","NA","NA","337045","1883","1883","NA","338196","338221","335976","337004","337025","morph21_Oliver/Morris","5","55910","70","yes","1920","5"
"200","7.042253521126761","7.042253521126761","797.6056338028169","797.6056338028169","black","no","xpyriment","legacy","legacy","0","208","NA","uniform","NA","NA","NA","0","undefined","0","0","70","70","70","0","70","70","70","NA","0","70","NA","NA","0","70","NA","70","0","70","NA","NA","NA","70","0","0","NA","70","70","70","70","70","71","z","Thu Feb 29 14:36:05 2024","The main experiment item","yes","m21-ab-lexicalDecision.osexp","C:\Users\ekealey\Desktop","no","mono","no","18","no","white","no","yes","1080","legacy","70","70","C:/Users/ekealey/Desktop/subject-239.csv","xpyriment","Lentiform Loewenfeld","3.3.11","0","/","NA","NA","NA","NA","z","/","720","NA","NA","NA","NA","32303","720","2","legacy","1024","2","48000","-16","AB_m21","239","odd","FILL_NW","BROUPS","1883","342697","340807","333104","34198","NA","NA","NA","NA","NA","341308","NA","NA","NA","340306","NA","340275","1894","342897","NA","NA","NA","341348","1883","1883","NA","342068","342093","340275","341308","341328","morph21_Oliver/Morris","5","56630","71","yes","1920","4"
"200","6.944444444444445","6.944444444444445","794.8611111111111","794.8611111111111","black","no","xpyriment","legacy","legacy","0","207","NA","uniform","NA","NA","NA","0","undefined","0","0","71","71","71","0","71","71","71","NA","0","71","NA","NA","0","71","NA","71","0","71","NA","NA","NA","71","0","0","NA","71","71","71","71","71","72","/","Thu Feb 29 14:36:05 2024","The main experiment item","yes","m21-ab-lexicalDecision.osexp","C:\Users\ekealey\Desktop","no","mono","no","18","no","white","no","yes","1080","legacy","71","71","C:/Users/ekealey/Desktop/subject-239.csv","xpyriment","Lentiform Loewenfeld","3.3.11","0","z","NA","NA","NA","NA","z","z","600","NA","NA","NA","NA","32303","600","2","legacy","1024","2","48000","-16","AB_m21","239","odd","FILL_W","LEGAL","1883","347711","344437","346208","34198","NA","NA","NA","NA","NA","344939","NA","NA","NA","343937","NA","343910","1894","347912","NA","NA","NA","344980","1883","1883","NA","345581","345604","343910","344939","344960","morph21_Oliver/Morris","5","57230","72","yes","1920","35"
"350","6.8493150684931505","6.8493150684931505","800.1643835616438","800.1643835616438","black","no","xpyriment","legacy","legacy","0","203","NA","uniform","NA","NA","NA","0","undefined","0","0","72","72","72","0","72","72","72","NA","0","72","NA","NA","0","72","NA","72","0","72","NA","NA","NA","72","0","0","NA","72","72","72","72","72","73","z","Thu Feb 29 14:36:05 2024","The main experiment item","yes","m21-ab-lexicalDecision.osexp","C:\Users\ekealey\Desktop","no","mono","no","18","no","white","no","yes","1080","legacy","72","72","C:/Users/ekealey/Desktop/subject-239.csv","xpyriment","Lentiform Loewenfeld","3.3.11","0","/","NA","NA","NA","NA","z","/","1182","NA","NA","NA","NA","32303","1182","2","legacy","1024","2","48000","-16","AB_m21","239","odd","NW_S_COMP","WELDIC","1883","351825","349473","346208","34198","NA","NA","NA","NA","NA","349973","NA","NA","NA","348972","NA","348943","1894","352176","NA","NA","NA","350014","1883","1883","NA","351197","351220","348942","349973","349994","morph21_Oliver/Morris","5","58412","73","yes","1920","21"
"200","8.108108108108109","8.108108108108109","802.5540540540541","802.5540540540541","black","no","xpyriment","legacy","legacy","0","208","NA","uniform","NA","NA","NA","1","undefined","1","0","73","73","73","0","73","73","73","NA","0","73","NA","NA","0","73","NA","73","0","73","NA","NA","NA","73","0","0","NA","73","73","73","73","73","74","z","Thu Feb 29 14:36:05 2024","The main experiment item","yes","m21-ab-lexicalDecision.osexp","C:\Users\ekealey\Desktop","no","mono","no","18","no","white","no","yes","1080","legacy","73","73","C:/Users/ekealey/Desktop/subject-239.csv","xpyriment","Lentiform Loewenfeld","3.3.11","0","z","NA","NA","NA","NA","z","z","977","NA","NA","NA","NA","32303","977","2","legacy","1024","2","48000","-16","AB_m21","239","odd","FILL_NW","FALONS","1883","355882","353734","346208","34198","NA","NA","NA","NA","NA","354234","NA","NA","NA","353233","NA","353206","1894","356082","NA","NA","NA","354275","1883","1883","NA","355253","355278","353206","354234","354255","morph21_Oliver/Morris","6","59389","74","yes","1920","19"
"300","8","8","800.8266666666667","800.8266666666667","black","no","xpyriment","legacy","legacy","0","202","NA","uniform","NA","NA","NA","undefined","undefined","0","0","74","74","74","0","74","74","74","NA","0","74","NA","NA","0","74","NA","74","0","74","NA","NA","NA","74","0","0","NA","74","74","74","74","74","75","/","Thu Feb 29 14:36:05 2024","The main experiment item","yes","m21-ab-lexicalDecision.osexp","C:\Users\ekealey\Desktop","no","mono","no","18","no","white","no","yes","1080","legacy","74","74","C:/Users/ekealey/Desktop/subject-239.csv","xpyriment","Lentiform Loewenfeld","3.3.11","0","space","space","NA","NA","NA","z","z","5618","5618","NA","NA","NA","32303","673","2","legacy","1024","2","48000","-16","AB_m21","239","odd","CW_L","PROFESSOR","1883","361001","357653","359497","34198","361306","NA","NA","NA","NA","358153","NA","NA","NA","357152","NA","357122","1894","366925","NA","NA","NA","358194","1883","1883","NA","358868","358892","357122","358153","358174","morph21_Oliver/Morris","6","60062","75","yes","1920","47"
"200","7.894736842105263","7.894736842105263","806.078947368421","806.078947368421","black","no","xpyriment","legacy","legacy","0","208","NA","uniform","NA","NA","NA","0","undefined","0","0","75","75","75","0","75","75","75","NA","0","75","NA","NA","0","75","NA","75","0","75","NA","NA","NA","75","0","0","NA","75","75","75","75","75","76","z","Thu Feb 29 14:36:05 2024","The main experiment item","yes","m21-ab-lexicalDecision.osexp","C:\Users\ekealey\Desktop","no","mono","no","18","no","white","no","yes","1080","legacy","75","75","C:/Users/ekealey/Desktop/subject-239.csv","xpyriment","Lentiform Loewenfeld","3.3.11","0","None","space","NA","NA","NA","z","None","1200","5618","NA","NA","NA","32303","1200","2","legacy","1024","2","48000","-16","AB_m21","239","odd","FILL_NW","PUCTS","1883","370929","368558","359497","34198","361306","NA","NA","NA","NA","369059","NA","NA","NA","368057","NA","368032","1894","371129","NA","NA","NA","369100","1883","1883","NA","370300","370325","368032","369059","369080","morph21_Oliver/Morris","6","61262","76","yes","1920","40"
"400","7.792207792207792","7.792207792207792","802.7402597402597","802.7402597402597","black","no","xpyriment","legacy","legacy","0","201","NA","uniform","NA","NA","NA","0","undefined","0","0","76","76","76","0","76","76","76","NA","0","76","NA","NA","0","76","NA","76","0","76","NA","NA","NA","76","0","0","NA","76","76","76","76","76","77","/","Thu Feb 29 14:36:05 2024","The main experiment item","yes","m21-ab-lexicalDecision.osexp","C:\Users\ekealey\Desktop","no","mono","no","18","no","white","no","yes","1080","legacy","76","76","C:/Users/ekealey/Desktop/subject-239.csv","xpyriment","Lentiform Loewenfeld","3.3.11","0","z","space","NA","NA","NA","z","z","549","5618","NA","NA","NA","32303","549","2","legacy","1024","2","48000","-16","AB_m21","239","odd","CW_S","ALLOWANCE","1883","374443","372722","359497","34198","361306","NA","NA","NA","NA","373222","NA","NA","NA","372222","NA","372197","1894","374844","NA","NA","NA","373263","1883","1883","NA","373813","373840","372197","373222","373243","morph21_Oliver/Morris","6","61811","77","yes","1920","5"
"400","7.6923076923076925","7.6923076923076925","801","801","black","no","xpyriment","legacy","legacy","0","202","NA","uniform","NA","NA","NA","0","undefined","0","0","77","77","77","0","77","77","77","NA","0","77","NA","NA","0","77","NA","77","0","77","NA","NA","NA","77","0","0","NA","77","77","77","77","77","78","/","Thu Feb 29 14:36:05 2024","The main experiment item","yes","m21-ab-lexicalDecision.osexp","C:\Users\ekealey\Desktop","no","mono","no","18","no","white","no","yes","1080","legacy","77","77","C:/Users/ekealey/Desktop/subject-239.csv","xpyriment","Lentiform Loewenfeld","3.3.11","0","z","space","NA","NA","NA","z","z","667","5618","NA","NA","NA","32303","667","2","legacy","1024","2","48000","-16","AB_m21","239","odd","CW_L","QUIETLY","1883","379770","376425","378267","34198","361306","NA","NA","NA","NA","376928","NA","NA","NA","375925","NA","375898","1894","380170","NA","NA","NA","376969","1883","1883","NA","377636","377663","375898","376928","376949","morph21_Oliver/Morris","6","62478","78","yes","1920","36"
"250","7.594936708860759","7.594936708860759","798.8354430379746","798.8354430379746","black","no","xpyriment","legacy","legacy","0","205","NA","uniform","NA","NA","NA","0","undefined","0","0","78","78","78","0","78","78","78","NA","0","78","NA","NA","0","78","NA","78","0","78","NA","NA","NA","78","0","0","NA","78","78","78","78","78","79","z","Thu Feb 29 14:36:05 2024","The main experiment item","yes","m21-ab-lexicalDecision.osexp","C:\Users\ekealey\Desktop","no","mono","no","18","no","white","no","yes","1080","legacy","78","78","C:/Users/ekealey/Desktop/subject-239.csv","xpyriment","Lentiform Loewenfeld","3.3.11","0","/","space","NA","NA","NA","z","/","630","5618","NA","NA","NA","32303","630","2","legacy","1024","2","48000","-16","AB_m21","239","odd","NW_S_SIMP","DIGODY","1883","383536","381734","378267","34198","361306","NA","NA","NA","NA","382236","NA","NA","NA","381234","NA","381202","1894","383786","NA","NA","NA","382278","1883","1883","NA","382908","382933","381202","382236","382257","morph21_Oliver/Morris","6","63108","79","yes","1920","11"
"300","7.5","7.5","802.7375","802.7375","black","no","xpyriment","legacy","legacy","0","202","NA","uniform","NA","NA","NA","0","undefined","0","0","79","79","79","0","79","79","79","NA","0","79","NA","NA","0","79","NA","79","0","79","NA","NA","NA","79","0","0","NA","79","79","79","79","79","80","/","Thu Feb 29 14:36:05 2024","The main experiment item","yes","m21-ab-lexicalDecision.osexp","C:\Users\ekealey\Desktop","no","mono","no","18","no","white","no","yes","1080","legacy","79","79","C:/Users/ekealey/Desktop/subject-239.csv","xpyriment","Lentiform Loewenfeld","3.3.11","0","z","space","NA","NA","NA","z","z","1111","5618","NA","NA","NA","32303","1111","2","legacy","1024","2","48000","-16","AB_m21","239","odd","CW_L","KNOCKER","1883","387633","385352","378267","34198","361306","NA","NA","NA","NA","385853","NA","NA","NA","384852","NA","384825","1894","387933","NA","NA","NA","385893","1883","1883","NA","387004","387030","384825","385853","385873","morph21_Oliver/Morris","6","64219","80","yes","1920","4"
"200","7.407407407407407","7.407407407407407","799.0987654320987","799.0987654320987","black","no","xpyriment","legacy","legacy","0","202","NA","uniform","NA","NA","NA","0","undefined","0","0","80","80","80","0","80","80","80","NA","0","80","NA","NA","0","80","NA","80","0","80","NA","NA","NA","80","0","0","NA","80","80","80","80","80","81","/","Thu Feb 29 14:36:05 2024","The main experiment item","yes","m21-ab-lexicalDecision.osexp","C:\Users\ekealey\Desktop","no","mono","no","18","no","white","no","yes","1080","legacy","80","80","C:/Users/ekealey/Desktop/subject-239.csv","xpyriment","Lentiform Loewenfeld","3.3.11","0","z","space","NA","NA","NA","z","z","508","5618","NA","NA","NA","32303","508","2","legacy","1024","2","48000","-16","AB_m21","239","odd","CW_L","SHAMEFUL","1883","392667","389483","391162","34198","361306","NA","NA","NA","NA","389983","NA","NA","NA","388983","NA","388945","1894","392867","NA","NA","NA","390024","1883","1883","NA","390532","390558","388945","389983","390004","morph21_Oliver/Morris","6","64727","81","yes","1920","19"
"300","7.317073170731708","7.317073170731708","795.9024390243902","795.9024390243902","black","no","xpyriment","legacy","legacy","0","208","NA","uniform","NA","NA","NA","0","undefined","0","0","81","81","81","0","81","81","81","NA","0","81","NA","NA","0","81","NA","81","0","81","NA","NA","NA","81","0","0","NA","81","81","81","81","81","82","z","Thu Feb 29 14:36:05 2024","The main experiment item","yes","m21-ab-lexicalDecision.osexp","C:\Users\ekealey\Desktop","no","mono","no","18","no","white","no","yes","1080","legacy","81","81","C:/Users/ekealey/Desktop/subject-239.csv","xpyriment","Lentiform Loewenfeld","3.3.11","0","/","space","NA","NA","NA","z","/","537","5618","NA","NA","NA","32303","537","2","legacy","1024","2","48000","-16","AB_m21","239","odd","FILL_NW","VOOFS","1883","396119","394414","391162","34198","361306","NA","NA","NA","NA","394914","NA","NA","NA","393913","NA","393884","1894","396419","NA","NA","NA","394955","1883","1883","NA","395493","395516","393884","394914","394935","morph21_Oliver/Morris","6","65264","82","yes","1920","48"
"400","7.228915662650603","7.228915662650603","798.6024096385543","798.6024096385543","black","no","xpyriment","legacy","legacy","0","207","NA","uniform","NA","NA","NA","0","undefined","0","0","82","82","82","0","82","82","82","NA","0","82","NA","NA","0","82","NA","82","0","82","NA","NA","NA","82","0","0","NA","82","82","82","82","82","83","/","Thu Feb 29 14:36:05 2024","The main experiment item","yes","m21-ab-lexicalDecision.osexp","C:\Users\ekealey\Desktop","no","mono","no","18","no","white","no","yes","1080","legacy","82","82","C:/Users/ekealey/Desktop/subject-239.csv","xpyriment","Lentiform Loewenfeld","3.3.11","0","z","space","NA","NA","NA","z","z","1020","5618","NA","NA","NA","32303","1020","2","legacy","1024","2","48000","-16","AB_m21","239","odd","FILL_W","CHIP","1883","400184","397994","391162","34198","361306","NA","NA","NA","NA","398496","NA","NA","NA","397492","NA","397462","1894","400584","NA","NA","NA","398536","1883","1883","NA","399557","399580","397462","398496","398516","morph21_Oliver/Morris","6","66284","83","yes","1920","11"
"400","7.142857142857143","7.142857142857143","796.2738095238095","796.2738095238095","black","no","xpyriment","legacy","legacy","0","204","NA","uniform","NA","NA","NA","0","undefined","0","0","83","83","83","0","83","83","83","NA","0","83","NA","NA","0","83","NA","83","0","83","NA","NA","NA","83","0","0","NA","83","83","83","83","83","84","z","Thu Feb 29 14:36:05 2024","The main experiment item","yes","m21-ab-lexicalDecision.osexp","C:\Users\ekealey\Desktop","no","mono","no","18","no","white","no","yes","1080","legacy","83","83","C:/Users/ekealey/Desktop/subject-239.csv","xpyriment","Lentiform Loewenfeld","3.3.11","0","/","space","NA","NA","NA","z","/","603","5618","NA","NA","NA","32303","603","2","legacy","1024","2","48000","-16","AB_m21","239","odd","NW_L_COMP","COLDITY","1883","405408","402131","403905","34198","361306","NA","NA","NA","NA","402633","NA","NA","NA","401629","NA","401603","1894","405808","NA","NA","NA","402673","1883","1883","NA","403277","403301","401603","402633","402653","morph21_Oliver/Morris","6","66887","84","yes","1920","10"
"350","7.0588235294117645","7.0588235294117645","796.6117647058824","796.6117647058824","black","no","xpyriment","legacy","legacy","0","201","NA","uniform","NA","NA","NA","0","undefined","0","0","84","84","84","0","84","84","84","NA","0","84","NA","NA","0","84","NA","84","0","84","NA","NA","NA","84","0","0","NA","84","84","84","84","84","85","/","Thu Feb 29 14:36:05 2024","The main experiment item","yes","m21-ab-lexicalDecision.osexp","C:\Users\ekealey\Desktop","no","mono","no","18","no","white","no","yes","1080","legacy","84","84","C:/Users/ekealey/Desktop/subject-239.csv","xpyriment","Lentiform Loewenfeld","3.3.11","0","z","space","NA","NA","NA","z","z","825","5618","NA","NA","NA","32303","825","2","legacy","1024","2","48000","-16","AB_m21","239","odd","CW_S","NEATLY","1883","409361","407366","403905","34198","361306","NA","NA","NA","NA","407867","NA","NA","NA","406863","NA","406832","1894","409711","NA","NA","NA","407907","1883","1883","NA","408733","408757","406832","407867","407887","morph21_Oliver/Morris","6","67712","85","yes","1920","33"
"200","6.976744186046512","6.976744186046512","796.3139534883721","796.3139534883721","black","no","xpyriment","legacy","legacy","0","207","NA","uniform","NA","NA","NA","0","undefined","0","0","85","85","85","0","85","85","85","NA","0","85","NA","NA","0","85","NA","85","0","85","NA","NA","NA","85","0","0","NA","85","85","85","85","85","86","/","Thu Feb 29 14:36:05 2024","The main experiment item","yes","m21-ab-lexicalDecision.osexp","C:\Users\ekealey\Desktop","no","mono","no","18","no","white","no","yes","1080","legacy","85","85","C:/Users/ekealey/Desktop/subject-239.csv","xpyriment","Lentiform Loewenfeld","3.3.11","0","z","space","NA","NA","NA","z","z","771","5618","NA","NA","NA","32303","771","2","legacy","1024","2","48000","-16","AB_m21","239","odd","FILL_W","STALK","1883","413207","411268","403905","34198","361306","NA","NA","NA","NA","411769","NA","NA","NA","410768","NA","410741","1894","413407","NA","NA","NA","411809","1883","1883","NA","412581","412604","410741","411769","411789","morph21_Oliver/Morris","6","68483","86","yes","1920","27"
"200","6.896551724137931","6.896551724137931","794.9080459770115","794.9080459770115","black","no","xpyriment","legacy","legacy","0","203","NA","uniform","NA","NA","NA","0","undefined","0","0","86","86","86","0","86","86","86","NA","0","86","NA","NA","0","86","NA","86","0","86","NA","NA","NA","86","0","0","NA","86","86","86","86","86","87","z","Thu Feb 29 14:36:05 2024","The main experiment item","yes","m21-ab-lexicalDecision.osexp","C:\Users\ekealey\Desktop","no","mono","no","18","no","white","no","yes","1080","legacy","86","86","C:/Users/ekealey/Desktop/subject-239.csv","xpyriment","Lentiform Loewenfeld","3.3.11","0","/","space","NA","NA","NA","z","/","674","5618","NA","NA","NA","32303","674","2","legacy","1024","2","48000","-16","AB_m21","239","odd","NW_S_COMP","ELMIST","1883","418305","414956","416802","34198","361306","NA","NA","NA","NA","415457","NA","NA","NA","414455","NA","414430","1894","418505","NA","NA","NA","415497","1883","1883","NA","416172","416199","414430","415457","415477","morph21_Oliver/Morris","6","69157","87","yes","1920","10"
"300","6.818181818181818","6.818181818181818","796.5795454545455","796.5795454545455","black","no","xpyriment","legacy","legacy","0","206","NA","uniform","NA","NA","NA","0","undefined","0","0","87","87","87","0","87","87","87","NA","0","87","NA","NA","0","87","NA","87","0","87","NA","NA","NA","87","0","0","NA","87","87","87","87","87","88","z","Thu Feb 29 14:36:05 2024","The main experiment item","yes","m21-ab-lexicalDecision.osexp","C:\Users\ekealey\Desktop","no","mono","no","18","no","white","no","yes","1080","legacy","87","87","C:/Users/ekealey/Desktop/subject-239.csv","xpyriment","Lentiform Loewenfeld","3.3.11","0","/","space","NA","NA","NA","z","/","942","5618","NA","NA","NA","32303","942","2","legacy","1024","2","48000","-16","AB_m21","239","odd","NW_L_SIMP","PRAYANGE","1883","422184","420073","416802","34198","361306","NA","NA","NA","NA","420574","NA","NA","NA","419573","NA","419540","1894","422484","NA","NA","NA","420614","1883","1883","NA","421557","421580","419540","420573","420594","morph21_Oliver/Morris","6","70099","88","yes","1920","1"
"350","6.741573033707865","6.741573033707865","797.7078651685393","797.7078651685393","black","no","xpyriment","legacy","legacy","0","208","NA","uniform","NA","NA","NA","0","undefined","0","0","88","88","88","0","88","88","88","NA","0","88","NA","NA","0","88","NA","88","0","88","NA","NA","NA","88","0","0","NA","88","88","88","88","88","89","z","Thu Feb 29 14:36:05 2024","The main experiment item","yes","m21-ab-lexicalDecision.osexp","C:\Users\ekealey\Desktop","no","mono","no","18","no","white","no","yes","1080","legacy","88","88","C:/Users/ekealey/Desktop/subject-239.csv","xpyriment","Lentiform Loewenfeld","3.3.11","0","/","space","NA","NA","NA","z","/","897","5618","NA","NA","NA","32303","897","2","legacy","1024","2","48000","-16","AB_m21","239","odd","FILL_NW","DARF","1883","426118","424052","416802","34198","361306","NA","NA","NA","NA","424554","NA","NA","NA","423552","NA","423526","1894","426468","NA","NA","NA","424594","1883","1883","NA","425492","425515","423526","424553","424574","morph21_Oliver/Morris","6","70996","89","yes","1920","10"
"350","6.666666666666667","6.666666666666667","801.9666666666667","801.9666666666667","black","no","xpyriment","legacy","legacy","0","203","NA","uniform","NA","NA","NA","0","undefined","0","0","89","89","89","0","89","89","89","NA","0","89","NA","NA","0","89","NA","89","0","89","NA","NA","NA","89","0","0","NA","89","89","89","89","89","90","z","Thu Feb 29 14:36:05 2024","The main experiment item","yes","m21-ab-lexicalDecision.osexp","C:\Users\ekealey\Desktop","no","mono","no","18","no","white","no","yes","1080","legacy","89","89","C:/Users/ekealey/Desktop/subject-239.csv","xpyriment","Lentiform Loewenfeld","3.3.11","0","/","space","NA","NA","NA","z","/","1181","5618","NA","NA","NA","32303","1181","2","legacy","1024","2","48000","-16","AB_m21","239","odd","NW_S_COMP","EJECTENCE","1883","431873","428018","430369","34198","361306","NA","NA","NA","NA","428518","NA","NA","NA","427517","NA","427488","1894","432223","NA","NA","NA","428559","1883","1883","NA","429741","429766","427488","428518","428539","morph21_Oliver/Morris","6","72177","90","yes","1920","20"
"400","6.593406593406593","6.593406593406593","799.4945054945055","799.4945054945055","black","no","xpyriment","legacy","legacy","0","201","NA","uniform","NA","NA","NA","0","undefined","0","0","90","90","90","0","90","90","90","NA","0","90","NA","NA","0","90","NA","90","0","90","NA","NA","NA","90","0","0","NA","90","90","90","90","90","91","/","Thu Feb 29 14:36:05 2024","The main experiment item","yes","m21-ab-lexicalDecision.osexp","C:\Users\ekealey\Desktop","no","mono","no","18","no","white","no","yes","1080","legacy","90","90","C:/Users/ekealey/Desktop/subject-239.csv","xpyriment","Lentiform Loewenfeld","3.3.11","0","z","space","NA","NA","NA","z","z","577","5618","NA","NA","NA","32303","577","2","legacy","1024","2","48000","-16","AB_m21","239","odd","CW_S","WIDOWED","1883","435551","433806","430369","34198","361306","NA","NA","NA","NA","434307","NA","NA","NA","433306","NA","433275","1894","435951","NA","NA","NA","434347","1883","1883","NA","434925","434948","433275","434307","434327","morph21_Oliver/Morris","6","72754","91","yes","1920","7"
"400","6.521739130434782","6.521739130434782","796.5978260869565","796.5978260869565","black","no","xpyriment","legacy","legacy","0","208","NA","uniform","NA","NA","NA","0","undefined","0","0","91","91","91","0","91","91","91","NA","0","91","NA","NA","0","91","NA","91","0","91","NA","NA","NA","91","0","0","NA","91","91","91","91","91","92","z","Thu Feb 29 14:36:05 2024","The main experiment item","yes","m21-ab-lexicalDecision.osexp","C:\Users\ekealey\Desktop","no","mono","no","18","no","white","no","yes","1080","legacy","91","91","C:/Users/ekealey/Desktop/subject-239.csv","xpyriment","Lentiform Loewenfeld","3.3.11","0","/","space","NA","NA","NA","z","/","533","5618","NA","NA","NA","32303","533","2","legacy","1024","2","48000","-16","AB_m21","239","odd","FILL_NW","BUTE","1883","439200","437496","430369","34198","361306","NA","NA","NA","NA","437998","NA","NA","NA","436994","NA","436969","1894","439600","NA","NA","NA","438038","1883","1883","NA","438572","438597","436969","437998","438018","morph21_Oliver/Morris","6","73287","92","yes","1920","5"
"350","6.451612903225806","6.451612903225806","798.236559139785","798.236559139785","black","no","xpyriment","legacy","legacy","0","201","NA","uniform","NA","NA","NA","0","undefined","0","0","92","92","92","0","92","92","92","NA","0","92","NA","NA","0","92","NA","92","0","92","NA","NA","NA","92","0","0","NA","92","92","92","92","92","93","/","Thu Feb 29 14:36:05 2024","The main experiment item","yes","m21-ab-lexicalDecision.osexp","C:\Users\ekealey\Desktop","no","mono","no","18","no","white","no","yes","1080","legacy","92","92","C:/Users/ekealey/Desktop/subject-239.csv","xpyriment","Lentiform Loewenfeld","3.3.11","0","z","space","NA","NA","NA","z","z","949","5618","NA","NA","NA","32303","949","2","legacy","1024","2","48000","-16","AB_m21","239","odd","CW_S","BEARDED","1883","444809","441186","443304","34198","361306","NA","NA","NA","NA","441687","NA","NA","NA","440686","NA","440662","1894","445159","NA","NA","NA","441727","1883","1883","NA","442676","442700","440662","441686","441707","morph21_Oliver/Morris","6","74236","93","yes","1920","8"
