"ITI","acc","accuracy","average_response_time","avg_rt","background","bidi","canvas_backend","clock_backend","color_backend","compensation","cond_trig","condtrigtime","coordinates","coroutines_cycles","coroutines_duration","coroutines_mean_cycle_duration","correct","correct_instructions_1","correct_new_keyboard_response_1","count_BA_m21","count_ITI","count_blank_screen","count_blink_screen","count_block1","count_break1","count_break2","count_break3_1","count_canvas","count_correct_trigger","count_def_chain","count_end_screen","count_fixation_1","count_getting_started","count_inc_counter","count_incorrect_trigger","count_instructions_1","count_logger","count_logscript","count_new_coroutines","count_new_inline_script","count_new_keyboard_response_1","count_reset_counter_prep","count_reset_counter_run","count_responsescreen","count_sequence","count_start_trigger","count_target_present","count_word_trigger","counter","cresp","datetime","description","disable_garbage_collection","experiment_file","experiment_path","font_bold","font_family","font_italic","font_size","font_underline","foreground","form_clicks","fullscreen","height","keyboard_backend","live_row","live_row_block1","logfile","mouse_backend","opensesame_codename","opensesame_version","repeat_cycle","response","response_break1","response_break2","response_break3_1","response_end_screen","response_instructions_1","response_new_keyboard_response_1","response_time","response_time_break1","response_time_break2","response_time_break3_1","response_time_end_screen","response_time_instructions_1","response_time_new_keyboard_response_1","round_decimals","sampler_backend","sound_buf_size","sound_channels","sound_freq","sound_sample_size","start","subject_nr","subject_parity","targ_type","target","time_BA_m21","time_ITI","time_blank_screen","time_blink_screen","time_block1","time_break1","time_break2","time_break3_1","time_canvas","time_correct_trigger","time_def_chain","time_end_screen","time_fixation_1","time_getting_started","time_inc_counter","time_incorrect_trigger","time_instructions_1","time_logger","time_logscript","time_new_inline_script","time_new_keyboard_response_1","time_reset_counter_prep","time_reset_counter_run","time_responsescreen","time_sequence","time_start_trigger","time_target_present","time_word_trigger","title","total_correct","total_response_time","total_responses","uniform_coordinates","width","word_trig"
"300","0","0","990","990","black","no","xpyriment","legacy","legacy","0","204","NA","uniform","55683","1000","0.017958802507","0","undefined","0","0","0","0","0","0","0","0","0","NA","0","0","0","0","NA","0","0","0","0","NA","0","NA","0","0","0","0","0","0","0","0","1","z","02/19/19 12:45:13","The main experiment item","yes","FIN__BA__M21__7%3A10%3A17.osexp","C:\Users\ERP Testing Room\Desktop\Joanna\morph21","no","mono","no","18","no","white","no","yes","1080","legacy","0","0","C:/Users/ERP Testing Room/Desktop/Joanna/morph21/subject-159.csv","xpyriment","Kafkaesque Koffka","3.2.5","0","None","NA","NA","NA","NA","space","None","990","NA","NA","NA","NA","112438","990","2","legacy","1024","2","48000","-16","BA_m21","159","odd","NW_L_COMP","KINGILM","1949","117204","115545","NA","114397","NA","NA","NA","NA","NA","116043","NA","115044","NA","114968","117194","1958","117504","NA","NA","116204","1949","1949","116595","114968","1949","116204","117504","morph21_Oliver/Morris","0","990","1","yes","1280","19"
"400","50","50","825.5","825.5","black","no","xpyriment","legacy","legacy","0","208","NA","uniform","67928","1000","0.0147214697915","1","undefined","1","0","1","1","1","0","1","1","1","NA","1","1","0","1","NA","1","1","0","1","NA","1","NA","1","0","0","1","1","0","1","1","2","z","02/19/19 12:45:13","The main experiment item","yes","FIN__BA__M21__7%3A10%3A17.osexp","C:\Users\ERP Testing Room\Desktop\Joanna\morph21","no","mono","no","18","no","white","no","yes","1080","legacy","1","1","C:/Users/ERP Testing Room/Desktop/Joanna/morph21/subject-159.csv","xpyriment","Kafkaesque Koffka","3.2.5","0","z","NA","NA","NA","NA","space","z","661","NA","NA","NA","NA","112438","661","2","legacy","1024","2","48000","-16","BA_m21","159","odd","FILL_NW","SOISE","1949","120287","118629","NA","114397","NA","NA","NA","NA","120280","119126","NA","118129","NA","118121","120280","1958","120687","NA","NA","119287","1949","1949","119679","118121","1949","119287","120687","morph21_Oliver/Morris","1","1651","2","yes","1280","43"
"400","33.3333333333","33.3333333333","691.333333333","691.333333333","black","no","xpyriment","legacy","legacy","0","208","NA","uniform","72571","1000","0.0137796089347","0","undefined","0","0","2","2","2","0","2","2","2","NA","2","2","0","2","NA","2","2","0","2","NA","2","NA","2","0","0","2","2","0","2","2","3","z","02/19/19 12:45:13","The main experiment item","yes","FIN__BA__M21__7%3A10%3A17.osexp","C:\Users\ERP Testing Room\Desktop\Joanna\morph21","no","mono","no","18","no","white","no","yes","1080","legacy","2","2","C:/Users/ERP Testing Room/Desktop/Joanna/morph21/subject-159.csv","xpyriment","Kafkaesque Koffka","3.2.5","0","/","NA","NA","NA","NA","space","/","423","NA","NA","NA","NA","112438","423","2","legacy","1024","2","48000","-16","BA_m21","159","odd","FILL_NW","DROES","1949","124947","121787","123438","114397","NA","NA","NA","NA","120280","122284","NA","121287","NA","121277","123433","1958","125347","NA","NA","122438","1949","1949","122838","121277","1949","122438","125347","morph21_Oliver/Morris","1","2074","3","yes","1280","17"
"350","50","50","656.75","656.75","black","no","xpyriment","legacy","legacy","0","202","NA","uniform","71000","1000","0.0140845070423","1","undefined","1","0","3","3","3","0","3","3","3","NA","3","3","0","3","NA","3","3","0","3","NA","3","NA","3","0","0","3","3","0","3","3","4","/","02/19/19 12:45:13","The main experiment item","yes","FIN__BA__M21__7%3A10%3A17.osexp","C:\Users\ERP Testing Room\Desktop\Joanna\morph21","no","mono","no","18","no","white","no","yes","1080","legacy","3","3","C:/Users/ERP Testing Room/Desktop/Joanna/morph21/subject-159.csv","xpyriment","Kafkaesque Koffka","3.2.5","0","/","NA","NA","NA","NA","space","/","553","NA","NA","NA","NA","112438","553","2","legacy","1024","2","48000","-16","BA_m21","159","odd","CW_L","BARKER","1949","128139","126472","123438","114397","NA","NA","NA","NA","128129","126969","NA","125972","NA","125967","128129","1958","128489","NA","NA","127139","1949","1949","127530","125967","1949","127139","128489","morph21_Oliver/Morris","2","2627","4","yes","1280","2"
"250","60","60","600.2","600.2","black","no","xpyriment","legacy","legacy","0","207","NA","uniform","77953","1000","0.012828242659","1","undefined","1","0","4","4","4","0","4","4","4","NA","4","4","0","4","NA","4","4","0","4","NA","4","NA","4","0","0","4","4","0","4","4","5","/","02/19/19 12:45:13","The main experiment item","yes","FIN__BA__M21__7%3A10%3A17.osexp","C:\Users\ERP Testing Room\Desktop\Joanna\morph21","no","mono","no","18","no","white","no","yes","1080","legacy","4","4","C:/Users/ERP Testing Room/Desktop/Joanna/morph21/subject-159.csv","xpyriment","Kafkaesque Koffka","3.2.5","0","/","NA","NA","NA","NA","space","/","374","NA","NA","NA","NA","112438","374","2","legacy","1024","2","48000","-16","BA_m21","159","odd","FILL_W","SOUGHT","1949","131214","129564","123438","114397","NA","NA","NA","NA","131208","130061","NA","129064","NA","129059","131208","1958","131464","NA","NA","130214","1949","1949","130605","129059","1949","130214","131464","morph21_Oliver/Morris","3","3001","5","yes","1280","40"
"350","66.6666666667","66.6666666667","589","589","black","no","xpyriment","legacy","legacy","0","208","NA","uniform","64596","1000","0.0154808347266","1","undefined","1","0","5","5","5","0","5","5","5","NA","5","5","0","5","NA","5","5","0","5","NA","5","NA","5","0","0","5","5","0","5","5","6","z","02/19/19 12:45:13","The main experiment item","yes","FIN__BA__M21__7%3A10%3A17.osexp","C:\Users\ERP Testing Room\Desktop\Joanna\morph21","no","mono","no","18","no","white","no","yes","1080","legacy","5","5","C:/Users/ERP Testing Room/Desktop/Joanna/morph21/subject-159.csv","xpyriment","Kafkaesque Koffka","3.2.5","0","z","NA","NA","NA","NA","space","z","533","NA","NA","NA","NA","112438","533","2","legacy","1024","2","48000","-16","BA_m21","159","odd","FILL_NW","BLANTH","1949","135747","132580","134239","114397","NA","NA","NA","NA","134230","133078","NA","132080","NA","132070","134230","1958","136097","NA","NA","133239","1949","1949","133631","132070","1949","133239","136097","morph21_Oliver/Morris","4","3534","6","yes","1280","3"
"250","71.4285714286","71.4285714286","586.714285714","586.714285714","black","no","xpyriment","legacy","legacy","0","203","NA","uniform","71595","1000","0.0139674558279","1","undefined","1","0","6","6","6","0","6","6","6","NA","6","6","0","6","NA","6","6","0","6","NA","6","NA","6","0","0","6","6","0","6","6","7","z","02/19/19 12:45:13","The main experiment item","yes","FIN__BA__M21__7%3A10%3A17.osexp","C:\Users\ERP Testing Room\Desktop\Joanna\morph21","no","mono","no","18","no","white","no","yes","1080","legacy","6","6","C:/Users/ERP Testing Room/Desktop/Joanna/morph21/subject-159.csv","xpyriment","Kafkaesque Koffka","3.2.5","0","z","NA","NA","NA","NA","space","z","573","NA","NA","NA","NA","112438","573","2","legacy","1024","2","48000","-16","BA_m21","159","odd","NW_S_COMP","BEEREL","1949","138839","137189","134239","114397","NA","NA","NA","NA","138835","137686","NA","136689","NA","136683","138835","1958","139089","NA","NA","137839","1949","1949","138239","136683","1949","137839","139089","morph21_Oliver/Morris","5","4107","7","yes","1280","5"
"300","75","75","560.5","560.5","black","no","xpyriment","legacy","legacy","0","202","NA","uniform","73045","1000","0.0136901909782","1","undefined","1","0","7","7","7","0","7","7","7","NA","7","7","0","7","NA","7","7","0","7","NA","7","NA","7","0","0","7","7","0","7","7","8","/","02/19/19 12:45:13","The main experiment item","yes","FIN__BA__M21__7%3A10%3A17.osexp","C:\Users\ERP Testing Room\Desktop\Joanna\morph21","no","mono","no","18","no","white","no","yes","1080","legacy","7","7","C:/Users/ERP Testing Room/Desktop/Joanna/morph21/subject-159.csv","xpyriment","Kafkaesque Koffka","3.2.5","0","/","NA","NA","NA","NA","space","/","377","NA","NA","NA","NA","112438","377","2","legacy","1024","2","48000","-16","BA_m21","159","odd","CW_L","HEATER","1949","141932","140265","134239","114397","NA","NA","NA","NA","141925","140762","NA","139764","NA","139757","141925","1958","142232","NA","NA","140932","1949","1949","141323","139757","1949","140932","142232","morph21_Oliver/Morris","6","4484","8","yes","1280","16"
"200","77.7777777778","77.7777777778","545.777777778","545.777777778","black","no","xpyriment","legacy","legacy","0","207","NA","uniform","76091","1000","0.013142158731","1","undefined","1","0","8","8","8","0","8","8","8","NA","8","8","0","8","NA","8","8","0","8","NA","8","NA","8","0","0","8","8","0","8","8","9","/","02/19/19 12:45:13","The main experiment item","yes","FIN__BA__M21__7%3A10%3A17.osexp","C:\Users\ERP Testing Room\Desktop\Joanna\morph21","no","mono","no","18","no","white","no","yes","1080","legacy","8","8","C:/Users/ERP Testing Room/Desktop/Joanna/morph21/subject-159.csv","xpyriment","Kafkaesque Koffka","3.2.5","0","/","NA","NA","NA","NA","space","/","428","NA","NA","NA","NA","112438","428","2","legacy","1024","2","48000","-16","BA_m21","159","odd","FILL_W","SAVE","1949","146540","143374","145032","114397","NA","NA","NA","NA","145028","143871","NA","142874","NA","142865","145028","1958","146741","NA","NA","144032","1949","1949","144432","142865","1949","144032","146741","morph21_Oliver/Morris","7","4912","9","yes","1280","46"
"400","80","80","532.1","532.1","black","no","xpyriment","legacy","legacy","0","207","NA","uniform","70698","1000","0.0141446717022","1","undefined","1","0","9","9","9","0","9","9","9","NA","9","9","0","9","NA","9","9","0","9","NA","9","NA","9","0","0","9","9","0","9","9","10","/","02/19/19 12:45:13","The main experiment item","yes","FIN__BA__M21__7%3A10%3A17.osexp","C:\Users\ERP Testing Room\Desktop\Joanna\morph21","no","mono","no","18","no","white","no","yes","1080","legacy","9","9","C:/Users/ERP Testing Room/Desktop/Joanna/morph21/subject-159.csv","xpyriment","Kafkaesque Koffka","3.2.5","0","/","NA","NA","NA","NA","space","/","409","NA","NA","NA","NA","112438","409","2","legacy","1024","2","48000","-16","BA_m21","159","odd","FILL_W","FLIRT","1949","149499","147832","145032","114397","NA","NA","NA","NA","149489","148329","NA","147332","NA","147321","149489","1958","149899","NA","NA","148499","1949","1949","148890","147321","1949","148499","149899","morph21_Oliver/Morris","8","5321","10","yes","1280","1"
"300","81.8181818182","81.8181818182","518","518","black","no","xpyriment","legacy","legacy","0","207","NA","uniform","72788","1000","0.0137385283288","1","undefined","1","0","10","10","10","0","10","10","10","NA","10","10","0","10","NA","10","10","0","10","NA","10","NA","10","0","0","10","10","0","10","10","11","/","02/19/19 12:45:13","The main experiment item","yes","FIN__BA__M21__7%3A10%3A17.osexp","C:\Users\ERP Testing Room\Desktop\Joanna\morph21","no","mono","no","18","no","white","no","yes","1080","legacy","10","10","C:/Users/ERP Testing Room/Desktop/Joanna/morph21/subject-159.csv","xpyriment","Kafkaesque Koffka","3.2.5","0","/","NA","NA","NA","NA","space","/","377","NA","NA","NA","NA","112438","377","2","legacy","1024","2","48000","-16","BA_m21","159","odd","FILL_W","BOX","1949","152699","151024","145032","114397","NA","NA","NA","NA","152694","151521","NA","150524","NA","150517","152694","1958","152999","NA","NA","151699","1949","1949","152099","150517","1949","151699","152999","morph21_Oliver/Morris","9","5698","11","yes","1280","42"
"350","83.3333333333","83.3333333333","510","510","black","no","xpyriment","legacy","legacy","0","203","NA","uniform","76246","1000","0.0131154421216","1","undefined","1","0","11","11","11","0","11","11","11","NA","11","11","0","11","NA","11","11","0","11","NA","11","NA","11","0","0","11","11","0","11","11","12","z","02/19/19 12:45:13","The main experiment item","yes","FIN__BA__M21__7%3A10%3A17.osexp","C:\Users\ERP Testing Room\Desktop\Joanna\morph21","no","mono","no","18","no","white","no","yes","1080","legacy","11","11","C:/Users/ERP Testing Room/Desktop/Joanna/morph21/subject-159.csv","xpyriment","Kafkaesque Koffka","3.2.5","0","z","NA","NA","NA","NA","space","z","422","NA","NA","NA","NA","112438","422","2","legacy","1024","2","48000","-16","BA_m21","159","odd","NW_S_COMP","WELDIG","1949","157274","154099","155766","114397","NA","NA","NA","NA","155756","154596","NA","153599","NA","153595","155756","1958","157624","NA","NA","154766","1949","1949","155157","153595","1949","154766","157624","morph21_Oliver/Morris","10","6120","12","yes","1280","21"
"400","76.9230769231","76.9230769231","499.153846154","499.153846154","black","no","xpyriment","legacy","legacy","0","206","NA","uniform","69816","1000","0.0143233642718","0","undefined","0","0","12","12","12","0","12","12","12","NA","12","12","0","12","NA","12","12","0","12","NA","12","NA","12","0","0","12","12","0","12","12","13","z","02/19/19 12:45:13","The main experiment item","yes","FIN__BA__M21__7%3A10%3A17.osexp","C:\Users\ERP Testing Room\Desktop\Joanna\morph21","no","mono","no","18","no","white","no","yes","1080","legacy","12","12","C:/Users/ERP Testing Room/Desktop/Joanna/morph21/subject-159.csv","xpyriment","Kafkaesque Koffka","3.2.5","0","/","NA","NA","NA","NA","space","/","369","NA","NA","NA","NA","112438","369","2","legacy","1024","2","48000","-16","BA_m21","159","odd","NW_L_SIMP","BLOODER","1949","160484","158834","155766","114397","NA","NA","NA","NA","155756","159331","NA","158334","NA","158325","160481","1958","160884","NA","NA","159492","1949","1949","159884","158325","1949","159492","160884","morph21_Oliver/Morris","10","6489","13","yes","1280","24"
"350","78.5714285714","78.5714285714","496.714285714","496.714285714","black","no","xpyriment","legacy","legacy","0","205","NA","uniform","70450","1000","0.014194464159","1","undefined","1","0","13","13","13","0","13","13","13","NA","13","13","0","13","NA","13","13","0","13","NA","13","NA","13","0","0","13","13","0","13","13","14","z","02/19/19 12:45:13","The main experiment item","yes","FIN__BA__M21__7%3A10%3A17.osexp","C:\Users\ERP Testing Room\Desktop\Joanna\morph21","no","mono","no","18","no","white","no","yes","1080","legacy","13","13","C:/Users/ERP Testing Room/Desktop/Joanna/morph21/subject-159.csv","xpyriment","Kafkaesque Koffka","3.2.5","0","z","NA","NA","NA","NA","space","z","465","NA","NA","NA","NA","112438","465","2","legacy","1024","2","48000","-16","BA_m21","159","odd","NW_S_SIMP","BASKORY","1949","163675","162017","155766","114397","NA","NA","NA","NA","163665","162514","NA","161517","NA","161507","163665","1958","164025","NA","NA","162675","1949","1949","163067","161507","1949","162675","164025","morph21_Oliver/Morris","11","6954","14","yes","1280","10"
"300","80","80","499","499","black","no","xpyriment","legacy","legacy","0","208","NA","uniform","60642","1000","0.0164902212988","1","undefined","1","0","14","14","14","0","14","14","14","NA","14","14","0","14","NA","14","14","0","14","NA","14","NA","14","0","0","14","14","0","14","14","15","z","02/19/19 12:45:13","The main experiment item","yes","FIN__BA__M21__7%3A10%3A17.osexp","C:\Users\ERP Testing Room\Desktop\Joanna\morph21","no","mono","no","18","no","white","no","yes","1080","legacy","14","14","C:/Users/ERP Testing Room/Desktop/Joanna/morph21/subject-159.csv","xpyriment","Kafkaesque Koffka","3.2.5","0","z","NA","NA","NA","NA","space","z","531","NA","NA","NA","NA","112438","531","2","legacy","1024","2","48000","-16","BA_m21","159","odd","FILL_NW","VOOFS","1949","168326","165150","166817","114397","NA","NA","NA","NA","166807","165648","NA","164651","NA","164641","166807","1958","168626","NA","NA","165817","1949","1949","166209","164641","1949","165817","168626","morph21_Oliver/Morris","12","7485","15","yes","1280","48"
"200","81.25","81.25","508.875","508.875","black","no","xpyriment","legacy","legacy","0","208","NA","uniform","68070","1000","0.0146907595123","1","undefined","1","0","15","15","15","0","15","15","15","NA","15","15","0","15","NA","15","15","0","15","NA","15","NA","15","0","0","15","15","0","15","15","16","z","02/19/19 12:45:13","The main experiment item","yes","FIN__BA__M21__7%3A10%3A17.osexp","C:\Users\ERP Testing Room\Desktop\Joanna\morph21","no","mono","no","18","no","white","no","yes","1080","legacy","15","15","C:/Users/ERP Testing Room/Desktop/Joanna/morph21/subject-159.csv","xpyriment","Kafkaesque Koffka","3.2.5","0","z","NA","NA","NA","NA","space","z","657","NA","NA","NA","NA","112438","657","2","legacy","1024","2","48000","-16","BA_m21","159","odd","FILL_NW","BLAYS","1949","171451","169784","166817","114397","NA","NA","NA","NA","171445","170281","NA","169284","NA","169278","171445","1958","171651","NA","NA","170451","1949","1949","170842","169278","1949","170451","171651","morph21_Oliver/Morris","13","8142","16","yes","1280","8"
"400","82.3529411765","82.3529411765","522.764705882","522.764705882","black","no","xpyriment","legacy","legacy","0","204","NA","uniform","61423","1000","0.0162805463751","1","undefined","1","0","16","16","16","0","16","16","16","NA","16","16","0","16","NA","16","16","0","16","NA","16","NA","16","0","0","16","16","0","16","16","17","z","02/19/19 12:45:13","The main experiment item","yes","FIN__BA__M21__7%3A10%3A17.osexp","C:\Users\ERP Testing Room\Desktop\Joanna\morph21","no","mono","no","18","no","white","no","yes","1080","legacy","16","16","C:/Users/ERP Testing Room/Desktop/Joanna/morph21/subject-159.csv","xpyriment","Kafkaesque Koffka","3.2.5","0","z","NA","NA","NA","NA","space","z","745","NA","NA","NA","NA","112438","745","2","legacy","1024","2","48000","-16","BA_m21","159","odd","NW_L_COMP","PASSMANT","1949","174468","172801","166817","114397","NA","NA","NA","NA","174458","173298","NA","172292","NA","172285","174458","1958","174868","NA","NA","173467","1949","1949","173859","172285","1949","173467","174868","morph21_Oliver/Morris","14","8887","17","yes","1280","14"
"350","83.3333333333","83.3333333333","517.388888889","517.388888889","black","no","xpyriment","legacy","legacy","0","201","NA","uniform","75583","1000","0.0132304883373","1","undefined","1","0","17","17","17","0","17","17","17","NA","17","17","0","17","NA","17","17","0","17","NA","17","NA","17","0","0","17","17","0","17","17","18","/","02/19/19 12:45:13","The main experiment item","yes","FIN__BA__M21__7%3A10%3A17.osexp","C:\Users\ERP Testing Room\Desktop\Joanna\morph21","no","mono","no","18","no","white","no","yes","1080","legacy","17","17","C:/Users/ERP Testing Room/Desktop/Joanna/morph21/subject-159.csv","xpyriment","Kafkaesque Koffka","3.2.5","0","/","NA","NA","NA","NA","space","/","426","NA","NA","NA","NA","112438","426","2","legacy","1024","2","48000","-16","BA_m21","159","odd","CW_S","LENDER","1949","179127","175960","177619","114397","NA","NA","NA","NA","177610","176457","NA","175460","NA","175449","177610","1958","179477","NA","NA","176619","1949","1949","177010","175449","1949","176619","179477","morph21_Oliver/Morris","15","9313","18","yes","1280","11"
"250","84.2105263158","84.2105263158","513.421052632","513.421052632","black","no","xpyriment","legacy","legacy","0","204","NA","uniform","69048","1000","0.0144826787163","1","undefined","1","0","18","18","18","0","18","18","18","NA","18","18","0","18","NA","18","18","0","18","NA","18","NA","18","0","0","18","18","0","18","18","19","z","02/19/19 12:45:13","The main experiment item","yes","FIN__BA__M21__7%3A10%3A17.osexp","C:\Users\ERP Testing Room\Desktop\Joanna\morph21","no","mono","no","18","no","white","no","yes","1080","legacy","18","18","C:/Users/ERP Testing Room/Desktop/Joanna/morph21/subject-159.csv","xpyriment","Kafkaesque Koffka","3.2.5","0","z","NA","NA","NA","NA","space","z","442","NA","NA","NA","NA","112438","442","2","legacy","1024","2","48000","-16","BA_m21","159","odd","NW_L_COMP","MUDLA","1949","182210","180560","177619","114397","NA","NA","NA","NA","182206","181058","NA","180060","NA","180057","182206","1958","182461","NA","NA","181210","1949","1949","181610","180057","1949","181210","182461","morph21_Oliver/Morris","16","9755","19","yes","1280","12"
"350","85","85","508.75","508.75","black","no","xpyriment","legacy","legacy","0","202","NA","uniform","64178","1000","0.0155816634984","1","undefined","1","0","19","19","19","0","19","19","19","NA","19","19","0","19","NA","19","19","0","19","NA","19","NA","19","0","0","19","19","0","19","19","20","/","02/19/19 12:45:13","The main experiment item","yes","FIN__BA__M21__7%3A10%3A17.osexp","C:\Users\ERP Testing Room\Desktop\Joanna\morph21","no","mono","no","18","no","white","no","yes","1080","legacy","19","19","C:/Users/ERP Testing Room/Desktop/Joanna/morph21/subject-159.csv","xpyriment","Kafkaesque Koffka","3.2.5","0","/","NA","NA","NA","NA","space","/","420","NA","NA","NA","NA","112438","420","2","legacy","1024","2","48000","-16","BA_m21","159","odd","CW_L","BOMBER","1949","185336","183669","177619","114397","NA","NA","NA","NA","185332","184166","NA","183169","NA","183163","185332","1958","185686","NA","NA","184344","1949","1949","184736","183163","1949","184344","185686","morph21_Oliver/Morris","17","10175","20","yes","1280","7"
"350","85.7142857143","85.7142857143","505.619047619","505.619047619","black","no","xpyriment","legacy","legacy","0","203","NA","uniform","75021","1000","0.013329601045","1","undefined","1","0","20","20","20","0","20","20","20","NA","20","20","0","20","NA","20","20","0","20","NA","20","NA","20","0","0","20","20","0","20","20","21","z","02/19/19 12:45:13","The main experiment item","yes","FIN__BA__M21__7%3A10%3A17.osexp","C:\Users\ERP Testing Room\Desktop\Joanna\morph21","no","mono","no","18","no","white","no","yes","1080","legacy","20","20","C:/Users/ERP Testing Room/Desktop/Joanna/morph21/subject-159.csv","xpyriment","Kafkaesque Koffka","3.2.5","0","z","NA","NA","NA","NA","space","z","443","NA","NA","NA","NA","112438","443","2","legacy","1024","2","48000","-16","BA_m21","159","odd","NW_S_COMP","EJECTENGE","1949","190078","186911","188569","114397","NA","NA","NA","NA","188561","187408","NA","186411","NA","186399","188561","1958","190428","NA","NA","187569","1949","1949","187961","186399","1949","187569","190428","morph21_Oliver/Morris","18","10618","21","yes","1280","20"
"350","86.3636363636","86.3636363636","510.818181818","510.818181818","black","no","xpyriment","legacy","legacy","0","208","NA","uniform","64525","1000","0.015497869043","1","undefined","1","0","21","21","21","0","21","21","21","NA","21","21","0","21","NA","21","21","0","21","NA","21","NA","21","0","0","21","21","0","21","21","22","z","02/19/19 12:45:13","The main experiment item","yes","FIN__BA__M21__7%3A10%3A17.osexp","C:\Users\ERP Testing Room\Desktop\Joanna\morph21","no","mono","no","18","no","white","no","yes","1080","legacy","21","21","C:/Users/ERP Testing Room/Desktop/Joanna/morph21/subject-159.csv","xpyriment","Kafkaesque Koffka","3.2.5","0","z","NA","NA","NA","NA","space","z","620","NA","NA","NA","NA","112438","620","2","legacy","1024","2","48000","-16","BA_m21","159","odd","FILL_NW","JADS","1949","193170","191519","188569","114397","NA","NA","NA","NA","193165","192016","NA","191019","NA","191008","193165","1958","193520","NA","NA","192169","1949","1949","192570","191008","1949","192169","193520","morph21_Oliver/Morris","19","11238","22","yes","1280","31"
"300","86.9565217391","86.9565217391","524.434782609","524.434782609","black","no","xpyriment","legacy","legacy","0","206","NA","uniform","59056","1000","0.016933080466","1","undefined","1","0","22","22","22","0","22","22","22","NA","22","22","0","22","NA","22","22","0","22","NA","22","NA","22","0","0","22","22","0","22","22","23","z","02/19/19 12:45:13","The main experiment item","yes","FIN__BA__M21__7%3A10%3A17.osexp","C:\Users\ERP Testing Room\Desktop\Joanna\morph21","no","mono","no","18","no","white","no","yes","1080","legacy","22","22","C:/Users/ERP Testing Room/Desktop/Joanna/morph21/subject-159.csv","xpyriment","Kafkaesque Koffka","3.2.5","0","z","NA","NA","NA","NA","space","z","824","NA","NA","NA","NA","112438","824","2","legacy","1024","2","48000","-16","BA_m21","159","odd","NW_L_SIMP","PRAYANCE","1949","196412","194704","188569","114397","NA","NA","NA","NA","196402","195201","NA","194204","NA","194196","196402","1958","196712","NA","NA","195412","1949","1949","195804","194196","1949","195412","196712","morph21_Oliver/Morris","20","12062","23","yes","1280","1"
"350","83.3333333333","83.3333333333","527.25","527.25","black","no","xpyriment","legacy","legacy","0","206","NA","uniform","67362","1000","0.0148451649298","0","undefined","0","0","23","23","23","0","23","23","23","NA","23","23","0","23","NA","23","23","0","23","NA","23","NA","23","0","0","23","23","0","23","23","24","z","02/19/19 12:45:13","The main experiment item","yes","FIN__BA__M21__7%3A10%3A17.osexp","C:\Users\ERP Testing Room\Desktop\Joanna\morph21","no","mono","no","18","no","white","no","yes","1080","legacy","23","23","C:/Users/ERP Testing Room/Desktop/Joanna/morph21/subject-159.csv","xpyriment","Kafkaesque Koffka","3.2.5","0","/","NA","NA","NA","NA","space","/","592","NA","NA","NA","NA","112438","592","2","legacy","1024","2","48000","-16","BA_m21","159","odd","NW_L_SIMP","CRITICANCE","1949","201121","197871","199612","114397","NA","NA","NA","NA","196402","198368","NA","197371","NA","197365","199604","1958","201471","NA","NA","198612","1949","1949","199004","197365","1949","198612","201471","morph21_Oliver/Morris","20","12654","24","yes","1280","22"
"300","80","80","535.8","535.8","black","no","xpyriment","legacy","legacy","0","204","NA","uniform","64558","1000","0.0154899470244","0","undefined","0","0","24","24","24","0","24","24","24","NA","24","24","0","24","NA","24","24","0","24","NA","24","NA","24","0","0","24","24","0","24","24","25","z","02/19/19 12:45:13","The main experiment item","yes","FIN__BA__M21__7%3A10%3A17.osexp","C:\Users\ERP Testing Room\Desktop\Joanna\morph21","no","mono","no","18","no","white","no","yes","1080","legacy","24","24","C:/Users/ERP Testing Room/Desktop/Joanna/morph21/subject-159.csv","xpyriment","Kafkaesque Koffka","3.2.5","0","/","NA","NA","NA","NA","space","/","741","NA","NA","NA","NA","112438","741","2","legacy","1024","2","48000","-16","BA_m21","159","odd","NW_L_COMP","ILLILT","1949","204287","202629","199612","114397","NA","NA","NA","NA","196402","203126","NA","202129","NA","202118","204280","1958","204587","NA","NA","203287","1949","1949","203679","202118","1949","203287","204587","morph21_Oliver/Morris","20","13395","25","yes","1280","9"
"250","80.7692307692","80.7692307692","535.538461538","535.538461538","black","no","xpyriment","legacy","legacy","0","202","NA","uniform","69934","1000","0.0142991963852","1","undefined","1","0","25","25","25","0","25","25","25","NA","25","25","0","25","NA","25","25","0","25","NA","25","NA","25","0","0","25","25","0","25","25","26","/","02/19/19 12:45:13","The main experiment item","yes","FIN__BA__M21__7%3A10%3A17.osexp","C:\Users\ERP Testing Room\Desktop\Joanna\morph21","no","mono","no","18","no","white","no","yes","1080","legacy","25","25","C:/Users/ERP Testing Room/Desktop/Joanna/morph21/subject-159.csv","xpyriment","Kafkaesque Koffka","3.2.5","0","/","NA","NA","NA","NA","space","/","529","NA","NA","NA","NA","112438","529","2","legacy","1024","2","48000","-16","BA_m21","159","odd","CW_L","LAUGHING","1949","207379","205721","199612","114397","NA","NA","NA","NA","207370","206218","NA","205213","NA","205207","207370","1958","207629","NA","NA","206379","1949","1949","206771","205207","1949","206379","207629","morph21_Oliver/Morris","21","13924","26","yes","1280","27"
"400","81.4814814815","81.4814814815","537.703703704","537.703703704","black","no","xpyriment","legacy","legacy","0","207","NA","uniform","68670","1000","0.0145623998835","1","undefined","1","0","26","26","26","0","26","26","26","NA","26","26","0","26","NA","26","26","0","26","NA","26","NA","26","0","0","26","26","0","26","26","27","/","02/19/19 12:45:13","The main experiment item","yes","FIN__BA__M21__7%3A10%3A17.osexp","C:\Users\ERP Testing Room\Desktop\Joanna\morph21","no","mono","no","18","no","white","no","yes","1080","legacy","26","26","C:/Users/ERP Testing Room/Desktop/Joanna/morph21/subject-159.csv","xpyriment","Kafkaesque Koffka","3.2.5","0","/","NA","NA","NA","NA","space","/","594","NA","NA","NA","NA","112438","594","2","legacy","1024","2","48000","-16","BA_m21","159","odd","FILL_W","CRUNCH","1949","211889","208729","210380","114397","NA","NA","NA","NA","210375","209227","NA","208229","NA","208218","210375","1958","212289","NA","NA","209379","1949","1949","209779","208218","1949","209379","212289","morph21_Oliver/Morris","22","14518","27","yes","1280","20"
"300","82.1428571429","82.1428571429","537.25","537.25","black","no","xpyriment","legacy","legacy","0","204","NA","uniform","66639","1000","0.0150062275844","1","undefined","1","0","27","27","27","0","27","27","27","NA","27","27","0","27","NA","27","27","0","27","NA","27","NA","27","0","0","27","27","0","27","27","28","z","02/19/19 12:45:13","The main experiment item","yes","FIN__BA__M21__7%3A10%3A17.osexp","C:\Users\ERP Testing Room\Desktop\Joanna\morph21","no","mono","no","18","no","white","no","yes","1080","legacy","27","27","C:/Users/ERP Testing Room/Desktop/Joanna/morph21/subject-159.csv","xpyriment","Kafkaesque Koffka","3.2.5","0","z","NA","NA","NA","NA","space","z","525","NA","NA","NA","NA","112438","525","2","legacy","1024","2","48000","-16","BA_m21","159","odd","NW_L_COMP","BINDIG","1949","215047","213381","210380","114397","NA","NA","NA","NA","215038","213878","NA","212880","NA","212869","215038","1958","215347","NA","NA","214047","1949","1949","214439","212869","1949","214047","215347","morph21_Oliver/Morris","23","15043","28","yes","1280","22"
"300","82.7586206897","82.7586206897","539.793103448","539.793103448","black","no","xpyriment","legacy","legacy","0","208","NA","uniform","62175","1000","0.0160836349015","1","undefined","1","0","28","28","28","0","28","28","28","NA","28","28","0","28","NA","28","28","0","28","NA","28","NA","28","0","0","28","28","0","28","28","29","z","02/19/19 12:45:13","The main experiment item","yes","FIN__BA__M21__7%3A10%3A17.osexp","C:\Users\ERP Testing Room\Desktop\Joanna\morph21","no","mono","no","18","no","white","no","yes","1080","legacy","28","28","C:/Users/ERP Testing Room/Desktop/Joanna/morph21/subject-159.csv","xpyriment","Kafkaesque Koffka","3.2.5","0","z","NA","NA","NA","NA","space","z","611","NA","NA","NA","NA","112438","611","2","legacy","1024","2","48000","-16","BA_m21","159","odd","FILL_NW","DULKS","1949","218089","216439","210380","114397","NA","NA","NA","NA","218083","216936","NA","215939","NA","215930","218083","1958","218389","NA","NA","217089","1949","1949","217481","215930","1949","217089","218389","morph21_Oliver/Morris","24","15654","29","yes","1280","18"
"300","83.3333333333","83.3333333333","543.333333333","543.333333333","black","no","xpyriment","legacy","legacy","0","206","NA","uniform","60846","1000","0.0164349340959","1","undefined","1","0","29","29","29","0","29","29","29","NA","29","29","0","29","NA","29","29","0","29","NA","29","NA","29","0","0","29","29","0","29","29","30","z","02/19/19 12:45:13","The main experiment item","yes","FIN__BA__M21__7%3A10%3A17.osexp","C:\Users\ERP Testing Room\Desktop\Joanna\morph21","no","mono","no","18","no","white","no","yes","1080","legacy","29","29","C:/Users/ERP Testing Room/Desktop/Joanna/morph21/subject-159.csv","xpyriment","Kafkaesque Koffka","3.2.5","0","z","NA","NA","NA","NA","space","z","646","NA","NA","NA","NA","112438","646","2","legacy","1024","2","48000","-16","BA_m21","159","odd","NW_L_SIMP","BEANISH","1949","222723","219564","221214","114397","NA","NA","NA","NA","221209","220061","NA","219064","NA","219057","221209","1958","223023","NA","NA","220214","1949","1949","220606","219057","1949","220214","223023","morph21_Oliver/Morris","25","16300","30","yes","1280","8"
"200","83.8709677419","83.8709677419","540.516129032","540.516129032","black","no","xpyriment","legacy","legacy","0","207","NA","uniform","75466","1000","0.0132510004505","1","undefined","1","0","30","30","30","0","30","30","30","NA","30","30","0","30","NA","30","30","0","30","NA","30","NA","30","0","0","30","30","0","30","30","31","/","02/19/19 12:45:13","The main experiment item","yes","FIN__BA__M21__7%3A10%3A17.osexp","C:\Users\ERP Testing Room\Desktop\Joanna\morph21","no","mono","no","18","no","white","no","yes","1080","legacy","30","30","C:/Users/ERP Testing Room/Desktop/Joanna/morph21/subject-159.csv","xpyriment","Kafkaesque Koffka","3.2.5","0","/","NA","NA","NA","NA","space","/","456","NA","NA","NA","NA","112438","456","2","legacy","1024","2","48000","-16","BA_m21","159","odd","FILL_W","WRECK","1949","225764","224106","221214","114397","NA","NA","NA","NA","225758","224603","NA","223606","NA","223595","225758","1958","225964","NA","NA","224764","1949","1949","225156","223595","1949","224764","225964","morph21_Oliver/Morris","26","16756","31","yes","1280","13"
"200","84.375","84.375","539.59375","539.59375","black","no","xpyriment","legacy","legacy","0","205","NA","uniform","73174","1000","0.0136660562495","1","undefined","1","0","31","31","31","0","31","31","31","NA","31","31","0","31","NA","31","31","0","31","NA","31","NA","31","0","0","31","31","0","31","31","32","z","02/19/19 12:45:13","The main experiment item","yes","FIN__BA__M21__7%3A10%3A17.osexp","C:\Users\ERP Testing Room\Desktop\Joanna\morph21","no","mono","no","18","no","white","no","yes","1080","legacy","31","31","C:/Users/ERP Testing Room/Desktop/Joanna/morph21/subject-159.csv","xpyriment","Kafkaesque Koffka","3.2.5","0","z","NA","NA","NA","NA","space","z","511","NA","NA","NA","NA","112438","511","2","legacy","1024","2","48000","-16","BA_m21","159","odd","NW_S_SIMP","GUMFUL","1949","228782","227114","221214","114397","NA","NA","NA","NA","228775","227612","NA","226614","NA","226609","228775","1958","228982","NA","NA","227782","1949","1949","228174","226609","1949","227782","228982","morph21_Oliver/Morris","27","17267","32","yes","1280","2"
"400","84.8484848485","84.8484848485","544","544","black","no","xpyriment","legacy","legacy","0","206","NA","uniform","66491","1000","0.0150396294235","1","undefined","1","0","32","32","32","0","32","32","32","NA","32","32","0","32","NA","32","32","0","32","NA","32","NA","32","0","0","32","32","0","32","32","33","z","02/19/19 12:45:13","The main experiment item","yes","FIN__BA__M21__7%3A10%3A17.osexp","C:\Users\ERP Testing Room\Desktop\Joanna\morph21","no","mono","no","18","no","white","no","yes","1080","legacy","32","32","C:/Users/ERP Testing Room/Desktop/Joanna/morph21/subject-159.csv","xpyriment","Kafkaesque Koffka","3.2.5","0","z","NA","NA","NA","NA","space","z","685","NA","NA","NA","NA","112438","685","2","legacy","1024","2","48000","-16","BA_m21","159","odd","NW_L_SIMP","BOGARY","1949","233332","230174","231824","114397","NA","NA","NA","NA","231821","230671","NA","229674","NA","229662","231821","1958","233733","NA","NA","230832","1949","1949","231224","229662","1949","230832","233733","morph21_Oliver/Morris","28","17952","33","yes","1280","2"
"300","85.2941176471","85.2941176471","543.823529412","543.823529412","black","no","xpyriment","legacy","legacy","0","201","NA","uniform","66533","1000","0.0150301354215","1","undefined","1","0","33","33","33","0","33","33","33","NA","33","33","0","33","NA","33","33","0","33","NA","33","NA","33","0","0","33","33","0","33","33","34","/","02/19/19 12:45:13","The main experiment item","yes","FIN__BA__M21__7%3A10%3A17.osexp","C:\Users\ERP Testing Room\Desktop\Joanna\morph21","no","mono","no","18","no","white","no","yes","1080","legacy","33","33","C:/Users/ERP Testing Room/Desktop/Joanna/morph21/subject-159.csv","xpyriment","Kafkaesque Koffka","3.2.5","0","/","NA","NA","NA","NA","space","/","538","NA","NA","NA","NA","112438","538","2","legacy","1024","2","48000","-16","BA_m21","159","odd","CW_S","INSISTENT","1949","236474","234816","231824","114397","NA","NA","NA","NA","236469","235313","NA","234316","NA","234306","236469","1958","236774","NA","NA","235474","1949","1949","235874","234306","1949","235474","236774","morph21_Oliver/Morris","29","18490","34","yes","1280","9"
"250","85.7142857143","85.7142857143","546.257142857","546.257142857","black","no","xpyriment","legacy","legacy","0","202","NA","uniform","62769","1000","0.0159314311205","1","undefined","1","0","34","34","34","0","34","34","34","NA","34","34","0","34","NA","34","34","0","34","NA","34","NA","34","0","0","34","34","0","34","34","35","/","02/19/19 12:45:13","The main experiment item","yes","FIN__BA__M21__7%3A10%3A17.osexp","C:\Users\ERP Testing Room\Desktop\Joanna\morph21","no","mono","no","18","no","white","no","yes","1080","legacy","34","34","C:/Users/ERP Testing Room/Desktop/Joanna/morph21/subject-159.csv","xpyriment","Kafkaesque Koffka","3.2.5","0","/","NA","NA","NA","NA","space","/","629","NA","NA","NA","NA","112438","629","2","legacy","1024","2","48000","-16","BA_m21","159","odd","CW_L","FLEXIBLE","1949","239599","237949","231824","114397","NA","NA","NA","NA","239593","238446","NA","237449","NA","237442","239593","1958","239849","NA","NA","238599","1949","1949","238991","237442","1949","238599","239849","morph21_Oliver/Morris","30","19119","35","yes","1280","22"
"200","86.1111111111","86.1111111111","548.527777778","548.527777778","black","no","xpyriment","legacy","legacy","0","207","NA","uniform","68399","1000","0.014620096785","1","undefined","1","0","35","35","35","0","35","35","35","NA","35","35","0","35","NA","35","35","0","35","NA","35","NA","35","0","0","35","35","0","35","35","36","/","02/19/19 12:45:13","The main experiment item","yes","FIN__BA__M21__7%3A10%3A17.osexp","C:\Users\ERP Testing Room\Desktop\Joanna\morph21","no","mono","no","18","no","white","no","yes","1080","legacy","35","35","C:/Users/ERP Testing Room/Desktop/Joanna/morph21/subject-159.csv","xpyriment","Kafkaesque Koffka","3.2.5","0","/","NA","NA","NA","NA","space","/","628","NA","NA","NA","NA","112438","628","2","legacy","1024","2","48000","-16","BA_m21","159","odd","FILL_W","OLD","1949","244133","240958","242624","114397","NA","NA","NA","NA","242614","241455","NA","240458","NA","240454","242614","1958","244333","NA","NA","241624","1949","1949","242016","240454","1949","241624","244333","morph21_Oliver/Morris","31","19747","36","yes","1280","44"
"200","86.4864864865","86.4864864865","554.216216216","554.216216216","black","no","xpyriment","legacy","legacy","0","203","NA","uniform","64431","1000","0.0155204792724","1","undefined","1","0","36","36","36","0","36","36","36","NA","36","36","0","36","NA","36","36","0","36","NA","36","NA","36","0","0","36","36","0","36","36","37","z","02/19/19 12:45:13","The main experiment item","yes","FIN__BA__M21__7%3A10%3A17.osexp","C:\Users\ERP Testing Room\Desktop\Joanna\morph21","no","mono","no","18","no","white","no","yes","1080","legacy","36","36","C:/Users/ERP Testing Room/Desktop/Joanna/morph21/subject-159.csv","xpyriment","Kafkaesque Koffka","3.2.5","0","z","NA","NA","NA","NA","space","z","759","NA","NA","NA","NA","112438","759","2","legacy","1024","2","48000","-16","BA_m21","159","odd","NW_S_COMP","MELTANGE","1949","247126","245467","242624","114397","NA","NA","NA","NA","247120","245964","NA","244967","NA","244962","247120","1958","247326","NA","NA","246126","1949","1949","246517","244962","1949","246126","247326","morph21_Oliver/Morris","32","20506","37","yes","1280","1"
"200","86.8421052632","86.8421052632","554.447368421","554.447368421","black","no","xpyriment","legacy","legacy","0","208","NA","uniform","71320","1000","0.0140213123948","1","undefined","1","0","37","37","37","0","37","37","37","NA","37","37","0","37","NA","37","37","0","37","NA","37","NA","37","0","0","37","37","0","37","37","38","z","02/19/19 12:45:13","The main experiment item","yes","FIN__BA__M21__7%3A10%3A17.osexp","C:\Users\ERP Testing Room\Desktop\Joanna\morph21","no","mono","no","18","no","white","no","yes","1080","legacy","37","37","C:/Users/ERP Testing Room/Desktop/Joanna/morph21/subject-159.csv","xpyriment","Kafkaesque Koffka","3.2.5","0","z","NA","NA","NA","NA","space","z","563","NA","NA","NA","NA","112438","563","2","legacy","1024","2","48000","-16","BA_m21","159","odd","FILL_NW","PUCTS","1949","250042","248384","242624","114397","NA","NA","NA","NA","250032","248881","NA","247884","NA","247879","250032","1958","250242","NA","NA","249042","1949","1949","249434","247879","1949","249042","250242","morph21_Oliver/Morris","33","21069","38","yes","1280","40"
"200","84.6153846154","84.6153846154","556.461538462","556.461538462","black","no","xpyriment","legacy","legacy","0","208","NA","uniform","62291","1000","0.0160536835177","0","undefined","0","0","38","38","38","0","38","38","38","NA","38","38","0","38","NA","38","38","0","38","NA","38","NA","38","0","0","38","38","0","38","38","39","z","02/19/19 12:45:13","The main experiment item","yes","FIN__BA__M21__7%3A10%3A17.osexp","C:\Users\ERP Testing Room\Desktop\Joanna\morph21","no","mono","no","18","no","white","no","yes","1080","legacy","38","38","C:/Users/ERP Testing Room/Desktop/Joanna/morph21/subject-159.csv","xpyriment","Kafkaesque Koffka","3.2.5","0","/","NA","NA","NA","NA","space","/","633","NA","NA","NA","NA","112438","633","2","legacy","1024","2","48000","-16","BA_m21","159","odd","FILL_NW","FALONS","1949","254576","251401","253067","114397","NA","NA","NA","NA","250032","251898","NA","250901","NA","250896","253057","1958","254776","NA","NA","252067","1949","1949","252459","250896","1949","252067","254776","morph21_Oliver/Morris","33","21702","39","yes","1280","19"
"300","85","85","560.85","560.85","black","no","xpyriment","legacy","legacy","0","206","NA","uniform","62374","1000","0.0160323211595","1","undefined","1","0","39","39","39","0","39","39","39","NA","39","39","0","39","NA","39","39","0","39","NA","39","NA","39","0","0","39","39","0","39","39","40","z","02/19/19 12:45:13","The main experiment item","yes","FIN__BA__M21__7%3A10%3A17.osexp","C:\Users\ERP Testing Room\Desktop\Joanna\morph21","no","mono","no","18","no","white","no","yes","1080","legacy","39","39","C:/Users/ERP Testing Room/Desktop/Joanna/morph21/subject-159.csv","xpyriment","Kafkaesque Koffka","3.2.5","0","z","NA","NA","NA","NA","space","z","732","NA","NA","NA","NA","112438","732","2","legacy","1024","2","48000","-16","BA_m21","159","odd","NW_L_SIMP","EARIST","1949","257576","255901","253067","114397","NA","NA","NA","NA","257571","256398","NA","255401","NA","255397","257571","1958","257876","NA","NA","256576","1949","1949","256976","255397","1949","256576","257876","morph21_Oliver/Morris","34","22434","40","yes","1280","12"
"400","85.3658536585","85.3658536585","562.512195122","562.512195122","black","no","xpyriment","legacy","legacy","0","205","NA","uniform","64410","1000","0.0155255395125","1","undefined","1","0","40","40","40","0","40","40","40","NA","40","40","0","40","NA","40","40","0","40","NA","40","NA","40","0","0","40","40","0","40","40","41","z","02/19/19 12:45:13","The main experiment item","yes","FIN__BA__M21__7%3A10%3A17.osexp","C:\Users\ERP Testing Room\Desktop\Joanna\morph21","no","mono","no","18","no","white","no","yes","1080","legacy","40","40","C:/Users/ERP Testing Room/Desktop/Joanna/morph21/subject-159.csv","xpyriment","Kafkaesque Koffka","3.2.5","0","z","NA","NA","NA","NA","space","z","629","NA","NA","NA","NA","112438","629","2","legacy","1024","2","48000","-16","BA_m21","159","odd","NW_S_SIMP","AIDIC","1949","260743","259084","253067","114397","NA","NA","NA","NA","260738","259582","NA","258584","NA","258573","260738","1958","261143","NA","NA","259743","1949","1949","260143","258573","1949","259743","261143","morph21_Oliver/Morris","35","23063","41","yes","1280","4"
"400","85.7142857143","85.7142857143","562.30952381","562.30952381","black","no","xpyriment","legacy","legacy","0","208","NA","uniform","67567","1000","0.014800124321","1","undefined","1","0","41","41","41","0","41","41","41","NA","41","41","0","41","NA","41","41","0","41","NA","41","NA","41","0","0","41","41","0","41","41","42","z","02/19/19 12:45:13","The main experiment item","yes","FIN__BA__M21__7%3A10%3A17.osexp","C:\Users\ERP Testing Room\Desktop\Joanna\morph21","no","mono","no","18","no","white","no","yes","1080","legacy","41","41","C:/Users/ERP Testing Room/Desktop/Joanna/morph21/subject-159.csv","xpyriment","Kafkaesque Koffka","3.2.5","0","z","NA","NA","NA","NA","space","z","554","NA","NA","NA","NA","112438","554","2","legacy","1024","2","48000","-16","BA_m21","159","odd","FILL_NW","BUTE","1949","265536","262327","264027","114397","NA","NA","NA","NA","264017","262824","NA","261826","NA","261822","264017","1958","265936","NA","NA","263027","1949","1949","263419","261822","1949","263027","265936","morph21_Oliver/Morris","36","23617","42","yes","1280","5"
"300","86.0465116279","86.0465116279","561.279069767","561.279069767","black","no","xpyriment","legacy","legacy","0","208","NA","uniform","71933","1000","0.0139018253097","1","undefined","1","0","42","42","42","0","42","42","42","NA","42","42","0","42","NA","42","42","0","42","NA","42","NA","42","0","0","42","42","0","42","42","43","z","02/19/19 12:45:13","The main experiment item","yes","FIN__BA__M21__7%3A10%3A17.osexp","C:\Users\ERP Testing Room\Desktop\Joanna\morph21","no","mono","no","18","no","white","no","yes","1080","legacy","42","42","C:/Users/ERP Testing Room/Desktop/Joanna/morph21/subject-159.csv","xpyriment","Kafkaesque Koffka","3.2.5","0","z","NA","NA","NA","NA","space","z","518","NA","NA","NA","NA","112438","518","2","legacy","1024","2","48000","-16","BA_m21","159","odd","FILL_NW","BAFED","1949","268677","267027","264027","114397","NA","NA","NA","NA","268674","267525","NA","266527","NA","266518","268674","1958","268978","NA","NA","267686","1949","1949","268077","266518","1949","267686","268978","morph21_Oliver/Morris","37","24135","43","yes","1280","1"
"250","86.3636363636","86.3636363636","562.863636364","562.863636364","black","no","xpyriment","legacy","legacy","0","201","NA","uniform","68643","1000","0.0145681278499","1","undefined","1","0","43","43","43","0","43","43","43","NA","43","43","0","43","NA","43","43","0","43","NA","43","NA","43","0","0","43","43","0","43","43","44","/","02/19/19 12:45:13","The main experiment item","yes","FIN__BA__M21__7%3A10%3A17.osexp","C:\Users\ERP Testing Room\Desktop\Joanna\morph21","no","mono","no","18","no","white","no","yes","1080","legacy","43","43","C:/Users/ERP Testing Room/Desktop/Joanna/morph21/subject-159.csv","xpyriment","Kafkaesque Koffka","3.2.5","0","/","NA","NA","NA","NA","space","/","631","NA","NA","NA","NA","112438","631","2","legacy","1024","2","48000","-16","BA_m21","159","odd","CW_S","COSTLY","1949","271861","270128","264027","114397","NA","NA","NA","NA","271855","270625","NA","269628","NA","269618","271855","1958","272111","NA","NA","270861","1949","1949","271253","269618","1949","270861","272111","morph21_Oliver/Morris","38","24766","44","yes","1280","36"
"400","86.6666666667","86.6666666667","564.2","564.2","black","no","xpyriment","legacy","legacy","0","202","NA","uniform","65817","1000","0.0151936429798","1","undefined","1","0","44","44","44","0","44","44","44","NA","44","44","0","44","NA","44","44","0","44","NA","44","NA","44","0","0","44","44","0","44","44","45","/","02/19/19 12:45:13","The main experiment item","yes","FIN__BA__M21__7%3A10%3A17.osexp","C:\Users\ERP Testing Room\Desktop\Joanna\morph21","no","mono","no","18","no","white","no","yes","1080","legacy","44","44","C:/Users/ERP Testing Room/Desktop/Joanna/morph21/subject-159.csv","xpyriment","Kafkaesque Koffka","3.2.5","0","/","NA","NA","NA","NA","space","/","623","NA","NA","NA","NA","112438","623","2","legacy","1024","2","48000","-16","BA_m21","159","odd","CW_L","COOLING","1949","276378","273178","274869","114397","NA","NA","NA","NA","274860","273675","NA","272669","NA","272662","274860","1958","276778","NA","NA","273869","1949","1949","274261","272662","1949","273869","276778","morph21_Oliver/Morris","39","25389","45","yes","1280","24"
"250","86.9565217391","86.9565217391","566.043478261","566.043478261","black","no","xpyriment","legacy","legacy","0","202","NA","uniform","60142","1000","0.0166273153537","1","undefined","1","0","45","45","45","0","45","45","45","NA","45","45","0","45","NA","45","45","0","45","NA","45","NA","45","0","0","45","45","0","45","45","46","/","02/19/19 12:45:13","The main experiment item","yes","FIN__BA__M21__7%3A10%3A17.osexp","C:\Users\ERP Testing Room\Desktop\Joanna\morph21","no","mono","no","18","no","white","no","yes","1080","legacy","45","45","C:/Users/ERP Testing Room/Desktop/Joanna/morph21/subject-159.csv","xpyriment","Kafkaesque Koffka","3.2.5","0","/","NA","NA","NA","NA","space","/","649","NA","NA","NA","NA","112438","649","2","legacy","1024","2","48000","-16","BA_m21","159","odd","CW_L","DEAFNESS","1949","279611","277953","274869","114397","NA","NA","NA","NA","279608","278450","NA","277453","NA","277443","279608","1958","279861","NA","NA","278611","1949","1949","279011","277442","1949","278611","279861","morph21_Oliver/Morris","40","26038","46","yes","1280","39"
"250","87.2340425532","87.2340425532","565.042553191","565.042553191","black","no","xpyriment","legacy","legacy","0","202","NA","uniform","67374","1000","0.0148425208537","1","undefined","1","0","46","46","46","0","46","46","46","NA","46","46","0","46","NA","46","46","0","46","NA","46","NA","46","0","0","46","46","0","46","46","47","/","02/19/19 12:45:13","The main experiment item","yes","FIN__BA__M21__7%3A10%3A17.osexp","C:\Users\ERP Testing Room\Desktop\Joanna\morph21","no","mono","no","18","no","white","no","yes","1080","legacy","46","46","C:/Users/ERP Testing Room/Desktop/Joanna/morph21/subject-159.csv","xpyriment","Kafkaesque Koffka","3.2.5","0","/","NA","NA","NA","NA","space","/","519","NA","NA","NA","NA","112438","519","2","legacy","1024","2","48000","-16","BA_m21","159","odd","CW_L","DREAMER","1949","282654","280946","274869","114397","NA","NA","NA","NA","282649","281443","NA","280446","NA","280440","282649","1958","282904","NA","NA","281654","1949","1949","282054","280440","1949","281654","282904","morph21_Oliver/Morris","41","26557","47","yes","1280","12"
"200","87.5","87.5","563.833333333","563.833333333","black","no","xpyriment","legacy","legacy","0","202","NA","uniform","73910","1000","0.0135299688811","1","undefined","1","0","47","47","47","0","47","47","47","NA","47","47","0","47","NA","47","47","0","47","NA","47","NA","47","0","0","47","47","0","47","47","48","/","02/19/19 12:45:13","The main experiment item","yes","FIN__BA__M21__7%3A10%3A17.osexp","C:\Users\ERP Testing Room\Desktop\Joanna\morph21","no","mono","no","18","no","white","no","yes","1080","legacy","47","47","C:/Users/ERP Testing Room/Desktop/Joanna/morph21/subject-159.csv","xpyriment","Kafkaesque Koffka","3.2.5","0","/","NA","NA","NA","NA","space","/","507","NA","NA","NA","NA","112438","507","2","legacy","1024","2","48000","-16","BA_m21","159","odd","CW_L","BONELESS","1949","287254","284029","285746","114397","NA","NA","NA","NA","285737","284526","NA","283529","NA","283526","285737","1958","287455","NA","NA","284746","1949","1949","285138","283526","1949","284746","287455","morph21_Oliver/Morris","42","27064","48","yes","1280","34"
"300","87.7551020408","87.7551020408","570.285714286","570.285714286","black","no","xpyriment","legacy","legacy","0","202","NA","uniform","52338","1000","0.0191065764836","1","undefined","1","0","48","48","48","0","48","48","48","NA","48","48","0","48","NA","48","48","0","48","NA","48","NA","48","0","0","48","48","0","48","48","49","/","02/19/19 12:45:13","The main experiment item","yes","FIN__BA__M21__7%3A10%3A17.osexp","C:\Users\ERP Testing Room\Desktop\Joanna\morph21","no","mono","no","18","no","white","no","yes","1080","legacy","48","48","C:/Users/ERP Testing Room/Desktop/Joanna/morph21/subject-159.csv","xpyriment","Kafkaesque Koffka","3.2.5","0","/","NA","NA","NA","NA","space","/","880","NA","NA","NA","NA","112438","880","2","legacy","1024","2","48000","-16","BA_m21","159","odd","CW_L","WEEDY","1949","290204","288546","285746","114397","NA","NA","NA","NA","290200","289043","NA","288046","NA","288035","290200","1958","290505","NA","NA","289204","1949","1949","289604","288035","1949","289204","290505","morph21_Oliver/Morris","43","27944","49","yes","1280","48"
"400","88","88","570.28","570.28","black","no","xpyriment","legacy","legacy","0","202","NA","uniform","67908","1000","0.0147258055016","1","undefined","1","0","49","49","49","0","49","49","49","NA","49","49","0","49","NA","49","49","0","49","NA","49","NA","49","0","0","49","49","0","49","49","50","/","02/19/19 12:45:13","The main experiment item","yes","FIN__BA__M21__7%3A10%3A17.osexp","C:\Users\ERP Testing Room\Desktop\Joanna\morph21","no","mono","no","18","no","white","no","yes","1080","legacy","49","49","C:/Users/ERP Testing Room/Desktop/Joanna/morph21/subject-159.csv","xpyriment","Kafkaesque Koffka","3.2.5","0","/","NA","NA","NA","NA","space","/","570","NA","NA","NA","NA","112438","570","2","legacy","1024","2","48000","-16","BA_m21","159","odd","CW_L","LOCKER","1949","293346","291663","285746","114397","NA","NA","NA","NA","293339","292160","NA","291163","NA","291156","293339","1958","293746","NA","NA","292346","1949","1949","292738","291156","1949","292346","293746","morph21_Oliver/Morris","44","28514","50","yes","1280","8"
"200","88.2352941176","88.2352941176","571.529411765","571.529411765","black","no","xpyriment","legacy","legacy","0","208","NA","uniform","64358","1000","0.0155380838435","1","undefined","1","0","50","50","50","0","50","50","50","NA","50","50","0","50","NA","50","50","0","50","NA","50","NA","50","0","0","50","50","0","50","50","51","z","02/19/19 12:45:13","The main experiment item","yes","FIN__BA__M21__7%3A10%3A17.osexp","C:\Users\ERP Testing Room\Desktop\Joanna\morph21","no","mono","no","18","no","white","no","yes","1080","legacy","50","50","C:/Users/ERP Testing Room/Desktop/Joanna/morph21/subject-159.csv","xpyriment","Kafkaesque Koffka","3.2.5","0","z","NA","NA","NA","NA","space","z","634","NA","NA","NA","NA","112438","634","2","legacy","1024","2","48000","-16","BA_m21","159","odd","FILL_NW","CINDS","1949","298256","295071","296746","114397","NA","NA","NA","NA","296739","295569","NA","294571","NA","294563","296739","1958","298456","NA","NA","295746","1949","1949","296138","294563","1949","295746","298456","morph21_Oliver/Morris","45","29148","51","yes","1280","6"
"200","88.4615384615","88.4615384615","571.288461538","571.288461538","black","no","xpyriment","legacy","legacy","0","201","NA","uniform","68123","1000","0.0146793300354","1","undefined","1","0","51","51","51","0","51","51","51","NA","51","51","0","51","NA","51","51","0","51","NA","51","NA","51","0","0","51","51","0","51","51","52","/","02/19/19 12:45:13","The main experiment item","yes","FIN__BA__M21__7%3A10%3A17.osexp","C:\Users\ERP Testing Room\Desktop\Joanna\morph21","no","mono","no","18","no","white","no","yes","1080","legacy","51","51","C:/Users/ERP Testing Room/Desktop/Joanna/morph21/subject-159.csv","xpyriment","Kafkaesque Koffka","3.2.5","0","/","NA","NA","NA","NA","space","/","559","NA","NA","NA","NA","112438","559","2","legacy","1024","2","48000","-16","BA_m21","159","odd","CW_S","AMUSEMENT","1949","301214","299523","296746","114397","NA","NA","NA","NA","301208","300020","NA","299022","NA","299018","301208","1958","301414","NA","NA","300214","1949","1949","300606","299018","1949","300214","301414","morph21_Oliver/Morris","46","29707","52","yes","1280","38"
"200","88.679245283","88.679245283","570.924528302","570.924528302","black","no","xpyriment","legacy","legacy","0","207","NA","uniform","71384","1000","0.0140087414547","1","undefined","1","0","52","52","52","0","52","52","52","NA","52","52","0","52","NA","52","52","0","52","NA","52","NA","52","0","0","52","52","0","52","52","53","/","02/19/19 12:45:13","The main experiment item","yes","FIN__BA__M21__7%3A10%3A17.osexp","C:\Users\ERP Testing Room\Desktop\Joanna\morph21","no","mono","no","18","no","white","no","yes","1080","legacy","52","52","C:/Users/ERP Testing Room/Desktop/Joanna/morph21/subject-159.csv","xpyriment","Kafkaesque Koffka","3.2.5","0","/","NA","NA","NA","NA","space","/","552","NA","NA","NA","NA","112438","552","2","legacy","1024","2","48000","-16","BA_m21","159","odd","FILL_W","LEGAL","1949","304164","302481","296746","114397","NA","NA","NA","NA","304154","302978","NA","301981","NA","301972","304154","1958","304364","NA","NA","303164","1949","1949","303556","301972","1949","303164","304364","morph21_Oliver/Morris","47","30259","53","yes","1280","35"
"250","88.8888888889","88.8888888889","570.777777778","570.777777778","black","no","xpyriment","legacy","legacy","0","208","NA","uniform","65390","1000","0.0152928582352","1","undefined","1","0","53","53","53","0","53","53","53","NA","53","53","0","53","NA","53","53","0","53","NA","53","NA","53","0","0","53","53","0","53","53","54","z","02/19/19 12:45:13","The main experiment item","yes","FIN__BA__M21__7%3A10%3A17.osexp","C:\Users\ERP Testing Room\Desktop\Joanna\morph21","no","mono","no","18","no","white","no","yes","1080","legacy","53","53","C:/Users/ERP Testing Room/Desktop/Joanna/morph21/subject-159.csv","xpyriment","Kafkaesque Koffka","3.2.5","0","z","NA","NA","NA","NA","space","z","563","NA","NA","NA","NA","112438","563","2","legacy","1024","2","48000","-16","BA_m21","159","odd","FILL_NW","BUWL","1949","308781","305614","307273","114397","NA","NA","NA","NA","307269","306112","NA","305114","NA","305109","307269","1958","309031","NA","NA","306273","1949","1949","306673","305109","1949","306273","309031","morph21_Oliver/Morris","48","30822","54","yes","1280","9"
"300","89.0909090909","89.0909090909","573.709090909","573.709090909","black","no","xpyriment","legacy","legacy","0","205","NA","uniform","64030","1000","0.0156176792129","1","undefined","1","0","54","54","54","0","54","54","54","NA","54","54","0","54","NA","54","54","0","54","NA","54","NA","54","0","0","54","54","0","54","54","55","z","02/19/19 12:45:13","The main experiment item","yes","FIN__BA__M21__7%3A10%3A17.osexp","C:\Users\ERP Testing Room\Desktop\Joanna\morph21","no","mono","no","18","no","white","no","yes","1080","legacy","54","54","C:/Users/ERP Testing Room/Desktop/Joanna/morph21/subject-159.csv","xpyriment","Kafkaesque Koffka","3.2.5","0","z","NA","NA","NA","NA","space","z","732","NA","NA","NA","NA","112438","732","2","legacy","1024","2","48000","-16","BA_m21","159","odd","NW_S_SIMP","SOCKETER","1949","311831","310173","307273","114397","NA","NA","NA","NA","311827","310670","NA","309673","NA","309668","311827","1958","312131","NA","NA","310840","1949","1949","311231","309668","1949","310840","312131","morph21_Oliver/Morris","49","31554","55","yes","1280","1"
"300","89.2857142857","89.2857142857","573.517857143","573.517857143","black","no","xpyriment","legacy","legacy","0","201","NA","uniform","67309","1000","0.0148568542097","1","undefined","1","0","55","55","55","0","55","55","55","NA","55","55","0","55","NA","55","55","0","55","NA","55","NA","55","0","0","55","55","0","55","55","56","/","02/19/19 12:45:13","The main experiment item","yes","FIN__BA__M21__7%3A10%3A17.osexp","C:\Users\ERP Testing Room\Desktop\Joanna\morph21","no","mono","no","18","no","white","no","yes","1080","legacy","55","55","C:/Users/ERP Testing Room/Desktop/Joanna/morph21/subject-159.csv","xpyriment","Kafkaesque Koffka","3.2.5","0","/","NA","NA","NA","NA","space","/","563","NA","NA","NA","NA","112438","563","2","legacy","1024","2","48000","-16","BA_m21","159","odd","CW_S","DESTROYER","1949","314882","313215","307273","114397","NA","NA","NA","NA","314875","313712","NA","312715","NA","312704","314875","1958","315182","NA","NA","313881","1949","1949","314273","312704","1949","313881","315182","morph21_Oliver/Morris","50","32117","56","yes","1280","14"
"400","89.4736842105","89.4736842105","572.421052632","572.421052632","black","no","xpyriment","legacy","legacy","0","207","NA","uniform","72853","1000","0.0137262707095","1","undefined","1","0","56","56","56","0","56","56","56","NA","56","56","0","56","NA","56","56","0","56","NA","56","NA","56","0","0","56","56","0","56","56","57","/","02/19/19 12:45:13","The main experiment item","yes","FIN__BA__M21__7%3A10%3A17.osexp","C:\Users\ERP Testing Room\Desktop\Joanna\morph21","no","mono","no","18","no","white","no","yes","1080","legacy","56","56","C:/Users/ERP Testing Room/Desktop/Joanna/morph21/subject-159.csv","xpyriment","Kafkaesque Koffka","3.2.5","0","/","NA","NA","NA","NA","space","/","511","NA","NA","NA","NA","112438","511","2","legacy","1024","2","48000","-16","BA_m21","159","odd","FILL_W","DRUNK","1949","319474","316316","317966","114397","NA","NA","NA","NA","317961","316813","NA","315816","NA","315804","317961","1958","319875","NA","NA","316966","1949","1949","317366","315804","1949","316966","319875","morph21_Oliver/Morris","51","32628","57","yes","1280","19"
"300","89.6551724138","89.6551724138","571.482758621","571.482758621","black","no","xpyriment","legacy","legacy","0","201","NA","uniform","72107","1000","0.0138682790852","1","undefined","1","0","57","57","57","0","57","57","57","NA","57","57","0","57","NA","57","57","0","57","NA","57","NA","57","0","0","57","57","0","57","57","58","/","02/19/19 12:45:13","The main experiment item","yes","FIN__BA__M21__7%3A10%3A17.osexp","C:\Users\ERP Testing Room\Desktop\Joanna\morph21","no","mono","no","18","no","white","no","yes","1080","legacy","57","57","C:/Users/ERP Testing Room/Desktop/Joanna/morph21/subject-159.csv","xpyriment","Kafkaesque Koffka","3.2.5","0","/","NA","NA","NA","NA","space","/","518","NA","NA","NA","NA","112438","518","2","legacy","1024","2","48000","-16","BA_m21","159","odd","CW_S","RISKY","1949","322758","321091","317966","114397","NA","NA","NA","NA","322748","321588","NA","320591","NA","320586","322748","1958","323058","NA","NA","321758","1949","1949","322149","320586","1949","321758","323058","morph21_Oliver/Morris","52","33146","58","yes","1280","50"
"350","89.8305084746","89.8305084746","573.118644068","573.118644068","black","no","xpyriment","legacy","legacy","0","201","NA","uniform","61545","1000","0.0162482736209","1","undefined","1","0","58","58","58","0","58","58","58","NA","58","58","0","58","NA","58","58","0","58","NA","58","NA","58","0","0","58","58","0","58","58","59","/","02/19/19 12:45:13","The main experiment item","yes","FIN__BA__M21__7%3A10%3A17.osexp","C:\Users\ERP Testing Room\Desktop\Joanna\morph21","no","mono","no","18","no","white","no","yes","1080","legacy","58","58","C:/Users/ERP Testing Room/Desktop/Joanna/morph21/subject-159.csv","xpyriment","Kafkaesque Koffka","3.2.5","0","/","NA","NA","NA","NA","space","/","668","NA","NA","NA","NA","112438","668","2","legacy","1024","2","48000","-16","BA_m21","159","odd","CW_S","NEATLY","1949","325800","324133","317966","114397","NA","NA","NA","NA","325792","324630","NA","323633","NA","323622","325792","1958","326150","NA","NA","324800","1949","1949","325191","323622","1949","324800","326150","morph21_Oliver/Morris","53","33814","59","yes","1280","33"
"400","88.3333333333","88.3333333333","580.083333333","580.083333333","black","no","xpyriment","legacy","legacy","0","206","NA","uniform","55431","1000","0.0180404466815","0","undefined","0","0","59","59","59","0","59","59","59","NA","59","59","0","59","NA","59","59","0","59","NA","59","NA","59","0","0","59","59","0","59","59","60","z","02/19/19 12:45:13","The main experiment item","yes","FIN__BA__M21__7%3A10%3A17.osexp","C:\Users\ERP Testing Room\Desktop\Joanna\morph21","no","mono","no","18","no","white","no","yes","1080","legacy","59","59","C:/Users/ERP Testing Room/Desktop/Joanna/morph21/subject-159.csv","xpyriment","Kafkaesque Koffka","3.2.5","0","None","NA","NA","NA","NA","space","None","991","NA","NA","NA","NA","112438","991","2","legacy","1024","2","48000","-16","BA_m21","159","odd","NW_L_SIMP","POORITY","1949","330442","327258","328933","114397","NA","NA","NA","NA","325792","327755","NA","326758","NA","326754","328925","1958","330842","NA","NA","327933","1949","1949","328325","326754","1949","327933","330842","morph21_Oliver/Morris","53","34805","60","yes","1280","13"
"350","88.5245901639","88.5245901639","579.114754098","579.114754098","black","no","xpyriment","legacy","legacy","0","202","NA","uniform","66838","1000","0.0149615488195","1","undefined","1","0","60","60","60","0","60","60","60","NA","60","60","0","60","NA","60","60","0","60","NA","60","NA","60","0","0","60","60","0","60","60","61","/","02/19/19 12:45:13","The main experiment item","yes","FIN__BA__M21__7%3A10%3A17.osexp","C:\Users\ERP Testing Room\Desktop\Joanna\morph21","no","mono","no","18","no","white","no","yes","1080","legacy","60","60","C:/Users/ERP Testing Room/Desktop/Joanna/morph21/subject-159.csv","xpyriment","Kafkaesque Koffka","3.2.5","0","/","NA","NA","NA","NA","space","/","521","NA","NA","NA","NA","112438","521","2","legacy","1024","2","48000","-16","BA_m21","159","odd","CW_L","FEEDER","1949","333684","332008","328933","114397","NA","NA","NA","NA","333680","332505","NA","331508","NA","331499","333680","1958","334034","NA","NA","332684","1949","1949","333084","331499","1949","332684","334034","morph21_Oliver/Morris","54","35326","61","yes","1280","14"
"300","88.7096774194","88.7096774194","579.225806452","579.225806452","black","no","xpyriment","legacy","legacy","0","201","NA","uniform","65006","1000","0.0153831953973","1","undefined","1","0","61","61","61","0","61","61","61","NA","61","61","0","61","NA","61","61","0","61","NA","61","NA","61","0","0","61","61","0","61","61","62","/","02/19/19 12:45:13","The main experiment item","yes","FIN__BA__M21__7%3A10%3A17.osexp","C:\Users\ERP Testing Room\Desktop\Joanna\morph21","no","mono","no","18","no","white","no","yes","1080","legacy","61","61","C:/Users/ERP Testing Room/Desktop/Joanna/morph21/subject-159.csv","xpyriment","Kafkaesque Koffka","3.2.5","0","/","NA","NA","NA","NA","space","/","586","NA","NA","NA","NA","112438","586","2","legacy","1024","2","48000","-16","BA_m21","159","odd","CW_S","MAGICAL","1949","336859","335176","328933","114397","NA","NA","NA","NA","336849","335673","NA","334676","NA","334667","336849","1958","337159","NA","NA","335859","1949","1949","336251","334666","1949","335859","337159","morph21_Oliver/Morris","55","35912","62","yes","1280","4"
"350","88.8888888889","88.8888888889","579.873015873","579.873015873","black","no","xpyriment","legacy","legacy","0","206","NA","uniform","57430","1000","0.0174125021766","1","undefined","1","0","62","62","62","0","62","62","62","NA","62","62","0","62","NA","62","62","0","62","NA","62","NA","62","0","0","62","62","0","62","62","63","z","02/19/19 12:45:13","The main experiment item","yes","FIN__BA__M21__7%3A10%3A17.osexp","C:\Users\ERP Testing Room\Desktop\Joanna\morph21","no","mono","no","18","no","white","no","yes","1080","legacy","62","62","C:/Users/ERP Testing Room/Desktop/Joanna/morph21/subject-159.csv","xpyriment","Kafkaesque Koffka","3.2.5","0","z","NA","NA","NA","NA","space","z","620","NA","NA","NA","NA","112438","620","2","legacy","1024","2","48000","-16","BA_m21","159","odd","NW_L_SIMP","WIGISH","1949","341485","338293","339976","114397","NA","NA","NA","NA","339967","338790","NA","337793","NA","337790","339967","1958","341835","NA","NA","338976","1949","1949","339368","337790","1949","338976","341835","morph21_Oliver/Morris","56","36532","63","yes","1280","9"
"400","89.0625","89.0625","579.234375","579.234375","black","no","xpyriment","legacy","legacy","0","207","NA","uniform","63233","1000","0.0158145272247","1","undefined","1","0","63","63","63","0","63","63","63","NA","63","63","0","63","NA","63","63","0","63","NA","63","NA","63","0","0","63","63","0","63","63","64","/","02/19/19 12:45:13","The main experiment item","yes","FIN__BA__M21__7%3A10%3A17.osexp","C:\Users\ERP Testing Room\Desktop\Joanna\morph21","no","mono","no","18","no","white","no","yes","1080","legacy","63","63","C:/Users/ERP Testing Room/Desktop/Joanna/morph21/subject-159.csv","xpyriment","Kafkaesque Koffka","3.2.5","0","/","NA","NA","NA","NA","space","/","539","NA","NA","NA","NA","112438","539","2","legacy","1024","2","48000","-16","BA_m21","159","odd","FILL_W","STEEP","1949","344576","342910","339976","114397","NA","NA","NA","NA","344573","343407","NA","342410","NA","342404","344573","1958","344976","NA","NA","343585","1949","1949","343976","342404","1949","343585","344976","morph21_Oliver/Morris","57","37071","64","yes","1280","16"
"250","89.2307692308","89.2307692308","579.015384615","579.015384615","black","no","xpyriment","legacy","legacy","0","207","NA","uniform","68256","1000","0.014650726676","1","undefined","1","0","64","64","64","0","64","64","64","NA","64","64","0","64","NA","64","64","0","64","NA","64","NA","64","0","0","64","64","0","64","64","65","/","02/19/19 12:45:13","The main experiment item","yes","FIN__BA__M21__7%3A10%3A17.osexp","C:\Users\ERP Testing Room\Desktop\Joanna\morph21","no","mono","no","18","no","white","no","yes","1080","legacy","64","64","C:/Users/ERP Testing Room/Desktop/Joanna/morph21/subject-159.csv","xpyriment","Kafkaesque Koffka","3.2.5","0","/","NA","NA","NA","NA","space","/","565","NA","NA","NA","NA","112438","565","2","legacy","1024","2","48000","-16","BA_m21","159","odd","FILL_W","FIERCE","1949","347735","346060","339976","114397","NA","NA","NA","NA","347729","346557","NA","345560","NA","345548","347729","1958","347985","NA","NA","346735","1949","1949","347126","345548","1949","346735","347985","morph21_Oliver/Morris","58","37636","65","yes","1280","24"
"400","89.3939393939","89.3939393939","578.878787879","578.878787879","black","no","xpyriment","legacy","legacy","0","202","NA","uniform","68387","1000","0.0146226622019","1","undefined","1","0","65","65","65","0","65","65","65","NA","65","65","0","65","NA","65","65","0","65","NA","65","NA","65","0","0","65","65","0","65","65","66","/","02/19/19 12:45:13","The main experiment item","yes","FIN__BA__M21__7%3A10%3A17.osexp","C:\Users\ERP Testing Room\Desktop\Joanna\morph21","no","mono","no","18","no","white","no","yes","1080","legacy","65","65","C:/Users/ERP Testing Room/Desktop/Joanna/morph21/subject-159.csv","xpyriment","Kafkaesque Koffka","3.2.5","0","/","NA","NA","NA","NA","space","/","570","NA","NA","NA","NA","112438","570","2","legacy","1024","2","48000","-16","BA_m21","159","odd","CW_L","QUIETLY","1949","352311","349143","350803","114397","NA","NA","NA","NA","350799","349640","NA","348643","NA","348632","350799","1958","352711","NA","NA","349803","1949","1949","350203","348632","1949","349803","352711","morph21_Oliver/Morris","59","38206","66","yes","1280","36"
"300","89.552238806","89.552238806","577.28358209","577.28358209","black","no","xpyriment","legacy","legacy","0","204","NA","uniform","71266","1000","0.0140319366879","1","undefined","1","0","66","66","66","0","66","66","66","NA","66","66","0","66","NA","66","66","0","66","NA","66","NA","66","0","0","66","66","0","66","66","67","z","02/19/19 12:45:13","The main experiment item","yes","FIN__BA__M21__7%3A10%3A17.osexp","C:\Users\ERP Testing Room\Desktop\Joanna\morph21","no","mono","no","18","no","white","no","yes","1080","legacy","66","66","C:/Users/ERP Testing Room/Desktop/Joanna/morph21/subject-159.csv","xpyriment","Kafkaesque Koffka","3.2.5","0","z","NA","NA","NA","NA","space","z","472","NA","NA","NA","NA","112438","472","2","legacy","1024","2","48000","-16","BA_m21","159","odd","NW_L_COMP","IME","1949","355453","353795","350803","114397","NA","NA","NA","NA","355443","354292","NA","353294","NA","353284","355443","1958","355753","NA","NA","354453","1949","1949","354845","353284","1949","354453","355753","morph21_Oliver/Morris","60","38678","67","yes","1280","20"
"400","89.7058823529","89.7058823529","575.558823529","575.558823529","black","no","xpyriment","legacy","legacy","0","202","NA","uniform","74287","1000","0.0134613054774","1","undefined","1","0","67","67","67","0","67","67","67","NA","67","67","0","67","NA","67","67","0","67","NA","67","NA","67","0","0","67","67","0","67","67","68","/","02/19/19 12:45:13","The main experiment item","yes","FIN__BA__M21__7%3A10%3A17.osexp","C:\Users\ERP Testing Room\Desktop\Joanna\morph21","no","mono","no","18","no","white","no","yes","1080","legacy","67","67","C:/Users/ERP Testing Room/Desktop/Joanna/morph21/subject-159.csv","xpyriment","Kafkaesque Koffka","3.2.5","0","/","NA","NA","NA","NA","space","/","460","NA","NA","NA","NA","112438","460","2","legacy","1024","2","48000","-16","BA_m21","159","odd","CW_L","CLEANER","1949","358528","356853","350803","114397","NA","NA","NA","NA","358521","357350","NA","356353","NA","356346","358521","1958","358928","NA","NA","357528","1949","1949","357920","356346","1949","357528","358928","morph21_Oliver/Morris","61","39138","68","yes","1280","15"
"400","89.8550724638","89.8550724638","575.52173913","575.52173913","black","no","xpyriment","legacy","legacy","0","204","NA","uniform","70254","1000","0.0142340649643","1","undefined","1","0","68","68","68","0","68","68","68","NA","68","68","0","68","NA","68","68","0","68","NA","68","NA","68","0","0","68","68","0","68","68","69","z","02/19/19 12:45:13","The main experiment item","yes","FIN__BA__M21__7%3A10%3A17.osexp","C:\Users\ERP Testing Room\Desktop\Joanna\morph21","no","mono","no","18","no","white","no","yes","1080","legacy","68","68","C:/Users/ERP Testing Room/Desktop/Joanna/morph21/subject-159.csv","xpyriment","Kafkaesque Koffka","3.2.5","0","z","NA","NA","NA","NA","space","z","573","NA","NA","NA","NA","112438","573","2","legacy","1024","2","48000","-16","BA_m21","159","odd","NW_L_COMP","RIPENGE","1949","363203","360036","361695","114397","NA","NA","NA","NA","361690","360534","NA","359536","NA","359528","361690","1958","363603","NA","NA","360695","1949","1949","361095","359528","1949","360695","363603","morph21_Oliver/Morris","62","39711","69","yes","1280","4"
"200","90","90","576.828571429","576.828571429","black","no","xpyriment","legacy","legacy","0","208","NA","uniform","67461","1000","0.014823379434","1","undefined","1","0","69","69","69","0","69","69","69","NA","69","69","0","69","NA","69","69","0","69","NA","69","NA","69","0","0","69","69","0","69","69","70","z","02/19/19 12:45:13","The main experiment item","yes","FIN__BA__M21__7%3A10%3A17.osexp","C:\Users\ERP Testing Room\Desktop\Joanna\morph21","no","mono","no","18","no","white","no","yes","1080","legacy","69","69","C:/Users/ERP Testing Room/Desktop/Joanna/morph21/subject-159.csv","xpyriment","Kafkaesque Koffka","3.2.5","0","z","NA","NA","NA","NA","space","z","667","NA","NA","NA","NA","112438","667","2","legacy","1024","2","48000","-16","BA_m21","159","odd","FILL_NW","SMADE","1949","366345","364695","361695","114397","NA","NA","NA","NA","366342","365192","NA","364187","NA","364177","366342","1958","366545","NA","NA","365345","1949","1949","365745","364177","1949","365345","366545","morph21_Oliver/Morris","63","40378","70","yes","1280","42"
"300","90.1408450704","90.1408450704","576.225352113","576.225352113","black","no","xpyriment","legacy","legacy","0","202","NA","uniform","68038","1000","0.0146976689497","1","undefined","1","0","70","70","70","0","70","70","70","NA","70","70","0","70","NA","70","70","0","70","NA","70","NA","70","0","0","70","70","0","70","70","71","/","02/19/19 12:45:13","The main experiment item","yes","FIN__BA__M21__7%3A10%3A17.osexp","C:\Users\ERP Testing Room\Desktop\Joanna\morph21","no","mono","no","18","no","white","no","yes","1080","legacy","70","70","C:/Users/ERP Testing Room/Desktop/Joanna/morph21/subject-159.csv","xpyriment","Kafkaesque Koffka","3.2.5","0","/","NA","NA","NA","NA","space","/","534","NA","NA","NA","NA","112438","534","2","legacy","1024","2","48000","-16","BA_m21","159","odd","CW_L","COMPOSER","1949","369263","367604","361695","114397","NA","NA","NA","NA","369253","368102","NA","367103","NA","367098","369253","1958","369563","NA","NA","368263","1949","1949","368654","367098","1949","368263","369563","morph21_Oliver/Morris","64","40912","71","yes","1280","6"
"250","90.2777777778","90.2777777778","575.486111111","575.486111111","black","no","xpyriment","legacy","legacy","0","204","NA","uniform","72034","1000","0.0138823333426","1","undefined","1","0","71","71","71","0","71","71","71","NA","71","71","0","71","NA","71","71","0","71","NA","71","NA","71","0","0","71","71","0","71","71","72","z","02/19/19 12:45:13","The main experiment item","yes","FIN__BA__M21__7%3A10%3A17.osexp","C:\Users\ERP Testing Room\Desktop\Joanna\morph21","no","mono","no","18","no","white","no","yes","1080","legacy","71","71","C:/Users/ERP Testing Room/Desktop/Joanna/morph21/subject-159.csv","xpyriment","Kafkaesque Koffka","3.2.5","0","z","NA","NA","NA","NA","space","z","523","NA","NA","NA","NA","112438","523","2","legacy","1024","2","48000","-16","BA_m21","159","odd","NW_L_COMP","STIRANGE","1949","373838","370663","372330","114397","NA","NA","NA","NA","372326","371160","NA","370163","NA","370159","372326","1958","374088","NA","NA","371338","1949","1949","371730","370159","1949","371338","374088","morph21_Oliver/Morris","65","41435","72","yes","1280","1"
"250","90.4109589041","90.4109589041","576.534246575","576.534246575","black","no","xpyriment","legacy","legacy","0","201","NA","uniform","60688","1000","0.0164777221197","1","undefined","1","0","72","72","72","0","72","72","72","NA","72","72","0","72","NA","72","72","0","72","NA","72","NA","72","0","0","72","72","0","72","72","73","/","02/19/19 12:45:13","The main experiment item","yes","FIN__BA__M21__7%3A10%3A17.osexp","C:\Users\ERP Testing Room\Desktop\Joanna\morph21","no","mono","no","18","no","white","no","yes","1080","legacy","72","72","C:/Users/ERP Testing Room/Desktop/Joanna/morph21/subject-159.csv","xpyriment","Kafkaesque Koffka","3.2.5","0","/","NA","NA","NA","NA","space","/","652","NA","NA","NA","NA","112438","652","2","legacy","1024","2","48000","-16","BA_m21","159","odd","CW_S","GRIMLY","1949","376880","375221","372330","114397","NA","NA","NA","NA","376873","375719","NA","374721","NA","374716","376873","1958","377130","NA","NA","375880","1949","1949","376271","374716","1949","375880","377130","morph21_Oliver/Morris","66","42087","73","yes","1280","31"
"350","90.5405405405","90.5405405405","577.027027027","577.027027027","black","no","xpyriment","legacy","legacy","0","201","NA","uniform","68787","1000","0.014537630657","1","undefined","1","0","73","73","73","0","73","73","73","NA","73","73","0","73","NA","73","73","0","73","NA","73","NA","73","0","0","73","73","0","73","73","74","/","02/19/19 12:45:13","The main experiment item","yes","FIN__BA__M21__7%3A10%3A17.osexp","C:\Users\ERP Testing Room\Desktop\Joanna\morph21","no","mono","no","18","no","white","no","yes","1080","legacy","73","73","C:/Users/ERP Testing Room/Desktop/Joanna/morph21/subject-159.csv","xpyriment","Kafkaesque Koffka","3.2.5","0","/","NA","NA","NA","NA","space","/","613","NA","NA","NA","NA","112438","613","2","legacy","1024","2","48000","-16","BA_m21","159","odd","CW_S","AMAZEMENT","1949","379855","378197","372330","114397","NA","NA","NA","NA","379845","378694","NA","377696","NA","377688","379845","1958","380205","NA","NA","378855","1949","1949","379246","377688","1949","378855","380205","morph21_Oliver/Morris","67","42700","74","yes","1280","39"
"200","90.6666666667","90.6666666667","578.706666667","578.706666667","black","no","xpyriment","legacy","legacy","0","203","NA","uniform","65442","1000","0.0152807065799","undefined","undefined","1","0","74","74","74","0","74","74","74","NA","74","74","0","74","NA","74","74","0","74","NA","74","NA","74","0","0","74","74","0","74","74","75","z","02/19/19 12:45:13","The main experiment item","yes","FIN__BA__M21__7%3A10%3A17.osexp","C:\Users\ERP Testing Room\Desktop\Joanna\morph21","no","mono","no","18","no","white","no","yes","1080","legacy","74","74","C:/Users/ERP Testing Room/Desktop/Joanna/morph21/subject-159.csv","xpyriment","Kafkaesque Koffka","3.2.5","0","space","space","NA","NA","NA","space","z","8969","8969","NA","NA","NA","112438","703","2","legacy","1024","2","48000","-16","BA_m21","159","odd","NW_S_COMP","FANFIL","1949","384514","381355","383005","114397","384723","NA","NA","NA","383001","381852","NA","380847","NA","380835","383001","1958","393693","NA","NA","382013","1949","1949","382405","380835","1949","382013","384714","morph21_Oliver/Morris","68","43403","75","yes","1280","6"
"200","90.7894736842","90.7894736842","578.934210526","578.934210526","black","no","xpyriment","legacy","legacy","0","208","NA","uniform","69214","1000","0.0144479440576","1","undefined","1","0","75","75","75","0","75","75","75","NA","75","75","0","75","NA","75","75","0","75","NA","75","NA","75","0","0","75","75","0","75","75","76","z","02/19/19 12:45:13","The main experiment item","yes","FIN__BA__M21__7%3A10%3A17.osexp","C:\Users\ERP Testing Room\Desktop\Joanna\morph21","no","mono","no","18","no","white","no","yes","1080","legacy","75","75","C:/Users/ERP Testing Room/Desktop/Joanna/morph21/subject-159.csv","xpyriment","Kafkaesque Koffka","3.2.5","0","z","space","NA","NA","NA","space","z","596","8969","NA","NA","NA","112438","596","2","legacy","1024","2","48000","-16","BA_m21","159","odd","FILL_NW","PORDS","1949","396440","394740","383005","114397","384723","NA","NA","NA","396433","395237","NA","394240","NA","394234","396433","1958","396640","NA","NA","395440","1949","1949","395832","394234","1949","395440","396640","morph21_Oliver/Morris","69","43999","76","yes","1280","39"
"200","90.9090909091","90.9090909091","578.649350649","578.649350649","black","no","xpyriment","legacy","legacy","0","208","NA","uniform","70857","1000","0.0141129316793","1","undefined","1","0","76","76","76","0","76","76","76","NA","76","76","0","76","NA","76","76","0","76","NA","76","NA","76","0","0","76","76","0","76","76","77","z","02/19/19 12:45:13","The main experiment item","yes","FIN__BA__M21__7%3A10%3A17.osexp","C:\Users\ERP Testing Room\Desktop\Joanna\morph21","no","mono","no","18","no","white","no","yes","1080","legacy","76","76","C:/Users/ERP Testing Room/Desktop/Joanna/morph21/subject-159.csv","xpyriment","Kafkaesque Koffka","3.2.5","0","z","space","NA","NA","NA","space","z","557","8969","NA","NA","NA","112438","557","2","legacy","1024","2","48000","-16","BA_m21","159","odd","FILL_NW","GILN","1949","399398","397748","383005","114397","384723","NA","NA","NA","399396","398246","NA","397248","NA","397238","399396","1958","399598","NA","NA","398407","1949","1949","398798","397238","1949","398407","399598","morph21_Oliver/Morris","70","44556","77","yes","1280","25"
"350","89.7435897436","89.7435897436","576.987179487","576.987179487","black","no","xpyriment","legacy","legacy","0","206","NA","uniform","74612","1000","0.0134026698118","0","undefined","0","0","77","77","77","0","77","77","77","NA","77","77","0","77","NA","77","77","0","77","NA","77","NA","77","0","0","77","77","0","77","77","78","z","02/19/19 12:45:13","The main experiment item","yes","FIN__BA__M21__7%3A10%3A17.osexp","C:\Users\ERP Testing Room\Desktop\Joanna\morph21","no","mono","no","18","no","white","no","yes","1080","legacy","77","77","C:/Users/ERP Testing Room/Desktop/Joanna/morph21/subject-159.csv","xpyriment","Kafkaesque Koffka","3.2.5","0","/","space","NA","NA","NA","space","/","449","8969","NA","NA","NA","112438","449","2","legacy","1024","2","48000","-16","BA_m21","159","odd","NW_L_SIMP","HABITIC","1949","403825","400665","402316","114397","384723","NA","NA","NA","399396","401162","NA","400165","NA","400157","402313","1958","404175","NA","NA","401323","1949","1949","401715","400157","1949","401323","404175","morph21_Oliver/Morris","70","45005","78","yes","1280","7"
"300","89.8734177215","89.8734177215","576.139240506","576.139240506","black","no","xpyriment","legacy","legacy","0","207","NA","uniform","65210","1000","0.0153350713081","1","undefined","1","0","78","78","78","0","78","78","78","NA","78","78","0","78","NA","78","78","0","78","NA","78","NA","78","0","0","78","78","0","78","78","79","/","02/19/19 12:45:13","The main experiment item","yes","FIN__BA__M21__7%3A10%3A17.osexp","C:\Users\ERP Testing Room\Desktop\Joanna\morph21","no","mono","no","18","no","white","no","yes","1080","legacy","78","78","C:/Users/ERP Testing Room/Desktop/Joanna/morph21/subject-159.csv","xpyriment","Kafkaesque Koffka","3.2.5","0","/","space","NA","NA","NA","space","/","510","8969","NA","NA","NA","112438","510","2","legacy","1024","2","48000","-16","BA_m21","159","odd","FILL_W","IRON","1949","406975","405316","402316","114397","384723","NA","NA","NA","406972","405814","NA","404816","NA","404809","406972","1958","407275","NA","NA","405983","1949","1949","406375","404809","1949","405983","407275","morph21_Oliver/Morris","71","45515","79","yes","1280","33"
"300","90","90","576.175","576.175","black","no","xpyriment","legacy","legacy","0","207","NA","uniform","70436","1000","0.014197285479","1","undefined","1","0","79","79","79","0","79","79","79","NA","79","79","0","79","NA","79","79","0","79","NA","79","NA","79","0","0","79","79","0","79","79","80","/","02/19/19 12:45:13","The main experiment item","yes","FIN__BA__M21__7%3A10%3A17.osexp","C:\Users\ERP Testing Room\Desktop\Joanna\morph21","no","mono","no","18","no","white","no","yes","1080","legacy","79","79","C:/Users/ERP Testing Room/Desktop/Joanna/morph21/subject-159.csv","xpyriment","Kafkaesque Koffka","3.2.5","0","/","space","NA","NA","NA","space","/","579","8969","NA","NA","NA","112438","579","2","legacy","1024","2","48000","-16","BA_m21","159","odd","FILL_W","SICK","1949","410016","408350","402316","114397","384723","NA","NA","NA","410010","408847","NA","407850","NA","407844","410010","1958","410317","NA","NA","409017","1949","1949","409408","407844","1949","409016","410317","morph21_Oliver/Morris","72","46094","80","yes","1280","36"
"400","90.1234567901","90.1234567901","574.827160494","574.827160494","black","no","xpyriment","legacy","legacy","0","208","NA","uniform","74696","1000","0.0133875977295","1","undefined","1","0","80","80","80","0","80","80","80","NA","80","80","0","80","NA","80","80","0","80","NA","80","NA","80","0","0","80","80","0","80","80","81","z","02/19/19 12:45:13","The main experiment item","yes","FIN__BA__M21__7%3A10%3A17.osexp","C:\Users\ERP Testing Room\Desktop\Joanna\morph21","no","mono","no","18","no","white","no","yes","1080","legacy","80","80","C:/Users/ERP Testing Room/Desktop/Joanna/morph21/subject-159.csv","xpyriment","Kafkaesque Koffka","3.2.5","0","z","space","NA","NA","NA","space","z","467","8969","NA","NA","NA","112438","467","2","legacy","1024","2","48000","-16","BA_m21","159","odd","FILL_NW","ULNS","1949","414542","411383","413033","114397","384723","NA","NA","NA","413030","411880","NA","410883","NA","410874","413030","1958","414942","NA","NA","412033","1949","1949","412433","410874","1949","412033","414942","morph21_Oliver/Morris","73","46561","81","yes","1280","45"
"350","90.243902439","90.243902439","576.109756098","576.109756098","black","no","xpyriment","legacy","legacy","0","203","NA","uniform","66532","1000","0.0150303613299","1","undefined","1","0","81","81","81","0","81","81","81","NA","81","81","0","81","NA","81","81","0","81","NA","81","NA","81","0","0","81","81","0","81","81","82","z","02/19/19 12:45:13","The main experiment item","yes","FIN__BA__M21__7%3A10%3A17.osexp","C:\Users\ERP Testing Room\Desktop\Joanna\morph21","no","mono","no","18","no","white","no","yes","1080","legacy","81","81","C:/Users/ERP Testing Room/Desktop/Joanna/morph21/subject-159.csv","xpyriment","Kafkaesque Koffka","3.2.5","0","z","space","NA","NA","NA","space","z","680","8969","NA","NA","NA","112438","680","2","legacy","1024","2","48000","-16","BA_m21","159","odd","NW_S_COMP","DEBTITH","1949","417708","416042","413033","114397","384723","NA","NA","NA","417699","416539","NA","415542","NA","415533","417699","1958","418059","NA","NA","416708","1949","1949","417100","415533","1949","416708","418059","morph21_Oliver/Morris","74","47241","82","yes","1280","22"
"350","90.3614457831","90.3614457831","576.734939759","576.734939759","black","no","xpyriment","legacy","legacy","0","201","NA","uniform","64208","1000","0.0155743832544","1","undefined","1","0","82","82","82","0","82","82","82","NA","82","82","0","82","NA","82","82","0","82","NA","82","NA","82","0","0","82","82","0","82","82","83","/","02/19/19 12:45:13","The main experiment item","yes","FIN__BA__M21__7%3A10%3A17.osexp","C:\Users\ERP Testing Room\Desktop\Joanna\morph21","no","mono","no","18","no","white","no","yes","1080","legacy","82","82","C:/Users/ERP Testing Room/Desktop/Joanna/morph21/subject-159.csv","xpyriment","Kafkaesque Koffka","3.2.5","0","/","space","NA","NA","NA","space","/","628","8969","NA","NA","NA","112438","628","2","legacy","1024","2","48000","-16","BA_m21","159","odd","CW_S","RICHNESS","1949","420776","419125","413033","114397","384723","NA","NA","NA","420772","419622","NA","418625","NA","418616","420772","1958","421126","NA","NA","419785","1949","1949","420176","418616","1949","419785","421126","morph21_Oliver/Morris","75","47869","83","yes","1280","45"
"200","90.4761904762","90.4761904762","576.297619048","576.297619048","black","no","xpyriment","legacy","legacy","0","201","NA","uniform","66468","1000","0.0150448336041","1","undefined","1","0","83","83","83","0","83","83","83","NA","83","83","0","83","NA","83","83","0","83","NA","83","NA","83","0","0","83","83","0","83","83","84","/","02/19/19 12:45:13","The main experiment item","yes","FIN__BA__M21__7%3A10%3A17.osexp","C:\Users\ERP Testing Room\Desktop\Joanna\morph21","no","mono","no","18","no","white","no","yes","1080","legacy","83","83","C:/Users/ERP Testing Room/Desktop/Joanna/morph21/subject-159.csv","xpyriment","Kafkaesque Koffka","3.2.5","0","/","space","NA","NA","NA","space","/","540","8969","NA","NA","NA","112438","540","2","legacy","1024","2","48000","-16","BA_m21","159","odd","CW_S","BOLDNESS","1949","425502","422318","423993","114397","384723","NA","NA","NA","423983","422815","NA","421818","NA","421807","423983","1958","425702","NA","NA","422993","1949","1949","423385","421807","1949","422993","425702","morph21_Oliver/Morris","76","48409","84","yes","1280","41"
"200","89.4117647059","89.4117647059","579.011764706","579.011764706","black","no","xpyriment","legacy","legacy","0","201","NA","uniform","59720","1000","0.0167448091092","0","undefined","0","0","84","84","84","0","84","84","84","NA","84","84","0","84","NA","84","84","0","84","NA","84","NA","84","0","0","84","84","0","84","84","85","/","02/19/19 12:45:13","The main experiment item","yes","FIN__BA__M21__7%3A10%3A17.osexp","C:\Users\ERP Testing Room\Desktop\Joanna\morph21","no","mono","no","18","no","white","no","yes","1080","legacy","84","84","C:/Users/ERP Testing Room/Desktop/Joanna/morph21/subject-159.csv","xpyriment","Kafkaesque Koffka","3.2.5","0","z","space","NA","NA","NA","space","z","807","8969","NA","NA","NA","112438","807","2","legacy","1024","2","48000","-16","BA_m21","159","odd","CW_S","CAMPAIGNER","1949","428485","426835","423993","114397","384723","NA","NA","NA","423983","427332","NA","426335","NA","426326","428482","1958","428685","NA","NA","427493","1949","1949","427885","426326","1949","427493","428685","morph21_Oliver/Morris","76","49216","85","yes","1280","15"
"250","89.5348837209","89.5348837209","580.76744186","580.76744186","black","no","xpyriment","legacy","legacy","0","208","NA","uniform","65063","1000","0.0153697185805","1","undefined","1","0","85","85","85","0","85","85","85","NA","85","85","0","85","NA","85","85","0","85","NA","85","NA","85","0","0","85","85","0","85","85","86","z","02/19/19 12:45:13","The main experiment item","yes","FIN__BA__M21__7%3A10%3A17.osexp","C:\Users\ERP Testing Room\Desktop\Joanna\morph21","no","mono","no","18","no","white","no","yes","1080","legacy","85","85","C:/Users/ERP Testing Room/Desktop/Joanna/morph21/subject-159.csv","xpyriment","Kafkaesque Koffka","3.2.5","0","z","space","NA","NA","NA","space","z","730","8969","NA","NA","NA","112438","730","2","legacy","1024","2","48000","-16","BA_m21","159","odd","FILL_NW","POLT","1949","431418","429760","423993","114397","384723","NA","NA","NA","431411","430257","NA","429260","NA","429252","431411","1958","431668","NA","NA","430418","1949","1949","430810","429252","1949","430418","431668","morph21_Oliver/Morris","77","49946","86","yes","1280","38"
"200","89.6551724138","89.6551724138","579.632183908","579.632183908","black","no","xpyriment","legacy","legacy","0","207","NA","uniform","73415","1000","0.0136211945788","1","undefined","1","0","86","86","86","0","86","86","86","NA","86","86","0","86","NA","86","86","0","86","NA","86","NA","86","0","0","86","86","0","86","86","87","/","02/19/19 12:45:13","The main experiment item","yes","FIN__BA__M21__7%3A10%3A17.osexp","C:\Users\ERP Testing Room\Desktop\Joanna\morph21","no","mono","no","18","no","white","no","yes","1080","legacy","86","86","C:/Users/ERP Testing Room/Desktop/Joanna/morph21/subject-159.csv","xpyriment","Kafkaesque Koffka","3.2.5","0","/","space","NA","NA","NA","space","/","482","8969","NA","NA","NA","112438","482","2","legacy","1024","2","48000","-16","BA_m21","159","odd","FILL_W","BRASS","1949","435902","432735","434394","114397","384723","NA","NA","NA","434383","433232","NA","432235","NA","432230","434383","1958","436102","NA","NA","433394","1949","1949","433785","432230","1949","433393","436102","morph21_Oliver/Morris","78","50428","87","yes","1280","10"
"400","89.7727272727","89.7727272727","580.136363636","580.136363636","black","no","xpyriment","legacy","legacy","0","202","NA","uniform","68322","1000","0.0146365738708","1","undefined","1","0","87","87","87","0","87","87","87","NA","87","87","0","87","NA","87","87","0","87","NA","87","NA","87","0","0","87","87","0","87","87","88","/","02/19/19 12:45:13","The main experiment item","yes","FIN__BA__M21__7%3A10%3A17.osexp","C:\Users\ERP Testing Room\Desktop\Joanna\morph21","no","mono","no","18","no","white","no","yes","1080","legacy","87","87","C:/Users/ERP Testing Room/Desktop/Joanna/morph21/subject-159.csv","xpyriment","Kafkaesque Koffka","3.2.5","0","/","space","NA","NA","NA","space","/","624","8969","NA","NA","NA","112438","624","2","legacy","1024","2","48000","-16","BA_m21","159","odd","CW_L","SHAPELY","1949","438845","437178","434394","114397","384723","NA","NA","NA","438837","437675","NA","436677","NA","436672","438837","1958","439245","NA","NA","437845","1949","1949","438236","436672","1949","437845","439245","morph21_Oliver/Morris","79","51052","88","yes","1280","35"
"250","89.8876404494","89.8876404494","579.112359551","579.112359551","black","no","xpyriment","legacy","legacy","0","207","NA","uniform","73483","1000","0.0136085897418","1","undefined","1","0","88","88","88","0","88","88","88","NA","88","88","0","88","NA","88","88","0","88","NA","88","NA","88","0","0","88","88","0","88","88","89","/","02/19/19 12:45:13","The main experiment item","yes","FIN__BA__M21__7%3A10%3A17.osexp","C:\Users\ERP Testing Room\Desktop\Joanna\morph21","no","mono","no","18","no","white","no","yes","1080","legacy","88","88","C:/Users/ERP Testing Room/Desktop/Joanna/morph21/subject-159.csv","xpyriment","Kafkaesque Koffka","3.2.5","0","/","space","NA","NA","NA","space","/","489","8969","NA","NA","NA","112438","489","2","legacy","1024","2","48000","-16","BA_m21","159","odd","FILL_W","TREAT","1949","442011","440353","434394","114397","384723","NA","NA","NA","442002","440850","NA","439853","NA","439849","442002","1958","442262","NA","NA","441012","1949","1949","441403","439849","1949","441011","442262","morph21_Oliver/Morris","80","51541","89","yes","1280","48"
"400","90","90","579.988888889","579.988888889","black","no","xpyriment","legacy","legacy","0","208","NA","uniform","62955","1000","0.0158843618458","1","undefined","1","0","89","89","89","0","89","89","89","NA","89","89","0","89","NA","89","89","0","89","NA","89","NA","89","0","0","89","89","0","89","89","90","z","02/19/19 12:45:13","The main experiment item","yes","FIN__BA__M21__7%3A10%3A17.osexp","C:\Users\ERP Testing Room\Desktop\Joanna\morph21","no","mono","no","18","no","white","no","yes","1080","legacy","89","89","C:/Users/ERP Testing Room/Desktop/Joanna/morph21/subject-159.csv","xpyriment","Kafkaesque Koffka","3.2.5","0","z","space","NA","NA","NA","space","z","658","8969","NA","NA","NA","112438","658","2","legacy","1024","2","48000","-16","BA_m21","159","odd","FILL_NW","VELT","1949","446512","443345","445003","114397","384723","NA","NA","NA","445000","443842","NA","442845","NA","442836","445000","1958","446912","NA","NA","444003","1949","1949","444403","442836","1949","444003","446912","morph21_Oliver/Morris","81","52199","90","yes","1280","46"
