"ITI","acc","accuracy","average_response_time","avg_rt","background","bidi","canvas_backend","clock_backend","color_backend","compensation","cond_trig","condtrigtime","coordinates","coroutines_cycles","coroutines_duration","coroutines_mean_cycle_duration","correct","correct_instructions_1","correct_new_keyboard_response_1","count_AB_m21","count_ITI","count_blank_screen","count_blink_screen","count_block1","count_break1","count_break2","count_break3_1","count_canvas","count_correct_trigger","count_def_chain","count_end_screen","count_fixation_1","count_getting_started","count_inc_counter","count_incorrect_trigger","count_instructions_1","count_logger","count_logscript","count_new_coroutines","count_new_inline_script","count_new_keyboard_response_1","count_reset_counter_prep","count_reset_counter_run","count_responsescreen","count_sequence","count_start_trigger","count_target_present","count_word_trigger","counter","cresp","datetime","description","disable_garbage_collection","experiment_file","experiment_path","font_bold","font_family","font_italic","font_size","font_underline","foreground","form_clicks","fullscreen","height","keyboard_backend","live_row","live_row_block1","logfile","mouse_backend","opensesame_codename","opensesame_version","repeat_cycle","response","response_break1","response_break2","response_break3_1","response_end_screen","response_instructions_1","response_new_keyboard_response_1","response_time","response_time_break1","response_time_break2","response_time_break3_1","response_time_end_screen","response_time_instructions_1","response_time_new_keyboard_response_1","round_decimals","sampler_backend","sound_buf_size","sound_channels","sound_freq","sound_sample_size","start","subject_nr","subject_parity","targ_type","target","time_AB_m21","time_ITI","time_blank_screen","time_blink_screen","time_block1","time_break1","time_break2","time_break3_1","time_canvas","time_correct_trigger","time_def_chain","time_end_screen","time_fixation_1","time_getting_started","time_inc_counter","time_incorrect_trigger","time_instructions_1","time_logger","time_logscript","time_new_inline_script","time_new_keyboard_response_1","time_reset_counter_prep","time_reset_counter_run","time_responsescreen","time_sequence","time_start_trigger","time_target_present","time_word_trigger","title","total_correct","total_response_time","total_responses","uniform_coordinates","width","word_trig"
"200","0","0","924","924","black","no","xpyriment","legacy","legacy","0","203","NA","uniform","49546","1000","0.0201832640375","0","undefined","0","0","0","0","0","0","0","0","0","NA","0","0","0","0","NA","0","0","0","0","NA","0","NA","0","0","0","0","0","0","0","0","1","z","02/05/19 12:24:24","The main experiment item","yes","FIN__AB__M21__7%3A10%3A17.osexp","C:\Users\ERP Testing Room\Desktop\Joanna\morph21","no","mono","no","18","no","white","no","yes","1080","legacy","0","0","C:/Users/ERP Testing Room/Desktop/Joanna/morph21/subject-158.csv","xpyriment","Kafkaesque Koffka","3.2.5","0","None","NA","NA","NA","NA","space","None","924","NA","NA","NA","NA","2040285","924","2","legacy","1024","2","48000","-16","AB_m21","0","even","NW_S_COMP","PILLIZE","1841","2044829","2043179","NA","2042141","NA","NA","NA","NA","NA","2043676","NA","2042679","NA","2042673","2044824","1855","2045030","NA","NA","2043900","1841","1841","2044221","2042673","1841","2043900","2045030","morph21_Oliver/Morris","0","924","1","yes","1280","13"
"250","0","0","959.5","959.5","black","no","xpyriment","legacy","legacy","0","207","NA","uniform","55011","1000","0.0181781825453","0","undefined","0","0","1","1","1","0","1","1","1","NA","1","1","0","1","NA","1","1","0","1","NA","1","NA","1","0","0","1","1","0","1","1","2","/","02/05/19 12:24:24","The main experiment item","yes","FIN__AB__M21__7%3A10%3A17.osexp","C:\Users\ERP Testing Room\Desktop\Joanna\morph21","no","mono","no","18","no","white","no","yes","1080","legacy","1","1","C:/Users/ERP Testing Room/Desktop/Joanna/morph21/subject-158.csv","xpyriment","Kafkaesque Koffka","3.2.5","0","None","NA","NA","NA","NA","space","None","995","NA","NA","NA","NA","2040285","995","2","legacy","1024","2","48000","-16","AB_m21","0","even","FILL_W","WEAVE","1841","2048013","2046305","NA","2042141","NA","NA","NA","NA","NA","2046802","NA","2045805","NA","2045795","2048009","1855","2048263","NA","NA","2047013","1841","1841","2047413","2045795","1841","2047013","2048263","morph21_Oliver/Morris","0","1919","2","yes","1280","12"
"200","33.3333333333","33.3333333333","938.333333333","938.333333333","black","no","xpyriment","legacy","legacy","0","207","NA","uniform","50971","1000","0.0196189990387","1","undefined","1","0","2","2","2","0","2","2","2","NA","2","2","0","2","NA","2","2","0","2","NA","2","NA","2","0","0","2","2","0","2","2","3","/","02/05/19 12:24:24","The main experiment item","yes","FIN__AB__M21__7%3A10%3A17.osexp","C:\Users\ERP Testing Room\Desktop\Joanna\morph21","no","mono","no","18","no","white","no","yes","1080","legacy","2","2","C:/Users/ERP Testing Room/Desktop/Joanna/morph21/subject-158.csv","xpyriment","Kafkaesque Koffka","3.2.5","0","/","NA","NA","NA","NA","space","/","896","NA","NA","NA","NA","2040285","896","2","legacy","1024","2","48000","-16","AB_m21","0","even","FILL_W","BLEAK","1841","2052497","2049313","2050988","2042141","NA","NA","NA","NA","2050984","2049810","NA","2048813","NA","2048809","2050984","1855","2052697","NA","NA","2049988","1841","1841","2050388","2048809","1841","2049988","2052697","morph21_Oliver/Morris","1","2815","3","yes","1280","5"
"250","25","25","915","915","black","no","xpyriment","legacy","legacy","0","203","NA","uniform","54137","1000","0.018471655245","0","undefined","0","0","3","3","3","0","3","3","3","NA","3","3","0","3","NA","3","3","0","3","NA","3","NA","3","0","0","3","3","0","3","3","4","z","02/05/19 12:24:24","The main experiment item","yes","FIN__AB__M21__7%3A10%3A17.osexp","C:\Users\ERP Testing Room\Desktop\Joanna\morph21","no","mono","no","18","no","white","no","yes","1080","legacy","3","3","C:/Users/ERP Testing Room/Desktop/Joanna/morph21/subject-158.csv","xpyriment","Kafkaesque Koffka","3.2.5","0","/","NA","NA","NA","NA","space","/","845","NA","NA","NA","NA","2040285","845","2","legacy","1024","2","48000","-16","AB_m21","0","even","NW_S_COMP","TREASONIZE","1841","2055455","2053772","2050988","2042141","NA","NA","NA","NA","2050984","2054269","NA","2053272","NA","2053263","2055451","1855","2055705","NA","NA","2054463","1841","1841","2054855","2053263","1841","2054463","2055705","morph21_Oliver/Morris","1","3660","4","yes","1280","14"
"300","40","40","857.2","857.2","black","no","xpyriment","legacy","legacy","0","207","NA","uniform","64719","1000","0.0154514130317","1","undefined","1","0","4","4","4","0","4","4","4","NA","4","4","0","4","NA","4","4","0","4","NA","4","NA","4","0","0","4","4","0","4","4","5","/","02/05/19 12:24:24","The main experiment item","yes","FIN__AB__M21__7%3A10%3A17.osexp","C:\Users\ERP Testing Room\Desktop\Joanna\morph21","no","mono","no","18","no","white","no","yes","1080","legacy","4","4","C:/Users/ERP Testing Room/Desktop/Joanna/morph21/subject-158.csv","xpyriment","Kafkaesque Koffka","3.2.5","0","/","NA","NA","NA","NA","space","/","626","NA","NA","NA","NA","2040285","626","2","legacy","1024","2","48000","-16","AB_m21","0","even","FILL_W","IRON","1841","2058522","2056780","2050988","2042141","NA","NA","NA","NA","2058512","2057277","NA","2056280","NA","2056270","2058512","1855","2058822","NA","NA","2057522","1841","1841","2057913","2056270","1841","2057522","2058822","morph21_Oliver/Morris","2","4286","5","yes","1280","33"
"350","33.3333333333","33.3333333333","880.333333333","880.333333333","black","no","xpyriment","legacy","legacy","0","201","NA","uniform","48771","1000","0.0205039880257","0","undefined","0","0","5","5","5","0","5","5","5","NA","5","5","0","5","NA","5","5","0","5","NA","5","NA","5","0","0","5","5","0","5","5","6","/","02/05/19 12:24:24","The main experiment item","yes","FIN__AB__M21__7%3A10%3A17.osexp","C:\Users\ERP Testing Room\Desktop\Joanna\morph21","no","mono","no","18","no","white","no","yes","1080","legacy","5","5","C:/Users/ERP Testing Room/Desktop/Joanna/morph21/subject-158.csv","xpyriment","Kafkaesque Koffka","3.2.5","0","None","NA","NA","NA","NA","space","None","996","NA","NA","NA","NA","2040285","996","2","legacy","1024","2","48000","-16","AB_m21","0","even","CW_S","RICHNESS","1841","2063206","2059990","2061698","2042141","NA","NA","NA","NA","2058512","2060487","NA","2059489","NA","2059479","2061694","1855","2063557","NA","NA","2060698","1841","1841","2061098","2059479","1841","2060698","2063557","morph21_Oliver/Morris","2","5282","6","yes","1280","45"
"250","28.5714285714","28.5714285714","896.571428571","896.571428571","black","no","xpyriment","legacy","legacy","0","206","NA","uniform","55577","1000","0.0179930546809","0","undefined","0","0","6","6","6","0","6","6","6","NA","6","6","0","6","NA","6","6","0","6","NA","6","NA","6","0","0","6","6","0","6","6","7","z","02/05/19 12:24:24","The main experiment item","yes","FIN__AB__M21__7%3A10%3A17.osexp","C:\Users\ERP Testing Room\Desktop\Joanna\morph21","no","mono","no","18","no","white","no","yes","1080","legacy","6","6","C:/Users/ERP Testing Room/Desktop/Joanna/morph21/subject-158.csv","xpyriment","Kafkaesque Koffka","3.2.5","0","None","NA","NA","NA","NA","space","None","994","NA","NA","NA","NA","2040285","994","2","legacy","1024","2","48000","-16","AB_m21","0","even","NW_L_SIMP","BEARILT","1841","2066340","2064648","2061698","2042141","NA","NA","NA","NA","2058512","2065145","NA","2064148","NA","2064144","2066334","1855","2066590","NA","NA","2065340","1841","1841","2065731","2064144","1841","2065340","2066590","morph21_Oliver/Morris","2","6276","7","yes","1280","25"
"400","37.5","37.5","869.5","869.5","black","no","xpyriment","legacy","legacy","0","207","NA","uniform","64070","1000","0.0156079288278","1","undefined","1","0","7","7","7","0","7","7","7","NA","7","7","0","7","NA","7","7","0","7","NA","7","NA","7","0","0","7","7","0","7","7","8","/","02/05/19 12:24:24","The main experiment item","yes","FIN__AB__M21__7%3A10%3A17.osexp","C:\Users\ERP Testing Room\Desktop\Joanna\morph21","no","mono","no","18","no","white","no","yes","1080","legacy","7","7","C:/Users/ERP Testing Room/Desktop/Joanna/morph21/subject-158.csv","xpyriment","Kafkaesque Koffka","3.2.5","0","/","NA","NA","NA","NA","space","/","680","NA","NA","NA","NA","2040285","680","2","legacy","1024","2","48000","-16","AB_m21","0","even","FILL_W","QUIT","1841","2069323","2067640","2061698","2042141","NA","NA","NA","NA","2069320","2068137","NA","2067140","NA","2067129","2069320","1855","2069723","NA","NA","2068332","1841","1841","2068723","2067129","1841","2068332","2069723","morph21_Oliver/Morris","3","6956","8","yes","1280","21"
"300","33.3333333333","33.3333333333","883.444444444","883.444444444","black","no","xpyriment","legacy","legacy","0","204","NA","uniform","52483","1000","0.0190537888459","0","undefined","0","0","8","8","8","0","8","8","8","NA","8","8","0","8","NA","8","8","0","8","NA","8","NA","8","0","0","8","8","0","8","8","9","z","02/05/19 12:24:24","The main experiment item","yes","FIN__AB__M21__7%3A10%3A17.osexp","C:\Users\ERP Testing Room\Desktop\Joanna\morph21","no","mono","no","18","no","white","no","yes","1080","legacy","8","8","C:/Users/ERP Testing Room/Desktop/Joanna/morph21/subject-158.csv","xpyriment","Kafkaesque Koffka","3.2.5","0","None","NA","NA","NA","NA","space","None","995","NA","NA","NA","NA","2040285","995","2","legacy","1024","2","48000","-16","AB_m21","0","even","NW_L_COMP","ADDMENT","1841","2074073","2070915","2072565","2042141","NA","NA","NA","NA","2069320","2071412","NA","2070415","NA","2070404","2072561","1855","2074374","NA","NA","2071565","1841","1841","2071965","2070404","1841","2071565","2074374","morph21_Oliver/Morris","3","7951","9","yes","1280","13"
"300","30","30","894.7","894.7","black","no","xpyriment","legacy","legacy","0","204","NA","uniform","55169","1000","0.0181261215538","0","undefined","0","0","9","9","9","0","9","9","9","NA","9","9","0","9","NA","9","9","0","9","NA","9","NA","9","0","0","9","9","0","9","9","10","z","02/05/19 12:24:24","The main experiment item","yes","FIN__AB__M21__7%3A10%3A17.osexp","C:\Users\ERP Testing Room\Desktop\Joanna\morph21","no","mono","no","18","no","white","no","yes","1080","legacy","9","9","C:/Users/ERP Testing Room/Desktop/Joanna/morph21/subject-158.csv","xpyriment","Kafkaesque Koffka","3.2.5","0","None","NA","NA","NA","NA","space","None","996","NA","NA","NA","NA","2040285","996","2","legacy","1024","2","48000","-16","AB_m21","0","even","NW_L_COMP","KINGISM","1841","2077191","2075540","2072565","2042141","NA","NA","NA","NA","2069320","2076037","NA","2075040","NA","2075032","2077186","1855","2077491","NA","NA","2076190","1841","1841","2076590","2075032","1841","2076190","2077491","morph21_Oliver/Morris","3","8947","10","yes","1280","19"
"350","36.3636363636","36.3636363636","865.090909091","865.090909091","black","no","xpyriment","legacy","legacy","0","207","NA","uniform","64763","1000","0.0154409153375","1","undefined","1","0","10","10","10","0","10","10","10","NA","10","10","0","10","NA","10","10","0","10","NA","10","NA","10","0","0","10","10","0","10","10","11","/","02/05/19 12:24:24","The main experiment item","yes","FIN__AB__M21__7%3A10%3A17.osexp","C:\Users\ERP Testing Room\Desktop\Joanna\morph21","no","mono","no","18","no","white","no","yes","1080","legacy","10","10","C:/Users/ERP Testing Room/Desktop/Joanna/morph21/subject-158.csv","xpyriment","Kafkaesque Koffka","3.2.5","0","/","NA","NA","NA","NA","space","/","569","NA","NA","NA","NA","2040285","569","2","legacy","1024","2","48000","-16","AB_m21","0","even","FILL_W","FOLLOW","1841","2080291","2078633","2072565","2042141","NA","NA","NA","NA","2080281","2079130","NA","2078133","NA","2078125","2080281","1855","2080641","NA","NA","2079291","1841","1841","2079683","2078125","1841","2079291","2080641","morph21_Oliver/Morris","4","9516","11","yes","1280","17"
"200","41.6666666667","41.6666666667","828.5","828.5","black","no","xpyriment","legacy","legacy","0","207","NA","uniform","75000","1000","0.0133333333333","1","undefined","1","0","11","11","11","0","11","11","11","NA","11","11","0","11","NA","11","11","0","11","NA","11","NA","11","0","0","11","11","0","11","11","12","/","02/05/19 12:24:24","The main experiment item","yes","FIN__AB__M21__7%3A10%3A17.osexp","C:\Users\ERP Testing Room\Desktop\Joanna\morph21","no","mono","no","18","no","white","no","yes","1080","legacy","11","11","C:/Users/ERP Testing Room/Desktop/Joanna/morph21/subject-158.csv","xpyriment","Kafkaesque Koffka","3.2.5","0","/","NA","NA","NA","NA","space","/","426","NA","NA","NA","NA","2040285","426","2","legacy","1024","2","48000","-16","AB_m21","0","even","FILL_W","OLD","1841","2084967","2081791","2083458","2042141","NA","NA","NA","NA","2083448","2082289","NA","2081291","NA","2081284","2083448","1855","2085167","NA","NA","2082458","1841","1841","2082850","2081284","1841","2082458","2085167","morph21_Oliver/Morris","5","9942","12","yes","1280","44"
"200","46.1538461538","46.1538461538","839.538461538","839.538461538","black","no","xpyriment","legacy","legacy","0","206","NA","uniform","54602","1000","0.0183143474598","1","undefined","1","0","12","12","12","0","12","12","12","NA","12","12","0","12","NA","12","12","0","12","NA","12","NA","12","0","0","12","12","0","12","12","13","z","02/05/19 12:24:24","The main experiment item","yes","FIN__AB__M21__7%3A10%3A17.osexp","C:\Users\ERP Testing Room\Desktop\Joanna\morph21","no","mono","no","18","no","white","no","yes","1080","legacy","12","12","C:/Users/ERP Testing Room/Desktop/Joanna/morph21/subject-158.csv","xpyriment","Kafkaesque Koffka","3.2.5","0","z","NA","NA","NA","NA","space","z","972","NA","NA","NA","NA","2040285","972","2","legacy","1024","2","48000","-16","AB_m21","0","even","NW_L_SIMP","TOWERLA","1841","2088000","2086308","2083458","2042141","NA","NA","NA","NA","2087993","2086805","NA","2085808","NA","2085801","2087993","1855","2088200","NA","NA","2087000","1841","1841","2087392","2085801","1841","2087000","2088200","morph21_Oliver/Morris","6","10914","13","yes","1280","15"
"400","50","50","838","838","black","no","xpyriment","legacy","legacy","0","202","NA","uniform","58485","1000","0.0170984012995","1","undefined","1","0","13","13","13","0","13","13","13","NA","13","13","0","13","NA","13","13","0","13","NA","13","NA","13","0","0","13","13","0","13","13","14","/","02/05/19 12:24:24","The main experiment item","yes","FIN__AB__M21__7%3A10%3A17.osexp","C:\Users\ERP Testing Room\Desktop\Joanna\morph21","no","mono","no","18","no","white","no","yes","1080","legacy","13","13","C:/Users/ERP Testing Room/Desktop/Joanna/morph21/subject-158.csv","xpyriment","Kafkaesque Koffka","3.2.5","0","/","NA","NA","NA","NA","space","/","818","NA","NA","NA","NA","2040285","818","2","legacy","1024","2","48000","-16","AB_m21","0","even","CW_L","SHAPELY","1841","2091050","2089392","2083458","2042141","NA","NA","NA","NA","2091045","2089889","NA","2088892","NA","2088886","2091045","1855","2091450","NA","NA","2090050","1841","1841","2090450","2088886","1841","2090050","2091450","morph21_Oliver/Morris","7","11732","14","yes","1280","35"
"350","53.3333333333","53.3333333333","828.533333333","828.533333333","black","no","xpyriment","legacy","legacy","0","203","NA","uniform","60290","1000","0.0165864985901","1","undefined","1","0","14","14","14","0","14","14","14","NA","14","14","0","14","NA","14","14","0","14","NA","14","NA","14","0","0","14","14","0","14","14","15","z","02/05/19 12:24:24","The main experiment item","yes","FIN__AB__M21__7%3A10%3A17.osexp","C:\Users\ERP Testing Room\Desktop\Joanna\morph21","no","mono","no","18","no","white","no","yes","1080","legacy","14","14","C:/Users/ERP Testing Room/Desktop/Joanna/morph21/subject-158.csv","xpyriment","Kafkaesque Koffka","3.2.5","0","z","NA","NA","NA","NA","space","z","696","NA","NA","NA","NA","2040285","696","2","legacy","1024","2","48000","-16","AB_m21","0","even","NW_S_COMP","WELDIC","1841","2095793","2092625","2094284","2042141","NA","NA","NA","NA","2094281","2093122","NA","2092125","NA","2092119","2094281","1855","2096143","NA","NA","2093292","1841","1841","2093684","2092119","1841","2093292","2096143","morph21_Oliver/Morris","8","12428","15","yes","1280","21"
"350","56.25","56.25","817.5625","817.5625","black","no","xpyriment","legacy","legacy","0","201","NA","uniform","64532","1000","0.0154961879378","1","undefined","1","0","15","15","15","0","15","15","15","NA","15","15","0","15","NA","15","15","0","15","NA","15","NA","15","0","0","15","15","0","15","15","16","/","02/05/19 12:24:24","The main experiment item","yes","FIN__AB__M21__7%3A10%3A17.osexp","C:\Users\ERP Testing Room\Desktop\Joanna\morph21","no","mono","no","18","no","white","no","yes","1080","legacy","15","15","C:/Users/ERP Testing Room/Desktop/Joanna/morph21/subject-158.csv","xpyriment","Kafkaesque Koffka","3.2.5","0","/","NA","NA","NA","NA","space","/","653","NA","NA","NA","NA","2040285","653","2","legacy","1024","2","48000","-16","AB_m21","0","even","CW_S","CHILLY","1841","2098943","2097235","2094284","2042141","NA","NA","NA","NA","2098938","2097732","NA","2096735","NA","2096725","2098938","1855","2099293","NA","NA","2097943","1841","1841","2098343","2096725","1841","2097943","2099293","morph21_Oliver/Morris","9","13081","16","yes","1280","48"
"200","52.9411764706","52.9411764706","828.058823529","828.058823529","black","no","xpyriment","legacy","legacy","0","208","NA","uniform","47779","1000","0.0209296971473","0","undefined","0","0","16","16","16","0","16","16","16","NA","16","16","0","16","NA","16","16","0","16","NA","16","NA","16","0","0","16","16","0","16","16","17","z","02/05/19 12:24:24","The main experiment item","yes","FIN__AB__M21__7%3A10%3A17.osexp","C:\Users\ERP Testing Room\Desktop\Joanna\morph21","no","mono","no","18","no","white","no","yes","1080","legacy","16","16","C:/Users/ERP Testing Room/Desktop/Joanna/morph21/subject-158.csv","xpyriment","Kafkaesque Koffka","3.2.5","0","None","NA","NA","NA","NA","space","None","996","NA","NA","NA","NA","2040285","996","2","legacy","1024","2","48000","-16","AB_m21","0","even","FILL_NW","FALONS","1841","2102102","2100427","2094284","2042141","NA","NA","NA","NA","2098938","2100924","NA","2099927","NA","2099918","2102098","1855","2102302","NA","NA","2101102","1841","1841","2101502","2099918","1841","2101102","2102302","morph21_Oliver/Morris","9","14077","17","yes","1280","19"
"250","55.5555555556","55.5555555556","815.722222222","815.722222222","black","no","xpyriment","legacy","legacy","0","207","NA","uniform","69862","1000","0.0143139331826","1","undefined","1","0","17","17","17","0","17","17","17","NA","17","17","0","17","NA","17","17","0","17","NA","17","NA","17","0","0","17","17","0","17","17","18","/","02/05/19 12:24:24","The main experiment item","yes","FIN__AB__M21__7%3A10%3A17.osexp","C:\Users\ERP Testing Room\Desktop\Joanna\morph21","no","mono","no","18","no","white","no","yes","1080","legacy","17","17","C:/Users/ERP Testing Room/Desktop/Joanna/morph21/subject-158.csv","xpyriment","Kafkaesque Koffka","3.2.5","0","/","NA","NA","NA","NA","space","/","606","NA","NA","NA","NA","2040285","606","2","legacy","1024","2","48000","-16","AB_m21","0","even","FILL_W","SOFT","1841","2106627","2103460","2105118","2042141","NA","NA","NA","NA","2105113","2103957","NA","2102960","NA","2102949","2105113","1855","2106877","NA","NA","2104118","1841","1841","2104510","2102949","1841","2104118","2106877","morph21_Oliver/Morris","10","14683","18","yes","1280","43"
"350","57.8947368421","57.8947368421","805.578947368","805.578947368","black","no","xpyriment","legacy","legacy","0","207","NA","uniform","66847","1000","0.0149595344593","1","undefined","1","0","18","18","18","0","18","18","18","NA","18","18","0","18","NA","18","18","0","18","NA","18","NA","18","0","0","18","18","0","18","18","19","/","02/05/19 12:24:24","The main experiment item","yes","FIN__AB__M21__7%3A10%3A17.osexp","C:\Users\ERP Testing Room\Desktop\Joanna\morph21","no","mono","no","18","no","white","no","yes","1080","legacy","18","18","C:/Users/ERP Testing Room/Desktop/Joanna/morph21/subject-158.csv","xpyriment","Kafkaesque Koffka","3.2.5","0","/","NA","NA","NA","NA","space","/","623","NA","NA","NA","NA","2040285","623","2","legacy","1024","2","48000","-16","AB_m21","0","even","FILL_W","LEAK","1841","2109685","2108027","2105118","2042141","NA","NA","NA","NA","2109675","2108524","NA","2107527","NA","2107520","2109675","1855","2110035","NA","NA","2108685","1841","1841","2109077","2107520","1841","2108685","2110035","morph21_Oliver/Morris","11","15306","19","yes","1280","9"
"350","60","60","796.45","796.45","black","no","xpyriment","legacy","legacy","0","207","NA","uniform","64241","1000","0.0155663828396","1","undefined","1","0","19","19","19","0","19","19","19","NA","19","19","0","19","NA","19","19","0","19","NA","19","NA","19","0","0","19","19","0","19","19","20","/","02/05/19 12:24:24","The main experiment item","yes","FIN__AB__M21__7%3A10%3A17.osexp","C:\Users\ERP Testing Room\Desktop\Joanna\morph21","no","mono","no","18","no","white","no","yes","1080","legacy","19","19","C:/Users/ERP Testing Room/Desktop/Joanna/morph21/subject-158.csv","xpyriment","Kafkaesque Koffka","3.2.5","0","/","NA","NA","NA","NA","space","/","623","NA","NA","NA","NA","2040285","623","2","legacy","1024","2","48000","-16","AB_m21","0","even","FILL_W","GLOOM","1841","2112895","2111210","2105118","2042141","NA","NA","NA","NA","2112887","2111707","NA","2110710","NA","2110700","2112887","1855","2113245","NA","NA","2111894","1841","1841","2112286","2110700","1841","2111894","2113245","morph21_Oliver/Morris","12","15929","20","yes","1280","14"
"200","61.9047619048","61.9047619048","800.619047619","800.619047619","black","no","xpyriment","legacy","legacy","0","208","NA","uniform","56487","1000","0.0177031883442","1","undefined","1","0","20","20","20","0","20","20","20","NA","20","20","0","20","NA","20","20","0","20","NA","20","NA","20","0","0","20","20","0","20","20","21","z","02/05/19 12:24:24","The main experiment item","yes","FIN__AB__M21__7%3A10%3A17.osexp","C:\Users\ERP Testing Room\Desktop\Joanna\morph21","no","mono","no","18","no","white","no","yes","1080","legacy","20","20","C:/Users/ERP Testing Room/Desktop/Joanna/morph21/subject-158.csv","xpyriment","Kafkaesque Koffka","3.2.5","0","z","NA","NA","NA","NA","space","z","884","NA","NA","NA","NA","2040285","884","2","legacy","1024","2","48000","-16","AB_m21","0","even","FILL_NW","HOITS","1841","2117628","2114462","2116120","2042141","NA","NA","NA","NA","2116114","2114959","NA","2113961","NA","2113949","2116114","1855","2117828","NA","NA","2115120","1841","1841","2115512","2113949","1841","2115120","2117828","morph21_Oliver/Morris","13","16813","21","yes","1280","30"
"350","59.0909090909","59.0909090909","809.272727273","809.272727273","black","no","xpyriment","legacy","legacy","0","204","NA","uniform","55219","1000","0.0181097086148","0","undefined","0","0","21","21","21","0","21","21","21","NA","21","21","0","21","NA","21","21","0","21","NA","21","NA","21","0","0","21","21","0","21","21","22","z","02/05/19 12:24:24","The main experiment item","yes","FIN__AB__M21__7%3A10%3A17.osexp","C:\Users\ERP Testing Room\Desktop\Joanna\morph21","no","mono","no","18","no","white","no","yes","1080","legacy","21","21","C:/Users/ERP Testing Room/Desktop/Joanna/morph21/subject-158.csv","xpyriment","Kafkaesque Koffka","3.2.5","0","None","NA","NA","NA","NA","space","None","991","NA","NA","NA","NA","2040285","991","2","legacy","1024","2","48000","-16","AB_m21","0","even","NW_L_COMP","MOUTHIZE","1841","2120645","2118987","2116120","2042141","NA","NA","NA","NA","2116114","2119484","NA","2118487","NA","2118475","2120636","1855","2120995","NA","NA","2119645","1841","1841","2120037","2118475","1841","2119645","2120995","morph21_Oliver/Morris","13","17804","22","yes","1280","11"
"400","56.5217391304","56.5217391304","813.869565217","813.869565217","black","no","xpyriment","legacy","legacy","0","206","NA","uniform","54053","1000","0.018500360757","0","undefined","0","0","22","22","22","0","22","22","22","NA","22","22","0","22","NA","22","22","0","22","NA","22","NA","22","0","0","22","22","0","22","22","23","z","02/05/19 12:24:24","The main experiment item","yes","FIN__AB__M21__7%3A10%3A17.osexp","C:\Users\ERP Testing Room\Desktop\Joanna\morph21","no","mono","no","18","no","white","no","yes","1080","legacy","22","22","C:/Users/ERP Testing Room/Desktop/Joanna/morph21/subject-158.csv","xpyriment","Kafkaesque Koffka","3.2.5","0","/","NA","NA","NA","NA","space","/","915","NA","NA","NA","NA","2040285","915","2","legacy","1024","2","48000","-16","AB_m21","0","even","NW_L_SIMP","VALIDEL","1841","2123745","2122087","2116120","2042141","NA","NA","NA","NA","2116114","2122584","NA","2121587","NA","2121582","2123741","1855","2124145","NA","NA","2122745","1841","1841","2123145","2121582","1841","2122745","2124145","morph21_Oliver/Morris","13","18719","23","yes","1280","23"
"350","58.3333333333","58.3333333333","810.458333333","810.458333333","black","no","xpyriment","legacy","legacy","0","201","NA","uniform","59087","1000","0.0169241965238","1","undefined","1","0","23","23","23","0","23","23","23","NA","23","23","0","23","NA","23","23","0","23","NA","23","NA","23","0","0","23","23","0","23","23","24","/","02/05/19 12:24:24","The main experiment item","yes","FIN__AB__M21__7%3A10%3A17.osexp","C:\Users\ERP Testing Room\Desktop\Joanna\morph21","no","mono","no","18","no","white","no","yes","1080","legacy","23","23","C:/Users/ERP Testing Room/Desktop/Joanna/morph21/subject-158.csv","xpyriment","Kafkaesque Koffka","3.2.5","0","/","NA","NA","NA","NA","space","/","732","NA","NA","NA","NA","2040285","732","2","legacy","1024","2","48000","-16","AB_m21","0","even","CW_S","AMAZEMENT","1841","2128612","2125437","2127104","2042141","NA","NA","NA","NA","2127093","2125934","NA","2124937","NA","2124927","2127093","1855","2128962","NA","NA","2126104","1841","1841","2126495","2124927","1841","2126104","2128962","morph21_Oliver/Morris","14","19451","24","yes","1280","39"
"400","60","60","810.64","810.64","black","no","xpyriment","legacy","legacy","0","205","NA","uniform","59331","1000","0.0168545954054","1","undefined","1","0","24","24","24","0","24","24","24","NA","24","24","0","24","NA","24","24","0","24","NA","24","NA","24","0","0","24","24","0","24","24","25","z","02/05/19 12:24:24","The main experiment item","yes","FIN__AB__M21__7%3A10%3A17.osexp","C:\Users\ERP Testing Room\Desktop\Joanna\morph21","no","mono","no","18","no","white","no","yes","1080","legacy","24","24","C:/Users/ERP Testing Room/Desktop/Joanna/morph21/subject-158.csv","xpyriment","Kafkaesque Koffka","3.2.5","0","z","NA","NA","NA","NA","space","z","815","NA","NA","NA","NA","2040285","815","2","legacy","1024","2","48000","-16","AB_m21","0","even","NW_S_SIMP","SCHEMENELS","1841","2131822","2130138","2127104","2042141","NA","NA","NA","NA","2131817","2130635","NA","2129638","NA","2129630","2131817","1855","2132222","NA","NA","2130821","1841","1841","2131221","2129630","1841","2130821","2132222","morph21_Oliver/Morris","15","20266","25","yes","1280","15"
"250","61.5384615385","61.5384615385","809.615384615","809.615384615","black","no","xpyriment","legacy","legacy","0","201","NA","uniform","56903","1000","0.0175737658823","1","undefined","1","0","25","25","25","0","25","25","25","NA","25","25","0","25","NA","25","25","0","25","NA","25","NA","25","0","0","25","25","0","25","25","26","/","02/05/19 12:24:24","The main experiment item","yes","FIN__AB__M21__7%3A10%3A17.osexp","C:\Users\ERP Testing Room\Desktop\Joanna\morph21","no","mono","no","18","no","white","no","yes","1080","legacy","25","25","C:/Users/ERP Testing Room/Desktop/Joanna/morph21/subject-158.csv","xpyriment","Kafkaesque Koffka","3.2.5","0","/","NA","NA","NA","NA","space","/","784","NA","NA","NA","NA","2040285","784","2","legacy","1024","2","48000","-16","AB_m21","0","even","CW_S","MILDNESS","1841","2134963","2133305","2127104","2042141","NA","NA","NA","NA","2134960","2133802","NA","2132805","NA","2132798","2134960","1855","2135213","NA","NA","2133972","1841","1841","2134363","2132798","1841","2133972","2135213","morph21_Oliver/Morris","16","21050","26","yes","1280","42"
"200","62.962962963","62.962962963","802.888888889","802.888888889","black","no","xpyriment","legacy","legacy","0","207","NA","uniform","68213","1000","0.0146599621773","1","undefined","1","0","26","26","26","0","26","26","26","NA","26","26","0","26","NA","26","26","0","26","NA","26","NA","26","0","0","26","26","0","26","26","27","/","02/05/19 12:24:24","The main experiment item","yes","FIN__AB__M21__7%3A10%3A17.osexp","C:\Users\ERP Testing Room\Desktop\Joanna\morph21","no","mono","no","18","no","white","no","yes","1080","legacy","26","26","C:/Users/ERP Testing Room/Desktop/Joanna/morph21/subject-158.csv","xpyriment","Kafkaesque Koffka","3.2.5","0","/","NA","NA","NA","NA","space","/","628","NA","NA","NA","NA","2040285","628","2","legacy","1024","2","48000","-16","AB_m21","0","even","FILL_W","GOLF","1841","2139580","2136380","2138072","2042141","NA","NA","NA","NA","2138065","2136877","NA","2135880","NA","2135870","2138065","1855","2139780","NA","NA","2137072","1841","1841","2137463","2135870","1841","2137072","2139780","morph21_Oliver/Morris","17","21678","27","yes","1280","28"
"200","64.2857142857","64.2857142857","803.892857143","803.892857143","black","no","xpyriment","legacy","legacy","0","207","NA","uniform","59749","1000","0.0167366817855","1","undefined","1","0","27","27","27","0","27","27","27","NA","27","27","0","27","NA","27","27","0","27","NA","27","NA","27","0","0","27","27","0","27","27","28","/","02/05/19 12:24:24","The main experiment item","yes","FIN__AB__M21__7%3A10%3A17.osexp","C:\Users\ERP Testing Room\Desktop\Joanna\morph21","no","mono","no","18","no","white","no","yes","1080","legacy","27","27","C:/Users/ERP Testing Room/Desktop/Joanna/morph21/subject-158.csv","xpyriment","Kafkaesque Koffka","3.2.5","0","/","NA","NA","NA","NA","space","/","831","NA","NA","NA","NA","2040285","831","2","legacy","1024","2","48000","-16","AB_m21","0","even","FILL_W","TEST","1841","2142589","2140872","2138072","2042141","NA","NA","NA","NA","2142579","2141369","NA","2140364","NA","2140360","2142579","1855","2142789","NA","NA","2141589","1841","1841","2141980","2140360","1841","2141589","2142789","morph21_Oliver/Morris","18","22509","28","yes","1280","47"
"200","62.0689655172","62.0689655172","810.275862069","810.275862069","black","no","xpyriment","legacy","legacy","0","208","NA","uniform","54967","1000","0.0181927338221","0","undefined","0","0","28","28","28","0","28","28","28","NA","28","28","0","28","NA","28","28","0","28","NA","28","NA","28","0","0","28","28","0","28","28","29","z","02/05/19 12:24:24","The main experiment item","yes","FIN__AB__M21__7%3A10%3A17.osexp","C:\Users\ERP Testing Room\Desktop\Joanna\morph21","no","mono","no","18","no","white","no","yes","1080","legacy","28","28","C:/Users/ERP Testing Room/Desktop/Joanna/morph21/subject-158.csv","xpyriment","Kafkaesque Koffka","3.2.5","0","None","NA","NA","NA","NA","space","None","989","NA","NA","NA","NA","2040285","989","2","legacy","1024","2","48000","-16","AB_m21","0","even","FILL_NW","BROUPS","1841","2145614","2143939","2138072","2042141","NA","NA","NA","NA","2142579","2144436","NA","2143439","NA","2143430","2145603","1855","2145814","NA","NA","2144614","1841","1841","2145005","2143430","1841","2144614","2145814","morph21_Oliver/Morris","18","23498","29","yes","1280","4"
"300","63.3333333333","63.3333333333","806.633333333","806.633333333","black","no","xpyriment","legacy","legacy","0","202","NA","uniform","59117","1000","0.0169156080315","1","undefined","1","0","29","29","29","0","29","29","29","NA","29","29","0","29","NA","29","29","0","29","NA","29","NA","29","0","0","29","29","0","29","29","30","/","02/05/19 12:24:24","The main experiment item","yes","FIN__AB__M21__7%3A10%3A17.osexp","C:\Users\ERP Testing Room\Desktop\Joanna\morph21","no","mono","no","18","no","white","no","yes","1080","legacy","29","29","C:/Users/ERP Testing Room/Desktop/Joanna/morph21/subject-158.csv","xpyriment","Kafkaesque Koffka","3.2.5","0","/","NA","NA","NA","NA","space","/","701","NA","NA","NA","NA","2040285","701","2","legacy","1024","2","48000","-16","AB_m21","0","even","CW_L","DOUBTFUL","1841","2150140","2146947","2148632","2042141","NA","NA","NA","NA","2148627","2147444","NA","2146447","NA","2146439","2148627","1855","2150440","NA","NA","2147632","1841","1841","2148032","2146439","1841","2147632","2150440","morph21_Oliver/Morris","19","24199","30","yes","1280","21"
"400","61.2903225806","61.2903225806","812.677419355","812.677419355","black","no","xpyriment","legacy","legacy","0","202","NA","uniform","54687","1000","0.0182858814709","0","undefined","0","0","30","30","30","0","30","30","30","NA","30","30","0","30","NA","30","30","0","30","NA","30","NA","30","0","0","30","30","0","30","30","31","/","02/05/19 12:24:24","The main experiment item","yes","FIN__AB__M21__7%3A10%3A17.osexp","C:\Users\ERP Testing Room\Desktop\Joanna\morph21","no","mono","no","18","no","white","no","yes","1080","legacy","30","30","C:/Users/ERP Testing Room/Desktop/Joanna/morph21/subject-158.csv","xpyriment","Kafkaesque Koffka","3.2.5","0","None","NA","NA","NA","NA","space","None","994","NA","NA","NA","NA","2040285","994","2","legacy","1024","2","48000","-16","AB_m21","0","even","CW_L","DRYNESS","1841","2153307","2151657","2148632","2042141","NA","NA","NA","NA","2148627","2152154","NA","2151157","NA","2151148","2153302","1855","2153707","NA","NA","2152307","1841","1841","2152707","2151148","1841","2152307","2153707","morph21_Oliver/Morris","19","25193","31","yes","1280","42"
"300","59.375","59.375","818.25","818.25","black","no","xpyriment","legacy","legacy","0","204","NA","uniform","49641","1000","0.0201446385045","0","undefined","0","0","31","31","31","0","31","31","31","NA","31","31","0","31","NA","31","31","0","31","NA","31","NA","31","0","0","31","31","0","31","31","32","z","02/05/19 12:24:24","The main experiment item","yes","FIN__AB__M21__7%3A10%3A17.osexp","C:\Users\ERP Testing Room\Desktop\Joanna\morph21","no","mono","no","18","no","white","no","yes","1080","legacy","31","31","C:/Users/ERP Testing Room/Desktop/Joanna/morph21/subject-158.csv","xpyriment","Kafkaesque Koffka","3.2.5","0","None","NA","NA","NA","NA","space","None","991","NA","NA","NA","NA","2040285","991","2","legacy","1024","2","48000","-16","AB_m21","0","even","NW_L_COMP","SHEETER","1841","2156615","2154949","2148632","2042141","NA","NA","NA","NA","2148627","2155446","NA","2154448","NA","2154441","2156606","1855","2156915","NA","NA","2155615","1841","1841","2156007","2154441","1841","2155615","2156915","morph21_Oliver/Morris","19","26184","32","yes","1280","5"
"300","57.5757575758","57.5757575758","823.606060606","823.606060606","black","no","xpyriment","legacy","legacy","0","205","NA","uniform","48737","1000","0.0205182920574","0","undefined","0","0","32","32","32","0","32","32","32","NA","32","32","0","32","NA","32","32","0","32","NA","32","NA","32","0","0","32","32","0","32","32","33","z","02/05/19 12:24:24","The main experiment item","yes","FIN__AB__M21__7%3A10%3A17.osexp","C:\Users\ERP Testing Room\Desktop\Joanna\morph21","no","mono","no","18","no","white","no","yes","1080","legacy","32","32","C:/Users/ERP Testing Room/Desktop/Joanna/morph21/subject-158.csv","xpyriment","Kafkaesque Koffka","3.2.5","0","None","NA","NA","NA","NA","space","None","995","NA","NA","NA","NA","2040285","995","2","legacy","1024","2","48000","-16","AB_m21","0","even","NW_S_SIMP","WARNODY","1841","2161266","2158065","2159757","2042141","NA","NA","NA","NA","2148627","2158563","NA","2157565","NA","2157559","2159753","1855","2161566","NA","NA","2158757","1841","1841","2159157","2157559","1841","2158757","2161566","morph21_Oliver/Morris","19","27179","33","yes","1280","12"
"400","58.8235294118","58.8235294118","816.911764706","816.911764706","black","no","xpyriment","legacy","legacy","0","202","NA","uniform","61588","1000","0.0162369292719","1","undefined","1","0","33","33","33","0","33","33","33","NA","33","33","0","33","NA","33","33","0","33","NA","33","NA","33","0","0","33","33","0","33","33","34","/","02/05/19 12:24:24","The main experiment item","yes","FIN__AB__M21__7%3A10%3A17.osexp","C:\Users\ERP Testing Room\Desktop\Joanna\morph21","no","mono","no","18","no","white","no","yes","1080","legacy","33","33","C:/Users/ERP Testing Room/Desktop/Joanna/morph21/subject-158.csv","xpyriment","Kafkaesque Koffka","3.2.5","0","/","NA","NA","NA","NA","space","/","596","NA","NA","NA","NA","2040285","596","2","legacy","1024","2","48000","-16","AB_m21","0","even","CW_L","LOCKER","1841","2164416","2162724","2159757","2042141","NA","NA","NA","NA","2164413","2163221","NA","2162224","NA","2162214","2164413","1855","2164816","NA","NA","2163416","1841","1841","2163816","2162213","1841","2163416","2164816","morph21_Oliver/Morris","20","27775","34","yes","1280","8"
"350","57.1428571429","57.1428571429","821.8","821.8","black","no","xpyriment","legacy","legacy","0","208","NA","uniform","45871","1000","0.0218002659632","0","undefined","0","0","34","34","34","0","34","34","34","NA","34","34","0","34","NA","34","34","0","34","NA","34","NA","34","0","0","34","34","0","34","34","35","z","02/05/19 12:24:24","The main experiment item","yes","FIN__AB__M21__7%3A10%3A17.osexp","C:\Users\ERP Testing Room\Desktop\Joanna\morph21","no","mono","no","18","no","white","no","yes","1080","legacy","34","34","C:/Users/ERP Testing Room/Desktop/Joanna/morph21/subject-158.csv","xpyriment","Kafkaesque Koffka","3.2.5","0","None","NA","NA","NA","NA","space","None","988","NA","NA","NA","NA","2040285","988","2","legacy","1024","2","48000","-16","AB_m21","0","even","FILL_NW","HEAS","1841","2167725","2166067","2159757","2042141","NA","NA","NA","NA","2164413","2166564","NA","2165567","NA","2165559","2167721","1855","2168075","NA","NA","2166733","1841","1841","2167125","2165559","1841","2166733","2168075","morph21_Oliver/Morris","20","28763","35","yes","1280","26"
"300","55.5555555556","55.5555555556","826.472222222","826.472222222","black","no","xpyriment","legacy","legacy","0","205","NA","uniform","45089","1000","0.0221783583579","0","undefined","0","0","35","35","35","0","35","35","35","NA","35","35","0","35","NA","35","35","0","35","NA","35","NA","35","0","0","35","35","0","35","35","36","z","02/05/19 12:24:24","The main experiment item","yes","FIN__AB__M21__7%3A10%3A17.osexp","C:\Users\ERP Testing Room\Desktop\Joanna\morph21","no","mono","no","18","no","white","no","yes","1080","legacy","35","35","C:/Users/ERP Testing Room/Desktop/Joanna/morph21/subject-158.csv","xpyriment","Kafkaesque Koffka","3.2.5","0","None","NA","NA","NA","NA","space","None","990","NA","NA","NA","NA","2040285","990","2","legacy","1024","2","48000","-16","AB_m21","0","even","NW_S_SIMP","FEVERIME","1841","2172509","2169284","2171000","2042141","NA","NA","NA","NA","2164413","2169781","NA","2168783","NA","2168775","2170991","1855","2172809","NA","NA","2170000","1841","1841","2170392","2168775","1841","2170000","2172809","morph21_Oliver/Morris","20","29753","36","yes","1280","24"
"200","54.0540540541","54.0540540541","830.972972973","830.972972973","black","no","xpyriment","legacy","legacy","0","203","NA","uniform","41902","1000","0.0238652092979","0","undefined","0","0","36","36","36","0","36","36","36","NA","36","36","0","36","NA","36","36","0","36","NA","36","NA","36","0","0","36","36","0","36","36","37","z","02/05/19 12:24:24","The main experiment item","yes","FIN__AB__M21__7%3A10%3A17.osexp","C:\Users\ERP Testing Room\Desktop\Joanna\morph21","no","mono","no","18","no","white","no","yes","1080","legacy","36","36","C:/Users/ERP Testing Room/Desktop/Joanna/morph21/subject-158.csv","xpyriment","Kafkaesque Koffka","3.2.5","0","None","NA","NA","NA","NA","space","None","993","NA","NA","NA","NA","2040285","993","2","legacy","1024","2","48000","-16","AB_m21","0","even","NW_S_COMP","FANFUL","1841","2175625","2173959","2171000","2042141","NA","NA","NA","NA","2164413","2174456","NA","2173459","NA","2173446","2175618","1855","2175826","NA","NA","2174625","1841","1841","2175017","2173446","1841","2174625","2175826","morph21_Oliver/Morris","20","30746","37","yes","1280","6"
"400","52.6315789474","52.6315789474","835.263157895","835.263157895","black","no","xpyriment","legacy","legacy","0","206","NA","uniform","46829","1000","0.0213542890089","0","undefined","0","0","37","37","37","0","37","37","37","NA","37","37","0","37","NA","37","37","0","37","NA","37","NA","37","0","0","37","37","0","37","37","38","z","02/05/19 12:24:24","The main experiment item","yes","FIN__AB__M21__7%3A10%3A17.osexp","C:\Users\ERP Testing Room\Desktop\Joanna\morph21","no","mono","no","18","no","white","no","yes","1080","legacy","37","37","C:/Users/ERP Testing Room/Desktop/Joanna/morph21/subject-158.csv","xpyriment","Kafkaesque Koffka","3.2.5","0","None","NA","NA","NA","NA","space","None","994","NA","NA","NA","NA","2040285","994","2","legacy","1024","2","48000","-16","AB_m21","0","even","NW_L_SIMP","BLOODEL","1841","2178650","2176950","2171000","2042141","NA","NA","NA","NA","2164413","2177448","NA","2176450","NA","2176441","2178644","1855","2179051","NA","NA","2177650","1841","1841","2178042","2176441","1841","2177650","2179051","morph21_Oliver/Morris","20","31740","38","yes","1280","24"
"300","53.8461538462","53.8461538462","830.102564103","830.102564103","black","no","xpyriment","legacy","legacy","0","206","NA","uniform","61223","1000","0.0163337307874","1","undefined","1","0","38","38","38","0","38","38","38","NA","38","38","0","38","NA","38","38","0","38","NA","38","NA","38","0","0","38","38","0","38","38","39","z","02/05/19 12:24:24","The main experiment item","yes","FIN__AB__M21__7%3A10%3A17.osexp","C:\Users\ERP Testing Room\Desktop\Joanna\morph21","no","mono","no","18","no","white","no","yes","1080","legacy","38","38","C:/Users/ERP Testing Room/Desktop/Joanna/morph21/subject-158.csv","xpyriment","Kafkaesque Koffka","3.2.5","0","z","NA","NA","NA","NA","space","z","634","NA","NA","NA","NA","2040285","634","2","legacy","1024","2","48000","-16","AB_m21","0","even","NW_L_SIMP","TAXFIL","1841","2183335","2180167","2181826","2042141","NA","NA","NA","NA","2181822","2180664","NA","2179667","NA","2179657","2181822","1855","2183635","NA","NA","2180834","1841","1841","2181226","2179657","1841","2180834","2183635","morph21_Oliver/Morris","21","32374","39","yes","1280","6"
"250","55","55","824.175","824.175","black","no","xpyriment","legacy","legacy","0","207","NA","uniform","61340","1000","0.016302575807","1","undefined","1","0","39","39","39","0","39","39","39","NA","39","39","0","39","NA","39","39","0","39","NA","39","NA","39","0","0","39","39","0","39","39","40","/","02/05/19 12:24:24","The main experiment item","yes","FIN__AB__M21__7%3A10%3A17.osexp","C:\Users\ERP Testing Room\Desktop\Joanna\morph21","no","mono","no","18","no","white","no","yes","1080","legacy","39","39","C:/Users/ERP Testing Room/Desktop/Joanna/morph21/subject-158.csv","xpyriment","Kafkaesque Koffka","3.2.5","0","/","NA","NA","NA","NA","space","/","593","NA","NA","NA","NA","2040285","593","2","legacy","1024","2","48000","-16","AB_m21","0","even","FILL_W","TASTE","1841","2186435","2184777","2181826","2042141","NA","NA","NA","NA","2186432","2185274","NA","2184268","NA","2184264","2186432","1855","2186685","NA","NA","2185443","1841","1841","2185835","2184264","1841","2185443","2186685","morph21_Oliver/Morris","22","32967","40","yes","1280","34"
"350","53.6585365854","53.6585365854","828.317073171","828.317073171","black","no","xpyriment","legacy","legacy","0","208","NA","uniform","55727","1000","0.0179446228937","0","undefined","0","0","40","40","40","0","40","40","40","NA","40","40","0","40","NA","40","40","0","40","NA","40","NA","40","0","0","40","40","0","40","40","41","z","02/05/19 12:24:24","The main experiment item","yes","FIN__AB__M21__7%3A10%3A17.osexp","C:\Users\ERP Testing Room\Desktop\Joanna\morph21","no","mono","no","18","no","white","no","yes","1080","legacy","40","40","C:/Users/ERP Testing Room/Desktop/Joanna/morph21/subject-158.csv","xpyriment","Kafkaesque Koffka","3.2.5","0","None","NA","NA","NA","NA","space","None","994","NA","NA","NA","NA","2040285","994","2","legacy","1024","2","48000","-16","AB_m21","0","even","FILL_NW","DASP","1841","2189485","2187835","2181826","2042141","NA","NA","NA","NA","2186432","2188332","NA","2187335","NA","2187330","2189479","1855","2189835","NA","NA","2188485","1841","1841","2188877","2187330","1841","2188485","2189835","morph21_Oliver/Morris","22","33961","41","yes","1280","13"
"400","52.380952381","52.380952381","830.880952381","830.880952381","black","no","xpyriment","legacy","legacy","0","205","NA","uniform","57243","1000","0.017469384903","0","undefined","0","0","41","41","41","0","41","41","41","NA","41","41","0","41","NA","41","41","0","41","NA","41","NA","41","0","0","41","41","0","41","41","42","z","02/05/19 12:24:24","The main experiment item","yes","FIN__AB__M21__7%3A10%3A17.osexp","C:\Users\ERP Testing Room\Desktop\Joanna\morph21","no","mono","no","18","no","white","no","yes","1080","legacy","41","41","C:/Users/ERP Testing Room/Desktop/Joanna/morph21/subject-158.csv","xpyriment","Kafkaesque Koffka","3.2.5","0","/","NA","NA","NA","NA","space","/","936","NA","NA","NA","NA","2040285","936","2","legacy","1024","2","48000","-16","AB_m21","0","even","NW_S_SIMP","MEDICALADY","1841","2194369","2191152","2192860","2042141","NA","NA","NA","NA","2186432","2191649","NA","2190652","NA","2190643","2192854","1855","2194769","NA","NA","2191860","1841","1841","2192252","2190643","1841","2191860","2194769","morph21_Oliver/Morris","22","34897","42","yes","1280","18"
"250","53.488372093","53.488372093","827.395348837","827.395348837","black","no","xpyriment","legacy","legacy","0","202","NA","uniform","63559","1000","0.0157334130493","1","undefined","1","0","42","42","42","0","42","42","42","NA","42","42","0","42","NA","42","42","0","42","NA","42","NA","42","0","0","42","42","0","42","42","43","/","02/05/19 12:24:24","The main experiment item","yes","FIN__AB__M21__7%3A10%3A17.osexp","C:\Users\ERP Testing Room\Desktop\Joanna\morph21","no","mono","no","18","no","white","no","yes","1080","legacy","42","42","C:/Users/ERP Testing Room/Desktop/Joanna/morph21/subject-158.csv","xpyriment","Kafkaesque Koffka","3.2.5","0","/","NA","NA","NA","NA","space","/","681","NA","NA","NA","NA","2040285","681","2","legacy","1024","2","48000","-16","AB_m21","0","even","CW_L","CREAMY","1841","2197627","2195952","2192860","2042141","NA","NA","NA","NA","2197619","2196450","NA","2195452","NA","2195448","2197619","1855","2197877","NA","NA","2196627","1841","1841","2197019","2195448","1841","2196627","2197877","morph21_Oliver/Morris","23","35578","43","yes","1280","49"
"300","52.2727272727","52.2727272727","831.022727273","831.022727273","black","no","xpyriment","legacy","legacy","0","203","NA","uniform","52426","1000","0.0190745050166","0","undefined","0","0","43","43","43","0","43","43","43","NA","43","43","0","43","NA","43","43","0","43","NA","43","NA","43","0","0","43","43","0","43","43","44","z","02/05/19 12:24:24","The main experiment item","yes","FIN__AB__M21__7%3A10%3A17.osexp","C:\Users\ERP Testing Room\Desktop\Joanna\morph21","no","mono","no","18","no","white","no","yes","1080","legacy","43","43","C:/Users/ERP Testing Room/Desktop/Joanna/morph21/subject-158.csv","xpyriment","Kafkaesque Koffka","3.2.5","0","None","NA","NA","NA","NA","space","None","987","NA","NA","NA","NA","2040285","987","2","legacy","1024","2","48000","-16","AB_m21","0","even","NW_S_COMP","FIGER","1841","2200670","2198994","2192860","2042141","NA","NA","NA","NA","2197619","2199491","NA","2198494","NA","2198490","2200666","1855","2200970","NA","NA","2199679","1841","1841","2200070","2198490","1841","2199678","2200970","morph21_Oliver/Morris","23","36565","44","yes","1280","4"
"250","53.3333333333","53.3333333333","827.866666667","827.866666667","black","no","xpyriment","legacy","legacy","0","202","NA","uniform","63618","1000","0.0157188217171","1","undefined","1","0","44","44","44","0","44","44","44","NA","44","44","0","44","NA","44","44","0","44","NA","44","NA","44","0","0","44","44","0","44","44","45","/","02/05/19 12:24:24","The main experiment item","yes","FIN__AB__M21__7%3A10%3A17.osexp","C:\Users\ERP Testing Room\Desktop\Joanna\morph21","no","mono","no","18","no","white","no","yes","1080","legacy","44","44","C:/Users/ERP Testing Room/Desktop/Joanna/morph21/subject-158.csv","xpyriment","Kafkaesque Koffka","3.2.5","0","/","NA","NA","NA","NA","space","/","689","NA","NA","NA","NA","2040285","689","2","legacy","1024","2","48000","-16","AB_m21","0","even","CW_L","DREAMER","1841","2205287","2202087","2203779","2042141","NA","NA","NA","NA","2203770","2202584","NA","2201587","NA","2201582","2203770","1855","2205537","NA","NA","2202779","1841","1841","2203170","2201582","1841","2202779","2205537","morph21_Oliver/Morris","24","37254","45","yes","1280","12"
"200","54.347826087","54.347826087","830.217391304","830.217391304","black","no","xpyriment","legacy","legacy","0","207","NA","uniform","49250","1000","0.0203045685279","1","undefined","1","0","45","45","45","0","45","45","45","NA","45","45","0","45","NA","45","45","0","45","NA","45","NA","45","0","0","45","45","0","45","45","46","/","02/05/19 12:24:24","The main experiment item","yes","FIN__AB__M21__7%3A10%3A17.osexp","C:\Users\ERP Testing Room\Desktop\Joanna\morph21","no","mono","no","18","no","white","no","yes","1080","legacy","45","45","C:/Users/ERP Testing Room/Desktop/Joanna/morph21/subject-158.csv","xpyriment","Kafkaesque Koffka","3.2.5","0","/","NA","NA","NA","NA","space","/","936","NA","NA","NA","NA","2040285","936","2","legacy","1024","2","48000","-16","AB_m21","0","even","FILL_W","WRECK","1841","2208395","2206687","2203779","2042141","NA","NA","NA","NA","2208393","2207184","NA","2206187","NA","2206181","2208393","1855","2208595","NA","NA","2207404","1841","1841","2207795","2206181","1841","2207404","2208595","morph21_Oliver/Morris","25","38190","46","yes","1280","13"
"200","53.1914893617","53.1914893617","833.70212766","833.70212766","black","no","xpyriment","legacy","legacy","0","203","NA","uniform","53454","1000","0.0187076738878","0","undefined","0","0","46","46","46","0","46","46","46","NA","46","46","0","46","NA","46","46","0","46","NA","46","NA","46","0","0","46","46","0","46","46","47","z","02/05/19 12:24:24","The main experiment item","yes","FIN__AB__M21__7%3A10%3A17.osexp","C:\Users\ERP Testing Room\Desktop\Joanna\morph21","no","mono","no","18","no","white","no","yes","1080","legacy","46","46","C:/Users/ERP Testing Room/Desktop/Joanna/morph21/subject-158.csv","xpyriment","Kafkaesque Koffka","3.2.5","0","None","NA","NA","NA","NA","space","None","994","NA","NA","NA","NA","2040285","994","2","legacy","1024","2","48000","-16","AB_m21","0","even","NW_S_COMP","YANKORY","1841","2211346","2209687","2203779","2042141","NA","NA","NA","NA","2208393","2210184","NA","2209187","NA","2209177","2211341","1855","2211546","NA","NA","2210346","1841","1841","2210746","2209177","1841","2210345","2211546","morph21_Oliver/Morris","25","39184","47","yes","1280","23"
"350","54.1666666667","54.1666666667","828.666666667","828.666666667","black","no","xpyriment","legacy","legacy","0","201","NA","uniform","66929","1000","0.014941206353","1","undefined","1","0","47","47","47","0","47","47","47","NA","47","47","0","47","NA","47","47","0","47","NA","47","NA","47","0","0","47","47","0","47","47","48","/","02/05/19 12:24:24","The main experiment item","yes","FIN__AB__M21__7%3A10%3A17.osexp","C:\Users\ERP Testing Room\Desktop\Joanna\morph21","no","mono","no","18","no","white","no","yes","1080","legacy","47","47","C:/Users/ERP Testing Room/Desktop/Joanna/morph21/subject-158.csv","xpyriment","Kafkaesque Koffka","3.2.5","0","/","NA","NA","NA","NA","space","/","592","NA","NA","NA","NA","2040285","592","2","legacy","1024","2","48000","-16","AB_m21","0","even","CW_S","BOSSY","1841","2215904","2212712","2214396","2042141","NA","NA","NA","NA","2214387","2213209","NA","2212212","NA","2212203","2214387","1855","2216254","NA","NA","2213396","1841","1841","2213787","2212203","1841","2213396","2216254","morph21_Oliver/Morris","26","39776","48","yes","1280","49"
"300","53.0612244898","53.0612244898","832.081632653","832.081632653","black","no","xpyriment","legacy","legacy","0","203","NA","uniform","55202","1000","0.0181152856781","0","undefined","0","0","48","48","48","0","48","48","48","NA","48","48","0","48","NA","48","48","0","48","NA","48","NA","48","0","0","48","48","0","48","48","49","z","02/05/19 12:24:24","The main experiment item","yes","FIN__AB__M21__7%3A10%3A17.osexp","C:\Users\ERP Testing Room\Desktop\Joanna\morph21","no","mono","no","18","no","white","no","yes","1080","legacy","48","48","C:/Users/ERP Testing Room/Desktop/Joanna/morph21/subject-158.csv","xpyriment","Kafkaesque Koffka","3.2.5","0","None","NA","NA","NA","NA","space","None","996","NA","NA","NA","NA","2040285","996","2","legacy","1024","2","48000","-16","AB_m21","0","even","NW_S_COMP","CURTITY","1841","2219055","2217397","2214396","2042141","NA","NA","NA","NA","2214387","2217894","NA","2216896","NA","2216884","2219052","1855","2219355","NA","NA","2218055","1841","1841","2218455","2216884","1841","2218055","2219355","morph21_Oliver/Morris","26","40772","49","yes","1280","11"
"250","52","52","835.3","835.3","black","no","xpyriment","legacy","legacy","0","201","NA","uniform","51365","1000","0.0194685096856","0","undefined","0","0","49","49","49","0","49","49","49","NA","49","49","0","49","NA","49","49","0","49","NA","49","NA","49","0","0","49","49","0","49","49","50","/","02/05/19 12:24:24","The main experiment item","yes","FIN__AB__M21__7%3A10%3A17.osexp","C:\Users\ERP Testing Room\Desktop\Joanna\morph21","no","mono","no","18","no","white","no","yes","1080","legacy","49","49","C:/Users/ERP Testing Room/Desktop/Joanna/morph21/subject-158.csv","xpyriment","Kafkaesque Koffka","3.2.5","0","None","NA","NA","NA","NA","space","None","993","NA","NA","NA","NA","2040285","993","2","legacy","1024","2","48000","-16","AB_m21","0","even","CW_S","TOSSING","1841","2222230","2220547","2214396","2042141","NA","NA","NA","NA","2214387","2221044","NA","2220047","NA","2220041","2222223","1855","2222480","NA","NA","2221230","1841","1841","2221622","2220041","1841","2221230","2222480","morph21_Oliver/Morris","26","41765","50","yes","1280","26"
"350","50.9803921569","50.9803921569","838.431372549","838.431372549","black","no","xpyriment","legacy","legacy","0","208","NA","uniform","51198","1000","0.0195320129693","0","undefined","0","0","50","50","50","0","50","50","50","NA","50","50","0","50","NA","50","50","0","50","NA","50","NA","50","0","0","50","50","0","50","50","51","z","02/05/19 12:24:24","The main experiment item","yes","FIN__AB__M21__7%3A10%3A17.osexp","C:\Users\ERP Testing Room\Desktop\Joanna\morph21","no","mono","no","18","no","white","no","yes","1080","legacy","50","50","C:/Users/ERP Testing Room/Desktop/Joanna/morph21/subject-158.csv","xpyriment","Kafkaesque Koffka","3.2.5","0","None","NA","NA","NA","NA","space","None","995","NA","NA","NA","NA","2040285","995","2","legacy","1024","2","48000","-16","AB_m21","0","even","FILL_NW","DOADS","1841","2226931","2223747","2225422","2042141","NA","NA","NA","NA","2214387","2224244","NA","2223247","NA","2223243","2225417","1855","2227281","NA","NA","2224422","1841","1841","2224822","2223243","1841","2224422","2227281","morph21_Oliver/Morris","26","42760","51","yes","1280","15"
"300","50","50","841.423076923","841.423076923","black","no","xpyriment","legacy","legacy","0","205","NA","uniform","50616","1000","0.019756598704","0","undefined","0","0","51","51","51","0","51","51","51","NA","51","51","0","51","NA","51","51","0","51","NA","51","NA","51","0","0","51","51","0","51","51","52","z","02/05/19 12:24:24","The main experiment item","yes","FIN__AB__M21__7%3A10%3A17.osexp","C:\Users\ERP Testing Room\Desktop\Joanna\morph21","no","mono","no","18","no","white","no","yes","1080","legacy","51","51","C:/Users/ERP Testing Room/Desktop/Joanna/morph21/subject-158.csv","xpyriment","Kafkaesque Koffka","3.2.5","0","None","NA","NA","NA","NA","space","None","994","NA","NA","NA","NA","2040285","994","2","legacy","1024","2","48000","-16","AB_m21","0","even","NW_S_SIMP","TILTADY","1841","2230131","2228439","2225422","2042141","NA","NA","NA","NA","2214387","2228936","NA","2227939","NA","2227936","2230126","1855","2230431","NA","NA","2229131","1841","1841","2229531","2227936","1841","2229131","2230431","morph21_Oliver/Morris","26","43754","52","yes","1280","17"
"300","49.0566037736","49.0566037736","844.245283019","844.245283019","black","no","xpyriment","legacy","legacy","0","206","NA","uniform","50689","1000","0.0197281461461","0","undefined","0","0","52","52","52","0","52","52","52","NA","52","52","0","52","NA","52","52","0","52","NA","52","NA","52","0","0","52","52","0","52","52","53","z","02/05/19 12:24:24","The main experiment item","yes","FIN__AB__M21__7%3A10%3A17.osexp","C:\Users\ERP Testing Room\Desktop\Joanna\morph21","no","mono","no","18","no","white","no","yes","1080","legacy","52","52","C:/Users/ERP Testing Room/Desktop/Joanna/morph21/subject-158.csv","xpyriment","Kafkaesque Koffka","3.2.5","0","None","NA","NA","NA","NA","space","None","991","NA","NA","NA","NA","2040285","991","2","legacy","1024","2","48000","-16","AB_m21","0","even","NW_L_SIMP","PRAYANGE","1841","2233447","2231747","2225422","2042141","NA","NA","NA","NA","2214387","2232245","NA","2231247","NA","2231243","2233438","1855","2233748","NA","NA","2232447","1841","1841","2232839","2231243","1841","2232447","2233748","morph21_Oliver/Morris","26","44745","53","yes","1280","1"
"400","48.1481481481","48.1481481481","846.907407407","846.907407407","black","no","xpyriment","legacy","legacy","0","204","NA","uniform","49403","1000","0.0202416857276","0","undefined","0","0","53","53","53","0","53","53","53","NA","53","53","0","53","NA","53","53","0","53","NA","53","NA","53","0","0","53","53","0","53","53","54","z","02/05/19 12:24:24","The main experiment item","yes","FIN__AB__M21__7%3A10%3A17.osexp","C:\Users\ERP Testing Room\Desktop\Joanna\morph21","no","mono","no","18","no","white","no","yes","1080","legacy","53","53","C:/Users/ERP Testing Room/Desktop/Joanna/morph21/subject-158.csv","xpyriment","Kafkaesque Koffka","3.2.5","0","None","NA","NA","NA","NA","space","None","988","NA","NA","NA","NA","2040285","988","2","legacy","1024","2","48000","-16","AB_m21","0","even","NW_L_COMP","ANGELISH","1841","2238090","2234915","2236582","2042141","NA","NA","NA","NA","2214387","2235412","NA","2234415","NA","2234411","2236571","1855","2238491","NA","NA","2235582","1841","1841","2235974","2234411","1841","2235582","2238491","morph21_Oliver/Morris","26","45733","54","yes","1280","7"
"300","47.2727272727","47.2727272727","849.490909091","849.490909091","black","no","xpyriment","legacy","legacy","0","202","NA","uniform","54831","1000","0.0182378581459","0","undefined","0","0","54","54","54","0","54","54","54","NA","54","54","0","54","NA","54","54","0","54","NA","54","NA","54","0","0","54","54","0","54","54","55","/","02/05/19 12:24:24","The main experiment item","yes","FIN__AB__M21__7%3A10%3A17.osexp","C:\Users\ERP Testing Room\Desktop\Joanna\morph21","no","mono","no","18","no","white","no","yes","1080","legacy","54","54","C:/Users/ERP Testing Room/Desktop/Joanna/morph21/subject-158.csv","xpyriment","Kafkaesque Koffka","3.2.5","0","None","NA","NA","NA","NA","space","None","989","NA","NA","NA","NA","2040285","989","2","legacy","1024","2","48000","-16","AB_m21","0","even","CW_L","DAMPISH","1841","2241232","2239565","2236582","2042141","NA","NA","NA","NA","2214387","2240062","NA","2239065","NA","2239057","2241221","1855","2241532","NA","NA","2240232","1841","1841","2240624","2239057","1841","2240232","2241532","morph21_Oliver/Morris","26","46722","55","yes","1280","28"
"200","48.2142857143","48.2142857143","846.428571429","846.428571429","black","no","xpyriment","legacy","legacy","0","202","NA","uniform","60290","1000","0.0165864985901","1","undefined","1","0","55","55","55","0","55","55","55","NA","55","55","0","55","NA","55","55","0","55","NA","55","NA","55","0","0","55","55","0","55","55","56","/","02/05/19 12:24:24","The main experiment item","yes","FIN__AB__M21__7%3A10%3A17.osexp","C:\Users\ERP Testing Room\Desktop\Joanna\morph21","no","mono","no","18","no","white","no","yes","1080","legacy","55","55","C:/Users/ERP Testing Room/Desktop/Joanna/morph21/subject-158.csv","xpyriment","Kafkaesque Koffka","3.2.5","0","/","NA","NA","NA","NA","space","/","678","NA","NA","NA","NA","2040285","678","2","legacy","1024","2","48000","-16","AB_m21","0","even","CW_L","SHAMEFUL","1841","2244366","2242699","2236582","2042141","NA","NA","NA","NA","2244361","2243196","NA","2242199","NA","2242192","2244361","1855","2244566","NA","NA","2243366","1841","1841","2243766","2242192","1841","2243366","2244566","morph21_Oliver/Morris","27","47400","56","yes","1280","19"
"200","47.3684210526","47.3684210526","848.98245614","848.98245614","black","no","xpyriment","legacy","legacy","0","208","NA","uniform","48908","1000","0.0204465527112","0","undefined","0","0","56","56","56","0","56","56","56","NA","56","56","0","56","NA","56","56","0","56","NA","56","NA","56","0","0","56","56","0","56","56","57","z","02/05/19 12:24:24","The main experiment item","yes","FIN__AB__M21__7%3A10%3A17.osexp","C:\Users\ERP Testing Room\Desktop\Joanna\morph21","no","mono","no","18","no","white","no","yes","1080","legacy","56","56","C:/Users/ERP Testing Room/Desktop/Joanna/morph21/subject-158.csv","xpyriment","Kafkaesque Koffka","3.2.5","0","None","NA","NA","NA","NA","space","None","992","NA","NA","NA","NA","2040285","992","2","legacy","1024","2","48000","-16","AB_m21","0","even","FILL_NW","VUNKS","1841","2248799","2245632","2247291","2042141","NA","NA","NA","NA","2244361","2246130","NA","2245132","NA","2245121","2247283","1855","2248999","NA","NA","2246291","1841","1841","2246682","2245121","1841","2246291","2248999","morph21_Oliver/Morris","27","48392","57","yes","1280","49"
"350","48.275862069","48.275862069","845.465517241","845.465517241","black","no","xpyriment","legacy","legacy","0","202","NA","uniform","61984","1000","0.0161331956634","1","undefined","1","0","57","57","57","0","57","57","57","NA","57","57","0","57","NA","57","57","0","57","NA","57","NA","57","0","0","57","57","0","57","57","58","/","02/05/19 12:24:24","The main experiment item","yes","FIN__AB__M21__7%3A10%3A17.osexp","C:\Users\ERP Testing Room\Desktop\Joanna\morph21","no","mono","no","18","no","white","no","yes","1080","legacy","57","57","C:/Users/ERP Testing Room/Desktop/Joanna/morph21/subject-158.csv","xpyriment","Kafkaesque Koffka","3.2.5","0","/","NA","NA","NA","NA","space","/","645","NA","NA","NA","NA","2040285","645","2","legacy","1024","2","48000","-16","AB_m21","0","even","CW_L","JUMPING","1841","2251791","2250141","2247291","2042141","NA","NA","NA","NA","2251786","2250638","NA","2249633","NA","2249625","2251786","1855","2252141","NA","NA","2250791","1841","1841","2251191","2249625","1841","2250791","2252141","morph21_Oliver/Morris","28","49037","58","yes","1280","30"
"300","47.4576271186","47.4576271186","847.966101695","847.966101695","black","no","xpyriment","legacy","legacy","0","206","NA","uniform","53211","1000","0.0187931066885","0","undefined","0","0","58","58","58","0","58","58","58","NA","58","58","0","58","NA","58","58","0","58","NA","58","NA","58","0","0","58","58","0","58","58","59","z","02/05/19 12:24:24","The main experiment item","yes","FIN__AB__M21__7%3A10%3A17.osexp","C:\Users\ERP Testing Room\Desktop\Joanna\morph21","no","mono","no","18","no","white","no","yes","1080","legacy","58","58","C:/Users/ERP Testing Room/Desktop/Joanna/morph21/subject-158.csv","xpyriment","Kafkaesque Koffka","3.2.5","0","None","NA","NA","NA","NA","space","None","993","NA","NA","NA","NA","2040285","993","2","legacy","1024","2","48000","-16","AB_m21","0","even","NW_L_SIMP","LONGNELS","1841","2254992","2253317","2247291","2042141","NA","NA","NA","NA","2251786","2253814","NA","2252817","NA","2252806","2254985","1855","2255292","NA","NA","2253992","1841","1841","2254384","2252806","1841","2253992","2255292","morph21_Oliver/Morris","28","50030","59","yes","1280","17"
"350","46.6666666667","46.6666666667","850.366666667","850.366666667","black","no","xpyriment","legacy","legacy","0","201","NA","uniform","52373","1000","0.0190938078781","0","undefined","0","0","59","59","59","0","59","59","59","NA","59","59","0","59","NA","59","59","0","59","NA","59","NA","59","0","0","59","59","0","59","59","60","/","02/05/19 12:24:24","The main experiment item","yes","FIN__AB__M21__7%3A10%3A17.osexp","C:\Users\ERP Testing Room\Desktop\Joanna\morph21","no","mono","no","18","no","white","no","yes","1080","legacy","59","59","C:/Users/ERP Testing Room/Desktop/Joanna/morph21/subject-158.csv","xpyriment","Kafkaesque Koffka","3.2.5","0","None","NA","NA","NA","NA","space","None","992","NA","NA","NA","NA","2040285","992","2","legacy","1024","2","48000","-16","AB_m21","0","even","CW_S","LENDER","1841","2259542","2256351","2258034","2042141","NA","NA","NA","NA","2251786","2256848","NA","2255850","NA","2255843","2258027","1855","2259892","NA","NA","2257034","1841","1841","2257425","2255843","1841","2257034","2259892","morph21_Oliver/Morris","28","51022","60","yes","1280","11"
"400","45.9016393443","45.9016393443","852.672131148","852.672131148","black","no","xpyriment","legacy","legacy","0","205","NA","uniform","51534","1000","0.0194046648814","0","undefined","0","0","60","60","60","0","60","60","60","NA","60","60","0","60","NA","60","60","0","60","NA","60","NA","60","0","0","60","60","0","60","60","61","z","02/05/19 12:24:24","The main experiment item","yes","FIN__AB__M21__7%3A10%3A17.osexp","C:\Users\ERP Testing Room\Desktop\Joanna\morph21","no","mono","no","18","no","white","no","yes","1080","legacy","60","60","C:/Users/ERP Testing Room/Desktop/Joanna/morph21/subject-158.csv","xpyriment","Kafkaesque Koffka","3.2.5","0","None","NA","NA","NA","NA","space","None","991","NA","NA","NA","NA","2040285","991","2","legacy","1024","2","48000","-16","AB_m21","0","even","NW_S_SIMP","AIDIG","1841","2262759","2261076","2258034","2042141","NA","NA","NA","NA","2251786","2261573","NA","2260576","NA","2260569","2262750","1855","2263159","NA","NA","2261759","1841","1841","2262151","2260569","1841","2261759","2263159","morph21_Oliver/Morris","28","52013","61","yes","1280","4"
"300","46.7741935484","46.7741935484","849.322580645","849.322580645","black","no","xpyriment","legacy","legacy","0","201","NA","uniform","66642","1000","0.0150055520543","1","undefined","1","0","61","61","61","0","61","61","61","NA","61","61","0","61","NA","61","61","0","61","NA","61","NA","61","0","0","61","61","0","61","61","62","/","02/05/19 12:24:24","The main experiment item","yes","FIN__AB__M21__7%3A10%3A17.osexp","C:\Users\ERP Testing Room\Desktop\Joanna\morph21","no","mono","no","18","no","white","no","yes","1080","legacy","61","61","C:/Users/ERP Testing Room/Desktop/Joanna/morph21/subject-158.csv","xpyriment","Kafkaesque Koffka","3.2.5","0","/","NA","NA","NA","NA","space","/","645","NA","NA","NA","NA","2040285","645","2","legacy","1024","2","48000","-16","AB_m21","0","even","CW_S","MAGICAL","1841","2265942","2264284","2258034","2042141","NA","NA","NA","NA","2265940","2264781","NA","2263784","NA","2263773","2265940","1855","2266243","NA","NA","2264951","1841","1841","2265342","2263773","1841","2264951","2266243","morph21_Oliver/Morris","29","52658","62","yes","1280","4"
"250","47.619047619","47.619047619","848.317460317","848.317460317","black","no","xpyriment","legacy","legacy","0","201","NA","uniform","62871","1000","0.0159055844507","1","undefined","1","0","62","62","62","0","62","62","62","NA","62","62","0","62","NA","62","62","0","62","NA","62","NA","62","0","0","62","62","0","62","62","63","/","02/05/19 12:24:24","The main experiment item","yes","FIN__AB__M21__7%3A10%3A17.osexp","C:\Users\ERP Testing Room\Desktop\Joanna\morph21","no","mono","no","18","no","white","no","yes","1080","legacy","62","62","C:/Users/ERP Testing Room/Desktop/Joanna/morph21/subject-158.csv","xpyriment","Kafkaesque Koffka","3.2.5","0","/","NA","NA","NA","NA","space","/","786","NA","NA","NA","NA","2040285","786","2","legacy","1024","2","48000","-16","AB_m21","0","even","CW_S","COSTLY","1841","2270527","2267368","2269018","2042141","NA","NA","NA","NA","2269012","2267865","NA","2266868","NA","2266859","2269012","1855","2270777","NA","NA","2268018","1841","1841","2268409","2266859","1841","2268018","2270777","morph21_Oliver/Morris","30","53444","63","yes","1280","36"
"400","46.875","46.875","850.578125","850.578125","black","no","xpyriment","legacy","legacy","0","205","NA","uniform","52301","1000","0.0191200933061","0","undefined","0","0","63","63","63","0","63","63","63","NA","63","63","0","63","NA","63","63","0","63","NA","63","NA","63","0","0","63","63","0","63","63","64","z","02/05/19 12:24:24","The main experiment item","yes","FIN__AB__M21__7%3A10%3A17.osexp","C:\Users\ERP Testing Room\Desktop\Joanna\morph21","no","mono","no","18","no","white","no","yes","1080","legacy","63","63","C:/Users/ERP Testing Room/Desktop/Joanna/morph21/subject-158.csv","xpyriment","Kafkaesque Koffka","3.2.5","0","None","NA","NA","NA","NA","space","None","993","NA","NA","NA","NA","2040285","993","2","legacy","1024","2","48000","-16","AB_m21","0","even","NW_S_SIMP","ADVERTISELA","1841","2273669","2271977","2269018","2042141","NA","NA","NA","NA","2269012","2272474","NA","2271477","NA","2271466","2273662","1855","2274069","NA","NA","2272669","1841","1841","2273060","2271466","1841","2272669","2274069","morph21_Oliver/Morris","30","54437","64","yes","1280","25"
"250","47.6923076923","47.6923076923","847.184615385","847.184615385","black","no","xpyriment","legacy","legacy","0","207","NA","uniform","65135","1000","0.0153527289476","1","undefined","1","0","64","64","64","0","64","64","64","NA","64","64","0","64","NA","64","64","0","64","NA","64","NA","64","0","0","64","64","0","64","64","65","/","02/05/19 12:24:24","The main experiment item","yes","FIN__AB__M21__7%3A10%3A17.osexp","C:\Users\ERP Testing Room\Desktop\Joanna\morph21","no","mono","no","18","no","white","no","yes","1080","legacy","64","64","C:/Users/ERP Testing Room/Desktop/Joanna/morph21/subject-158.csv","xpyriment","Kafkaesque Koffka","3.2.5","0","/","NA","NA","NA","NA","space","/","630","NA","NA","NA","NA","2040285","630","2","legacy","1024","2","48000","-16","AB_m21","0","even","FILL_W","FIERCE","1841","2276902","2275244","2269018","2042141","NA","NA","NA","NA","2276894","2275741","NA","2274744","NA","2274732","2276894","1855","2277153","NA","NA","2275902","1841","1841","2276294","2274732","1841","2275902","2277153","morph21_Oliver/Morris","31","55067","65","yes","1280","24"
"400","46.9696969697","46.9696969697","849.424242424","849.424242424","black","no","xpyriment","legacy","legacy","0","204","NA","uniform","54968","1000","0.0181924028526","0","undefined","0","0","65","65","65","0","65","65","65","NA","65","65","0","65","NA","65","65","0","65","NA","65","NA","65","0","0","65","65","0","65","65","66","z","02/05/19 12:24:24","The main experiment item","yes","FIN__AB__M21__7%3A10%3A17.osexp","C:\Users\ERP Testing Room\Desktop\Joanna\morph21","no","mono","no","18","no","white","no","yes","1080","legacy","65","65","C:/Users/ERP Testing Room/Desktop/Joanna/morph21/subject-158.csv","xpyriment","Kafkaesque Koffka","3.2.5","0","None","NA","NA","NA","NA","space","None","995","NA","NA","NA","NA","2040285","995","2","legacy","1024","2","48000","-16","AB_m21","0","even","NW_L_COMP","BOILOUS","1841","2281478","2278319","2279969","2042141","NA","NA","NA","NA","2276894","2278816","NA","2277819","NA","2277812","2279964","1855","2281878","NA","NA","2278969","1841","1841","2279369","2277812","1841","2278969","2281878","morph21_Oliver/Morris","31","56062","66","yes","1280","18"
"300","46.2686567164","46.2686567164","851.582089552","851.582089552","black","no","xpyriment","legacy","legacy","0","204","NA","uniform","49743","1000","0.020103331122","0","undefined","0","0","66","66","66","0","66","66","66","NA","66","66","0","66","NA","66","66","0","66","NA","66","NA","66","0","0","66","66","0","66","66","67","z","02/05/19 12:24:24","The main experiment item","yes","FIN__AB__M21__7%3A10%3A17.osexp","C:\Users\ERP Testing Room\Desktop\Joanna\morph21","no","mono","no","18","no","white","no","yes","1080","legacy","66","66","C:/Users/ERP Testing Room/Desktop/Joanna/morph21/subject-158.csv","xpyriment","Kafkaesque Koffka","3.2.5","0","None","NA","NA","NA","NA","space","None","994","NA","NA","NA","NA","2040285","994","2","legacy","1024","2","48000","-16","AB_m21","0","even","NW_L_COMP","ILLIST","1841","2284761","2283111","2279969","2042141","NA","NA","NA","NA","2276894","2283608","NA","2282611","NA","2282599","2284756","1855","2285061","NA","NA","2283761","1841","1841","2284161","2282599","1841","2283761","2285061","morph21_Oliver/Morris","31","57056","67","yes","1280","9"
"350","45.5882352941","45.5882352941","853.676470588","853.676470588","black","no","xpyriment","legacy","legacy","0","201","NA","uniform","51924","1000","0.0192589168785","0","undefined","0","0","67","67","67","0","67","67","67","NA","67","67","0","67","NA","67","67","0","67","NA","67","NA","67","0","0","67","67","0","67","67","68","/","02/05/19 12:24:24","The main experiment item","yes","FIN__AB__M21__7%3A10%3A17.osexp","C:\Users\ERP Testing Room\Desktop\Joanna\morph21","no","mono","no","18","no","white","no","yes","1080","legacy","67","67","C:/Users/ERP Testing Room/Desktop/Joanna/morph21/subject-158.csv","xpyriment","Kafkaesque Koffka","3.2.5","0","None","NA","NA","NA","NA","space","None","994","NA","NA","NA","NA","2040285","994","2","legacy","1024","2","48000","-16","AB_m21","0","even","CW_S","STRANGENESS","1841","2287987","2286303","2279969","2042141","NA","NA","NA","NA","2276894","2286800","NA","2285803","NA","2285798","2287982","1855","2288337","NA","NA","2286987","1841","1841","2287379","2285798","1841","2286987","2288337","morph21_Oliver/Morris","31","58050","68","yes","1280","46"
"300","46.3768115942","46.3768115942","850.043478261","850.043478261","black","no","xpyriment","legacy","legacy","0","202","NA","uniform","69545","1000","0.0143791789489","1","undefined","1","0","68","68","68","0","68","68","68","NA","68","68","0","68","NA","68","68","0","68","NA","68","NA","68","0","0","68","68","0","68","68","69","/","02/05/19 12:24:24","The main experiment item","yes","FIN__AB__M21__7%3A10%3A17.osexp","C:\Users\ERP Testing Room\Desktop\Joanna\morph21","no","mono","no","18","no","white","no","yes","1080","legacy","68","68","C:/Users/ERP Testing Room/Desktop/Joanna/morph21/subject-158.csv","xpyriment","Kafkaesque Koffka","3.2.5","0","/","NA","NA","NA","NA","space","/","603","NA","NA","NA","NA","2040285","603","2","legacy","1024","2","48000","-16","AB_m21","0","even","CW_L","KNOCKER","1841","2292637","2289462","2291129","2042141","NA","NA","NA","NA","2291123","2289959","NA","2288962","NA","2288955","2291123","1855","2292938","NA","NA","2290129","1841","1841","2290521","2288955","1841","2290129","2292938","morph21_Oliver/Morris","32","58653","69","yes","1280","4"
"200","47.1428571429","47.1428571429","846.214285714","846.214285714","black","no","xpyriment","legacy","legacy","0","207","NA","uniform","68763","1000","0.0145427046522","1","undefined","1","0","69","69","69","0","69","69","69","NA","69","69","0","69","NA","69","69","0","69","NA","69","NA","69","0","0","69","69","0","69","69","70","/","02/05/19 12:24:24","The main experiment item","yes","FIN__AB__M21__7%3A10%3A17.osexp","C:\Users\ERP Testing Room\Desktop\Joanna\morph21","no","mono","no","18","no","white","no","yes","1080","legacy","69","69","C:/Users/ERP Testing Room/Desktop/Joanna/morph21/subject-158.csv","xpyriment","Kafkaesque Koffka","3.2.5","0","/","NA","NA","NA","NA","space","/","582","NA","NA","NA","NA","2040285","582","2","legacy","1024","2","48000","-16","AB_m21","0","even","FILL_W","STALK","1841","2295862","2294212","2291129","2042141","NA","NA","NA","NA","2295858","2294710","NA","2293712","NA","2293707","2295858","1855","2296063","NA","NA","2294862","1841","1841","2295262","2293707","1841","2294862","2296063","morph21_Oliver/Morris","33","59235","70","yes","1280","27"
"400","46.4788732394","46.4788732394","844.478873239","844.478873239","black","no","xpyriment","legacy","legacy","0","208","NA","uniform","59831","1000","0.0167137437115","0","undefined","0","0","70","70","70","0","70","70","70","NA","70","70","0","70","NA","70","70","0","70","NA","70","NA","70","0","0","70","70","0","70","70","71","z","02/05/19 12:24:24","The main experiment item","yes","FIN__AB__M21__7%3A10%3A17.osexp","C:\Users\ERP Testing Room\Desktop\Joanna\morph21","no","mono","no","18","no","white","no","yes","1080","legacy","70","70","C:/Users/ERP Testing Room/Desktop/Joanna/morph21/subject-158.csv","xpyriment","Kafkaesque Koffka","3.2.5","0","/","NA","NA","NA","NA","space","/","723","NA","NA","NA","NA","2040285","723","2","legacy","1024","2","48000","-16","AB_m21","0","even","FILL_NW","BUTE","1841","2298913","2297204","2291129","2042141","NA","NA","NA","NA","2295858","2297701","NA","2296704","NA","2296698","2298908","1855","2299313","NA","NA","2297913","1841","1841","2298313","2296698","1841","2297913","2299313","morph21_Oliver/Morris","33","59958","71","yes","1280","5"
"200","45.8333333333","45.8333333333","845.013888889","845.013888889","black","no","xpyriment","legacy","legacy","0","204","NA","uniform","57402","1000","0.0174209957841","0","undefined","0","0","71","71","71","0","71","71","71","NA","71","71","0","71","NA","71","71","0","71","NA","71","NA","71","0","0","71","71","0","71","71","72","z","02/05/19 12:24:24","The main experiment item","yes","FIN__AB__M21__7%3A10%3A17.osexp","C:\Users\ERP Testing Room\Desktop\Joanna\morph21","no","mono","no","18","no","white","no","yes","1080","legacy","71","71","C:/Users/ERP Testing Room/Desktop/Joanna/morph21/subject-158.csv","xpyriment","Kafkaesque Koffka","3.2.5","0","/","NA","NA","NA","NA","space","/","883","NA","NA","NA","NA","2040285","883","2","legacy","1024","2","48000","-16","AB_m21","0","even","NW_L_COMP","GASFUL","1841","2303629","2300413","2302121","2042141","NA","NA","NA","NA","2295858","2300910","NA","2299904","NA","2299896","2302114","1855","2303830","NA","NA","2301121","1841","1841","2301513","2299896","1841","2301121","2303830","morph21_Oliver/Morris","33","60841","72","yes","1280","6"
"350","46.5753424658","46.5753424658","844.054794521","844.054794521","black","no","xpyriment","legacy","legacy","0","202","NA","uniform","62987","1000","0.0158762919333","1","undefined","1","0","72","72","72","0","72","72","72","NA","72","72","0","72","NA","72","72","0","72","NA","72","NA","72","0","0","72","72","0","72","72","73","/","02/05/19 12:24:24","The main experiment item","yes","FIN__AB__M21__7%3A10%3A17.osexp","C:\Users\ERP Testing Room\Desktop\Joanna\morph21","no","mono","no","18","no","white","no","yes","1080","legacy","72","72","C:/Users/ERP Testing Room/Desktop/Joanna/morph21/subject-158.csv","xpyriment","Kafkaesque Koffka","3.2.5","0","/","NA","NA","NA","NA","space","/","775","NA","NA","NA","NA","2040285","775","2","legacy","1024","2","48000","-16","AB_m21","0","even","CW_L","PAINTER","1841","2306614","2304964","2302121","2042141","NA","NA","NA","NA","2306610","2305461","NA","2304456","NA","2304449","2306610","1855","2306964","NA","NA","2305614","1841","1841","2306014","2304449","1841","2305614","2306964","morph21_Oliver/Morris","34","61616","73","yes","1280","18"
"200","47.2972972973","47.2972972973","841.432432432","841.432432432","black","no","xpyriment","legacy","legacy","0","201","NA","uniform","65638","1000","0.0152350772418","1","undefined","1","0","73","73","73","0","73","73","73","NA","73","73","0","73","NA","73","73","0","73","NA","73","NA","73","0","0","73","73","0","73","73","74","/","02/05/19 12:24:24","The main experiment item","yes","FIN__AB__M21__7%3A10%3A17.osexp","C:\Users\ERP Testing Room\Desktop\Joanna\morph21","no","mono","no","18","no","white","no","yes","1080","legacy","73","73","C:/Users/ERP Testing Room/Desktop/Joanna/morph21/subject-158.csv","xpyriment","Kafkaesque Koffka","3.2.5","0","/","NA","NA","NA","NA","space","/","650","NA","NA","NA","NA","2040285","650","2","legacy","1024","2","48000","-16","AB_m21","0","even","CW_S","LISTENER","1841","2309714","2308039","2302121","2042141","NA","NA","NA","NA","2309706","2308536","NA","2307539","NA","2307528","2309706","1855","2309914","NA","NA","2308714","1841","1841","2309106","2307528","1841","2308714","2309914","morph21_Oliver/Morris","35","62266","74","yes","1280","18"
"350","46.6666666667","46.6666666667","843.386666667","843.386666667","black","no","xpyriment","legacy","legacy","0","208","NA","uniform","50531","1000","0.0197898319843","undefined","undefined","0","0","74","74","74","0","74","74","74","NA","74","74","0","74","NA","74","74","0","74","NA","74","NA","74","0","0","74","74","0","74","74","75","z","02/05/19 12:24:24","The main experiment item","yes","FIN__AB__M21__7%3A10%3A17.osexp","C:\Users\ERP Testing Room\Desktop\Joanna\morph21","no","mono","no","18","no","white","no","yes","1080","legacy","74","74","C:/Users/ERP Testing Room/Desktop/Joanna/morph21/subject-158.csv","xpyriment","Kafkaesque Koffka","3.2.5","0","space","space","NA","NA","NA","space","None","13754","13754","NA","NA","NA","2040285","988","2","legacy","1024","2","48000","-16","AB_m21","0","even","FILL_NW","KRAISE","1841","2314339","2311156","2312831","2042141","2314698","NA","NA","NA","2309706","2311653","NA","2310647","NA","2310639","2312827","1855","2328453","NA","NA","2311839","1841","1841","2312231","2310639","1841","2311839","2314689","morph21_Oliver/Morris","35","63254","75","yes","1280","33"
"250","46.0526315789","46.0526315789","845.315789474","845.315789474","black","no","xpyriment","legacy","legacy","0","201","NA","uniform","50482","1000","0.0198090408462","0","undefined","0","0","75","75","75","0","75","75","75","NA","75","75","0","75","NA","75","75","0","75","NA","75","NA","75","0","0","75","75","0","75","75","76","/","02/05/19 12:24:24","The main experiment item","yes","FIN__AB__M21__7%3A10%3A17.osexp","C:\Users\ERP Testing Room\Desktop\Joanna\morph21","no","mono","no","18","no","white","no","yes","1080","legacy","75","75","C:/Users/ERP Testing Room/Desktop/Joanna/morph21/subject-158.csv","xpyriment","Kafkaesque Koffka","3.2.5","0","None","space","NA","NA","NA","space","None","990","13754","NA","NA","NA","2040285","990","2","legacy","1024","2","48000","-16","AB_m21","0","even","CW_S","MOSSY","1841","2331366","2329699","2312831","2042141","2314698","NA","NA","NA","2309706","2330196","NA","2329199","NA","2329190","2331357","1855","2331616","NA","NA","2330366","1841","1841","2330758","2329190","1841","2330366","2331616","morph21_Oliver/Morris","35","64244","76","yes","1280","47"
"400","45.4545454545","45.4545454545","847.233766234","847.233766234","black","no","xpyriment","legacy","legacy","0","203","NA","uniform","55267","1000","0.0180939801328","0","undefined","0","0","76","76","76","0","76","76","76","NA","76","76","0","76","NA","76","76","0","76","NA","76","NA","76","0","0","76","76","0","76","76","77","z","02/05/19 12:24:24","The main experiment item","yes","FIN__AB__M21__7%3A10%3A17.osexp","C:\Users\ERP Testing Room\Desktop\Joanna\morph21","no","mono","no","18","no","white","no","yes","1080","legacy","76","76","C:/Users/ERP Testing Room/Desktop/Joanna/morph21/subject-158.csv","xpyriment","Kafkaesque Koffka","3.2.5","0","None","space","NA","NA","NA","space","None","993","13754","NA","NA","NA","2040285","993","2","legacy","1024","2","48000","-16","AB_m21","0","even","NW_S_COMP","ALTARIC","1841","2334441","2332783","2312831","2042141","2314698","NA","NA","NA","2309706","2333280","NA","2332274","NA","2332263","2334434","1855","2334841","NA","NA","2333441","1841","1841","2333833","2332263","1841","2333441","2334841","morph21_Oliver/Morris","35","65237","77","yes","1280","7"
"400","44.8717948718","44.8717948718","844.602564103","844.602564103","black","no","xpyriment","legacy","legacy","0","205","NA","uniform","67462","1000","0.0148231597047","0","undefined","0","0","77","77","77","0","77","77","77","NA","77","77","0","77","NA","77","77","0","77","NA","77","NA","77","0","0","77","77","0","77","77","78","z","02/05/19 12:24:24","The main experiment item","yes","FIN__AB__M21__7%3A10%3A17.osexp","C:\Users\ERP Testing Room\Desktop\Joanna\morph21","no","mono","no","18","no","white","no","yes","1080","legacy","77","77","C:/Users/ERP Testing Room/Desktop/Joanna/morph21/subject-158.csv","xpyriment","Kafkaesque Koffka","3.2.5","0","/","space","NA","NA","NA","space","/","642","13754","NA","NA","NA","2040285","642","2","legacy","1024","2","48000","-16","AB_m21","0","even","NW_S_SIMP","RAMPIME","1841","2339166","2335958","2337658","2042141","2314698","NA","NA","NA","2309706","2336455","NA","2335458","NA","2335447","2337651","1855","2339567","NA","NA","2336658","1841","1841","2337049","2335447","1841","2336658","2339567","morph21_Oliver/Morris","35","65879","78","yes","1280","6"
"400","44.3037974684","44.3037974684","846.518987342","846.518987342","black","no","xpyriment","legacy","legacy","0","206","NA","uniform","54480","1000","0.0183553597651","0","undefined","0","0","78","78","78","0","78","78","78","NA","78","78","0","78","NA","78","78","0","78","NA","78","NA","78","0","0","78","78","0","78","78","79","z","02/05/19 12:24:24","The main experiment item","yes","FIN__AB__M21__7%3A10%3A17.osexp","C:\Users\ERP Testing Room\Desktop\Joanna\morph21","no","mono","no","18","no","white","no","yes","1080","legacy","78","78","C:/Users/ERP Testing Room/Desktop/Joanna/morph21/subject-158.csv","xpyriment","Kafkaesque Koffka","3.2.5","0","None","space","NA","NA","NA","space","None","996","13754","NA","NA","NA","2040285","996","2","legacy","1024","2","48000","-16","AB_m21","0","even","NW_L_SIMP","CLASSOES","1841","2342451","2340726","2337658","2042141","2314698","NA","NA","NA","2309706","2341223","NA","2340226","NA","2340220","2342447","1855","2342851","NA","NA","2341451","1841","1841","2341851","2340220","1841","2341451","2342851","morph21_Oliver/Morris","35","66875","79","yes","1280","18"
"350","43.75","43.75","848.3","848.3","black","no","xpyriment","legacy","legacy","0","208","NA","uniform","47979","1000","0.020842451906","0","undefined","0","0","79","79","79","0","79","79","79","NA","79","79","0","79","NA","79","79","0","79","NA","79","NA","79","0","0","79","79","0","79","79","80","z","02/05/19 12:24:24","The main experiment item","yes","FIN__AB__M21__7%3A10%3A17.osexp","C:\Users\ERP Testing Room\Desktop\Joanna\morph21","no","mono","no","18","no","white","no","yes","1080","legacy","79","79","C:/Users/ERP Testing Room/Desktop/Joanna/morph21/subject-158.csv","xpyriment","Kafkaesque Koffka","3.2.5","0","None","space","NA","NA","NA","space","None","989","13754","NA","NA","NA","2040285","989","2","legacy","1024","2","48000","-16","AB_m21","0","even","FILL_NW","DELP","1841","2345584","2343909","2337658","2042141","2314698","NA","NA","NA","2309706","2344406","NA","2343409","NA","2343400","2345574","1855","2345934","NA","NA","2344584","1841","1841","2344976","2343400","1841","2344584","2345934","morph21_Oliver/Morris","35","67864","80","yes","1280","14"
"300","44.4444444444","44.4444444444","844.617283951","844.617283951","black","no","xpyriment","legacy","legacy","0","201","NA","uniform","65757","1000","0.0152075064252","1","undefined","1","0","80","80","80","0","80","80","80","NA","80","80","0","80","NA","80","80","0","80","NA","80","NA","80","0","0","80","80","0","80","80","81","/","02/05/19 12:24:24","The main experiment item","yes","FIN__AB__M21__7%3A10%3A17.osexp","C:\Users\ERP Testing Room\Desktop\Joanna\morph21","no","mono","no","18","no","white","no","yes","1080","legacy","80","80","C:/Users/ERP Testing Room/Desktop/Joanna/morph21/subject-158.csv","xpyriment","Kafkaesque Koffka","3.2.5","0","/","space","NA","NA","NA","space","/","550","13754","NA","NA","NA","2040285","550","2","legacy","1024","2","48000","-16","AB_m21","0","even","CW_S","RISKY","1841","2350226","2347043","2348718","2042141","2314698","NA","NA","NA","2348710","2347540","NA","2346543","NA","2346536","2348710","1855","2350526","NA","NA","2347718","1841","1841","2348109","2346535","1841","2347718","2350526","morph21_Oliver/Morris","36","68414","81","yes","1280","50"
"350","45.1219512195","45.1219512195","844.256097561","844.256097561","black","no","xpyriment","legacy","legacy","0","202","NA","uniform","61599","1000","0.0162340297732","1","undefined","1","0","81","81","81","0","81","81","81","NA","81","81","0","81","NA","81","81","0","81","NA","81","NA","81","0","0","81","81","0","81","81","82","/","02/05/19 12:24:24","The main experiment item","yes","FIN__AB__M21__7%3A10%3A17.osexp","C:\Users\ERP Testing Room\Desktop\Joanna\morph21","no","mono","no","18","no","white","no","yes","1080","legacy","81","81","C:/Users/ERP Testing Room/Desktop/Joanna/morph21/subject-158.csv","xpyriment","Kafkaesque Koffka","3.2.5","0","/","space","NA","NA","NA","space","/","815","13754","NA","NA","NA","2040285","815","2","legacy","1024","2","48000","-16","AB_m21","0","even","CW_L","GUARDING","1841","2353284","2351635","2348718","2042141","2314698","NA","NA","NA","2353281","2352132","NA","2351135","NA","2351123","2353281","1855","2353635","NA","NA","2352285","1841","1841","2352684","2351123","1841","2352284","2353635","morph21_Oliver/Morris","37","69229","82","yes","1280","26"
"200","44.578313253","44.578313253","844.361445783","844.361445783","black","no","xpyriment","legacy","legacy","0","203","NA","uniform","55611","1000","0.0179820539102","0","undefined","0","0","82","82","82","0","82","82","82","NA","82","82","0","82","NA","82","82","0","82","NA","82","NA","82","0","0","82","82","0","82","82","83","z","02/05/19 12:24:24","The main experiment item","yes","FIN__AB__M21__7%3A10%3A17.osexp","C:\Users\ERP Testing Room\Desktop\Joanna\morph21","no","mono","no","18","no","white","no","yes","1080","legacy","82","82","C:/Users/ERP Testing Room/Desktop/Joanna/morph21/subject-158.csv","xpyriment","Kafkaesque Koffka","3.2.5","0","/","space","NA","NA","NA","space","/","853","13754","NA","NA","NA","2040285","853","2","legacy","1024","2","48000","-16","AB_m21","0","even","NW_S_COMP","ANTISM","1841","2356543","2354876","2348718","2042141","2314698","NA","NA","NA","2353281","2355373","NA","2354376","NA","2354367","2356534","1855","2356743","NA","NA","2355543","1841","1841","2355935","2354367","1841","2355543","2356743","morph21_Oliver/Morris","37","70082","83","yes","1280","8"
"200","45.2380952381","45.2380952381","844","844","black","no","xpyriment","legacy","legacy","0","204","NA","uniform","58881","1000","0.0169834072112","1","undefined","1","0","83","83","83","0","83","83","83","NA","83","83","0","83","NA","83","83","0","83","NA","83","NA","83","0","0","83","83","0","83","83","84","z","02/05/19 12:24:24","The main experiment item","yes","FIN__AB__M21__7%3A10%3A17.osexp","C:\Users\ERP Testing Room\Desktop\Joanna\morph21","no","mono","no","18","no","white","no","yes","1080","legacy","83","83","C:/Users/ERP Testing Room/Desktop/Joanna/morph21/subject-158.csv","xpyriment","Kafkaesque Koffka","3.2.5","0","z","space","NA","NA","NA","space","z","814","13754","NA","NA","NA","2040285","814","2","legacy","1024","2","48000","-16","AB_m21","0","even","NW_L_COMP","PITCHORY","1841","2361019","2357844","2359511","2042141","2314698","NA","NA","NA","2359501","2358341","NA","2357344","NA","2357337","2359501","1855","2361219","NA","NA","2358511","1841","1841","2358902","2357337","1841","2358511","2361219","morph21_Oliver/Morris","38","70896","84","yes","1280","25"
"250","45.8823529412","45.8823529412","843.364705882","843.364705882","black","no","xpyriment","legacy","legacy","0","201","NA","uniform","50870","1000","0.0196579516414","1","undefined","1","0","84","84","84","0","84","84","84","NA","84","84","0","84","NA","84","84","0","84","NA","84","NA","84","0","0","84","84","0","84","84","85","/","02/05/19 12:24:24","The main experiment item","yes","FIN__AB__M21__7%3A10%3A17.osexp","C:\Users\ERP Testing Room\Desktop\Joanna\morph21","no","mono","no","18","no","white","no","yes","1080","legacy","84","84","C:/Users/ERP Testing Room/Desktop/Joanna/morph21/subject-158.csv","xpyriment","Kafkaesque Koffka","3.2.5","0","/","space","NA","NA","NA","space","/","790","13754","NA","NA","NA","2040285","790","2","legacy","1024","2","48000","-16","AB_m21","0","even","CW_S","TUTORING","1841","2364086","2362428","2359511","2042141","2314698","NA","NA","NA","2364076","2362925","NA","2361928","NA","2361919","2364076","1855","2364336","NA","NA","2363086","1841","1841","2363478","2361919","1841","2363086","2364336","morph21_Oliver/Morris","39","71686","85","yes","1280","27"
"300","45.3488372093","45.3488372093","843.639534884","843.639534884","black","no","xpyriment","legacy","legacy","0","208","NA","uniform","59243","1000","0.0168796313489","0","undefined","0","0","85","85","85","0","85","85","85","NA","85","85","0","85","NA","85","85","0","85","NA","85","NA","85","0","0","85","85","0","85","85","86","z","02/05/19 12:24:24","The main experiment item","yes","FIN__AB__M21__7%3A10%3A17.osexp","C:\Users\ERP Testing Room\Desktop\Joanna\morph21","no","mono","no","18","no","white","no","yes","1080","legacy","85","85","C:/Users/ERP Testing Room/Desktop/Joanna/morph21/subject-158.csv","xpyriment","Kafkaesque Koffka","3.2.5","0","/","space","NA","NA","NA","space","/","867","13754","NA","NA","NA","2040285","867","2","legacy","1024","2","48000","-16","AB_m21","0","even","FILL_NW","SCURE","1841","2367169","2365519","2359511","2042141","2314698","NA","NA","NA","2364076","2366017","NA","2365019","NA","2365012","2367166","1855","2367469","NA","NA","2366169","1841","1841","2366569","2365012","1841","2366169","2367469","morph21_Oliver/Morris","39","72553","86","yes","1280","41"
"250","45.9770114943","45.9770114943","840.689655172","840.689655172","black","no","xpyriment","legacy","legacy","0","207","NA","uniform","65021","1000","0.0153796465757","1","undefined","1","0","86","86","86","0","86","86","86","NA","86","86","0","86","NA","86","86","0","86","NA","86","NA","86","0","0","86","86","0","86","86","87","/","02/05/19 12:24:24","The main experiment item","yes","FIN__AB__M21__7%3A10%3A17.osexp","C:\Users\ERP Testing Room\Desktop\Joanna\morph21","no","mono","no","18","no","white","no","yes","1080","legacy","86","86","C:/Users/ERP Testing Room/Desktop/Joanna/morph21/subject-158.csv","xpyriment","Kafkaesque Koffka","3.2.5","0","/","space","NA","NA","NA","space","/","587","13754","NA","NA","NA","2040285","587","2","legacy","1024","2","48000","-16","AB_m21","0","even","FILL_W","SLIM","1841","2371861","2368703","2370353","2042141","2314698","NA","NA","NA","2370348","2369200","NA","2368195","NA","2368189","2370348","1855","2372112","NA","NA","2369353","1841","1841","2369753","2368188","1841","2369353","2372112","morph21_Oliver/Morris","40","73140","87","yes","1280","6"
"250","45.4545454545","45.4545454545","842.375","842.375","black","no","xpyriment","legacy","legacy","0","206","NA","uniform","54846","1000","0.0182328702184","0","undefined","0","0","87","87","87","0","87","87","87","NA","87","87","0","87","NA","87","87","0","87","NA","87","NA","87","0","0","87","87","0","87","87","88","z","02/05/19 12:24:24","The main experiment item","yes","FIN__AB__M21__7%3A10%3A17.osexp","C:\Users\ERP Testing Room\Desktop\Joanna\morph21","no","mono","no","18","no","white","no","yes","1080","legacy","87","87","C:/Users/ERP Testing Room/Desktop/Joanna/morph21/subject-158.csv","xpyriment","Kafkaesque Koffka","3.2.5","0","None","space","NA","NA","NA","space","None","989","13754","NA","NA","NA","2040285","989","2","legacy","1024","2","48000","-16","AB_m21","0","even","NW_L_SIMP","SMOOTHFIL","1841","2374837","2373178","2370353","2042141","2314698","NA","NA","NA","2370348","2373675","NA","2372678","NA","2372671","2374834","1855","2375087","NA","NA","2373845","1841","1841","2374236","2372671","1841","2373845","2375087","morph21_Oliver/Morris","40","74129","88","yes","1280","19"
"300","46.0674157303","46.0674157303","841.213483146","841.213483146","black","no","xpyriment","legacy","legacy","0","207","NA","uniform","63736","1000","0.0156897200954","1","undefined","1","0","88","88","88","0","88","88","88","NA","88","88","0","88","NA","88","88","0","88","NA","88","NA","88","0","0","88","88","0","88","88","89","/","02/05/19 12:24:24","The main experiment item","yes","FIN__AB__M21__7%3A10%3A17.osexp","C:\Users\ERP Testing Room\Desktop\Joanna\morph21","no","mono","no","18","no","white","no","yes","1080","legacy","88","88","C:/Users/ERP Testing Room/Desktop/Joanna/morph21/subject-158.csv","xpyriment","Kafkaesque Koffka","3.2.5","0","/","space","NA","NA","NA","space","/","739","13754","NA","NA","NA","2040285","739","2","legacy","1024","2","48000","-16","AB_m21","0","even","FILL_W","MOURN","1841","2377946","2376296","2370353","2042141","2314698","NA","NA","NA","2377943","2376793","NA","2375788","NA","2375781","2377943","1855","2378246","NA","NA","2376954","1841","1841","2377346","2375781","1841","2376954","2378246","morph21_Oliver/Morris","41","74868","89","yes","1280","26"
