"ITI","acc","accuracy","average_response_time","avg_rt","background","bidi","canvas_backend","clock_backend","color_backend","compensation","cond_trig","condtrigtime","coordinates","coroutines_cycles","coroutines_duration","coroutines_mean_cycle_duration","correct","correct_instructions_1","correct_new_keyboard_response_1","count_AB_m21","count_ITI","count_blank_screen","count_blink_screen","count_block1","count_break1","count_break2","count_break3_1","count_canvas","count_correct_trigger","count_def_chain","count_end_screen","count_fixation_1","count_getting_started","count_inc_counter","count_incorrect_trigger","count_instructions_1","count_logger","count_logscript","count_new_coroutines","count_new_inline_script","count_new_keyboard_response_1","count_reset_counter_prep","count_reset_counter_run","count_responsescreen","count_sequence","count_start_trigger","count_target_present","count_word_trigger","counter","cresp","datetime","description","disable_garbage_collection","experiment_file","experiment_path","font_bold","font_family","font_italic","font_size","font_underline","foreground","form_clicks","fullscreen","height","keyboard_backend","live_row","live_row_block1","logfile","mouse_backend","opensesame_codename","opensesame_version","repeat_cycle","response","response_break1","response_break2","response_break3_1","response_end_screen","response_instructions_1","response_new_keyboard_response_1","response_time","response_time_break1","response_time_break2","response_time_break3_1","response_time_end_screen","response_time_instructions_1","response_time_new_keyboard_response_1","round_decimals","sampler_backend","sound_buf_size","sound_channels","sound_freq","sound_sample_size","start","subject_nr","subject_parity","targ_type","target","time_AB_m21","time_ITI","time_blank_screen","time_blink_screen","time_block1","time_break1","time_break2","time_break3_1","time_canvas","time_correct_trigger","time_def_chain","time_end_screen","time_fixation_1","time_getting_started","time_inc_counter","time_incorrect_trigger","time_instructions_1","time_logger","time_logscript","time_new_inline_script","time_new_keyboard_response_1","time_reset_counter_prep","time_reset_counter_run","time_responsescreen","time_sequence","time_start_trigger","time_target_present","time_word_trigger","title","total_correct","total_response_time","total_responses","uniform_coordinates","width","word_trig"
"350","100","100","883","883","black","no","xpyriment","legacy","legacy","0","201","NA","uniform","63956","1000","0.0156357495778","1","undefined","1","0","0","0","0","0","0","0","0","NA","0","0","0","0","NA","0","0","0","0","NA","0","NA","0","0","0","0","0","0","0","0","1","/","12/07/17 15:39:44","The main experiment item","yes","FIN__AB__M21__7%3A10%3A17.osexp","C:\Users\ERP Testing Room\Desktop\Joanna\morph21","no","mono","no","18","no","white","no","yes","1080","legacy","0","0","C:/Users/ERP Testing Room/Desktop/Joanna/morph21/subject-118.csv","xpyriment","Jazzy James","3.1.4","0","/","NA","NA","NA","NA","space","/","883","NA","NA","NA","NA","174261","883","2","legacy","1024","2","48000","-16","AB_m21","118","even","CW_S","DULLNESS","1383","178507","176856","NA","175653","NA","NA","NA","NA","178500","177353","NA","176351","NA","176277","178500","1392","178857","NA","NA","177506","1383","1384","177898","176277","1383","177506","178857","morph21_Oliver/Morris","1","883","1","yes","1280","43"
"350","100","100","712","712","black","no","xpyriment","legacy","legacy","0","202","NA","uniform","78093","1000","0.0128052450284","1","undefined","1","0","1","1","1","0","1","1","1","NA","1","1","0","1","NA","1","1","0","1","NA","1","NA","1","0","0","1","1","0","1","1","2","/","12/07/17 15:39:44","The main experiment item","yes","FIN__AB__M21__7%3A10%3A17.osexp","C:\Users\ERP Testing Room\Desktop\Joanna\morph21","no","mono","no","18","no","white","no","yes","1080","legacy","1","1","C:/Users/ERP Testing Room/Desktop/Joanna/morph21/subject-118.csv","xpyriment","Jazzy James","3.1.4","0","/","NA","NA","NA","NA","space","/","541","NA","NA","NA","NA","174261","541","2","legacy","1024","2","48000","-16","AB_m21","118","even","CW_L","PUNCHER","1383","181624","179999","NA","175653","NA","NA","NA","NA","181617","180496","NA","179499","NA","179496","181617","1392","181974","NA","NA","180624","1383","1384","181015","179496","1383","180624","181974","morph21_Oliver/Morris","2","1424","2","yes","1280","1"
"350","100","100","637.666666667","637.666666667","black","no","xpyriment","legacy","legacy","0","201","NA","uniform","80690","1000","0.0123931094312","1","undefined","1","0","2","2","2","0","2","2","2","NA","2","2","0","2","NA","2","2","0","2","NA","2","NA","2","0","0","2","2","0","2","2","3","/","12/07/17 15:39:44","The main experiment item","yes","FIN__AB__M21__7%3A10%3A17.osexp","C:\Users\ERP Testing Room\Desktop\Joanna\morph21","no","mono","no","18","no","white","no","yes","1080","legacy","2","2","C:/Users/ERP Testing Room/Desktop/Joanna/morph21/subject-118.csv","xpyriment","Jazzy James","3.1.4","0","/","NA","NA","NA","NA","space","/","489","NA","NA","NA","NA","174261","489","2","legacy","1024","2","48000","-16","AB_m21","118","even","CW_S","AMAZEMENT","1383","186241","183116","184732","175653","NA","NA","NA","NA","184725","183613","NA","182616","NA","182605","184725","1392","186591","NA","NA","183732","1383","1384","184124","182605","1383","183732","186591","morph21_Oliver/Morris","3","1913","3","yes","1280","39"
"400","100","100","641.5","641.5","black","no","xpyriment","legacy","legacy","0","201","NA","uniform","75894","1000","0.0131762721691","1","undefined","1","0","3","3","3","0","3","3","3","NA","3","3","0","3","NA","3","3","0","3","NA","3","NA","3","0","0","3","3","0","3","3","4","/","12/07/17 15:39:44","The main experiment item","yes","FIN__AB__M21__7%3A10%3A17.osexp","C:\Users\ERP Testing Room\Desktop\Joanna\morph21","no","mono","no","18","no","white","no","yes","1080","legacy","3","3","C:/Users/ERP Testing Room/Desktop/Joanna/morph21/subject-118.csv","xpyriment","Jazzy James","3.1.4","0","/","NA","NA","NA","NA","space","/","653","NA","NA","NA","NA","174261","653","2","legacy","1024","2","48000","-16","AB_m21","118","even","CW_S","WIDOWED","1383","189433","187824","184732","175653","NA","NA","NA","NA","189427","188321","NA","187324","NA","187314","189427","1392","189833","NA","NA","188432","1383","1384","188824","187314","1383","188432","189833","morph21_Oliver/Morris","4","2566","4","yes","1280","7"
"200","100","100","609","609","black","no","xpyriment","legacy","legacy","0","202","NA","uniform","82011","1000","0.0121934862397","1","undefined","1","0","4","4","4","0","4","4","4","NA","4","4","0","4","NA","4","4","0","4","NA","4","NA","4","0","0","4","4","0","4","4","5","/","12/07/17 15:39:44","The main experiment item","yes","FIN__AB__M21__7%3A10%3A17.osexp","C:\Users\ERP Testing Room\Desktop\Joanna\morph21","no","mono","no","18","no","white","no","yes","1080","legacy","4","4","C:/Users/ERP Testing Room/Desktop/Joanna/morph21/subject-118.csv","xpyriment","Jazzy James","3.1.4","0","/","NA","NA","NA","NA","space","/","479","NA","NA","NA","NA","174261","479","2","legacy","1024","2","48000","-16","AB_m21","118","even","CW_L","VERBAL","1383","192574","190991","184732","175653","NA","NA","NA","NA","192567","191488","NA","190491","NA","190481","192567","1392","192774","NA","NA","191574","1383","1384","191966","190481","1383","191574","192774","morph21_Oliver/Morris","5","3045","5","yes","1280","50"
"200","100","100","639.5","639.5","black","no","xpyriment","legacy","legacy","0","203","NA","uniform","70490","1000","0.0141864094198","1","undefined","1","0","5","5","5","0","5","5","5","NA","5","5","0","5","NA","5","5","0","5","NA","5","NA","5","0","0","5","5","0","5","5","6","z","12/07/17 15:39:44","The main experiment item","yes","FIN__AB__M21__7%3A10%3A17.osexp","C:\Users\ERP Testing Room\Desktop\Joanna\morph21","no","mono","no","18","no","white","no","yes","1080","legacy","5","5","C:/Users/ERP Testing Room/Desktop/Joanna/morph21/subject-118.csv","xpyriment","Jazzy James","3.1.4","0","z","NA","NA","NA","NA","space","z","792","NA","NA","NA","NA","174261","792","2","legacy","1024","2","48000","-16","AB_m21","118","even","NW_S_COMP","HAPPENANCE","1383","197009","193916","195499","175653","NA","NA","NA","NA","195497","194413","NA","193416","NA","193406","195497","1392","197209","NA","NA","194508","1383","1384","194899","193406","1383","194508","197209","morph21_Oliver/Morris","6","3837","6","yes","1280","2"
"250","100","100","613","613","black","no","xpyriment","legacy","legacy","0","201","NA","uniform","83004","1000","0.0120476121633","1","undefined","1","0","6","6","6","0","6","6","6","NA","6","6","0","6","NA","6","6","0","6","NA","6","NA","6","0","0","6","6","0","6","6","7","/","12/07/17 15:39:44","The main experiment item","yes","FIN__AB__M21__7%3A10%3A17.osexp","C:\Users\ERP Testing Room\Desktop\Joanna\morph21","no","mono","no","18","no","white","no","yes","1080","legacy","6","6","C:/Users/ERP Testing Room/Desktop/Joanna/morph21/subject-118.csv","xpyriment","Jazzy James","3.1.4","0","/","NA","NA","NA","NA","space","/","454","NA","NA","NA","NA","174261","454","2","legacy","1024","2","48000","-16","AB_m21","118","even","CW_S","NOTICEABLE","1383","199959","198376","195499","175653","NA","NA","NA","NA","199952","198873","NA","197876","NA","197868","199952","1392","200209","NA","NA","198959","1383","1384","199351","197868","1383","198959","200209","morph21_Oliver/Morris","7","4291","7","yes","1280","3"
"200","100","100","590.875","590.875","black","no","xpyriment","legacy","legacy","0","201","NA","uniform","83827","1000","0.0119293306453","1","undefined","1","0","7","7","7","0","7","7","7","NA","7","7","0","7","NA","7","7","0","7","NA","7","NA","7","0","0","7","7","0","7","7","8","/","12/07/17 15:39:44","The main experiment item","yes","FIN__AB__M21__7%3A10%3A17.osexp","C:\Users\ERP Testing Room\Desktop\Joanna\morph21","no","mono","no","18","no","white","no","yes","1080","legacy","7","7","C:/Users/ERP Testing Room/Desktop/Joanna/morph21/subject-118.csv","xpyriment","Jazzy James","3.1.4","0","/","NA","NA","NA","NA","space","/","436","NA","NA","NA","NA","174261","436","2","legacy","1024","2","48000","-16","AB_m21","118","even","CW_S","THRUSTER","1383","203001","201417","195499","175653","NA","NA","NA","NA","202998","201915","NA","200917","NA","200910","202998","1392","203201","NA","NA","202001","1383","1384","202401","200910","1383","202001","203201","morph21_Oliver/Morris","8","4727","8","yes","1280","24"
"250","100","100","593.444444444","593.444444444","black","no","xpyriment","legacy","legacy","0","207","NA","uniform","75246","1000","0.0132897429764","1","undefined","1","0","8","8","8","0","8","8","8","NA","8","8","0","8","NA","8","8","0","8","NA","8","NA","8","0","0","8","8","0","8","8","9","/","12/07/17 15:39:44","The main experiment item","yes","FIN__AB__M21__7%3A10%3A17.osexp","C:\Users\ERP Testing Room\Desktop\Joanna\morph21","no","mono","no","18","no","white","no","yes","1080","legacy","8","8","C:/Users/ERP Testing Room/Desktop/Joanna/morph21/subject-118.csv","xpyriment","Jazzy James","3.1.4","0","/","NA","NA","NA","NA","space","/","614","NA","NA","NA","NA","174261","614","2","legacy","1024","2","48000","-16","AB_m21","118","even","FILL_W","FIERCE","1383","207468","204359","205959","175653","NA","NA","NA","NA","205952","204856","NA","203859","NA","203849","205952","1392","207718","NA","NA","204959","1383","1384","205351","203849","1383","204959","207718","morph21_Oliver/Morris","9","5341","9","yes","1280","24"
"300","100","100","599.9","599.9","black","no","xpyriment","legacy","legacy","0","205","NA","uniform","70701","1000","0.0141440715124","1","undefined","1","0","9","9","9","0","9","9","9","NA","9","9","0","9","NA","9","9","0","9","NA","9","NA","9","0","0","9","9","0","9","9","10","z","12/07/17 15:39:44","The main experiment item","yes","FIN__AB__M21__7%3A10%3A17.osexp","C:\Users\ERP Testing Room\Desktop\Joanna\morph21","no","mono","no","18","no","white","no","yes","1080","legacy","9","9","C:/Users/ERP Testing Room/Desktop/Joanna/morph21/subject-118.csv","xpyriment","Jazzy James","3.1.4","0","z","NA","NA","NA","NA","space","z","658","NA","NA","NA","NA","174261","658","2","legacy","1024","2","48000","-16","AB_m21","118","even","NW_S_SIMP","WINKIDY","1383","210459","208876","205959","175653","NA","NA","NA","NA","210452","209373","NA","208376","NA","208369","210452","1392","210760","NA","NA","209459","1383","1384","209851","208369","1383","209459","210760","morph21_Oliver/Morris","10","5999","10","yes","1280","21"
"400","100","100","610","610","black","no","xpyriment","legacy","legacy","0","206","NA","uniform","74049","1000","0.0135045712974","1","undefined","1","0","10","10","10","0","10","10","10","NA","10","10","0","10","NA","10","10","0","10","NA","10","NA","10","0","0","10","10","0","10","10","11","z","12/07/17 15:39:44","The main experiment item","yes","FIN__AB__M21__7%3A10%3A17.osexp","C:\Users\ERP Testing Room\Desktop\Joanna\morph21","no","mono","no","18","no","white","no","yes","1080","legacy","10","10","C:/Users/ERP Testing Room/Desktop/Joanna/morph21/subject-118.csv","xpyriment","Jazzy James","3.1.4","0","z","NA","NA","NA","NA","space","z","711","NA","NA","NA","NA","174261","711","2","legacy","1024","2","48000","-16","AB_m21","118","even","NW_L_SIMP","BOGADY","1383","213502","211909","205959","175653","NA","NA","NA","NA","213495","212407","NA","211410","NA","211399","213495","1392","213902","NA","NA","212501","1383","1384","212893","211399","1383","212501","213902","morph21_Oliver/Morris","11","6710","11","yes","1280","2"
"400","100","100","609.916666667","609.916666667","black","no","xpyriment","legacy","legacy","0","202","NA","uniform","76106","1000","0.0131395684966","1","undefined","1","0","11","11","11","0","11","11","11","NA","11","11","0","11","NA","11","11","0","11","NA","11","NA","11","0","0","11","11","0","11","11","12","/","12/07/17 15:39:44","The main experiment item","yes","FIN__AB__M21__7%3A10%3A17.osexp","C:\Users\ERP Testing Room\Desktop\Joanna\morph21","no","mono","no","18","no","white","no","yes","1080","legacy","11","11","C:/Users/ERP Testing Room/Desktop/Joanna/morph21/subject-118.csv","xpyriment","Jazzy James","3.1.4","0","/","NA","NA","NA","NA","space","/","609","NA","NA","NA","NA","174261","609","2","legacy","1024","2","48000","-16","AB_m21","118","even","CW_L","DRYNESS","1383","218152","215044","216644","175653","NA","NA","NA","NA","216636","215541","NA","214544","NA","214534","216636","1392","218553","NA","NA","215644","1383","1384","216036","214534","1383","215644","218553","morph21_Oliver/Morris","12","7319","12","yes","1280","42"
"400","100","100","625","625","black","no","xpyriment","legacy","legacy","0","204","NA","uniform","65359","1000","0.0153001116908","1","undefined","1","0","12","12","12","0","12","12","12","NA","12","12","0","12","NA","12","12","0","12","NA","12","NA","12","0","0","12","12","0","12","12","13","z","12/07/17 15:39:44","The main experiment item","yes","FIN__AB__M21__7%3A10%3A17.osexp","C:\Users\ERP Testing Room\Desktop\Joanna\morph21","no","mono","no","18","no","white","no","yes","1080","legacy","12","12","C:/Users/ERP Testing Room/Desktop/Joanna/morph21/subject-118.csv","xpyriment","Jazzy James","3.1.4","0","z","NA","NA","NA","NA","space","z","806","NA","NA","NA","NA","174261","806","2","legacy","1024","2","48000","-16","AB_m21","118","even","NW_L_COMP","FLITENCE","1383","221311","219728","216644","175653","NA","NA","NA","NA","221302","220225","NA","219228","NA","219220","221302","1392","221711","NA","NA","220311","1383","1384","220702","219220","1383","220311","221711","morph21_Oliver/Morris","13","8125","13","yes","1280","3"
"300","100","100","631.214285714","631.214285714","black","no","xpyriment","legacy","legacy","0","208","NA","uniform","73936","1000","0.0135252109933","1","undefined","1","0","13","13","13","0","13","13","13","NA","13","13","0","13","NA","13","13","0","13","NA","13","NA","13","0","0","13","13","0","13","13","14","z","12/07/17 15:39:44","The main experiment item","yes","FIN__AB__M21__7%3A10%3A17.osexp","C:\Users\ERP Testing Room\Desktop\Joanna\morph21","no","mono","no","18","no","white","no","yes","1080","legacy","13","13","C:/Users/ERP Testing Room/Desktop/Joanna/morph21/subject-118.csv","xpyriment","Jazzy James","3.1.4","0","z","NA","NA","NA","NA","space","z","712","NA","NA","NA","NA","174261","712","2","legacy","1024","2","48000","-16","AB_m21","118","even","FILL_NW","KEMT","1383","224453","222861","216644","175653","NA","NA","NA","NA","224445","223358","NA","222361","NA","222350","224445","1392","224753","NA","NA","223453","1383","1384","223844","222350","1383","223453","224753","morph21_Oliver/Morris","14","8837","14","yes","1280","32"
"200","100","100","632.266666667","632.266666667","black","no","xpyriment","legacy","legacy","0","201","NA","uniform","76164","1000","0.013129562523","1","undefined","1","0","14","14","14","0","14","14","14","NA","14","14","0","14","NA","14","14","0","14","NA","14","NA","14","0","0","14","14","0","14","14","15","/","12/07/17 15:39:44","The main experiment item","yes","FIN__AB__M21__7%3A10%3A17.osexp","C:\Users\ERP Testing Room\Desktop\Joanna\morph21","no","mono","no","18","no","white","no","yes","1080","legacy","14","14","C:/Users/ERP Testing Room/Desktop/Joanna/morph21/subject-118.csv","xpyriment","Jazzy James","3.1.4","0","/","NA","NA","NA","NA","space","/","647","NA","NA","NA","NA","174261","647","2","legacy","1024","2","48000","-16","AB_m21","118","even","CW_S","ANGELIC","1383","228995","225903","227486","175653","NA","NA","NA","NA","227480","226400","NA","225403","NA","225399","227480","1392","229195","NA","NA","226486","1383","1384","226878","225399","1383","226486","229195","morph21_Oliver/Morris","15","9484","15","yes","1280","25"
"250","100","100","628.0625","628.0625","black","no","xpyriment","legacy","legacy","0","201","NA","uniform","70906","1000","0.0141031788565","1","undefined","1","0","15","15","15","0","15","15","15","NA","15","15","0","15","NA","15","15","0","15","NA","15","NA","15","0","0","15","15","0","15","15","16","/","12/07/17 15:39:44","The main experiment item","yes","FIN__AB__M21__7%3A10%3A17.osexp","C:\Users\ERP Testing Room\Desktop\Joanna\morph21","no","mono","no","18","no","white","no","yes","1080","legacy","15","15","C:/Users/ERP Testing Room/Desktop/Joanna/morph21/subject-118.csv","xpyriment","Jazzy James","3.1.4","0","/","NA","NA","NA","NA","space","/","565","NA","NA","NA","NA","174261","565","2","legacy","1024","2","48000","-16","AB_m21","118","even","CW_S","COSTLY","1383","231937","230353","227486","175653","NA","NA","NA","NA","231930","230850","NA","229853","NA","229850","231930","1392","232187","NA","NA","230937","1383","1384","231329","229849","1383","230937","232187","morph21_Oliver/Morris","16","10049","16","yes","1280","36"
"300","100","100","636.058823529","636.058823529","black","no","xpyriment","legacy","legacy","0","207","NA","uniform","72251","1000","0.0138406388839","1","undefined","1","0","16","16","16","0","16","16","16","NA","16","16","0","16","NA","16","16","0","16","NA","16","NA","16","0","0","16","16","0","16","16","17","/","12/07/17 15:39:44","The main experiment item","yes","FIN__AB__M21__7%3A10%3A17.osexp","C:\Users\ERP Testing Room\Desktop\Joanna\morph21","no","mono","no","18","no","white","no","yes","1080","legacy","16","16","C:/Users/ERP Testing Room/Desktop/Joanna/morph21/subject-118.csv","xpyriment","Jazzy James","3.1.4","0","/","NA","NA","NA","NA","space","/","764","NA","NA","NA","NA","174261","764","2","legacy","1024","2","48000","-16","AB_m21","118","even","FILL_W","BOX","1383","234921","233337","227486","175653","NA","NA","NA","NA","234917","233835","NA","232837","NA","232832","234917","1392","235221","NA","NA","233921","1383","1384","234321","232832","1383","233921","235221","morph21_Oliver/Morris","17","10813","17","yes","1280","42"
"350","100","100","645.333333333","645.333333333","black","no","xpyriment","legacy","legacy","0","208","NA","uniform","66622","1000","0.015010056738","1","undefined","1","0","17","17","17","0","17","17","17","NA","17","17","0","17","NA","17","17","0","17","NA","17","NA","17","0","0","17","17","0","17","17","18","z","12/07/17 15:39:44","The main experiment item","yes","FIN__AB__M21__7%3A10%3A17.osexp","C:\Users\ERP Testing Room\Desktop\Joanna\morph21","no","mono","no","18","no","white","no","yes","1080","legacy","17","17","C:/Users/ERP Testing Room/Desktop/Joanna/morph21/subject-118.csv","xpyriment","Jazzy James","3.1.4","0","z","NA","NA","NA","NA","space","z","803","NA","NA","NA","NA","174261","803","2","legacy","1024","2","48000","-16","AB_m21","118","even","FILL_NW","BLANTH","1383","239463","236363","237954","175653","NA","NA","NA","NA","237946","236860","NA","235863","NA","235858","237946","1392","239813","NA","NA","236954","1383","1384","237346","235858","1383","236954","239813","morph21_Oliver/Morris","18","11616","18","yes","1280","3"
"300","100","100","648.421052632","648.421052632","black","no","xpyriment","legacy","legacy","0","203","NA","uniform","67571","1000","0.0147992481982","1","undefined","1","0","18","18","18","0","18","18","18","NA","18","18","0","18","NA","18","18","0","18","NA","18","NA","18","0","0","18","18","0","18","18","19","z","12/07/17 15:39:44","The main experiment item","yes","FIN__AB__M21__7%3A10%3A17.osexp","C:\Users\ERP Testing Room\Desktop\Joanna\morph21","no","mono","no","18","no","white","no","yes","1080","legacy","18","18","C:/Users/ERP Testing Room/Desktop/Joanna/morph21/subject-118.csv","xpyriment","Jazzy James","3.1.4","0","z","NA","NA","NA","NA","space","z","704","NA","NA","NA","NA","174261","704","2","legacy","1024","2","48000","-16","AB_m21","118","even","NW_S_COMP","FIGER","1383","242613","241029","237954","175653","NA","NA","NA","NA","242605","241527","NA","240530","NA","240522","242605","1392","242913","NA","NA","241613","1383","1384","242004","240522","1383","241613","242913","morph21_Oliver/Morris","19","12320","19","yes","1280","4"
"300","100","100","654.75","654.75","black","no","xpyriment","legacy","legacy","0","202","NA","uniform","62129","1000","0.0160955431441","1","undefined","1","0","19","19","19","0","19","19","19","NA","19","19","0","19","NA","19","19","0","19","NA","19","NA","19","0","0","19","19","0","19","19","20","/","12/07/17 15:39:44","The main experiment item","yes","FIN__AB__M21__7%3A10%3A17.osexp","C:\Users\ERP Testing Room\Desktop\Joanna\morph21","no","mono","no","18","no","white","no","yes","1080","legacy","19","19","C:/Users/ERP Testing Room/Desktop/Joanna/morph21/subject-118.csv","xpyriment","Jazzy James","3.1.4","0","/","NA","NA","NA","NA","space","/","775","NA","NA","NA","NA","174261","775","2","legacy","1024","2","48000","-16","AB_m21","118","even","CW_L","COMPOSER","1383","245646","244063","237954","175653","NA","NA","NA","NA","245639","244560","NA","243563","NA","243555","245639","1392","245946","NA","NA","244646","1383","1384","245038","243555","1383","244646","245946","morph21_Oliver/Morris","20","13095","20","yes","1280","6"
"250","100","100","651.19047619","651.19047619","black","no","xpyriment","legacy","legacy","0","203","NA","uniform","72427","1000","0.0138070056747","1","undefined","1","0","20","20","20","0","20","20","20","NA","20","20","0","20","NA","20","20","0","20","NA","20","NA","20","0","0","20","20","0","20","20","21","z","12/07/17 15:39:44","The main experiment item","yes","FIN__AB__M21__7%3A10%3A17.osexp","C:\Users\ERP Testing Room\Desktop\Joanna\morph21","no","mono","no","18","no","white","no","yes","1080","legacy","20","20","C:/Users/ERP Testing Room/Desktop/Joanna/morph21/subject-118.csv","xpyriment","Jazzy James","3.1.4","0","z","NA","NA","NA","NA","space","z","580","NA","NA","NA","NA","174261","580","2","legacy","1024","2","48000","-16","AB_m21","118","even","NW_S_COMP","LIDARY","1383","250206","247096","248697","175653","NA","NA","NA","NA","248692","247594","NA","246596","NA","246589","248692","1392","250456","NA","NA","247705","1383","1384","248096","246589","1383","247705","250456","morph21_Oliver/Morris","21","13675","21","yes","1280","3"
"300","100","100","649.136363636","649.136363636","black","no","xpyriment","legacy","legacy","0","205","NA","uniform","77812","1000","0.0128514882023","1","undefined","1","0","21","21","21","0","21","21","21","NA","21","21","0","21","NA","21","21","0","21","NA","21","NA","21","0","0","21","21","0","21","21","22","z","12/07/17 15:39:44","The main experiment item","yes","FIN__AB__M21__7%3A10%3A17.osexp","C:\Users\ERP Testing Room\Desktop\Joanna\morph21","no","mono","no","18","no","white","no","yes","1080","legacy","21","21","C:/Users/ERP Testing Room/Desktop/Joanna/morph21/subject-118.csv","xpyriment","Jazzy James","3.1.4","0","z","NA","NA","NA","NA","space","z","606","NA","NA","NA","NA","174261","606","2","legacy","1024","2","48000","-16","AB_m21","118","even","NW_S_SIMP","HEIRIG","1383","253239","251656","248697","175653","NA","NA","NA","NA","253233","252153","NA","251156","NA","251149","253233","1392","253539","NA","NA","252239","1383","1384","252631","251149","1383","252239","253539","morph21_Oliver/Morris","22","14281","22","yes","1280","3"
"250","100","100","648.608695652","648.608695652","black","no","xpyriment","legacy","legacy","0","206","NA","uniform","76346","1000","0.0130982631703","1","undefined","1","0","22","22","22","0","22","22","22","NA","22","22","0","22","NA","22","22","0","22","NA","22","NA","22","0","0","22","22","0","22","22","23","z","12/07/17 15:39:44","The main experiment item","yes","FIN__AB__M21__7%3A10%3A17.osexp","C:\Users\ERP Testing Room\Desktop\Joanna\morph21","no","mono","no","18","no","white","no","yes","1080","legacy","22","22","C:/Users/ERP Testing Room/Desktop/Joanna/morph21/subject-118.csv","xpyriment","Jazzy James","3.1.4","0","z","NA","NA","NA","NA","space","z","637","NA","NA","NA","NA","174261","637","2","legacy","1024","2","48000","-16","AB_m21","118","even","NW_L_SIMP"," DRESSODY","1383","256264","254681","248697","175653","NA","NA","NA","NA","256257","255178","NA","254181","NA","254176","256257","1392","256514","NA","NA","255264","1383","1384","255656","254176","1383","255264","256514","morph21_Oliver/Morris","23","14918","23","yes","1280","21"
"250","100","100","657.458333333","657.458333333","black","no","xpyriment","legacy","legacy","0","207","NA","uniform","69247","1000","0.0144410588184","1","undefined","1","0","23","23","23","0","23","23","23","NA","23","23","0","23","NA","23","23","0","23","NA","23","NA","23","0","0","23","23","0","23","23","24","/","12/07/17 15:39:44","The main experiment item","yes","FIN__AB__M21__7%3A10%3A17.osexp","C:\Users\ERP Testing Room\Desktop\Joanna\morph21","no","mono","no","18","no","white","no","yes","1080","legacy","23","23","C:/Users/ERP Testing Room/Desktop/Joanna/morph21/subject-118.csv","xpyriment","Jazzy James","3.1.4","0","/","NA","NA","NA","NA","space","/","861","NA","NA","NA","NA","174261","861","2","legacy","1024","2","48000","-16","AB_m21","118","even","FILL_W","STARVE","1383","260748","257656","259240","175653","NA","NA","NA","NA","259233","258153","NA","257156","NA","257152","259233","1392","260998","NA","NA","258240","1383","1384","258631","257152","1383","258240","260998","morph21_Oliver/Morris","24","15779","24","yes","1280","15"
"250","100","100","653","653","black","no","xpyriment","legacy","legacy","0","201","NA","uniform","79251","1000","0.0126181373106","1","undefined","1","0","24","24","24","0","24","24","24","NA","24","24","0","24","NA","24","24","0","24","NA","24","NA","24","0","0","24","24","0","24","24","25","/","12/07/17 15:39:44","The main experiment item","yes","FIN__AB__M21__7%3A10%3A17.osexp","C:\Users\ERP Testing Room\Desktop\Joanna\morph21","no","mono","no","18","no","white","no","yes","1080","legacy","24","24","C:/Users/ERP Testing Room/Desktop/Joanna/morph21/subject-118.csv","xpyriment","Jazzy James","3.1.4","0","/","NA","NA","NA","NA","space","/","546","NA","NA","NA","NA","174261","546","2","legacy","1024","2","48000","-16","AB_m21","118","even","CW_S","PLANNER","1383","263731","262148","259240","175653","NA","NA","NA","NA","263722","262645","NA","261648","NA","261638","263722","1392","263981","NA","NA","262731","1383","1384","263123","261638","1383","262731","263981","morph21_Oliver/Morris","25","16325","25","yes","1280","22"
"250","100","100","662.115384615","662.115384615","black","no","xpyriment","legacy","legacy","0","203","NA","uniform","67450","1000","0.0148257968866","1","undefined","1","0","25","25","25","0","25","25","25","NA","25","25","0","25","NA","25","25","0","25","NA","25","NA","25","0","0","25","25","0","25","25","26","z","12/07/17 15:39:44","The main experiment item","yes","FIN__AB__M21__7%3A10%3A17.osexp","C:\Users\ERP Testing Room\Desktop\Joanna\morph21","no","mono","no","18","no","white","no","yes","1080","legacy","25","25","C:/Users/ERP Testing Room/Desktop/Joanna/morph21/subject-118.csv","xpyriment","Jazzy James","3.1.4","0","z","NA","NA","NA","NA","space","z","890","NA","NA","NA","NA","174261","890","2","legacy","1024","2","48000","-16","AB_m21","118","even","NW_S_COMP","TREASONIZE","1383","266708","265123","259240","175653","NA","NA","NA","NA","266699","265620","NA","264623","NA","264617","266699","1392","266958","NA","NA","265707","1383","1384","266099","264617","1383","265707","266958","morph21_Oliver/Morris","26","17215","26","yes","1280","14"
"400","100","100","661.666666667","661.666666667","black","no","xpyriment","legacy","legacy","0","208","NA","uniform","75855","1000","0.0131830466021","1","undefined","1","0","26","26","26","0","26","26","26","NA","26","26","0","26","NA","26","26","0","26","NA","26","NA","26","0","0","26","26","0","26","26","27","z","12/07/17 15:39:44","The main experiment item","yes","FIN__AB__M21__7%3A10%3A17.osexp","C:\Users\ERP Testing Room\Desktop\Joanna\morph21","no","mono","no","18","no","white","no","yes","1080","legacy","26","26","C:/Users/ERP Testing Room/Desktop/Joanna/morph21/subject-118.csv","xpyriment","Jazzy James","3.1.4","0","z","NA","NA","NA","NA","space","z","650","NA","NA","NA","NA","174261","650","2","legacy","1024","2","48000","-16","AB_m21","118","even","FILL_NW","DROES","1383","271199","268099","269691","175653","NA","NA","NA","NA","269685","268596","NA","267599","NA","267593","269685","1392","271600","NA","NA","268691","1383","1384","269083","267593","1383","268691","271600","morph21_Oliver/Morris","27","17865","27","yes","1280","17"
"400","100","100","659.142857143","659.142857143","black","no","xpyriment","legacy","legacy","0","201","NA","uniform","78205","1000","0.012786906208","1","undefined","1","0","27","27","27","0","27","27","27","NA","27","27","0","27","NA","27","27","0","27","NA","27","NA","27","0","0","27","27","0","27","27","28","/","12/07/17 15:39:44","The main experiment item","yes","FIN__AB__M21__7%3A10%3A17.osexp","C:\Users\ERP Testing Room\Desktop\Joanna\morph21","no","mono","no","18","no","white","no","yes","1080","legacy","27","27","C:/Users/ERP Testing Room/Desktop/Joanna/morph21/subject-118.csv","xpyriment","Jazzy James","3.1.4","0","/","NA","NA","NA","NA","space","/","591","NA","NA","NA","NA","174261","591","2","legacy","1024","2","48000","-16","AB_m21","118","even","CW_S","AVOIDABLE","1383","274366","272766","269691","175653","NA","NA","NA","NA","274360","273263","NA","272266","NA","272261","274360","1392","274766","NA","NA","273366","1383","1384","273758","272261","1383","273366","274766","morph21_Oliver/Morris","28","18456","28","yes","1280","2"
"350","100","100","658.24137931","658.24137931","black","no","xpyriment","legacy","legacy","0","203","NA","uniform","73579","1000","0.0135908343413","1","undefined","1","0","28","28","28","0","28","28","28","NA","28","28","0","28","NA","28","28","0","28","NA","28","NA","28","0","0","28","28","0","28","28","29","z","12/07/17 15:39:44","The main experiment item","yes","FIN__AB__M21__7%3A10%3A17.osexp","C:\Users\ERP Testing Room\Desktop\Joanna\morph21","no","mono","no","18","no","white","no","yes","1080","legacy","28","28","C:/Users/ERP Testing Room/Desktop/Joanna/morph21/subject-118.csv","xpyriment","Jazzy James","3.1.4","0","z","NA","NA","NA","NA","space","z","633","NA","NA","NA","NA","174261","633","2","legacy","1024","2","48000","-16","AB_m21","118","even","NW_S_COMP","HUMIDOUS","1383","277508","275908","269691","175653","NA","NA","NA","NA","277501","276405","NA","275408","NA","275398","277501","1392","277858","NA","NA","276508","1383","1384","276900","275398","1383","276508","277858","morph21_Oliver/Morris","29","19089","29","yes","1280","25"
"400","100","100","658.833333333","658.833333333","black","no","xpyriment","legacy","legacy","0","208","NA","uniform","72713","1000","0.0137526989672","1","undefined","1","0","29","29","29","0","29","29","29","NA","29","29","0","29","NA","29","29","0","29","NA","29","NA","29","0","0","29","29","0","29","29","30","z","12/07/17 15:39:44","The main experiment item","yes","FIN__AB__M21__7%3A10%3A17.osexp","C:\Users\ERP Testing Room\Desktop\Joanna\morph21","no","mono","no","18","no","white","no","yes","1080","legacy","29","29","C:/Users/ERP Testing Room/Desktop/Joanna/morph21/subject-118.csv","xpyriment","Jazzy James","3.1.4","0","z","NA","NA","NA","NA","space","z","676","NA","NA","NA","NA","174261","676","2","legacy","1024","2","48000","-16","AB_m21","118","even","FILL_NW","HEND","1383","282125","279008","280617","175653","NA","NA","NA","NA","280609","279505","NA","278508","NA","278504","280609","1392","282525","NA","NA","279617","1383","1384","280008","278504","1383","279617","282525","morph21_Oliver/Morris","30","19765","30","yes","1280","28"
"350","100","100","661.35483871","661.35483871","black","no","xpyriment","legacy","legacy","0","201","NA","uniform","72679","1000","0.0137591326243","1","undefined","1","0","30","30","30","0","30","30","30","NA","30","30","0","30","NA","30","30","0","30","NA","30","NA","30","0","0","30","30","0","30","30","31","/","12/07/17 15:39:44","The main experiment item","yes","FIN__AB__M21__7%3A10%3A17.osexp","C:\Users\ERP Testing Room\Desktop\Joanna\morph21","no","mono","no","18","no","white","no","yes","1080","legacy","30","30","C:/Users/ERP Testing Room/Desktop/Joanna/morph21/subject-118.csv","xpyriment","Jazzy James","3.1.4","0","/","NA","NA","NA","NA","space","/","737","NA","NA","NA","NA","174261","737","2","legacy","1024","2","48000","-16","AB_m21","118","even","CW_S","RICHNESS","1383","285276","283693","280617","175653","NA","NA","NA","NA","285268","284190","NA","283192","NA","283186","285268","1392","285626","NA","NA","284276","1383","1384","284668","283186","1383","284276","285626","morph21_Oliver/Morris","31","20502","31","yes","1280","45"
"200","100","100","660.125","660.125","black","no","xpyriment","legacy","legacy","0","208","NA","uniform","77141","1000","0.0129632750418","1","undefined","1","0","31","31","31","0","31","31","31","NA","31","31","0","31","NA","31","31","0","31","NA","31","NA","31","0","0","31","31","0","31","31","32","z","12/07/17 15:39:44","The main experiment item","yes","FIN__AB__M21__7%3A10%3A17.osexp","C:\Users\ERP Testing Room\Desktop\Joanna\morph21","no","mono","no","18","no","white","no","yes","1080","legacy","31","31","C:/Users/ERP Testing Room/Desktop/Joanna/morph21/subject-118.csv","xpyriment","Jazzy James","3.1.4","0","z","NA","NA","NA","NA","space","z","622","NA","NA","NA","NA","174261","622","2","legacy","1024","2","48000","-16","AB_m21","118","even","FILL_NW","BLAYS","1383","288351","286768","280617","175653","NA","NA","NA","NA","288348","287265","NA","286268","NA","286261","288348","1392","288551","NA","NA","287351","1383","1384","287751","286261","1383","287351","288551","morph21_Oliver/Morris","32","21124","32","yes","1280","8"
"400","100","100","658.333333333","658.333333333","black","no","xpyriment","legacy","legacy","0","208","NA","uniform","73286","1000","0.013645170974","1","undefined","1","0","32","32","32","0","32","32","32","NA","32","32","0","32","NA","32","32","0","32","NA","32","NA","32","0","0","32","32","0","32","32","33","z","12/07/17 15:39:44","The main experiment item","yes","FIN__AB__M21__7%3A10%3A17.osexp","C:\Users\ERP Testing Room\Desktop\Joanna\morph21","no","mono","no","18","no","white","no","yes","1080","legacy","32","32","C:/Users/ERP Testing Room/Desktop/Joanna/morph21/subject-118.csv","xpyriment","Jazzy James","3.1.4","0","z","NA","NA","NA","NA","space","z","601","NA","NA","NA","NA","174261","601","2","legacy","1024","2","48000","-16","AB_m21","118","even","FILL_NW","SOISE","1383","292776","289685","291268","175653","NA","NA","NA","NA","291260","290182","NA","289185","NA","289179","291260","1392","293177","NA","NA","290268","1383","1384","290660","289179","1383","290268","293177","morph21_Oliver/Morris","33","21725","33","yes","1280","43"
"200","100","100","657.735294118","657.735294118","black","no","xpyriment","legacy","legacy","0","208","NA","uniform","76824","1000","0.0130167655941","1","undefined","1","0","33","33","33","0","33","33","33","NA","33","33","0","33","NA","33","33","0","33","NA","33","NA","33","0","0","33","33","0","33","33","34","z","12/07/17 15:39:44","The main experiment item","yes","FIN__AB__M21__7%3A10%3A17.osexp","C:\Users\ERP Testing Room\Desktop\Joanna\morph21","no","mono","no","18","no","white","no","yes","1080","legacy","33","33","C:/Users/ERP Testing Room/Desktop/Joanna/morph21/subject-118.csv","xpyriment","Jazzy James","3.1.4","0","z","NA","NA","NA","NA","space","z","638","NA","NA","NA","NA","174261","638","2","legacy","1024","2","48000","-16","AB_m21","118","even","FILL_NW","TUEER","1383","295927","294343","291268","175653","NA","NA","NA","NA","295919","294840","NA","293843","NA","293839","295919","1392","296127","NA","NA","294927","1383","1384","295318","293839","1383","294927","296127","morph21_Oliver/Morris","34","22363","34","yes","1280","44"
"350","100","100","654.971428571","654.971428571","black","no","xpyriment","legacy","legacy","0","208","NA","uniform","78832","1000","0.0126852039781","1","undefined","1","0","34","34","34","0","34","34","34","NA","34","34","0","34","NA","34","34","0","34","NA","34","NA","34","0","0","34","34","0","34","34","35","z","12/07/17 15:39:44","The main experiment item","yes","FIN__AB__M21__7%3A10%3A17.osexp","C:\Users\ERP Testing Room\Desktop\Joanna\morph21","no","mono","no","18","no","white","no","yes","1080","legacy","34","34","C:/Users/ERP Testing Room/Desktop/Joanna/morph21/subject-118.csv","xpyriment","Jazzy James","3.1.4","0","z","NA","NA","NA","NA","space","z","561","NA","NA","NA","NA","174261","561","2","legacy","1024","2","48000","-16","AB_m21","118","even","FILL_NW","HEAS","1383","298852","297268","291268","175653","NA","NA","NA","NA","298848","297765","NA","296768","NA","296758","298848","1392","299202","NA","NA","297852","1383","1384","298252","296758","1383","297852","299202","morph21_Oliver/Morris","35","22924","35","yes","1280","26"
"300","100","100","659.111111111","659.111111111","black","no","xpyriment","legacy","legacy","0","207","NA","uniform","69063","1000","0.0144795331799","1","undefined","1","0","35","35","35","0","35","35","35","NA","35","35","0","35","NA","35","35","0","35","NA","35","NA","35","0","0","35","35","0","35","35","36","/","12/07/17 15:39:44","The main experiment item","yes","FIN__AB__M21__7%3A10%3A17.osexp","C:\Users\ERP Testing Room\Desktop\Joanna\morph21","no","mono","no","18","no","white","no","yes","1080","legacy","35","35","C:/Users/ERP Testing Room/Desktop/Joanna/morph21/subject-118.csv","xpyriment","Jazzy James","3.1.4","0","/","NA","NA","NA","NA","space","/","804","NA","NA","NA","NA","174261","804","2","legacy","1024","2","48000","-16","AB_m21","118","even","FILL_W","MOURN","1383","303461","300368","301953","175653","NA","NA","NA","NA","301944","300866","NA","299868","NA","299858","301944","1392","303761","NA","NA","300953","1383","1384","301344","299858","1383","300953","303761","morph21_Oliver/Morris","36","23728","36","yes","1280","26"
"300","100","100","656.783783784","656.783783784","black","no","xpyriment","legacy","legacy","0","202","NA","uniform","75640","1000","0.0132205182443","1","undefined","1","0","36","36","36","0","36","36","36","NA","36","36","0","36","NA","36","36","0","36","NA","36","NA","36","0","0","36","36","0","36","36","37","/","12/07/17 15:39:44","The main experiment item","yes","FIN__AB__M21__7%3A10%3A17.osexp","C:\Users\ERP Testing Room\Desktop\Joanna\morph21","no","mono","no","18","no","white","no","yes","1080","legacy","36","36","C:/Users/ERP Testing Room/Desktop/Joanna/morph21/subject-118.csv","xpyriment","Jazzy James","3.1.4","0","/","NA","NA","NA","NA","space","/","573","NA","NA","NA","NA","174261","573","2","legacy","1024","2","48000","-16","AB_m21","118","even","CW_L","DOUBTFUL","1383","306528","304928","301953","175653","NA","NA","NA","NA","306522","305425","NA","304428","NA","304423","306522","1392","306828","NA","NA","305528","1383","1384","305920","304423","1383","305528","306828","morph21_Oliver/Morris","37","24301","37","yes","1280","21"
"350","100","100","658.552631579","658.552631579","black","no","xpyriment","legacy","legacy","0","203","NA","uniform","73311","1000","0.0136405177941","1","undefined","1","0","37","37","37","0","37","37","37","NA","37","37","0","37","NA","37","37","0","37","NA","37","NA","37","0","0","37","37","0","37","37","38","z","12/07/17 15:39:44","The main experiment item","yes","FIN__AB__M21__7%3A10%3A17.osexp","C:\Users\ERP Testing Room\Desktop\Joanna\morph21","no","mono","no","18","no","white","no","yes","1080","legacy","37","37","C:/Users/ERP Testing Room/Desktop/Joanna/morph21/subject-118.csv","xpyriment","Jazzy James","3.1.4","0","z","NA","NA","NA","NA","space","z","724","NA","NA","NA","NA","174261","724","2","legacy","1024","2","48000","-16","AB_m21","118","even","NW_S_COMP","PRINCEMENT","1383","309561","307970","301953","175653","NA","NA","NA","NA","309555","308467","NA","307470","NA","307464","309555","1392","309912","NA","NA","308561","1383","1384","308953","307464","1383","308561","309912","morph21_Oliver/Morris","38","25025","38","yes","1280","17"
"400","100","100","657.871794872","657.871794872","black","no","xpyriment","legacy","legacy","0","208","NA","uniform","72239","1000","0.0138429380252","1","undefined","1","0","38","38","38","0","38","38","38","NA","38","38","0","38","NA","38","38","0","38","NA","38","NA","38","0","0","38","38","0","38","38","39","z","12/07/17 15:39:44","The main experiment item","yes","FIN__AB__M21__7%3A10%3A17.osexp","C:\Users\ERP Testing Room\Desktop\Joanna\morph21","no","mono","no","18","no","white","no","yes","1080","legacy","38","38","C:/Users/ERP Testing Room/Desktop/Joanna/morph21/subject-118.csv","xpyriment","Jazzy James","3.1.4","0","z","NA","NA","NA","NA","space","z","632","NA","NA","NA","NA","174261","632","2","legacy","1024","2","48000","-16","AB_m21","118","even","FILL_NW","BALFS","1383","314145","311053","312637","175653","NA","NA","NA","NA","312629","311550","NA","310553","NA","310548","312629","1392","314545","NA","NA","311637","1383","1384","312028","310548","1383","311637","314545","morph21_Oliver/Morris","39","25657","39","yes","1280","2"
"300","100","100","661.95","661.95","black","no","xpyriment","legacy","legacy","0","206","NA","uniform","70078","1000","0.0142698136362","1","undefined","1","0","39","39","39","0","39","39","39","NA","39","39","0","39","NA","39","39","0","39","NA","39","NA","39","0","0","39","39","0","39","39","40","z","12/07/17 15:39:44","The main experiment item","yes","FIN__AB__M21__7%3A10%3A17.osexp","C:\Users\ERP Testing Room\Desktop\Joanna\morph21","no","mono","no","18","no","white","no","yes","1080","legacy","39","39","C:/Users/ERP Testing Room/Desktop/Joanna/morph21/subject-118.csv","xpyriment","Jazzy James","3.1.4","0","z","NA","NA","NA","NA","space","z","821","NA","NA","NA","NA","174261","821","2","legacy","1024","2","48000","-16","AB_m21","118","even","NW_L_SIMP","BEANITH","1383","317287","315703","312637","175653","NA","NA","NA","NA","317280","316201","NA","315203","NA","315199","317280","1392","317587","NA","NA","316287","1383","1384","316678","315199","1383","316287","317587","morph21_Oliver/Morris","40","26478","40","yes","1280","8"
"300","100","100","661.902439024","661.902439024","black","no","xpyriment","legacy","legacy","0","204","NA","uniform","70447","1000","0.0141950686332","1","undefined","1","0","40","40","40","0","40","40","40","NA","40","40","0","40","NA","40","40","0","40","NA","40","NA","40","0","0","40","40","0","40","40","41","z","12/07/17 15:39:44","The main experiment item","yes","FIN__AB__M21__7%3A10%3A17.osexp","C:\Users\ERP Testing Room\Desktop\Joanna\morph21","no","mono","no","18","no","white","no","yes","1080","legacy","40","40","C:/Users/ERP Testing Room/Desktop/Joanna/morph21/subject-118.csv","xpyriment","Jazzy James","3.1.4","0","z","NA","NA","NA","NA","space","z","660","NA","NA","NA","NA","174261","660","2","legacy","1024","2","48000","-16","AB_m21","118","even","NW_L_COMP","FELLOWOUS","1383","320313","318730","312637","175653","NA","NA","NA","NA","320305","319227","NA","318230","NA","318219","320305","1392","320613","NA","NA","319313","1383","1384","319705","318219","1383","319313","320613","morph21_Oliver/Morris","41","27138","41","yes","1280","17"
"200","100","100","659.357142857","659.357142857","black","no","xpyriment","legacy","legacy","0","205","NA","uniform","79479","1000","0.0125819398835","1","undefined","1","0","41","41","41","0","41","41","41","NA","41","41","0","41","NA","41","41","0","41","NA","41","NA","41","0","0","41","41","0","41","41","42","z","12/07/17 15:39:44","The main experiment item","yes","FIN__AB__M21__7%3A10%3A17.osexp","C:\Users\ERP Testing Room\Desktop\Joanna\morph21","no","mono","no","18","no","white","no","yes","1080","legacy","41","41","C:/Users/ERP Testing Room/Desktop/Joanna/morph21/subject-118.csv","xpyriment","Jazzy James","3.1.4","0","z","NA","NA","NA","NA","space","z","555","NA","NA","NA","NA","174261","555","2","legacy","1024","2","48000","-16","AB_m21","118","even","NW_S_SIMP","JAWLA","1383","324855","321763","323346","175653","NA","NA","NA","NA","323339","322260","NA","321263","NA","321256","323339","1392","325055","NA","NA","322346","1383","1384","322738","321256","1383","322346","325055","morph21_Oliver/Morris","42","27693","42","yes","1280","7"
"250","100","100","661.488372093","661.488372093","black","no","xpyriment","legacy","legacy","0","208","NA","uniform","68901","1000","0.0145135774517","1","undefined","1","0","42","42","42","0","42","42","42","NA","42","42","0","42","NA","42","42","0","42","NA","42","NA","42","0","0","42","42","0","42","42","43","z","12/07/17 15:39:44","The main experiment item","yes","FIN__AB__M21__7%3A10%3A17.osexp","C:\Users\ERP Testing Room\Desktop\Joanna\morph21","no","mono","no","18","no","white","no","yes","1080","legacy","42","42","C:/Users/ERP Testing Room/Desktop/Joanna/morph21/subject-118.csv","xpyriment","Jazzy James","3.1.4","0","z","NA","NA","NA","NA","space","z","751","NA","NA","NA","NA","174261","751","2","legacy","1024","2","48000","-16","AB_m21","118","even","FILL_NW","DOWED","1383","327822","326213","323346","175653","NA","NA","NA","NA","327814","326710","NA","325713","NA","325707","327814","1392","328072","NA","NA","326822","1383","1384","327213","325707","1383","326822","328072","morph21_Oliver/Morris","43","28444","43","yes","1280","16"
"250","100","100","658.818181818","658.818181818","black","no","xpyriment","legacy","legacy","0","207","NA","uniform","78179","1000","0.0127911587511","1","undefined","1","0","43","43","43","0","43","43","43","NA","43","43","0","43","NA","43","43","0","43","NA","43","NA","43","0","0","43","43","0","43","43","44","/","12/07/17 15:39:44","The main experiment item","yes","FIN__AB__M21__7%3A10%3A17.osexp","C:\Users\ERP Testing Room\Desktop\Joanna\morph21","no","mono","no","18","no","white","no","yes","1080","legacy","43","43","C:/Users/ERP Testing Room/Desktop/Joanna/morph21/subject-118.csv","xpyriment","Jazzy James","3.1.4","0","/","NA","NA","NA","NA","space","/","544","NA","NA","NA","NA","174261","544","2","legacy","1024","2","48000","-16","AB_m21","118","even","FILL_W","SOUGHT","1383","330813","329230","323346","175653","NA","NA","NA","NA","330804","329727","NA","328730","NA","328721","330804","1392","331063","NA","NA","329813","1383","1384","330205","328721","1383","329813","331063","morph21_Oliver/Morris","44","28988","44","yes","1280","40"
"400","100","100","657.688888889","657.688888889","black","no","xpyriment","legacy","legacy","0","202","NA","uniform","62451","1000","0.0160125538422","1","undefined","1","0","44","44","44","0","44","44","44","NA","44","44","0","44","NA","44","44","0","44","NA","44","NA","44","0","0","44","44","0","44","44","45","/","12/07/17 15:39:44","The main experiment item","yes","FIN__AB__M21__7%3A10%3A17.osexp","C:\Users\ERP Testing Room\Desktop\Joanna\morph21","no","mono","no","18","no","white","no","yes","1080","legacy","44","44","C:/Users/ERP Testing Room/Desktop/Joanna/morph21/subject-118.csv","xpyriment","Jazzy James","3.1.4","0","/","NA","NA","NA","NA","space","/","608","NA","NA","NA","NA","174261","608","2","legacy","1024","2","48000","-16","AB_m21","118","even","CW_L","FAITHFUL","1383","335297","332205","333789","175653","NA","NA","NA","NA","333781","332702","NA","331705","NA","331702","333781","1392","335697","NA","NA","332789","1383","1384","333180","331702","1383","332789","335697","morph21_Oliver/Morris","45","29596","45","yes","1280","20"
"300","97.8260869565","97.8260869565","654.804347826","654.804347826","black","no","xpyriment","legacy","legacy","0","202","NA","uniform","72212","1000","0.0138481138869","0","undefined","0","0","45","45","45","0","45","45","45","NA","45","45","0","45","NA","45","45","0","45","NA","45","NA","45","0","0","45","45","0","45","45","46","/","12/07/17 15:39:44","The main experiment item","yes","FIN__AB__M21__7%3A10%3A17.osexp","C:\Users\ERP Testing Room\Desktop\Joanna\morph21","no","mono","no","18","no","white","no","yes","1080","legacy","45","45","C:/Users/ERP Testing Room/Desktop/Joanna/morph21/subject-118.csv","xpyriment","Jazzy James","3.1.4","0","z","NA","NA","NA","NA","space","z","525","NA","NA","NA","NA","174261","525","2","legacy","1024","2","48000","-16","AB_m21","118","even","CW_L","DAMPISH","1383","338456","336856","333789","175653","NA","NA","NA","NA","333781","337353","NA","336356","NA","336352","338452","1392","338756","NA","NA","337456","1383","1384","337856","336352","1383","337456","338756","morph21_Oliver/Morris","45","30121","46","yes","1280","28"
"200","97.8723404255","97.8723404255","651.319148936","651.319148936","black","no","xpyriment","legacy","legacy","0","207","NA","uniform","65870","1000","0.0151814179444","1","undefined","1","0","46","46","46","0","46","46","46","NA","46","46","0","46","NA","46","46","0","46","NA","46","NA","46","0","0","46","46","0","46","46","47","/","12/07/17 15:39:44","The main experiment item","yes","FIN__AB__M21__7%3A10%3A17.osexp","C:\Users\ERP Testing Room\Desktop\Joanna\morph21","no","mono","no","18","no","white","no","yes","1080","legacy","46","46","C:/Users/ERP Testing Room/Desktop/Joanna/morph21/subject-118.csv","xpyriment","Jazzy James","3.1.4","0","/","NA","NA","NA","NA","space","/","491","NA","NA","NA","NA","174261","491","2","legacy","1024","2","48000","-16","AB_m21","118","even","FILL_W","SAVE","1383","341498","339915","333789","175653","NA","NA","NA","NA","341491","340412","NA","339407","NA","339402","341491","1392","341698","NA","NA","340498","1383","1384","340890","339402","1383","340498","341698","morph21_Oliver/Morris","46","30612","47","yes","1280","46"
"350","97.9166666667","97.9166666667","649.020833333","649.020833333","black","no","xpyriment","legacy","legacy","0","207","NA","uniform","72515","1000","0.013790250293","1","undefined","1","0","47","47","47","0","47","47","47","NA","47","47","0","47","NA","47","47","0","47","NA","47","NA","47","0","0","47","47","0","47","47","48","/","12/07/17 15:39:44","The main experiment item","yes","FIN__AB__M21__7%3A10%3A17.osexp","C:\Users\ERP Testing Room\Desktop\Joanna\morph21","no","mono","no","18","no","white","no","yes","1080","legacy","47","47","C:/Users/ERP Testing Room/Desktop/Joanna/morph21/subject-118.csv","xpyriment","Jazzy James","3.1.4","0","/","NA","NA","NA","NA","space","/","541","NA","NA","NA","NA","174261","541","2","legacy","1024","2","48000","-16","AB_m21","118","even","FILL_W","BRISK","1383","345940","342848","344432","175653","NA","NA","NA","NA","344423","343345","NA","342348","NA","342342","344423","1392","346290","NA","NA","343432","1383","1384","343823","342342","1383","343432","346290","morph21_Oliver/Morris","47","31153","48","yes","1280","8"
"350","97.9591836735","97.9591836735","648.265306122","648.265306122","black","no","xpyriment","legacy","legacy","0","202","NA","uniform","69838","1000","0.0143188522008","1","undefined","1","0","48","48","48","0","48","48","48","NA","48","48","0","48","NA","48","48","0","48","NA","48","NA","48","0","0","48","48","0","48","48","49","/","12/07/17 15:39:44","The main experiment item","yes","FIN__AB__M21__7%3A10%3A17.osexp","C:\Users\ERP Testing Room\Desktop\Joanna\morph21","no","mono","no","18","no","white","no","yes","1080","legacy","48","48","C:/Users/ERP Testing Room/Desktop/Joanna/morph21/subject-118.csv","xpyriment","Jazzy James","3.1.4","0","/","NA","NA","NA","NA","space","/","612","NA","NA","NA","NA","174261","612","2","legacy","1024","2","48000","-16","AB_m21","118","even","CW_L","KICKING","1383","349040","347457","344432","175653","NA","NA","NA","NA","349037","347954","NA","346957","NA","346947","349037","1392","349390","NA","NA","348049","1383","1384","348440","346947","1383","348049","349390","morph21_Oliver/Morris","48","31765","49","yes","1280","23"
"350","98","98","650.86","650.86","black","no","xpyriment","legacy","legacy","0","202","NA","uniform","62494","1000","0.0160015361475","1","undefined","1","0","49","49","49","0","49","49","49","NA","49","49","0","49","NA","49","49","0","49","NA","49","NA","49","0","0","49","49","0","49","49","50","/","12/07/17 15:39:44","The main experiment item","yes","FIN__AB__M21__7%3A10%3A17.osexp","C:\Users\ERP Testing Room\Desktop\Joanna\morph21","no","mono","no","18","no","white","no","yes","1080","legacy","49","49","C:/Users/ERP Testing Room/Desktop/Joanna/morph21/subject-118.csv","xpyriment","Jazzy James","3.1.4","0","/","NA","NA","NA","NA","space","/","778","NA","NA","NA","NA","174261","778","2","legacy","1024","2","48000","-16","AB_m21","118","even","CW_L","BOMBER","1383","352115","350532","344432","175653","NA","NA","NA","NA","352107","351029","NA","350032","NA","350028","352107","1392","352465","NA","NA","351115","1383","1384","351507","350028","1383","351115","352465","morph21_Oliver/Morris","49","32543","50","yes","1280","7"
"400","96.0784313725","96.0784313725","648.862745098","648.862745098","black","no","xpyriment","legacy","legacy","0","207","NA","uniform","68573","1000","0.0145829991396","0","undefined","0","0","50","50","50","0","50","50","50","NA","50","50","0","50","NA","50","50","0","50","NA","50","NA","50","0","0","50","50","0","50","50","51","/","12/07/17 15:39:44","The main experiment item","yes","FIN__AB__M21__7%3A10%3A17.osexp","C:\Users\ERP Testing Room\Desktop\Joanna\morph21","no","mono","no","18","no","white","no","yes","1080","legacy","50","50","C:/Users/ERP Testing Room/Desktop/Joanna/morph21/subject-118.csv","xpyriment","Jazzy James","3.1.4","0","z","NA","NA","NA","NA","space","z","549","NA","NA","NA","NA","174261","549","2","legacy","1024","2","48000","-16","AB_m21","118","even","FILL_W","LITHE","1383","356700","353608","355191","175653","NA","NA","NA","NA","352107","354105","NA","353107","NA","353097","355189","1392","357100","NA","NA","354192","1383","1384","354591","353097","1383","354191","357100","morph21_Oliver/Morris","49","33092","51","yes","1280","23"
"200","96.1538461538","96.1538461538","651.25","651.25","black","no","xpyriment","legacy","legacy","0","205","NA","uniform","71587","1000","0.0139690167209","1","undefined","1","0","51","51","51","0","51","51","51","NA","51","51","0","51","NA","51","51","0","51","NA","51","NA","51","0","0","51","51","0","51","51","52","z","12/07/17 15:39:44","The main experiment item","yes","FIN__AB__M21__7%3A10%3A17.osexp","C:\Users\ERP Testing Room\Desktop\Joanna\morph21","no","mono","no","18","no","white","no","yes","1080","legacy","51","51","C:/Users/ERP Testing Room/Desktop/Joanna/morph21/subject-118.csv","xpyriment","Jazzy James","3.1.4","0","z","NA","NA","NA","NA","space","z","773","NA","NA","NA","NA","174261","773","2","legacy","1024","2","48000","-16","AB_m21","118","even","NW_S_SIMP","THRILLANGE","1383","359992","358408","355191","175653","NA","NA","NA","NA","359988","358905","NA","357908","NA","357903","359988","1392","360192","NA","NA","358992","1383","1384","359392","357903","1383","358992","360192","morph21_Oliver/Morris","50","33865","52","yes","1280","22"
"250","96.2264150943","96.2264150943","648.905660377","648.905660377","black","no","xpyriment","legacy","legacy","0","202","NA","uniform","71827","1000","0.0139223411809","1","undefined","1","0","52","52","52","0","52","52","52","NA","52","52","0","52","NA","52","52","0","52","NA","52","NA","52","0","0","52","52","0","52","52","53","/","12/07/17 15:39:44","The main experiment item","yes","FIN__AB__M21__7%3A10%3A17.osexp","C:\Users\ERP Testing Room\Desktop\Joanna\morph21","no","mono","no","18","no","white","no","yes","1080","legacy","52","52","C:/Users/ERP Testing Room/Desktop/Joanna/morph21/subject-118.csv","xpyriment","Jazzy James","3.1.4","0","/","NA","NA","NA","NA","space","/","527","NA","NA","NA","NA","174261","527","2","legacy","1024","2","48000","-16","AB_m21","118","even","CW_L","CREAMY","1383","362950","361342","355191","175653","NA","NA","NA","NA","362945","361839","NA","360842","NA","360836","362945","1392","363200","NA","NA","361950","1383","1384","362342","360836","1383","361950","363200","morph21_Oliver/Morris","51","34392","53","yes","1280","49"
"250","96.2962962963","96.2962962963","647.981481481","647.981481481","black","no","xpyriment","legacy","legacy","0","204","NA","uniform","69599","1000","0.0143680225291","1","undefined","1","0","53","53","53","0","53","53","53","NA","53","53","0","53","NA","53","53","0","53","NA","53","NA","53","0","0","53","53","0","53","53","54","z","12/07/17 15:39:44","The main experiment item","yes","FIN__AB__M21__7%3A10%3A17.osexp","C:\Users\ERP Testing Room\Desktop\Joanna\morph21","no","mono","no","18","no","white","no","yes","1080","legacy","53","53","C:/Users/ERP Testing Room/Desktop/Joanna/morph21/subject-118.csv","xpyriment","Jazzy James","3.1.4","0","z","NA","NA","NA","NA","space","z","599","NA","NA","NA","NA","174261","599","2","legacy","1024","2","48000","-16","AB_m21","118","even","NW_L_COMP","STIRANCE","1383","367459","364367","365950","175653","NA","NA","NA","NA","365944","364864","NA","363867","NA","363858","365944","1392","367709","NA","NA","364950","1383","1384","365342","363858","1383","364950","367709","morph21_Oliver/Morris","52","34991","54","yes","1280","1"
"200","96.3636363636","96.3636363636","648","648","black","no","xpyriment","legacy","legacy","0","201","NA","uniform","75488","1000","0.0132471386181","1","undefined","1","0","54","54","54","0","54","54","54","NA","54","54","0","54","NA","54","54","0","54","NA","54","NA","54","0","0","54","54","0","54","54","55","/","12/07/17 15:39:44","The main experiment item","yes","FIN__AB__M21__7%3A10%3A17.osexp","C:\Users\ERP Testing Room\Desktop\Joanna\morph21","no","mono","no","18","no","white","no","yes","1080","legacy","54","54","C:/Users/ERP Testing Room/Desktop/Joanna/morph21/subject-118.csv","xpyriment","Jazzy James","3.1.4","0","/","NA","NA","NA","NA","space","/","649","NA","NA","NA","NA","174261","649","2","legacy","1024","2","48000","-16","AB_m21","118","even","CW_S","AMUSEMENT","1383","370492","368892","365950","175653","NA","NA","NA","NA","370483","369389","NA","368392","NA","368385","370483","1392","370692","NA","NA","369492","1383","1384","369884","368385","1383","369492","370692","morph21_Oliver/Morris","53","35640","55","yes","1280","38"
"300","96.4285714286","96.4285714286","646.214285714","646.214285714","black","no","xpyriment","legacy","legacy","0","207","NA","uniform","79088","1000","0.0126441432329","1","undefined","1","0","55","55","55","0","55","55","55","NA","55","55","0","55","NA","55","55","0","55","NA","55","NA","55","0","0","55","55","0","55","55","56","/","12/07/17 15:39:44","The main experiment item","yes","FIN__AB__M21__7%3A10%3A17.osexp","C:\Users\ERP Testing Room\Desktop\Joanna\morph21","no","mono","no","18","no","white","no","yes","1080","legacy","55","55","C:/Users/ERP Testing Room/Desktop/Joanna/morph21/subject-118.csv","xpyriment","Jazzy James","3.1.4","0","/","NA","NA","NA","NA","space","/","548","NA","NA","NA","NA","174261","548","2","legacy","1024","2","48000","-16","AB_m21","118","even","FILL_W","SICK","1383","373593","372010","365950","175653","NA","NA","NA","NA","373585","372507","NA","371510","NA","371504","373585","1392","373894","NA","NA","372593","1383","1384","372985","371504","1383","372593","373894","morph21_Oliver/Morris","54","36188","56","yes","1280","36"
"350","96.4912280702","96.4912280702","646.122807018","646.122807018","black","no","xpyriment","legacy","legacy","0","208","NA","uniform","76441","1000","0.0130819847987","1","undefined","1","0","56","56","56","0","56","56","56","NA","56","56","0","56","NA","56","56","0","56","NA","56","NA","56","0","0","56","56","0","56","56","57","z","12/07/17 15:39:44","The main experiment item","yes","FIN__AB__M21__7%3A10%3A17.osexp","C:\Users\ERP Testing Room\Desktop\Joanna\morph21","no","mono","no","18","no","white","no","yes","1080","legacy","56","56","C:/Users/ERP Testing Room/Desktop/Joanna/morph21/subject-118.csv","xpyriment","Jazzy James","3.1.4","0","z","NA","NA","NA","NA","space","z","641","NA","NA","NA","NA","174261","641","2","legacy","1024","2","48000","-16","AB_m21","118","even","FILL_NW","JADS","1383","378160","375035","376652","175653","NA","NA","NA","NA","376644","375532","NA","374535","NA","374524","376644","1392","378510","NA","NA","375652","1383","1384","376043","374524","1383","375652","378510","morph21_Oliver/Morris","55","36829","57","yes","1280","31"
"250","96.5517241379","96.5517241379","643.672413793","643.672413793","black","no","xpyriment","legacy","legacy","0","202","NA","uniform","72790","1000","0.0137381508449","1","undefined","1","0","57","57","57","0","57","57","57","NA","57","57","0","57","NA","57","57","0","57","NA","57","NA","57","0","0","57","57","0","57","57","58","/","12/07/17 15:39:44","The main experiment item","yes","FIN__AB__M21__7%3A10%3A17.osexp","C:\Users\ERP Testing Room\Desktop\Joanna\morph21","no","mono","no","18","no","white","no","yes","1080","legacy","57","57","C:/Users/ERP Testing Room/Desktop/Joanna/morph21/subject-118.csv","xpyriment","Jazzy James","3.1.4","0","/","NA","NA","NA","NA","space","/","504","NA","NA","NA","NA","174261","504","2","legacy","1024","2","48000","-16","AB_m21","118","even","CW_L","PUSHER","1383","381269","379685","376652","175653","NA","NA","NA","NA","381260","380182","NA","379185","NA","379181","381260","1392","381519","NA","NA","380269","1383","1384","380660","379180","1383","380269","381519","morph21_Oliver/Morris","56","37333","58","yes","1280","13"
"300","96.6101694915","96.6101694915","645.389830508","645.389830508","black","no","xpyriment","legacy","legacy","0","205","NA","uniform","72332","1000","0.0138251396339","1","undefined","1","0","58","58","58","0","58","58","58","NA","58","58","0","58","NA","58","58","0","58","NA","58","NA","58","0","0","58","58","0","58","58","59","z","12/07/17 15:39:44","The main experiment item","yes","FIN__AB__M21__7%3A10%3A17.osexp","C:\Users\ERP Testing Room\Desktop\Joanna\morph21","no","mono","no","18","no","white","no","yes","1080","legacy","58","58","C:/Users/ERP Testing Room/Desktop/Joanna/morph21/subject-118.csv","xpyriment","Jazzy James","3.1.4","0","z","NA","NA","NA","NA","space","z","745","NA","NA","NA","NA","174261","745","2","legacy","1024","2","48000","-16","AB_m21","118","even","NW_S_SIMP","HELMETOES","1383","384244","382660","376652","175653","NA","NA","NA","NA","384234","383157","NA","382160","NA","382157","384234","1392","384544","NA","NA","383244","1383","1384","383635","382157","1383","383244","384544","morph21_Oliver/Morris","57","38078","59","yes","1280","14"
"250","96.6666666667","96.6666666667","649.7","649.7","black","no","xpyriment","legacy","legacy","0","201","NA","uniform","67896","1000","0.0147284081536","1","undefined","1","0","59","59","59","0","59","59","59","NA","59","59","0","59","NA","59","59","0","59","NA","59","NA","59","0","0","59","59","0","59","59","60","/","12/07/17 15:39:44","The main experiment item","yes","FIN__AB__M21__7%3A10%3A17.osexp","C:\Users\ERP Testing Room\Desktop\Joanna\morph21","no","mono","no","18","no","white","no","yes","1080","legacy","59","59","C:/Users/ERP Testing Room/Desktop/Joanna/morph21/subject-118.csv","xpyriment","Jazzy James","3.1.4","0","/","NA","NA","NA","NA","space","/","904","NA","NA","NA","NA","174261","904","2","legacy","1024","2","48000","-16","AB_m21","118","even","CW_S","PEAKING","1383","388787","385694","387277","175653","NA","NA","NA","NA","387270","386191","NA","385194","NA","385187","387270","1392","389037","NA","NA","386277","1383","1384","386669","385187","1383","386277","389037","morph21_Oliver/Morris","58","38982","60","yes","1280","28"
"350","96.7213114754","96.7213114754","648.262295082","648.262295082","black","no","xpyriment","legacy","legacy","0","205","NA","uniform","78941","1000","0.0126676885269","1","undefined","1","0","60","60","60","0","60","60","60","NA","60","60","0","60","NA","60","60","0","60","NA","60","NA","60","0","0","60","60","0","60","60","61","z","12/07/17 15:39:44","The main experiment item","yes","FIN__AB__M21__7%3A10%3A17.osexp","C:\Users\ERP Testing Room\Desktop\Joanna\morph21","no","mono","no","18","no","white","no","yes","1080","legacy","60","60","C:/Users/ERP Testing Room/Desktop/Joanna/morph21/subject-118.csv","xpyriment","Jazzy James","3.1.4","0","z","NA","NA","NA","NA","space","z","562","NA","NA","NA","NA","174261","562","2","legacy","1024","2","48000","-16","AB_m21","118","even","NW_S_SIMP","BASKODY","1383","391803","390220","387277","175653","NA","NA","NA","NA","391795","390717","NA","389720","NA","389709","391795","1392","392154","NA","NA","390803","1383","1384","391195","389709","1383","390803","392154","morph21_Oliver/Morris","59","39544","61","yes","1280","10"
"300","96.7741935484","96.7741935484","645.516129032","645.516129032","black","no","xpyriment","legacy","legacy","0","201","NA","uniform","81950","1000","0.0122025625381","1","undefined","1","0","61","61","61","0","61","61","61","NA","61","61","0","61","NA","61","61","0","61","NA","61","NA","61","0","0","61","61","0","61","61","62","/","12/07/17 15:39:44","The main experiment item","yes","FIN__AB__M21__7%3A10%3A17.osexp","C:\Users\ERP Testing Room\Desktop\Joanna\morph21","no","mono","no","18","no","white","no","yes","1080","legacy","61","61","C:/Users/ERP Testing Room/Desktop/Joanna/morph21/subject-118.csv","xpyriment","Jazzy James","3.1.4","0","/","NA","NA","NA","NA","space","/","478","NA","NA","NA","NA","174261","478","2","legacy","1024","2","48000","-16","AB_m21","118","even","CW_S","GUILTY","1383","394887","393295","387277","175653","NA","NA","NA","NA","394878","393792","NA","392795","NA","392786","394878","1392","395187","NA","NA","393887","1383","1384","394279","392786","1383","393887","395187","morph21_Oliver/Morris","60","40022","62","yes","1280","34"
"200","96.8253968254","96.8253968254","644.349206349","644.349206349","black","no","xpyriment","legacy","legacy","0","203","NA","uniform","75079","1000","0.0133193036668","1","undefined","1","0","62","62","62","0","62","62","62","NA","62","62","0","62","NA","62","62","0","62","NA","62","NA","62","0","0","62","62","0","62","62","63","z","12/07/17 15:39:44","The main experiment item","yes","FIN__AB__M21__7%3A10%3A17.osexp","C:\Users\ERP Testing Room\Desktop\Joanna\morph21","no","mono","no","18","no","white","no","yes","1080","legacy","62","62","C:/Users/ERP Testing Room/Desktop/Joanna/morph21/subject-118.csv","xpyriment","Jazzy James","3.1.4","0","z","NA","NA","NA","NA","space","z","572","NA","NA","NA","NA","174261","572","2","legacy","1024","2","48000","-16","AB_m21","118","even","NW_S_COMP","ELMIST","1383","399437","396329","397929","175653","NA","NA","NA","NA","397921","396826","NA","395829","NA","395823","397921","1392","399637","NA","NA","396929","1383","1384","397320","395823","1383","396929","399637","morph21_Oliver/Morris","61","40594","63","yes","1280","10"
"350","96.875","96.875","646.40625","646.40625","black","no","xpyriment","legacy","legacy","0","201","NA","uniform","66277","1000","0.0150881904733","1","undefined","1","0","63","63","63","0","63","63","63","NA","63","63","0","63","NA","63","63","0","63","NA","63","NA","63","0","0","63","63","0","63","63","64","/","12/07/17 15:39:44","The main experiment item","yes","FIN__AB__M21__7%3A10%3A17.osexp","C:\Users\ERP Testing Room\Desktop\Joanna\morph21","no","mono","no","18","no","white","no","yes","1080","legacy","63","63","C:/Users/ERP Testing Room/Desktop/Joanna/morph21/subject-118.csv","xpyriment","Jazzy James","3.1.4","0","/","NA","NA","NA","NA","space","/","776","NA","NA","NA","NA","174261","776","2","legacy","1024","2","48000","-16","AB_m21","118","even","CW_S","CHILLY","1383","402421","400812","397929","175653","NA","NA","NA","NA","402412","401309","NA","400312","NA","400302","402412","1392","402771","NA","NA","401421","1383","1384","401812","400301","1383","401421","402771","morph21_Oliver/Morris","62","41370","64","yes","1280","48"
"300","95.3846153846","95.3846153846","651.2","651.2","black","no","xpyriment","legacy","legacy","0","202","NA","uniform","64493","1000","0.0155055587428","0","undefined","0","0","64","64","64","0","64","64","64","NA","64","64","0","64","NA","64","64","0","64","NA","64","NA","64","0","0","64","64","0","64","64","65","/","12/07/17 15:39:44","The main experiment item","yes","FIN__AB__M21__7%3A10%3A17.osexp","C:\Users\ERP Testing Room\Desktop\Joanna\morph21","no","mono","no","18","no","white","no","yes","1080","legacy","64","64","C:/Users/ERP Testing Room/Desktop/Joanna/morph21/subject-118.csv","xpyriment","Jazzy James","3.1.4","0","z","NA","NA","NA","NA","space","z","958","NA","NA","NA","NA","174261","958","2","legacy","1024","2","48000","-16","AB_m21","118","even","CW_L","WEEDY","1383","405487","403904","397929","175653","NA","NA","NA","NA","402412","404401","NA","403404","NA","403396","405479","1392","405787","NA","NA","404487","1383","1384","404879","403396","1383","404487","405787","morph21_Oliver/Morris","62","42328","65","yes","1280","48"
"200","95.4545454545","95.4545454545","652.287878788","652.287878788","black","no","xpyriment","legacy","legacy","0","206","NA","uniform","72938","1000","0.0137102744797","1","undefined","1","0","65","65","65","0","65","65","65","NA","65","65","0","65","NA","65","65","0","65","NA","65","NA","65","0","0","65","65","0","65","65","66","z","12/07/17 15:39:44","The main experiment item","yes","FIN__AB__M21__7%3A10%3A17.osexp","C:\Users\ERP Testing Room\Desktop\Joanna\morph21","no","mono","no","18","no","white","no","yes","1080","legacy","65","65","C:/Users/ERP Testing Room/Desktop/Joanna/morph21/subject-118.csv","xpyriment","Jazzy James","3.1.4","0","z","NA","NA","NA","NA","space","z","723","NA","NA","NA","NA","174261","723","2","legacy","1024","2","48000","-16","AB_m21","118","even","NW_L_SIMP","TOWERLA","1383","410014","406938","408505","175653","NA","NA","NA","NA","408501","407436","NA","406438","NA","406429","408501","1392","410214","NA","NA","407514","1383","1384","407905","406429","1383","407514","410214","morph21_Oliver/Morris","63","43051","66","yes","1280","15"
"400","95.5223880597","95.5223880597","654.865671642","654.865671642","black","no","xpyriment","legacy","legacy","0","205","NA","uniform","63353","1000","0.0157845721592","1","undefined","1","0","66","66","66","0","66","66","66","NA","66","66","0","66","NA","66","66","0","66","NA","66","NA","66","0","0","66","66","0","66","66","67","z","12/07/17 15:39:44","The main experiment item","yes","FIN__AB__M21__7%3A10%3A17.osexp","C:\Users\ERP Testing Room\Desktop\Joanna\morph21","no","mono","no","18","no","white","no","yes","1080","legacy","66","66","C:/Users/ERP Testing Room/Desktop/Joanna/morph21/subject-118.csv","xpyriment","Jazzy James","3.1.4","0","z","NA","NA","NA","NA","space","z","825","NA","NA","NA","NA","174261","825","2","legacy","1024","2","48000","-16","AB_m21","118","even","NW_S_SIMP","SCHEMENELS","1383","412972","411380","408505","175653","NA","NA","NA","NA","412965","411877","NA","410880","NA","410875","412965","1392","413372","NA","NA","411972","1383","1384","412364","410875","1383","411972","413372","morph21_Oliver/Morris","64","43876","67","yes","1280","15"
"350","95.5882352941","95.5882352941","654.235294118","654.235294118","black","no","xpyriment","legacy","legacy","0","206","NA","uniform","77336","1000","0.0129305886004","1","undefined","1","0","67","67","67","0","67","67","67","NA","67","67","0","67","NA","67","67","0","67","NA","67","NA","67","0","0","67","67","0","67","67","68","z","12/07/17 15:39:44","The main experiment item","yes","FIN__AB__M21__7%3A10%3A17.osexp","C:\Users\ERP Testing Room\Desktop\Joanna\morph21","no","mono","no","18","no","white","no","yes","1080","legacy","67","67","C:/Users/ERP Testing Room/Desktop/Joanna/morph21/subject-118.csv","xpyriment","Jazzy James","3.1.4","0","z","NA","NA","NA","NA","space","z","612","NA","NA","NA","NA","174261","612","2","legacy","1024","2","48000","-16","AB_m21","118","even","NW_L_SIMP","PICKENGE","1383","416105","414522","408505","175653","NA","NA","NA","NA","416097","415019","NA","414022","NA","414014","416097","1392","416456","NA","NA","415105","1383","1384","415497","414014","1383","415105","416456","morph21_Oliver/Morris","65","44488","68","yes","1280","5"
"300","95.652173913","95.652173913","653.028985507","653.028985507","black","no","xpyriment","legacy","legacy","0","206","NA","uniform","71428","1000","0.0140001120009","1","undefined","1","0","68","68","68","0","68","68","68","NA","68","68","0","68","NA","68","68","0","68","NA","68","NA","68","0","0","68","68","0","68","68","69","z","12/07/17 15:39:44","The main experiment item","yes","FIN__AB__M21__7%3A10%3A17.osexp","C:\Users\ERP Testing Room\Desktop\Joanna\morph21","no","mono","no","18","no","white","no","yes","1080","legacy","68","68","C:/Users/ERP Testing Room/Desktop/Joanna/morph21/subject-118.csv","xpyriment","Jazzy James","3.1.4","0","z","NA","NA","NA","NA","space","z","571","NA","NA","NA","NA","174261","571","2","legacy","1024","2","48000","-16","AB_m21","118","even","NW_L_SIMP","EARILT","1383","420806","417697","419297","175653","NA","NA","NA","NA","419294","418194","NA","417197","NA","417187","419294","1392","421106","NA","NA","418306","1383","1384","418697","417187","1383","418306","421106","morph21_Oliver/Morris","66","45059","69","yes","1280","12"
"300","95.7142857143","95.7142857143","653.357142857","653.357142857","black","no","xpyriment","legacy","legacy","0","205","NA","uniform","67292","1000","0.0148606075016","1","undefined","1","0","69","69","69","0","69","69","69","NA","69","69","0","69","NA","69","69","0","69","NA","69","NA","69","0","0","69","69","0","69","69","70","z","12/07/17 15:39:44","The main experiment item","yes","FIN__AB__M21__7%3A10%3A17.osexp","C:\Users\ERP Testing Room\Desktop\Joanna\morph21","no","mono","no","18","no","white","no","yes","1080","legacy","69","69","C:/Users/ERP Testing Room/Desktop/Joanna/morph21/subject-118.csv","xpyriment","Jazzy James","3.1.4","0","z","NA","NA","NA","NA","space","z","676","NA","NA","NA","NA","174261","676","2","legacy","1024","2","48000","-16","AB_m21","118","even","NW_S_SIMP","NEXTNELS","1383","423924","422331","419297","175653","NA","NA","NA","NA","423916","422828","NA","421831","NA","421824","423916","1392","424224","NA","NA","422922","1383","1384","423315","421824","1383","422922","424224","morph21_Oliver/Morris","67","45735","70","yes","1280","9"
"400","95.7746478873","95.7746478873","653.492957746","653.492957746","black","no","xpyriment","legacy","legacy","0","207","NA","uniform","73899","1000","0.0135319828414","1","undefined","1","0","70","70","70","0","70","70","70","NA","70","70","0","70","NA","70","70","0","70","NA","70","NA","70","0","0","70","70","0","70","70","71","/","12/07/17 15:39:44","The main experiment item","yes","FIN__AB__M21__7%3A10%3A17.osexp","C:\Users\ERP Testing Room\Desktop\Joanna\morph21","no","mono","no","18","no","white","no","yes","1080","legacy","70","70","C:/Users/ERP Testing Room/Desktop/Joanna/morph21/subject-118.csv","xpyriment","Jazzy James","3.1.4","0","/","NA","NA","NA","NA","space","/","663","NA","NA","NA","NA","174261","663","2","legacy","1024","2","48000","-16","AB_m21","118","even","FILL_W","QUIT","1383","426982","425390","419297","175653","NA","NA","NA","NA","426975","425887","NA","424890","NA","424881","426975","1392","427382","NA","NA","425982","1383","1384","426374","424881","1383","425982","427382","morph21_Oliver/Morris","68","46398","71","yes","1280","21"
"250","95.8333333333","95.8333333333","652","652","black","no","xpyriment","legacy","legacy","0","202","NA","uniform","79961","1000","0.0125060967222","1","undefined","1","0","71","71","71","0","71","71","71","NA","71","71","0","71","NA","71","71","0","71","NA","71","NA","71","0","0","71","71","0","71","71","72","/","12/07/17 15:39:44","The main experiment item","yes","FIN__AB__M21__7%3A10%3A17.osexp","C:\Users\ERP Testing Room\Desktop\Joanna\morph21","no","mono","no","18","no","white","no","yes","1080","legacy","71","71","C:/Users/ERP Testing Room/Desktop/Joanna/morph21/subject-118.csv","xpyriment","Jazzy James","3.1.4","0","/","NA","NA","NA","NA","space","/","546","NA","NA","NA","NA","174261","546","2","legacy","1024","2","48000","-16","AB_m21","118","even","CW_L","DREAMER","1383","431624","428532","430115","175653","NA","NA","NA","NA","430107","429029","NA","428032","NA","428024","430107","1392","431874","NA","NA","429115","1383","1384","429507","428024","1383","429115","431874","morph21_Oliver/Morris","69","46944","72","yes","1280","12"
"300","95.8904109589","95.8904109589","650.493150685","650.493150685","black","no","xpyriment","legacy","legacy","0","205","NA","uniform","79763","1000","0.012537141281","1","undefined","1","0","72","72","72","0","72","72","72","NA","72","72","0","72","NA","72","72","0","72","NA","72","NA","72","0","0","72","72","0","72","72","73","z","12/07/17 15:39:44","The main experiment item","yes","FIN__AB__M21__7%3A10%3A17.osexp","C:\Users\ERP Testing Room\Desktop\Joanna\morph21","no","mono","no","18","no","white","no","yes","1080","legacy","72","72","C:/Users/ERP Testing Room/Desktop/Joanna/morph21/subject-118.csv","xpyriment","Jazzy James","3.1.4","0","z","NA","NA","NA","NA","space","z","542","NA","NA","NA","NA","174261","542","2","legacy","1024","2","48000","-16","AB_m21","118","even","NW_S_SIMP","TILTADY","1383","434607","433024","430115","175653","NA","NA","NA","NA","434600","433521","NA","432524","NA","432518","434600","1392","434907","NA","NA","433607","1383","1384","433999","432518","1383","433607","434907","morph21_Oliver/Morris","70","47486","73","yes","1280","17"
"350","95.9459459459","95.9459459459","648.891891892","648.891891892","black","no","xpyriment","legacy","legacy","0","202","NA","uniform","77153","1000","0.0129612587975","1","undefined","1","0","73","73","73","0","73","73","73","NA","73","73","0","73","NA","73","73","0","73","NA","73","NA","73","0","0","73","73","0","73","73","74","/","12/07/17 15:39:44","The main experiment item","yes","FIN__AB__M21__7%3A10%3A17.osexp","C:\Users\ERP Testing Room\Desktop\Joanna\morph21","no","mono","no","18","no","white","no","yes","1080","legacy","73","73","C:/Users/ERP Testing Room/Desktop/Joanna/morph21/subject-118.csv","xpyriment","Jazzy James","3.1.4","0","/","NA","NA","NA","NA","space","/","532","NA","NA","NA","NA","174261","532","2","legacy","1024","2","48000","-16","AB_m21","118","even","CW_L","RENTER","1383","437649","436049","430115","175653","NA","NA","NA","NA","437641","436546","NA","435549","NA","435543","437641","1392","437999","NA","NA","436649","1383","1384","437041","435543","1383","436649","437999","morph21_Oliver/Morris","71","48018","74","yes","1280","9"
"300","96","96","648.04","648.04","black","no","xpyriment","legacy","legacy","0","201","NA","uniform","75249","1000","0.0132892131457","undefined","undefined","1","0","74","74","74","0","74","74","74","NA","74","74","0","74","NA","74","74","0","74","NA","74","NA","74","0","0","74","74","0","74","74","75","/","12/07/17 15:39:44","The main experiment item","yes","FIN__AB__M21__7%3A10%3A17.osexp","C:\Users\ERP Testing Room\Desktop\Joanna\morph21","no","mono","no","18","no","white","no","yes","1080","legacy","74","74","C:/Users/ERP Testing Room/Desktop/Joanna/morph21/subject-118.csv","xpyriment","Jazzy James","3.1.4","0","space","space","NA","NA","NA","space","/","11815","11815","NA","NA","NA","174261","585","2","legacy","1024","2","48000","-16","AB_m21","118","even","CW_S","ATTACKER","1383","442234","439141","440725","175653","442542","NA","NA","NA","440719","439638","NA","438641","NA","438631","440719","1392","454357","NA","NA","439724","1383","1384","440124","438631","1383","439724","442534","morph21_Oliver/Morris","72","48603","75","yes","1280","20"
"300","94.7368421053","94.7368421053","652.578947368","652.578947368","black","no","xpyriment","legacy","legacy","0","202","NA","uniform","57069","1000","0.0175226480226","0","undefined","0","0","75","75","75","0","75","75","75","NA","75","75","0","75","NA","75","75","0","75","NA","75","NA","75","0","0","75","75","0","75","75","76","/","12/07/17 15:39:44","The main experiment item","yes","FIN__AB__M21__7%3A10%3A17.osexp","C:\Users\ERP Testing Room\Desktop\Joanna\morph21","no","mono","no","18","no","white","no","yes","1080","legacy","75","75","C:/Users/ERP Testing Room/Desktop/Joanna/morph21/subject-118.csv","xpyriment","Jazzy James","3.1.4","0","None","space","NA","NA","NA","space","None","993","11815","NA","NA","NA","174261","993","2","legacy","1024","2","48000","-16","AB_m21","118","even","CW_L","MADNESS","1383","457076","455476","440725","175653","442542","NA","NA","NA","440719","455973","NA","454976","NA","454971","457069","1392","457376","NA","NA","456076","1383","1384","456468","454970","1383","456076","457376","morph21_Oliver/Morris","72","49596","76","yes","1280","41"
"200","94.8051948052","94.8051948052","652.480519481","652.480519481","black","no","xpyriment","legacy","legacy","0","205","NA","uniform","76250","1000","0.0131147540984","1","undefined","1","0","76","76","76","0","76","76","76","NA","76","76","0","76","NA","76","76","0","76","NA","76","NA","76","0","0","76","76","0","76","76","77","z","12/07/17 15:39:44","The main experiment item","yes","FIN__AB__M21__7%3A10%3A17.osexp","C:\Users\ERP Testing Room\Desktop\Joanna\morph21","no","mono","no","18","no","white","no","yes","1080","legacy","76","76","C:/Users/ERP Testing Room/Desktop/Joanna/morph21/subject-118.csv","xpyriment","Jazzy James","3.1.4","0","z","space","NA","NA","NA","space","z","645","11815","NA","NA","NA","174261","645","2","legacy","1024","2","48000","-16","AB_m21","118","even","NW_S_SIMP","GUMFIL","1383","460144","458560","440725","175653","442542","NA","NA","NA","460135","459058","NA","458059","NA","458049","460135","1392","460344","NA","NA","459144","1383","1384","459535","458049","1383","459144","460344","morph21_Oliver/Morris","73","50241","77","yes","1280","2"
"250","94.8717948718","94.8717948718","650.679487179","650.679487179","black","no","xpyriment","legacy","legacy","0","202","NA","uniform","80333","1000","0.0124481844323","1","undefined","1","0","77","77","77","0","77","77","77","NA","77","77","0","77","NA","77","77","0","77","NA","77","NA","77","0","0","77","77","0","77","77","78","/","12/07/17 15:39:44","The main experiment item","yes","FIN__AB__M21__7%3A10%3A17.osexp","C:\Users\ERP Testing Room\Desktop\Joanna\morph21","no","mono","no","18","no","white","no","yes","1080","legacy","77","77","C:/Users/ERP Testing Room/Desktop/Joanna/morph21/subject-118.csv","xpyriment","Jazzy James","3.1.4","0","/","space","NA","NA","NA","space","/","512","11815","NA","NA","NA","174261","512","2","legacy","1024","2","48000","-16","AB_m21","118","even","CW_L","DEAFNESS","1383","464586","461485","463077","175653","442542","NA","NA","NA","463067","461983","NA","460986","NA","460975","463067","1392","464836","NA","NA","462077","1383","1384","462469","460975","1383","462077","464836","morph21_Oliver/Morris","74","50753","78","yes","1280","39"
"300","94.9367088608","94.9367088608","649.658227848","649.658227848","black","no","xpyriment","legacy","legacy","0","207","NA","uniform","75675","1000","0.0132144037","1","undefined","1","0","78","78","78","0","78","78","78","NA","78","78","0","78","NA","78","78","0","78","NA","78","NA","78","0","0","78","78","0","78","78","79","/","12/07/17 15:39:44","The main experiment item","yes","FIN__AB__M21__7%3A10%3A17.osexp","C:\Users\ERP Testing Room\Desktop\Joanna\morph21","no","mono","no","18","no","white","no","yes","1080","legacy","78","78","C:/Users/ERP Testing Room/Desktop/Joanna/morph21/subject-118.csv","xpyriment","Jazzy James","3.1.4","0","/","space","NA","NA","NA","space","/","570","11815","NA","NA","NA","174261","570","2","legacy","1024","2","48000","-16","AB_m21","118","even","FILL_W","BAKE","1383","467611","466002","463077","175653","442542","NA","NA","NA","467602","466500","NA","465502","NA","465496","467602","1392","467911","NA","NA","466611","1383","1384","467002","465496","1383","466611","467911","morph21_Oliver/Morris","75","51323","79","yes","1280","29"
"350","93.75","93.75","647.45","647.45","black","no","xpyriment","legacy","legacy","0","204","NA","uniform","82498","1000","0.0121215059759","0","undefined","0","0","79","79","79","0","79","79","79","NA","79","79","0","79","NA","79","79","0","79","NA","79","NA","79","0","0","79","79","0","79","79","80","z","12/07/17 15:39:44","The main experiment item","yes","FIN__AB__M21__7%3A10%3A17.osexp","C:\Users\ERP Testing Room\Desktop\Joanna\morph21","no","mono","no","18","no","white","no","yes","1080","legacy","79","79","C:/Users/ERP Testing Room/Desktop/Joanna/morph21/subject-118.csv","xpyriment","Jazzy James","3.1.4","0","/","space","NA","NA","NA","space","/","473","11815","NA","NA","NA","174261","473","2","legacy","1024","2","48000","-16","AB_m21","118","even","NW_L_COMP","MOUTHIZE","1383","470644","469061","463077","175653","442542","NA","NA","NA","467602","469558","NA","468561","NA","468555","470636","1392","470994","NA","NA","469644","1383","1384","470036","468555","1383","469644","470994","morph21_Oliver/Morris","75","51796","80","yes","1280","11"
"350","93.8271604938","93.8271604938","647.024691358","647.024691358","black","no","xpyriment","legacy","legacy","0","201","NA","uniform","76476","1000","0.0130759976986","1","undefined","1","0","80","80","80","0","80","80","80","NA","80","80","0","80","NA","80","80","0","80","NA","80","NA","80","0","0","80","80","0","80","80","81","/","12/07/17 15:39:44","The main experiment item","yes","FIN__AB__M21__7%3A10%3A17.osexp","C:\Users\ERP Testing Room\Desktop\Joanna\morph21","no","mono","no","18","no","white","no","yes","1080","legacy","80","80","C:/Users/ERP Testing Room/Desktop/Joanna/morph21/subject-118.csv","xpyriment","Jazzy James","3.1.4","0","/","space","NA","NA","NA","space","/","613","11815","NA","NA","NA","174261","613","2","legacy","1024","2","48000","-16","AB_m21","118","even","CW_S","DENSELY","1383","475228","472136","473719","175653","442542","NA","NA","NA","473717","472633","NA","471636","NA","471630","473717","1392","475578","NA","NA","472728","1383","1384","473119","471630","1383","472728","475578","morph21_Oliver/Morris","76","52409","81","yes","1280","32"
"200","92.6829268293","92.6829268293","647.658536585","647.658536585","black","no","xpyriment","legacy","legacy","0","203","NA","uniform","70379","1000","0.0142087838702","0","undefined","0","0","81","81","81","0","81","81","81","NA","81","81","0","81","NA","81","81","0","81","NA","81","NA","81","0","0","81","81","0","81","81","82","z","12/07/17 15:39:44","The main experiment item","yes","FIN__AB__M21__7%3A10%3A17.osexp","C:\Users\ERP Testing Room\Desktop\Joanna\morph21","no","mono","no","18","no","white","no","yes","1080","legacy","81","81","C:/Users/ERP Testing Room/Desktop/Joanna/morph21/subject-118.csv","xpyriment","Jazzy James","3.1.4","0","/","space","NA","NA","NA","space","/","699","11815","NA","NA","NA","174261","699","2","legacy","1024","2","48000","-16","AB_m21","118","even","NW_S_COMP","ADOPTISH","1383","478346","476746","473719","175653","442542","NA","NA","NA","473717","477243","NA","476246","NA","476238","478340","1392","478546","NA","NA","477346","1383","1384","477737","476238","1383","477346","478546","morph21_Oliver/Morris","76","53108","82","yes","1280","19"
"350","92.7710843373","92.7710843373","648.313253012","648.313253012","black","no","xpyriment","legacy","legacy","0","205","NA","uniform","74468","1000","0.0134285867755","1","undefined","1","0","82","82","82","0","82","82","82","NA","82","82","0","82","NA","82","82","0","82","NA","82","NA","82","0","0","82","82","0","82","82","83","z","12/07/17 15:39:44","The main experiment item","yes","FIN__AB__M21__7%3A10%3A17.osexp","C:\Users\ERP Testing Room\Desktop\Joanna\morph21","no","mono","no","18","no","white","no","yes","1080","legacy","82","82","C:/Users/ERP Testing Room/Desktop/Joanna/morph21/subject-118.csv","xpyriment","Jazzy James","3.1.4","0","z","space","NA","NA","NA","space","z","702","11815","NA","NA","NA","174261","702","2","legacy","1024","2","48000","-16","AB_m21","118","even","NW_S_SIMP","ACREMANT","1383","481271","479687","473719","175653","442542","NA","NA","NA","481263","480184","NA","479187","NA","479184","481263","1392","481621","NA","NA","480271","1383","1384","480662","479184","1383","480271","481621","morph21_Oliver/Morris","77","53810","83","yes","1280","16"
"350","92.8571428571","92.8571428571","649.297619048","649.297619048","black","no","xpyriment","legacy","legacy","0","201","NA","uniform","68786","1000","0.0145378420027","1","undefined","1","0","83","83","83","0","83","83","83","NA","83","83","0","83","NA","83","83","0","83","NA","83","NA","83","0","0","83","83","0","83","83","84","/","12/07/17 15:39:44","The main experiment item","yes","FIN__AB__M21__7%3A10%3A17.osexp","C:\Users\ERP Testing Room\Desktop\Joanna\morph21","no","mono","no","18","no","white","no","yes","1080","legacy","83","83","C:/Users/ERP Testing Room/Desktop/Joanna/morph21/subject-118.csv","xpyriment","Jazzy James","3.1.4","0","/","space","NA","NA","NA","space","/","731","11815","NA","NA","NA","174261","731","2","legacy","1024","2","48000","-16","AB_m21","118","even","CW_S","SINGER","1383","485863","482771","484354","175653","442542","NA","NA","NA","484347","483268","NA","482271","NA","482265","484347","1392","486213","NA","NA","483354","1383","1384","483746","482265","1383","483354","486213","morph21_Oliver/Morris","78","54541","84","yes","1280","17"
"350","92.9411764706","92.9411764706","652.117647059","652.117647059","black","no","xpyriment","legacy","legacy","0","207","NA","uniform","61916","1000","0.0161509141417","1","undefined","1","0","84","84","84","0","84","84","84","NA","84","84","0","84","NA","84","84","0","84","NA","84","NA","84","0","0","84","84","0","84","84","85","/","12/07/17 15:39:44","The main experiment item","yes","FIN__AB__M21__7%3A10%3A17.osexp","C:\Users\ERP Testing Room\Desktop\Joanna\morph21","no","mono","no","18","no","white","no","yes","1080","legacy","84","84","C:/Users/ERP Testing Room/Desktop/Joanna/morph21/subject-118.csv","xpyriment","Jazzy James","3.1.4","0","/","space","NA","NA","NA","space","/","889","11815","NA","NA","NA","174261","889","2","legacy","1024","2","48000","-16","AB_m21","118","even","FILL_W","LIFT","1383","488988","487388","484354","175653","442542","NA","NA","NA","488981","487885","NA","486888","NA","486882","488981","1392","489338","NA","NA","487988","1383","1384","488379","486882","1383","487988","489338","morph21_Oliver/Morris","79","55430","85","yes","1280","39"
"300","93.023255814","93.023255814","651.662790698","651.662790698","black","no","xpyriment","legacy","legacy","0","206","NA","uniform","65659","1000","0.0152302045416","1","undefined","1","0","85","85","85","0","85","85","85","NA","85","85","0","85","NA","85","85","0","85","NA","85","NA","85","0","0","85","85","0","85","85","86","z","12/07/17 15:39:44","The main experiment item","yes","FIN__AB__M21__7%3A10%3A17.osexp","C:\Users\ERP Testing Room\Desktop\Joanna\morph21","no","mono","no","18","no","white","no","yes","1080","legacy","85","85","C:/Users/ERP Testing Room/Desktop/Joanna/morph21/subject-118.csv","xpyriment","Jazzy James","3.1.4","0","z","space","NA","NA","NA","space","z","613","11815","NA","NA","NA","174261","613","2","legacy","1024","2","48000","-16","AB_m21","118","even","NW_L_SIMP","PRAYANGE","1383","492080","490496","484354","175653","442542","NA","NA","NA","492077","490993","NA","489996","NA","489988","492077","1392","492380","NA","NA","491088","1383","1384","491479","489988","1383","491088","492380","morph21_Oliver/Morris","80","56043","86","yes","1280","1"
"200","93.1034482759","93.1034482759","651.83908046","651.83908046","black","no","xpyriment","legacy","legacy","0","206","NA","uniform","71692","1000","0.0139485577191","1","undefined","1","0","86","86","86","0","86","86","86","NA","86","86","0","86","NA","86","86","0","86","NA","86","NA","86","0","0","86","86","0","86","86","87","z","12/07/17 15:39:44","The main experiment item","yes","FIN__AB__M21__7%3A10%3A17.osexp","C:\Users\ERP Testing Room\Desktop\Joanna\morph21","no","mono","no","18","no","white","no","yes","1080","legacy","86","86","C:/Users/ERP Testing Room/Desktop/Joanna/morph21/subject-118.csv","xpyriment","Jazzy James","3.1.4","0","z","space","NA","NA","NA","space","z","667","11815","NA","NA","NA","174261","667","2","legacy","1024","2","48000","-16","AB_m21","118","even","NW_L_SIMP","GROWILT","1383","496639","493547","495131","175653","442542","NA","NA","NA","495124","494044","NA","493047","NA","493043","495124","1392","496839","NA","NA","494131","1383","1384","494522","493043","1383","494131","496839","morph21_Oliver/Morris","81","56710","87","yes","1280","20"
"300","93.1818181818","93.1818181818","652.420454545","652.420454545","black","no","xpyriment","legacy","legacy","0","201","NA","uniform","74602","1000","0.0134044663682","1","undefined","1","0","87","87","87","0","87","87","87","NA","87","87","0","87","NA","87","87","0","87","NA","87","NA","87","0","0","87","87","0","87","87","88","/","12/07/17 15:39:44","The main experiment item","yes","FIN__AB__M21__7%3A10%3A17.osexp","C:\Users\ERP Testing Room\Desktop\Joanna\morph21","no","mono","no","18","no","white","no","yes","1080","legacy","87","87","C:/Users/ERP Testing Room/Desktop/Joanna/morph21/subject-118.csv","xpyriment","Jazzy James","3.1.4","0","/","space","NA","NA","NA","space","/","703","11815","NA","NA","NA","174261","703","2","legacy","1024","2","48000","-16","AB_m21","118","even","CW_S","DETECTABLE","1383","499598","498014","495131","175653","442542","NA","NA","NA","499590","498511","NA","497514","NA","497507","499590","1392","499898","NA","NA","498598","1383","1384","498989","497507","1383","498597","499898","morph21_Oliver/Morris","82","57413","88","yes","1280","1"
"200","93.2584269663","93.2584269663","652.629213483","652.629213483","black","no","xpyriment","legacy","legacy","0","202","NA","uniform","75150","1000","0.0133067198935","1","undefined","1","0","88","88","88","0","88","88","88","NA","88","88","0","88","NA","88","88","0","88","NA","88","NA","88","0","0","88","88","0","88","88","89","/","12/07/17 15:39:44","The main experiment item","yes","FIN__AB__M21__7%3A10%3A17.osexp","C:\Users\ERP Testing Room\Desktop\Joanna\morph21","no","mono","no","18","no","white","no","yes","1080","legacy","88","88","C:/Users/ERP Testing Room/Desktop/Joanna/morph21/subject-118.csv","xpyriment","Jazzy James","3.1.4","0","/","space","NA","NA","NA","space","/","671","11815","NA","NA","NA","174261","671","2","legacy","1024","2","48000","-16","AB_m21","118","even","CW_L","SAILOR","1383","502614","501031","495131","175653","442542","NA","NA","NA","502609","501528","NA","500531","NA","500527","502609","1392","502814","NA","NA","501614","1383","1384","502014","500527","1383","501614","502814","morph21_Oliver/Morris","83","58084","89","yes","1280","43"
"200","92.2222222222","92.2222222222","656.377777778","656.377777778","black","no","xpyriment","legacy","legacy","0","204","NA","uniform","63870","1000","0.0156568028809","0","undefined","0","0","89","89","89","0","89","89","89","NA","89","89","0","89","NA","89","89","0","89","NA","89","NA","89","0","0","89","89","0","89","89","90","z","12/07/17 15:39:44","The main experiment item","yes","FIN__AB__M21__7%3A10%3A17.osexp","C:\Users\ERP Testing Room\Desktop\Joanna\morph21","no","mono","no","18","no","white","no","yes","1080","legacy","89","89","C:/Users/ERP Testing Room/Desktop/Joanna/morph21/subject-118.csv","xpyriment","Jazzy James","3.1.4","0","None","space","NA","NA","NA","space","None","990","11815","NA","NA","NA","174261","990","2","legacy","1024","2","48000","-16","AB_m21","118","even","NW_L_COMP","GASFUL","1383","507065","503964","505556","175653","442542","NA","NA","NA","502609","504461","NA","503464","NA","503455","505546","1392","507265","NA","NA","504556","1383","1384","504948","503455","1383","504556","507265","morph21_Oliver/Morris","83","59074","90","yes","1280","6"
"300","92.3076923077","92.3076923077","657.67032967","657.67032967","black","no","xpyriment","legacy","legacy","0","204","NA","uniform","71755","1000","0.0139363110585","1","undefined","1","0","90","90","90","0","90","90","90","NA","90","90","0","90","NA","90","90","0","90","NA","90","NA","90","0","0","90","90","0","90","90","91","z","12/07/17 15:39:44","The main experiment item","yes","FIN__AB__M21__7%3A10%3A17.osexp","C:\Users\ERP Testing Room\Desktop\Joanna\morph21","no","mono","no","18","no","white","no","yes","1080","legacy","90","90","C:/Users/ERP Testing Room/Desktop/Joanna/morph21/subject-118.csv","xpyriment","Jazzy James","3.1.4","0","z","space","NA","NA","NA","space","z","774","11815","NA","NA","NA","174261","774","2","legacy","1024","2","48000","-16","AB_m21","118","even","NW_L_COMP","ADDMENT","1383","510023","508431","505556","175653","442542","NA","NA","NA","510015","508928","NA","507931","NA","507922","510015","1392","510323","NA","NA","509023","1383","1384","509415","507922","1383","509023","510323","morph21_Oliver/Morris","84","59848","91","yes","1280","13"
