"ITI","acc","accuracy","average_response_time","avg_rt","background","bidi","canvas_backend","clock_backend","color_backend","compensation","cond_trig","condtrigtime","coordinates","coroutines_cycles","coroutines_duration","coroutines_mean_cycle_duration","correct","correct_instructions_1","correct_new_keyboard_response_1","count_AB_m21","count_ITI","count_blank_screen","count_blink_screen","count_block1","count_break1","count_break2","count_break3_1","count_canvas","count_correct_trigger","count_def_chain","count_end_screen","count_fixation_1","count_getting_started","count_inc_counter","count_incorrect_trigger","count_instructions_1","count_logger","count_logscript","count_new_coroutines","count_new_inline_script","count_new_keyboard_response_1","count_reset_counter_prep","count_reset_counter_run","count_responsescreen","count_sequence","count_start_trigger","count_target_present","count_word_trigger","counter","cresp","datetime","description","disable_garbage_collection","experiment_file","experiment_path","font_bold","font_family","font_italic","font_size","font_underline","foreground","form_clicks","fullscreen","height","keyboard_backend","live_row","live_row_block1","logfile","mouse_backend","opensesame_codename","opensesame_version","repeat_cycle","response","response_break1","response_break2","response_break3_1","response_end_screen","response_instructions_1","response_new_keyboard_response_1","response_time","response_time_break1","response_time_break2","response_time_break3_1","response_time_end_screen","response_time_instructions_1","response_time_new_keyboard_response_1","round_decimals","sampler_backend","sound_buf_size","sound_channels","sound_freq","sound_sample_size","start","subject_nr","subject_parity","targ_type","target","time_AB_m21","time_ITI","time_blank_screen","time_blink_screen","time_block1","time_break1","time_break2","time_break3_1","time_canvas","time_correct_trigger","time_def_chain","time_end_screen","time_fixation_1","time_getting_started","time_inc_counter","time_incorrect_trigger","time_instructions_1","time_logger","time_logscript","time_new_inline_script","time_new_keyboard_response_1","time_reset_counter_prep","time_reset_counter_run","time_responsescreen","time_sequence","time_start_trigger","time_target_present","time_word_trigger","title","total_correct","total_response_time","total_responses","uniform_coordinates","width","word_trig"
"300","0","0","993","993","black","no","xpyriment","legacy","legacy","0","202","NA","uniform","51922","1000","0.0192596587188","0","undefined","0","0","0","0","0","0","0","0","0","NA","0","0","0","0","NA","0","0","0","0","NA","0","NA","0","0","0","0","0","0","0","0","1","/","04/30/19 15:09:11","The main experiment item","yes","FIN__AB__M21__7%3A10%3A17.osexp","C:\Users\ERP Testing Room\Desktop\Joanna\morph21","no","mono","no","18","no","white","no","yes","1080","legacy","0","0","C:/Users/ERP Testing Room/Desktop/Joanna/morph21/subject-176.csv","xpyriment","Kafkaesque Koffka","3.2.5","0","None","NA","NA","NA","NA","space","None","993","NA","NA","NA","NA","238844","993","2","legacy","1024","2","48000","-16","AB_m21","176","even","CW_L","COMPOSER","1974","243676","242001","NA","240827","NA","NA","NA","NA","NA","242498","NA","241498","NA","241424","243669","1983","243976","NA","NA","242676","1974","1974","243067","241424","1974","242676","243976","morph21_Oliver/Morris","0","993","1","yes","1280","6"
"350","0","0","991.5","991.5","black","no","xpyriment","legacy","legacy","0","202","NA","uniform","54806","1000","0.0182461774258","0","undefined","0","0","1","1","1","0","1","1","1","NA","1","1","0","1","NA","1","1","0","1","NA","1","NA","1","0","0","1","1","0","1","1","2","/","04/30/19 15:09:11","The main experiment item","yes","FIN__AB__M21__7%3A10%3A17.osexp","C:\Users\ERP Testing Room\Desktop\Joanna\morph21","no","mono","no","18","no","white","no","yes","1080","legacy","1","1","C:/Users/ERP Testing Room/Desktop/Joanna/morph21/subject-176.csv","xpyriment","Kafkaesque Koffka","3.2.5","0","None","NA","NA","NA","NA","space","None","990","NA","NA","NA","NA","238844","990","2","legacy","1024","2","48000","-16","AB_m21","176","even","CW_L","BARKER","1974","246709","245051","NA","240827","NA","NA","NA","NA","NA","245548","NA","244551","NA","244543","246700","1983","247059","NA","NA","245709","1974","1974","246101","244543","1974","245709","247059","morph21_Oliver/Morris","0","1983","2","yes","1280","2"
"400","0","0","991.666666667","991.666666667","black","no","xpyriment","legacy","legacy","0","204","NA","uniform","51616","1000","0.0193738375697","0","undefined","0","0","2","2","2","0","2","2","2","NA","2","2","0","2","NA","2","2","0","2","NA","2","NA","2","0","0","2","2","0","2","2","3","z","04/30/19 15:09:11","The main experiment item","yes","FIN__AB__M21__7%3A10%3A17.osexp","C:\Users\ERP Testing Room\Desktop\Joanna\morph21","no","mono","no","18","no","white","no","yes","1080","legacy","2","2","C:/Users/ERP Testing Room/Desktop/Joanna/morph21/subject-176.csv","xpyriment","Kafkaesque Koffka","3.2.5","0","None","NA","NA","NA","NA","space","None","992","NA","NA","NA","NA","238844","992","2","legacy","1024","2","48000","-16","AB_m21","176","even","NW_L_COMP","BOILOUS","1974","251459","248276","249951","240827","NA","NA","NA","NA","NA","248773","NA","247776","NA","247765","249943","1983","251859","NA","NA","248951","1974","1974","249342","247765","1974","248951","251859","morph21_Oliver/Morris","0","2975","3","yes","1280","18"
"250","25","25","959","959","black","no","xpyriment","legacy","legacy","0","203","NA","uniform","57155","1000","0.0174962820401","1","undefined","1","0","3","3","3","0","3","3","3","NA","3","3","0","3","NA","3","3","0","3","NA","3","NA","3","0","0","3","3","0","3","3","4","z","04/30/19 15:09:11","The main experiment item","yes","FIN__AB__M21__7%3A10%3A17.osexp","C:\Users\ERP Testing Room\Desktop\Joanna\morph21","no","mono","no","18","no","white","no","yes","1080","legacy","3","3","C:/Users/ERP Testing Room/Desktop/Joanna/morph21/subject-176.csv","xpyriment","Kafkaesque Koffka","3.2.5","0","z","NA","NA","NA","NA","space","z","861","NA","NA","NA","NA","238844","861","2","legacy","1024","2","48000","-16","AB_m21","176","even","NW_S_COMP","LIDARY","1974","254693","253009","249951","240827","NA","NA","NA","NA","254685","253506","NA","252509","NA","252506","254685","1983","254943","NA","NA","253693","1974","1974","254084","252506","1974","253693","254943","morph21_Oliver/Morris","1","3836","4","yes","1280","3"
"350","20","20","965.2","965.2","black","no","xpyriment","legacy","legacy","0","203","NA","uniform","54985","1000","0.0181867782122","0","undefined","0","0","4","4","4","0","4","4","4","NA","4","4","0","4","NA","4","4","0","4","NA","4","NA","4","0","0","4","4","0","4","4","5","z","04/30/19 15:09:11","The main experiment item","yes","FIN__AB__M21__7%3A10%3A17.osexp","C:\Users\ERP Testing Room\Desktop\Joanna\morph21","no","mono","no","18","no","white","no","yes","1080","legacy","4","4","C:/Users/ERP Testing Room/Desktop/Joanna/morph21/subject-176.csv","xpyriment","Kafkaesque Koffka","3.2.5","0","None","NA","NA","NA","NA","space","None","990","NA","NA","NA","NA","238844","990","2","legacy","1024","2","48000","-16","AB_m21","176","even","NW_S_COMP","HEIGHTENCE","1974","257660","256002","249951","240827","NA","NA","NA","NA","254685","256499","NA","255502","NA","255496","257650","1983","258011","NA","NA","256660","1974","1974","257052","255496","1974","256660","258011","morph21_Oliver/Morris","1","4826","5","yes","1280","18"
"350","16.6666666667","16.6666666667","969.166666667","969.166666667","black","no","xpyriment","legacy","legacy","0","201","NA","uniform","54638","1000","0.0183022804641","0","undefined","0","0","5","5","5","0","5","5","5","NA","5","5","0","5","NA","5","5","0","5","NA","5","NA","5","0","0","5","5","0","5","5","6","/","04/30/19 15:09:11","The main experiment item","yes","FIN__AB__M21__7%3A10%3A17.osexp","C:\Users\ERP Testing Room\Desktop\Joanna\morph21","no","mono","no","18","no","white","no","yes","1080","legacy","5","5","C:/Users/ERP Testing Room/Desktop/Joanna/morph21/subject-176.csv","xpyriment","Kafkaesque Koffka","3.2.5","0","None","NA","NA","NA","NA","space","None","989","NA","NA","NA","NA","238844","989","2","legacy","1024","2","48000","-16","AB_m21","176","even","CW_S","TEACHER","1974","262319","259152","260811","240827","NA","NA","NA","NA","254685","259649","NA","258652","NA","258645","260800","1983","262669","NA","NA","259811","1974","1974","260202","258645","1974","259811","262669","morph21_Oliver/Morris","1","5815","6","yes","1280","23"
"200","28.5714285714","28.5714285714","909.857142857","909.857142857","black","no","xpyriment","legacy","legacy","0","207","NA","uniform","69560","1000","0.0143760782059","1","undefined","1","0","6","6","6","0","6","6","6","NA","6","6","0","6","NA","6","6","0","6","NA","6","NA","6","0","0","6","6","0","6","6","7","/","04/30/19 15:09:11","The main experiment item","yes","FIN__AB__M21__7%3A10%3A17.osexp","C:\Users\ERP Testing Room\Desktop\Joanna\morph21","no","mono","no","18","no","white","no","yes","1080","legacy","6","6","C:/Users/ERP Testing Room/Desktop/Joanna/morph21/subject-176.csv","xpyriment","Kafkaesque Koffka","3.2.5","0","/","NA","NA","NA","NA","space","/","554","NA","NA","NA","NA","238844","554","2","legacy","1024","2","48000","-16","AB_m21","176","even","FILL_W","LEGAL","1974","265527","263861","260811","240827","NA","NA","NA","NA","265525","264358","NA","263361","NA","263349","265525","1983","265728","NA","NA","264536","1974","1974","264927","263349","1974","264536","265728","morph21_Oliver/Morris","2","6369","7","yes","1280","35"
"400","37.5","37.5","878.875","878.875","black","no","xpyriment","legacy","legacy","0","207","NA","uniform","67513","1000","0.0148119621406","1","undefined","1","0","7","7","7","0","7","7","7","NA","7","7","0","7","NA","7","7","0","7","NA","7","NA","7","0","0","7","7","0","7","7","8","/","04/30/19 15:09:11","The main experiment item","yes","FIN__AB__M21__7%3A10%3A17.osexp","C:\Users\ERP Testing Room\Desktop\Joanna\morph21","no","mono","no","18","no","white","no","yes","1080","legacy","7","7","C:/Users/ERP Testing Room/Desktop/Joanna/morph21/subject-176.csv","xpyriment","Kafkaesque Koffka","3.2.5","0","/","NA","NA","NA","NA","space","/","662","NA","NA","NA","NA","238844","662","2","legacy","1024","2","48000","-16","AB_m21","176","even","FILL_W","FLIRT","1974","268444","266778","260811","240827","NA","NA","NA","NA","268435","267275","NA","266278","NA","266268","268435","1983","268844","NA","NA","267444","1974","1974","267836","266268","1974","267444","268844","morph21_Oliver/Morris","3","7031","8","yes","1280","1"
"400","44.4444444444","44.4444444444","889.777777778","889.777777778","black","no","xpyriment","legacy","legacy","0","204","NA","uniform","55556","1000","0.0179998560012","1","undefined","1","0","8","8","8","0","8","8","8","NA","8","8","0","8","NA","8","8","0","8","NA","8","NA","8","0","0","8","8","0","8","8","9","z","04/30/19 15:09:11","The main experiment item","yes","FIN__AB__M21__7%3A10%3A17.osexp","C:\Users\ERP Testing Room\Desktop\Joanna\morph21","no","mono","no","18","no","white","no","yes","1080","legacy","8","8","C:/Users/ERP Testing Room/Desktop/Joanna/morph21/subject-176.csv","xpyriment","Kafkaesque Koffka","3.2.5","0","z","NA","NA","NA","NA","space","z","977","NA","NA","NA","NA","238844","977","2","legacy","1024","2","48000","-16","AB_m21","176","even","NW_L_COMP","ANGELISH","1974","273079","269911","271569","240827","NA","NA","NA","NA","271566","270408","NA","269411","NA","269403","271566","1983","273479","NA","NA","270569","1974","1974","270969","269403","1974","270569","273479","morph21_Oliver/Morris","4","8008","9","yes","1280","7"
"400","50","50","868.6","868.6","black","no","xpyriment","legacy","legacy","0","208","NA","uniform","65986","1000","0.0151547297912","1","undefined","1","0","9","9","9","0","9","9","9","NA","9","9","0","9","NA","9","9","0","9","NA","9","NA","9","0","0","9","9","0","9","9","10","z","04/30/19 15:09:11","The main experiment item","yes","FIN__AB__M21__7%3A10%3A17.osexp","C:\Users\ERP Testing Room\Desktop\Joanna\morph21","no","mono","no","18","no","white","no","yes","1080","legacy","9","9","C:/Users/ERP Testing Room/Desktop/Joanna/morph21/subject-176.csv","xpyriment","Kafkaesque Koffka","3.2.5","0","z","NA","NA","NA","NA","space","z","678","NA","NA","NA","NA","238844","678","2","legacy","1024","2","48000","-16","AB_m21","176","even","FILL_NW","BORMS","1974","276221","274562","271569","240827","NA","NA","NA","NA","276217","275059","NA","274062","NA","274051","276217","1983","276621","NA","NA","275221","1974","1974","275621","274051","1974","275221","276621","morph21_Oliver/Morris","5","8686","10","yes","1280","50"
"300","54.5454545455","54.5454545455","868.636363636","868.636363636","black","no","xpyriment","legacy","legacy","0","206","NA","uniform","57173","1000","0.0174907736169","1","undefined","1","0","10","10","10","0","10","10","10","NA","10","10","0","10","NA","10","10","0","10","NA","10","NA","10","0","0","10","10","0","10","10","11","z","04/30/19 15:09:11","The main experiment item","yes","FIN__AB__M21__7%3A10%3A17.osexp","C:\Users\ERP Testing Room\Desktop\Joanna\morph21","no","mono","no","18","no","white","no","yes","1080","legacy","10","10","C:/Users/ERP Testing Room/Desktop/Joanna/morph21/subject-176.csv","xpyriment","Kafkaesque Koffka","3.2.5","0","z","NA","NA","NA","NA","space","z","869","NA","NA","NA","NA","238844","869","2","legacy","1024","2","48000","-16","AB_m21","176","even","NW_L_SIMP","EARILT","1974","279429","277771","271569","240827","NA","NA","NA","NA","279426","278268","NA","277271","NA","277264","279426","1983","279729","NA","NA","278437","1974","1974","278829","277264","1974","278437","279729","morph21_Oliver/Morris","6","9555","11","yes","1280","12"
"250","58.3333333333","58.3333333333","876.333333333","876.333333333","black","no","xpyriment","legacy","legacy","0","201","NA","uniform","56170","1000","0.017803097739","1","undefined","1","0","11","11","11","0","11","11","11","NA","11","11","0","11","NA","11","11","0","11","NA","11","NA","11","0","0","11","11","0","11","11","12","/","04/30/19 15:09:11","The main experiment item","yes","FIN__AB__M21__7%3A10%3A17.osexp","C:\Users\ERP Testing Room\Desktop\Joanna\morph21","no","mono","no","18","no","white","no","yes","1080","legacy","11","11","C:/Users/ERP Testing Room/Desktop/Joanna/morph21/subject-176.csv","xpyriment","Kafkaesque Koffka","3.2.5","0","/","NA","NA","NA","NA","space","/","961","NA","NA","NA","NA","238844","961","2","legacy","1024","2","48000","-16","AB_m21","176","even","CW_S","MILDNESS","1974","284021","280846","282513","240827","NA","NA","NA","NA","282504","281343","NA","280346","NA","280340","282504","1983","284271","NA","NA","281513","1974","1974","281904","280340","1974","281513","284271","morph21_Oliver/Morris","7","10516","12","yes","1280","42"
"200","61.5384615385","61.5384615385","854.692307692","854.692307692","black","no","xpyriment","legacy","legacy","0","208","NA","uniform","70147","1000","0.0142557771537","1","undefined","1","0","12","12","12","0","12","12","12","NA","12","12","0","12","NA","12","12","0","12","NA","12","NA","12","0","0","12","12","0","12","12","13","z","04/30/19 15:09:11","The main experiment item","yes","FIN__AB__M21__7%3A10%3A17.osexp","C:\Users\ERP Testing Room\Desktop\Joanna\morph21","no","mono","no","18","no","white","no","yes","1080","legacy","12","12","C:/Users/ERP Testing Room/Desktop/Joanna/morph21/subject-176.csv","xpyriment","Kafkaesque Koffka","3.2.5","0","z","NA","NA","NA","NA","space","z","595","NA","NA","NA","NA","238844","595","2","legacy","1024","2","48000","-16","AB_m21","176","even","FILL_NW","TUEER","1974","287063","285404","282513","240827","NA","NA","NA","NA","287053","285902","NA","284904","NA","284892","287053","1983","287263","NA","NA","286063","1974","1974","286454","284892","1974","286063","287263","morph21_Oliver/Morris","8","11111","13","yes","1280","44"
"300","64.2857142857","64.2857142857","859.642857143","859.642857143","black","no","xpyriment","legacy","legacy","0","205","NA","uniform","57503","1000","0.0173903970228","1","undefined","1","0","13","13","13","0","13","13","13","NA","13","13","0","13","NA","13","13","0","13","NA","13","NA","13","0","0","13","13","0","13","13","14","z","04/30/19 15:09:11","The main experiment item","yes","FIN__AB__M21__7%3A10%3A17.osexp","C:\Users\ERP Testing Room\Desktop\Joanna\morph21","no","mono","no","18","no","white","no","yes","1080","legacy","13","13","C:/Users/ERP Testing Room/Desktop/Joanna/morph21/subject-176.csv","xpyriment","Kafkaesque Koffka","3.2.5","0","z","NA","NA","NA","NA","space","z","924","NA","NA","NA","NA","238844","924","2","legacy","1024","2","48000","-16","AB_m21","176","even","NW_S_SIMP","TILTADY","1974","290055","288396","282513","240827","NA","NA","NA","NA","290048","288893","NA","287896","NA","287886","290048","1983","290355","NA","NA","289054","1974","1974","289446","287886","1974","289054","290355","morph21_Oliver/Morris","9","12035","14","yes","1280","17"
"300","66.6666666667","66.6666666667","866.4","866.4","black","no","xpyriment","legacy","legacy","0","205","NA","uniform","52078","1000","0.0192019662813","1","undefined","1","0","14","14","14","0","14","14","14","NA","14","14","0","14","NA","14","14","0","14","NA","14","NA","14","0","0","14","14","0","14","14","15","z","04/30/19 15:09:11","The main experiment item","yes","FIN__AB__M21__7%3A10%3A17.osexp","C:\Users\ERP Testing Room\Desktop\Joanna\morph21","no","mono","no","18","no","white","no","yes","1080","legacy","14","14","C:/Users/ERP Testing Room/Desktop/Joanna/morph21/subject-176.csv","xpyriment","Kafkaesque Koffka","3.2.5","0","z","NA","NA","NA","NA","space","z","961","NA","NA","NA","NA","238844","961","2","legacy","1024","2","48000","-16","AB_m21","176","even","NW_S_SIMP","FEVERIME","1974","294614","291414","293106","240827","NA","NA","NA","NA","293100","291911","NA","290914","NA","290909","293100","1983","294914","NA","NA","292106","1974","1974","292497","290909","1974","292106","294914","morph21_Oliver/Morris","10","12996","15","yes","1280","24"
"350","68.75","68.75","841.8125","841.8125","black","no","xpyriment","legacy","legacy","0","207","NA","uniform","75298","1000","0.0132805652209","1","undefined","1","0","15","15","15","0","15","15","15","NA","15","15","0","15","NA","15","15","0","15","NA","15","NA","15","0","0","15","15","0","15","15","16","/","04/30/19 15:09:11","The main experiment item","yes","FIN__AB__M21__7%3A10%3A17.osexp","C:\Users\ERP Testing Room\Desktop\Joanna\morph21","no","mono","no","18","no","white","no","yes","1080","legacy","15","15","C:/Users/ERP Testing Room/Desktop/Joanna/morph21/subject-176.csv","xpyriment","Kafkaesque Koffka","3.2.5","0","/","NA","NA","NA","NA","space","/","473","NA","NA","NA","NA","238844","473","2","legacy","1024","2","48000","-16","AB_m21","176","even","FILL_W","BRISK","1974","297672","296006","293106","240827","NA","NA","NA","NA","297665","296503","NA","295506","NA","295499","297665","1983","298023","NA","NA","296673","1974","1974","297064","295499","1974","296673","298023","morph21_Oliver/Morris","11","13469","16","yes","1280","8"
"400","64.7058823529","64.7058823529","850.823529412","850.823529412","black","no","xpyriment","legacy","legacy","0","205","NA","uniform","55121","1000","0.0181419059886","0","undefined","0","0","16","16","16","0","16","16","16","NA","16","16","0","16","NA","16","16","0","16","NA","16","NA","16","0","0","16","16","0","16","16","17","z","04/30/19 15:09:11","The main experiment item","yes","FIN__AB__M21__7%3A10%3A17.osexp","C:\Users\ERP Testing Room\Desktop\Joanna\morph21","no","mono","no","18","no","white","no","yes","1080","legacy","16","16","C:/Users/ERP Testing Room/Desktop/Joanna/morph21/subject-176.csv","xpyriment","Kafkaesque Koffka","3.2.5","0","None","NA","NA","NA","NA","space","None","995","NA","NA","NA","NA","238844","995","2","legacy","1024","2","48000","-16","AB_m21","176","even","NW_S_SIMP","MEDICALADY","1974","300773","299123","293106","240827","NA","NA","NA","NA","297665","299620","NA","298623","NA","298617","300768","1983","301173","NA","NA","299773","1974","1974","300173","298617","1974","299773","301173","morph21_Oliver/Morris","11","14464","17","yes","1280","18"
"400","66.6666666667","66.6666666667","843.166666667","843.166666667","black","no","xpyriment","legacy","legacy","0","201","NA","uniform","64296","1000","0.0155530670648","1","undefined","1","0","17","17","17","0","17","17","17","NA","17","17","0","17","NA","17","17","0","17","NA","17","NA","17","0","0","17","17","0","17","17","18","/","04/30/19 15:09:11","The main experiment item","yes","FIN__AB__M21__7%3A10%3A17.osexp","C:\Users\ERP Testing Room\Desktop\Joanna\morph21","no","mono","no","18","no","white","no","yes","1080","legacy","17","17","C:/Users/ERP Testing Room/Desktop/Joanna/morph21/subject-176.csv","xpyriment","Kafkaesque Koffka","3.2.5","0","/","NA","NA","NA","NA","space","/","713","NA","NA","NA","NA","238844","713","2","legacy","1024","2","48000","-16","AB_m21","176","even","CW_S","DIETARY","1974","305398","302231","303889","240827","NA","NA","NA","NA","303879","302728","NA","301731","NA","301725","303879","1983","305798","NA","NA","302889","1974","1974","303281","301725","1974","302889","305798","morph21_Oliver/Morris","12","15177","18","yes","1280","6"
"300","63.1578947368","63.1578947368","850.842105263","850.842105263","black","no","xpyriment","legacy","legacy","0","208","NA","uniform","48515","1000","0.0206121817994","0","undefined","0","0","18","18","18","0","18","18","18","NA","18","18","0","18","NA","18","18","0","18","NA","18","NA","18","0","0","18","18","0","18","18","19","z","04/30/19 15:09:11","The main experiment item","yes","FIN__AB__M21__7%3A10%3A17.osexp","C:\Users\ERP Testing Room\Desktop\Joanna\morph21","no","mono","no","18","no","white","no","yes","1080","legacy","18","18","C:/Users/ERP Testing Room/Desktop/Joanna/morph21/subject-176.csv","xpyriment","Kafkaesque Koffka","3.2.5","0","None","NA","NA","NA","NA","space","None","989","NA","NA","NA","NA","238844","989","2","legacy","1024","2","48000","-16","AB_m21","176","even","FILL_NW","DASK","1974","308616","306940","303889","240827","NA","NA","NA","NA","303879","307437","NA","306440","NA","306432","308605","1983","308916","NA","NA","307615","1974","1974","308007","306432","1974","307615","308916","morph21_Oliver/Morris","12","16166","19","yes","1280","12"
"250","65","65","842.3","842.3","black","no","xpyriment","legacy","legacy","0","207","NA","uniform","63064","1000","0.0158569072688","1","undefined","1","0","19","19","19","0","19","19","19","NA","19","19","0","19","NA","19","19","0","19","NA","19","NA","19","0","0","19","19","0","19","19","20","/","04/30/19 15:09:11","The main experiment item","yes","FIN__AB__M21__7%3A10%3A17.osexp","C:\Users\ERP Testing Room\Desktop\Joanna\morph21","no","mono","no","18","no","white","no","yes","1080","legacy","19","19","C:/Users/ERP Testing Room/Desktop/Joanna/morph21/subject-176.csv","xpyriment","Kafkaesque Koffka","3.2.5","0","/","NA","NA","NA","NA","space","/","680","NA","NA","NA","NA","238844","680","2","legacy","1024","2","48000","-16","AB_m21","176","even","FILL_W","SLIM","1974","311707","310041","303889","240827","NA","NA","NA","NA","311697","310538","NA","309541","NA","309534","311697","1983","311958","NA","NA","310707","1974","1974","311099","309534","1974","310707","311958","morph21_Oliver/Morris","13","16846","20","yes","1280","6"
"250","66.6666666667","66.6666666667","830.380952381","830.380952381","black","no","xpyriment","legacy","legacy","0","201","NA","uniform","66746","1000","0.0149821712163","1","undefined","1","0","20","20","20","0","20","20","20","NA","20","20","0","20","NA","20","20","0","20","NA","20","NA","20","0","0","20","20","0","20","20","21","/","04/30/19 15:09:11","The main experiment item","yes","FIN__AB__M21__7%3A10%3A17.osexp","C:\Users\ERP Testing Room\Desktop\Joanna\morph21","no","mono","no","18","no","white","no","yes","1080","legacy","20","20","C:/Users/ERP Testing Room/Desktop/Joanna/morph21/subject-176.csv","xpyriment","Kafkaesque Koffka","3.2.5","0","/","NA","NA","NA","NA","space","/","592","NA","NA","NA","NA","238844","592","2","legacy","1024","2","48000","-16","AB_m21","176","even","CW_S","TOSSING","1974","316174","313016","314666","240827","NA","NA","NA","NA","314662","313513","NA","312516","NA","312506","314662","1983","316425","NA","NA","313666","1974","1974","314066","312506","1974","313666","316425","morph21_Oliver/Morris","14","17438","21","yes","1280","26"
"200","68.1818181818","68.1818181818","832.818181818","832.818181818","black","no","xpyriment","legacy","legacy","0","203","NA","uniform","58657","1000","0.0170482636343","1","undefined","1","0","21","21","21","0","21","21","21","NA","21","21","0","21","NA","21","21","0","21","NA","21","NA","21","0","0","21","21","0","21","21","22","z","04/30/19 15:09:11","The main experiment item","yes","FIN__AB__M21__7%3A10%3A17.osexp","C:\Users\ERP Testing Room\Desktop\Joanna\morph21","no","mono","no","18","no","white","no","yes","1080","legacy","21","21","C:/Users/ERP Testing Room/Desktop/Joanna/morph21/subject-176.csv","xpyriment","Kafkaesque Koffka","3.2.5","0","z","NA","NA","NA","NA","space","z","884","NA","NA","NA","NA","238844","884","2","legacy","1024","2","48000","-16","AB_m21","176","even","NW_S_COMP","MELTANCE","1974","319158","317499","314666","240827","NA","NA","NA","NA","319149","317997","NA","316999","NA","316989","319149","1983","319358","NA","NA","318158","1974","1974","318549","316989","1974","318158","319358","morph21_Oliver/Morris","15","18322","22","yes","1280","1"
"400","69.5652173913","69.5652173913","830.173913043","830.173913043","black","no","xpyriment","legacy","legacy","0","208","NA","uniform","56151","1000","0.0178091218322","1","undefined","1","0","22","22","22","0","22","22","22","NA","22","22","0","22","NA","22","22","0","22","NA","22","NA","22","0","0","22","22","0","22","22","23","z","04/30/19 15:09:11","The main experiment item","yes","FIN__AB__M21__7%3A10%3A17.osexp","C:\Users\ERP Testing Room\Desktop\Joanna\morph21","no","mono","no","18","no","white","no","yes","1080","legacy","22","22","C:/Users/ERP Testing Room/Desktop/Joanna/morph21/subject-176.csv","xpyriment","Kafkaesque Koffka","3.2.5","0","z","NA","NA","NA","NA","space","z","772","NA","NA","NA","NA","238844","772","2","legacy","1024","2","48000","-16","AB_m21","176","even","FILL_NW","ULNS","1974","322166","320516","314666","240827","NA","NA","NA","NA","322161","321013","NA","320016","NA","320007","322161","1983","322566","NA","NA","321166","1974","1974","321566","320007","1974","321166","322566","morph21_Oliver/Morris","16","19094","23","yes","1280","45"
"400","70.8333333333","70.8333333333","826.5","826.5","black","no","xpyriment","legacy","legacy","0","206","NA","uniform","63685","1000","0.0157022846824","1","undefined","1","0","23","23","23","0","23","23","23","NA","23","23","0","23","NA","23","23","0","23","NA","23","NA","23","0","0","23","23","0","23","23","24","z","04/30/19 15:09:11","The main experiment item","yes","FIN__AB__M21__7%3A10%3A17.osexp","C:\Users\ERP Testing Room\Desktop\Joanna\morph21","no","mono","no","18","no","white","no","yes","1080","legacy","23","23","C:/Users/ERP Testing Room/Desktop/Joanna/morph21/subject-176.csv","xpyriment","Kafkaesque Koffka","3.2.5","0","z","NA","NA","NA","NA","space","z","742","NA","NA","NA","NA","238844","742","2","legacy","1024","2","48000","-16","AB_m21","176","even","NW_L_SIMP","BOGADY","1974","326817","323641","325309","240827","NA","NA","NA","NA","325305","324138","NA","323141","NA","323137","325305","1983","327218","NA","NA","324316","1974","1974","324708","323137","1974","324316","327218","morph21_Oliver/Morris","17","19836","24","yes","1280","2"
"300","72","72","832.96","832.96","black","no","xpyriment","legacy","legacy","0","206","NA","uniform","55282","1000","0.0180890705836","1","undefined","1","0","24","24","24","0","24","24","24","NA","24","24","0","24","NA","24","24","0","24","NA","24","NA","24","0","0","24","24","0","24","24","25","z","04/30/19 15:09:11","The main experiment item","yes","FIN__AB__M21__7%3A10%3A17.osexp","C:\Users\ERP Testing Room\Desktop\Joanna\morph21","no","mono","no","18","no","white","no","yes","1080","legacy","24","24","C:/Users/ERP Testing Room/Desktop/Joanna/morph21/subject-176.csv","xpyriment","Kafkaesque Koffka","3.2.5","0","z","NA","NA","NA","NA","space","z","988","NA","NA","NA","NA","238844","988","2","legacy","1024","2","48000","-16","AB_m21","176","even","NW_L_SIMP","ELBOWILM","1974","329951","328293","325309","240827","NA","NA","NA","NA","329947","328790","NA","327792","NA","327788","329947","1983","330251","NA","NA","328951","1974","1974","329351","327788","1974","328951","330251","morph21_Oliver/Morris","18","20824","25","yes","1280","10"
"350","73.0769230769","73.0769230769","826.807692308","826.807692308","black","no","xpyriment","legacy","legacy","0","202","NA","uniform","65853","1000","0.0151853370386","1","undefined","1","0","25","25","25","0","25","25","25","NA","25","25","0","25","NA","25","25","0","25","NA","25","NA","25","0","0","25","25","0","25","25","26","/","04/30/19 15:09:11","The main experiment item","yes","FIN__AB__M21__7%3A10%3A17.osexp","C:\Users\ERP Testing Room\Desktop\Joanna\morph21","no","mono","no","18","no","white","no","yes","1080","legacy","25","25","C:/Users/ERP Testing Room/Desktop/Joanna/morph21/subject-176.csv","xpyriment","Kafkaesque Koffka","3.2.5","0","/","NA","NA","NA","NA","space","/","673","NA","NA","NA","NA","238844","673","2","legacy","1024","2","48000","-16","AB_m21","176","even","CW_L","PUNCHER","1974","333001","331326","325309","240827","NA","NA","NA","NA","332994","331823","NA","330826","NA","330815","332994","1983","333351","NA","NA","332001","1974","1974","332393","330815","1974","332001","333351","morph21_Oliver/Morris","19","21497","26","yes","1280","1"
"250","74.0740740741","74.0740740741","820.592592593","820.592592593","black","no","xpyriment","legacy","legacy","0","204","NA","uniform","62913","1000","0.0158949660642","1","undefined","1","0","26","26","26","0","26","26","26","NA","26","26","0","26","NA","26","26","0","26","NA","26","NA","26","0","0","26","26","0","26","26","27","z","04/30/19 15:09:11","The main experiment item","yes","FIN__AB__M21__7%3A10%3A17.osexp","C:\Users\ERP Testing Room\Desktop\Joanna\morph21","no","mono","no","18","no","white","no","yes","1080","legacy","26","26","C:/Users/ERP Testing Room/Desktop/Joanna/morph21/subject-176.csv","xpyriment","Kafkaesque Koffka","3.2.5","0","z","NA","NA","NA","NA","space","z","659","NA","NA","NA","NA","238844","659","2","legacy","1024","2","48000","-16","AB_m21","176","even","NW_L_COMP","TRIPARY","1974","337651","334493","336143","240827","NA","NA","NA","NA","336138","334990","NA","333993","NA","333986","336138","1983","337901","NA","NA","335143","1974","1974","335543","333986","1974","335143","337901","morph21_Oliver/Morris","20","22156","27","yes","1280","2"
"250","75","75","812.428571429","812.428571429","black","no","xpyriment","legacy","legacy","0","202","NA","uniform","68184","1000","0.0146661973484","1","undefined","1","0","27","27","27","0","27","27","27","NA","27","27","0","27","NA","27","27","0","27","NA","27","NA","27","0","0","27","27","0","27","27","28","/","04/30/19 15:09:11","The main experiment item","yes","FIN__AB__M21__7%3A10%3A17.osexp","C:\Users\ERP Testing Room\Desktop\Joanna\morph21","no","mono","no","18","no","white","no","yes","1080","legacy","27","27","C:/Users/ERP Testing Room/Desktop/Joanna/morph21/subject-176.csv","xpyriment","Kafkaesque Koffka","3.2.5","0","/","NA","NA","NA","NA","space","/","592","NA","NA","NA","NA","238844","592","2","legacy","1024","2","48000","-16","AB_m21","176","even","CW_L","DEAFNESS","1974","340626","338960","336143","240827","NA","NA","NA","NA","340617","339457","NA","338460","NA","338454","340617","1983","340877","NA","NA","339626","1974","1974","340018","338454","1974","339626","340877","morph21_Oliver/Morris","21","22748","28","yes","1280","39"
"400","75.8620689655","75.8620689655","812.344827586","812.344827586","black","no","xpyriment","legacy","legacy","0","204","NA","uniform","60076","1000","0.0166455822625","1","undefined","1","0","28","28","28","0","28","28","28","NA","28","28","0","28","NA","28","28","0","28","NA","28","NA","28","0","0","28","28","0","28","28","29","z","04/30/19 15:09:11","The main experiment item","yes","FIN__AB__M21__7%3A10%3A17.osexp","C:\Users\ERP Testing Room\Desktop\Joanna\morph21","no","mono","no","18","no","white","no","yes","1080","legacy","28","28","C:/Users/ERP Testing Room/Desktop/Joanna/morph21/subject-176.csv","xpyriment","Kafkaesque Koffka","3.2.5","0","z","NA","NA","NA","NA","space","z","810","NA","NA","NA","NA","238844","810","2","legacy","1024","2","48000","-16","AB_m21","176","even","NW_L_COMP","RIPENCE","1974","343602","341943","336143","240827","NA","NA","NA","NA","343596","342440","NA","341443","NA","341437","343596","1983","344003","NA","NA","342601","1974","1974","342994","341437","1974","342601","344003","morph21_Oliver/Morris","22","23558","29","yes","1280","4"
"400","73.3333333333","73.3333333333","804.7","804.7","black","no","xpyriment","legacy","legacy","0","203","NA","uniform","71595","1000","0.0139674558279","0","undefined","0","0","29","29","29","0","29","29","29","NA","29","29","0","29","NA","29","29","0","29","NA","29","NA","29","0","0","29","29","0","29","29","30","z","04/30/19 15:09:11","The main experiment item","yes","FIN__AB__M21__7%3A10%3A17.osexp","C:\Users\ERP Testing Room\Desktop\Joanna\morph21","no","mono","no","18","no","white","no","yes","1080","legacy","29","29","C:/Users/ERP Testing Room/Desktop/Joanna/morph21/subject-176.csv","xpyriment","Kafkaesque Koffka","3.2.5","0","/","NA","NA","NA","NA","space","/","583","NA","NA","NA","NA","238844","583","2","legacy","1024","2","48000","-16","AB_m21","176","even","NW_S_COMP","TRUENESS","1974","348336","345178","346828","240827","NA","NA","NA","NA","343596","345675","NA","344678","NA","344670","346823","1983","348736","NA","NA","345828","1974","1974","346228","344670","1974","345828","348736","morph21_Oliver/Morris","22","24141","30","yes","1280","15"
"400","74.1935483871","74.1935483871","807.258064516","807.258064516","black","no","xpyriment","legacy","legacy","0","205","NA","uniform","58404","1000","0.0171221149236","1","undefined","1","0","30","30","30","0","30","30","30","NA","30","30","0","30","NA","30","30","0","30","NA","30","NA","30","0","0","30","30","0","30","30","31","z","04/30/19 15:09:11","The main experiment item","yes","FIN__AB__M21__7%3A10%3A17.osexp","C:\Users\ERP Testing Room\Desktop\Joanna\morph21","no","mono","no","18","no","white","no","yes","1080","legacy","30","30","C:/Users/ERP Testing Room/Desktop/Joanna/morph21/subject-176.csv","xpyriment","Kafkaesque Koffka","3.2.5","0","z","NA","NA","NA","NA","space","z","884","NA","NA","NA","NA","238844","884","2","legacy","1024","2","48000","-16","AB_m21","176","even","NW_S_SIMP","SCHEMENELS","1974","351478","349828","346828","240827","NA","NA","NA","NA","351473","350325","NA","349328","NA","349316","351473","1983","351878","NA","NA","350478","1974","1974","350878","349316","1974","350478","351878","morph21_Oliver/Morris","23","25025","31","yes","1280","15"
"200","75","75","799.375","799.375","black","no","xpyriment","legacy","legacy","0","201","NA","uniform","66388","1000","0.0150629631861","1","undefined","1","0","31","31","31","0","31","31","31","NA","31","31","0","31","NA","31","31","0","31","NA","31","NA","31","0","0","31","31","0","31","31","32","/","04/30/19 15:09:11","The main experiment item","yes","FIN__AB__M21__7%3A10%3A17.osexp","C:\Users\ERP Testing Room\Desktop\Joanna\morph21","no","mono","no","18","no","white","no","yes","1080","legacy","31","31","C:/Users/ERP Testing Room/Desktop/Joanna/morph21/subject-176.csv","xpyriment","Kafkaesque Koffka","3.2.5","0","/","NA","NA","NA","NA","space","/","555","NA","NA","NA","NA","238844","555","2","legacy","1024","2","48000","-16","AB_m21","176","even","CW_S","LISTENER","1974","354711","353011","346828","240827","NA","NA","NA","NA","354706","353508","NA","352511","NA","352505","354706","1983","354911","NA","NA","353711","1974","1974","354111","352505","1974","353711","354911","morph21_Oliver/Morris","24","25580","32","yes","1280","18"
"350","75.7575757576","75.7575757576","797.333333333","797.333333333","black","no","xpyriment","legacy","legacy","0","203","NA","uniform","62932","1000","0.0158901671646","1","undefined","1","0","32","32","32","0","32","32","32","NA","32","32","0","32","NA","32","32","0","32","NA","32","NA","32","0","0","32","32","0","32","32","33","z","04/30/19 15:09:11","The main experiment item","yes","FIN__AB__M21__7%3A10%3A17.osexp","C:\Users\ERP Testing Room\Desktop\Joanna\morph21","no","mono","no","18","no","white","no","yes","1080","legacy","32","32","C:/Users/ERP Testing Room/Desktop/Joanna/morph21/subject-176.csv","xpyriment","Kafkaesque Koffka","3.2.5","0","z","NA","NA","NA","NA","space","z","732","NA","NA","NA","NA","238844","732","2","legacy","1024","2","48000","-16","AB_m21","176","even","NW_S_COMP","EJECTENCE","1974","359187","356020","357678","240827","NA","NA","NA","NA","357669","356517","NA","355520","NA","355510","357669","1983","359537","NA","NA","356678","1974","1974","357070","355510","1974","356678","359537","morph21_Oliver/Morris","25","26312","33","yes","1280","20"
"350","76.4705882353","76.4705882353","797.941176471","797.941176471","black","no","xpyriment","legacy","legacy","0","207","NA","uniform","61112","1000","0.0163633983506","1","undefined","1","0","33","33","33","0","33","33","33","NA","33","33","0","33","NA","33","33","0","33","NA","33","NA","33","0","0","33","33","0","33","33","34","/","04/30/19 15:09:11","The main experiment item","yes","FIN__AB__M21__7%3A10%3A17.osexp","C:\Users\ERP Testing Room\Desktop\Joanna\morph21","no","mono","no","18","no","white","no","yes","1080","legacy","33","33","C:/Users/ERP Testing Room/Desktop/Joanna/morph21/subject-176.csv","xpyriment","Kafkaesque Koffka","3.2.5","0","/","NA","NA","NA","NA","space","/","818","NA","NA","NA","NA","238844","818","2","legacy","1024","2","48000","-16","AB_m21","176","even","FILL_W","LIFT","1974","362329","360671","357678","240827","NA","NA","NA","NA","362320","361168","NA","360171","NA","360164","362320","1983","362679","NA","NA","361329","1974","1974","361721","360164","1974","361329","362679","morph21_Oliver/Morris","26","27130","34","yes","1280","39"
"200","77.1428571429","77.1428571429","794.057142857","794.057142857","black","no","xpyriment","legacy","legacy","0","208","NA","uniform","61734","1000","0.0161985291736","1","undefined","1","0","34","34","34","0","34","34","34","NA","34","34","0","34","NA","34","34","0","34","NA","34","NA","34","0","0","34","34","0","34","34","35","z","04/30/19 15:09:11","The main experiment item","yes","FIN__AB__M21__7%3A10%3A17.osexp","C:\Users\ERP Testing Room\Desktop\Joanna\morph21","no","mono","no","18","no","white","no","yes","1080","legacy","34","34","C:/Users/ERP Testing Room/Desktop/Joanna/morph21/subject-176.csv","xpyriment","Kafkaesque Koffka","3.2.5","0","z","NA","NA","NA","NA","space","z","662","NA","NA","NA","NA","238844","662","2","legacy","1024","2","48000","-16","AB_m21","176","even","FILL_NW","GAIRS","1974","365413","363754","357678","240827","NA","NA","NA","NA","365408","364252","NA","363254","NA","363244","365408","1983","365613","NA","NA","364413","1974","1974","364813","363244","1974","364413","365613","morph21_Oliver/Morris","27","27792","35","yes","1280","23"
"250","77.7777777778","77.7777777778","788.222222222","788.222222222","black","no","xpyriment","legacy","legacy","0","207","NA","uniform","68441","1000","0.0146111249105","1","undefined","1","0","35","35","35","0","35","35","35","NA","35","35","0","35","NA","35","35","0","35","NA","35","NA","35","0","0","35","35","0","35","35","36","/","04/30/19 15:09:11","The main experiment item","yes","FIN__AB__M21__7%3A10%3A17.osexp","C:\Users\ERP Testing Room\Desktop\Joanna\morph21","no","mono","no","18","no","white","no","yes","1080","legacy","35","35","C:/Users/ERP Testing Room/Desktop/Joanna/morph21/subject-176.csv","xpyriment","Kafkaesque Koffka","3.2.5","0","/","NA","NA","NA","NA","space","/","584","NA","NA","NA","NA","238844","584","2","legacy","1024","2","48000","-16","AB_m21","176","even","FILL_W","SMOKE","1974","369855","366680","368346","240827","NA","NA","NA","NA","368337","367177","NA","366179","NA","366168","368337","1983","370105","NA","NA","367346","1974","1974","367738","366168","1974","367346","370105","morph21_Oliver/Morris","28","28376","36","yes","1280","50"
"350","78.3783783784","78.3783783784","781.513513514","781.513513514","black","no","xpyriment","legacy","legacy","0","206","NA","uniform","68696","1000","0.0145568883196","1","undefined","1","0","36","36","36","0","36","36","36","NA","36","36","0","36","NA","36","36","0","36","NA","36","NA","36","0","0","36","36","0","36","36","37","z","04/30/19 15:09:11","The main experiment item","yes","FIN__AB__M21__7%3A10%3A17.osexp","C:\Users\ERP Testing Room\Desktop\Joanna\morph21","no","mono","no","18","no","white","no","yes","1080","legacy","36","36","C:/Users/ERP Testing Room/Desktop/Joanna/morph21/subject-176.csv","xpyriment","Kafkaesque Koffka","3.2.5","0","z","NA","NA","NA","NA","space","z","540","NA","NA","NA","NA","238844","540","2","legacy","1024","2","48000","-16","AB_m21","176","even","NW_L_SIMP","PICKENGE","1974","372838","371188","368346","240827","NA","NA","NA","NA","372834","371685","NA","370688","NA","370681","372834","1983","373188","NA","NA","371838","1974","1974","372238","370681","1974","371838","373188","morph21_Oliver/Morris","29","28916","37","yes","1280","5"
"350","78.9473684211","78.9473684211","775.657894737","775.657894737","black","no","xpyriment","legacy","legacy","0","202","NA","uniform","68119","1000","0.0146801920169","1","undefined","1","0","37","37","37","0","37","37","37","NA","37","37","0","37","NA","37","37","0","37","NA","37","NA","37","0","0","37","37","0","37","37","38","/","04/30/19 15:09:11","The main experiment item","yes","FIN__AB__M21__7%3A10%3A17.osexp","C:\Users\ERP Testing Room\Desktop\Joanna\morph21","no","mono","no","18","no","white","no","yes","1080","legacy","37","37","C:/Users/ERP Testing Room/Desktop/Joanna/morph21/subject-176.csv","xpyriment","Kafkaesque Koffka","3.2.5","0","/","NA","NA","NA","NA","space","/","559","NA","NA","NA","NA","238844","559","2","legacy","1024","2","48000","-16","AB_m21","176","even","CW_L","JUMPING","1974","375947","374280","368346","240827","NA","NA","NA","NA","375936","374777","NA","373780","NA","373771","375936","1983","376297","NA","NA","374947","1974","1974","375338","373771","1974","374946","376297","morph21_Oliver/Morris","30","29475","38","yes","1280","30"
"300","79.4871794872","79.4871794872","767.051282051","767.051282051","black","no","xpyriment","legacy","legacy","0","208","NA","uniform","76765","1000","0.0130267700124","1","undefined","1","0","38","38","38","0","38","38","38","NA","38","38","0","38","NA","38","38","0","38","NA","38","NA","38","0","0","38","38","0","38","38","39","z","04/30/19 15:09:11","The main experiment item","yes","FIN__AB__M21__7%3A10%3A17.osexp","C:\Users\ERP Testing Room\Desktop\Joanna\morph21","no","mono","no","18","no","white","no","yes","1080","legacy","38","38","C:/Users/ERP Testing Room/Desktop/Joanna/morph21/subject-176.csv","xpyriment","Kafkaesque Koffka","3.2.5","0","z","NA","NA","NA","NA","space","z","440","NA","NA","NA","NA","238844","440","2","legacy","1024","2","48000","-16","AB_m21","176","even","FILL_NW","HEEM","1974","380631","377463","379123","240827","NA","NA","NA","NA","379117","377960","NA","376963","NA","376952","379117","1983","380931","NA","NA","378123","1974","1974","378514","376952","1974","378123","380931","morph21_Oliver/Morris","31","29915","39","yes","1280","27"
"400","80","80","762.05","762.05","black","no","xpyriment","legacy","legacy","0","205","NA","uniform","65239","1000","0.0153282545717","1","undefined","1","0","39","39","39","0","39","39","39","NA","39","39","0","39","NA","39","39","0","39","NA","39","NA","39","0","0","39","39","0","39","39","40","z","04/30/19 15:09:11","The main experiment item","yes","FIN__AB__M21__7%3A10%3A17.osexp","C:\Users\ERP Testing Room\Desktop\Joanna\morph21","no","mono","no","18","no","white","no","yes","1080","legacy","39","39","C:/Users/ERP Testing Room/Desktop/Joanna/morph21/subject-176.csv","xpyriment","Kafkaesque Koffka","3.2.5","0","z","NA","NA","NA","NA","space","z","567","NA","NA","NA","NA","238844","567","2","legacy","1024","2","48000","-16","AB_m21","176","even","NW_S_SIMP","AIDIG","1974","383756","382056","379123","240827","NA","NA","NA","NA","383747","382553","NA","381556","NA","381547","383747","1983","384156","NA","NA","382756","1974","1974","383148","381547","1974","382756","384156","morph21_Oliver/Morris","32","30482","40","yes","1280","4"
"250","80.487804878","80.487804878","756.317073171","756.317073171","black","no","xpyriment","legacy","legacy","0","201","NA","uniform","73527","1000","0.0136004460946","1","undefined","1","0","40","40","40","0","40","40","40","NA","40","40","0","40","NA","40","40","0","40","NA","40","NA","40","0","0","40","40","0","40","40","41","/","04/30/19 15:09:11","The main experiment item","yes","FIN__AB__M21__7%3A10%3A17.osexp","C:\Users\ERP Testing Room\Desktop\Joanna\morph21","no","mono","no","18","no","white","no","yes","1080","legacy","40","40","C:/Users/ERP Testing Room/Desktop/Joanna/morph21/subject-176.csv","xpyriment","Kafkaesque Koffka","3.2.5","0","/","NA","NA","NA","NA","space","/","527","NA","NA","NA","NA","238844","527","2","legacy","1024","2","48000","-16","AB_m21","176","even","CW_S","AWARENESS","1974","386931","385281","379123","240827","NA","NA","NA","NA","386926","385778","NA","384781","NA","384771","386926","1983","387181","NA","NA","385931","1974","1974","386323","384771","1974","385931","387181","morph21_Oliver/Morris","33","31009","41","yes","1280","44"
"400","80.9523809524","80.9523809524","749.928571429","749.928571429","black","no","xpyriment","legacy","legacy","0","208","NA","uniform","73338","1000","0.013635495923","1","undefined","1","0","41","41","41","0","41","41","41","NA","41","41","0","41","NA","41","41","0","41","NA","41","NA","41","0","0","41","41","0","41","41","42","z","04/30/19 15:09:11","The main experiment item","yes","FIN__AB__M21__7%3A10%3A17.osexp","C:\Users\ERP Testing Room\Desktop\Joanna\morph21","no","mono","no","18","no","white","no","yes","1080","legacy","41","41","C:/Users/ERP Testing Room/Desktop/Joanna/morph21/subject-176.csv","xpyriment","Kafkaesque Koffka","3.2.5","0","z","NA","NA","NA","NA","space","z","488","NA","NA","NA","NA","238844","488","2","legacy","1024","2","48000","-16","AB_m21","176","even","FILL_NW","FROES","1974","391407","388240","389898","240827","NA","NA","NA","NA","389889","388737","NA","387740","NA","387735","389889","1983","391807","NA","NA","388898","1974","1974","389290","387735","1974","388898","391807","morph21_Oliver/Morris","34","31497","42","yes","1280","21"
"200","81.3953488372","81.3953488372","743.906976744","743.906976744","black","no","xpyriment","legacy","legacy","0","202","NA","uniform","71500","1000","0.013986013986","1","undefined","1","0","42","42","42","0","42","42","42","NA","42","42","0","42","NA","42","42","0","42","NA","42","NA","42","0","0","42","42","0","42","42","43","/","04/30/19 15:09:11","The main experiment item","yes","FIN__AB__M21__7%3A10%3A17.osexp","C:\Users\ERP Testing Room\Desktop\Joanna\morph21","no","mono","no","18","no","white","no","yes","1080","legacy","42","42","C:/Users/ERP Testing Room/Desktop/Joanna/morph21/subject-176.csv","xpyriment","Kafkaesque Koffka","3.2.5","0","/","NA","NA","NA","NA","space","/","491","NA","NA","NA","NA","238844","491","2","legacy","1024","2","48000","-16","AB_m21","176","even","CW_L","VERBAL","1974","394615","392923","389898","240827","NA","NA","NA","NA","394605","393420","NA","392423","NA","392417","394605","1983","394815","NA","NA","393615","1974","1974","394007","392417","1974","393615","394815","morph21_Oliver/Morris","35","31988","43","yes","1280","50"
"350","79.5454545455","79.5454545455","738.159090909","738.159090909","black","no","xpyriment","legacy","legacy","0","202","NA","uniform","71763","1000","0.0139347574655","0","undefined","0","0","43","43","43","0","43","43","43","NA","43","43","0","43","NA","43","43","0","43","NA","43","NA","43","0","0","43","43","0","43","43","44","/","04/30/19 15:09:11","The main experiment item","yes","FIN__AB__M21__7%3A10%3A17.osexp","C:\Users\ERP Testing Room\Desktop\Joanna\morph21","no","mono","no","18","no","white","no","yes","1080","legacy","43","43","C:/Users/ERP Testing Room/Desktop/Joanna/morph21/subject-176.csv","xpyriment","Kafkaesque Koffka","3.2.5","0","z","NA","NA","NA","NA","space","z","491","NA","NA","NA","NA","238844","491","2","legacy","1024","2","48000","-16","AB_m21","176","even","CW_L","SWIMMER","1974","397616","395916","389898","240827","NA","NA","NA","NA","394605","396413","NA","395416","NA","395412","397611","1983","397966","NA","NA","396616","1974","1974","397016","395412","1974","396616","397966","morph21_Oliver/Morris","35","32479","44","yes","1280","5"
"200","80","80","736.066666667","736.066666667","black","no","xpyriment","legacy","legacy","0","208","NA","uniform","65219","1000","0.0153329551204","1","undefined","1","0","44","44","44","0","44","44","44","NA","44","44","0","44","NA","44","44","0","44","NA","44","NA","44","0","0","44","44","0","44","44","45","z","04/30/19 15:09:11","The main experiment item","yes","FIN__AB__M21__7%3A10%3A17.osexp","C:\Users\ERP Testing Room\Desktop\Joanna\morph21","no","mono","no","18","no","white","no","yes","1080","legacy","44","44","C:/Users/ERP Testing Room/Desktop/Joanna/morph21/subject-176.csv","xpyriment","Kafkaesque Koffka","3.2.5","0","z","NA","NA","NA","NA","space","z","644","NA","NA","NA","NA","238844","644","2","legacy","1024","2","48000","-16","AB_m21","176","even","FILL_NW","PUCTS","1974","402300","399075","400791","240827","NA","NA","NA","NA","400785","399572","NA","398575","NA","398569","400785","1983","402500","NA","NA","399791","1974","1974","400183","398569","1974","399791","402500","morph21_Oliver/Morris","36","33123","45","yes","1280","40"
"350","80.4347826087","80.4347826087","735.695652174","735.695652174","black","no","xpyriment","legacy","legacy","0","208","NA","uniform","62938","1000","0.0158886523245","1","undefined","1","0","45","45","45","0","45","45","45","NA","45","45","0","45","NA","45","45","0","45","NA","45","NA","45","0","0","45","45","0","45","45","46","z","04/30/19 15:09:11","The main experiment item","yes","FIN__AB__M21__7%3A10%3A17.osexp","C:\Users\ERP Testing Room\Desktop\Joanna\morph21","no","mono","no","18","no","white","no","yes","1080","legacy","45","45","C:/Users/ERP Testing Room/Desktop/Joanna/morph21/subject-176.csv","xpyriment","Kafkaesque Koffka","3.2.5","0","z","NA","NA","NA","NA","space","z","719","NA","NA","NA","NA","238844","719","2","legacy","1024","2","48000","-16","AB_m21","176","even","FILL_NW","DOADS","1974","405283","403625","400791","240827","NA","NA","NA","NA","405277","404122","NA","403125","NA","403120","405277","1983","405633","NA","NA","404283","1974","1974","404675","403120","1974","404283","405633","morph21_Oliver/Morris","37","33842","46","yes","1280","15"
"350","78.7234042553","78.7234042553","735.063829787","735.063829787","black","no","xpyriment","legacy","legacy","0","203","NA","uniform","64108","1000","0.0155986772322","0","undefined","0","0","46","46","46","0","46","46","46","NA","46","46","0","46","NA","46","46","0","46","NA","46","NA","46","0","0","46","46","0","46","46","47","z","04/30/19 15:09:11","The main experiment item","yes","FIN__AB__M21__7%3A10%3A17.osexp","C:\Users\ERP Testing Room\Desktop\Joanna\morph21","no","mono","no","18","no","white","no","yes","1080","legacy","46","46","C:/Users/ERP Testing Room/Desktop/Joanna/morph21/subject-176.csv","xpyriment","Kafkaesque Koffka","3.2.5","0","/","NA","NA","NA","NA","space","/","706","NA","NA","NA","NA","238844","706","2","legacy","1024","2","48000","-16","AB_m21","176","even","NW_S_COMP","HUMIDOUS","1974","408408","406758","400791","240827","NA","NA","NA","NA","405277","407255","NA","406258","NA","406252","408403","1983","408758","NA","NA","407408","1974","1974","407808","406252","1974","407408","408758","morph21_Oliver/Morris","37","34548","47","yes","1280","25"
"250","79.1666666667","79.1666666667","731.375","731.375","black","no","xpyriment","legacy","legacy","0","201","NA","uniform","67978","1000","0.0147106416782","1","undefined","1","0","47","47","47","0","47","47","47","NA","47","47","0","47","NA","47","47","0","47","NA","47","NA","47","0","0","47","47","0","47","47","48","/","04/30/19 15:09:11","The main experiment item","yes","FIN__AB__M21__7%3A10%3A17.osexp","C:\Users\ERP Testing Room\Desktop\Joanna\morph21","no","mono","no","18","no","white","no","yes","1080","legacy","47","47","C:/Users/ERP Testing Room/Desktop/Joanna/morph21/subject-176.csv","xpyriment","Kafkaesque Koffka","3.2.5","0","/","NA","NA","NA","NA","space","/","558","NA","NA","NA","NA","238844","558","2","legacy","1024","2","48000","-16","AB_m21","176","even","CW_S","HARMLESS","1974","413001","409825","411492","240827","NA","NA","NA","NA","411483","410322","NA","409325","NA","409315","411483","1983","413251","NA","NA","410492","1974","1974","410883","409315","1974","410492","413251","morph21_Oliver/Morris","38","35106","48","yes","1280","29"
"250","79.5918367347","79.5918367347","728.469387755","728.469387755","black","no","xpyriment","legacy","legacy","0","207","NA","uniform","66015","1000","0.0151480724078","1","undefined","1","0","48","48","48","0","48","48","48","NA","48","48","0","48","NA","48","48","0","48","NA","48","NA","48","0","0","48","48","0","48","48","49","/","04/30/19 15:09:11","The main experiment item","yes","FIN__AB__M21__7%3A10%3A17.osexp","C:\Users\ERP Testing Room\Desktop\Joanna\morph21","no","mono","no","18","no","white","no","yes","1080","legacy","48","48","C:/Users/ERP Testing Room/Desktop/Joanna/morph21/subject-176.csv","xpyriment","Kafkaesque Koffka","3.2.5","0","/","NA","NA","NA","NA","space","/","589","NA","NA","NA","NA","238844","589","2","legacy","1024","2","48000","-16","AB_m21","176","even","FILL_W","STARVE","1974","416118","414460","411492","240827","NA","NA","NA","NA","416109","414957","NA","413960","NA","413951","416109","1983","416368","NA","NA","415118","1974","1974","415510","413951","1974","415118","416368","morph21_Oliver/Morris","39","35695","49","yes","1280","15"
"200","80","80","730.14","730.14","black","no","xpyriment","legacy","legacy","0","208","NA","uniform","59765","1000","0.0167322011211","1","undefined","1","0","49","49","49","0","49","49","49","NA","49","49","0","49","NA","49","49","0","49","NA","49","NA","49","0","0","49","49","0","49","49","50","z","04/30/19 15:09:11","The main experiment item","yes","FIN__AB__M21__7%3A10%3A17.osexp","C:\Users\ERP Testing Room\Desktop\Joanna\morph21","no","mono","no","18","no","white","no","yes","1080","legacy","49","49","C:/Users/ERP Testing Room/Desktop/Joanna/morph21/subject-176.csv","xpyriment","Kafkaesque Koffka","3.2.5","0","z","NA","NA","NA","NA","space","z","812","NA","NA","NA","NA","238844","812","2","legacy","1024","2","48000","-16","AB_m21","176","even","FILL_NW","FALONS","1974","419143","417468","411492","240827","NA","NA","NA","NA","419137","417965","NA","416968","NA","416957","419137","1983","419343","NA","NA","418143","1974","1974","418535","416957","1974","418143","419343","morph21_Oliver/Morris","40","36507","50","yes","1280","19"
"400","80.3921568627","80.3921568627","730.411764706","730.411764706","black","no","xpyriment","legacy","legacy","0","207","NA","uniform","62636","1000","0.0159652595951","1","undefined","1","0","50","50","50","0","50","50","50","NA","50","50","0","50","NA","50","50","0","50","NA","50","NA","50","0","0","50","50","0","50","50","51","/","04/30/19 15:09:11","The main experiment item","yes","FIN__AB__M21__7%3A10%3A17.osexp","C:\Users\ERP Testing Room\Desktop\Joanna\morph21","no","mono","no","18","no","white","no","yes","1080","legacy","50","50","C:/Users/ERP Testing Room/Desktop/Joanna/morph21/subject-176.csv","xpyriment","Kafkaesque Koffka","3.2.5","0","/","NA","NA","NA","NA","space","/","744","NA","NA","NA","NA","238844","744","2","legacy","1024","2","48000","-16","AB_m21","176","even","FILL_W","LITHE","1974","423727","420568","422218","240827","NA","NA","NA","NA","422213","421065","NA","420068","NA","420059","422213","1983","424127","NA","NA","421218","1974","1974","421618","420059","1974","421218","424127","morph21_Oliver/Morris","41","37251","51","yes","1280","23"
"200","80.7692307692","80.7692307692","728.711538462","728.711538462","black","no","xpyriment","legacy","legacy","0","201","NA","uniform","63237","1000","0.0158135268909","1","undefined","1","0","51","51","51","0","51","51","51","NA","51","51","0","51","NA","51","51","0","51","NA","51","NA","51","0","0","51","51","0","51","51","52","/","04/30/19 15:09:11","The main experiment item","yes","FIN__AB__M21__7%3A10%3A17.osexp","C:\Users\ERP Testing Room\Desktop\Joanna\morph21","no","mono","no","18","no","white","no","yes","1080","legacy","51","51","C:/Users/ERP Testing Room/Desktop/Joanna/morph21/subject-176.csv","xpyriment","Kafkaesque Koffka","3.2.5","0","/","NA","NA","NA","NA","space","/","642","NA","NA","NA","NA","238844","642","2","legacy","1024","2","48000","-16","AB_m21","176","even","CW_S","CAMPAIGNER","1974","426960","425293","422218","240827","NA","NA","NA","NA","426953","425790","NA","424793","NA","424784","426953","1983","427160","NA","NA","425960","1974","1974","426352","424784","1974","425960","427160","morph21_Oliver/Morris","42","37893","52","yes","1280","15"
"400","81.1320754717","81.1320754717","724.641509434","724.641509434","black","no","xpyriment","legacy","legacy","0","202","NA","uniform","68594","1000","0.0145785345657","1","undefined","1","0","52","52","52","0","52","52","52","NA","52","52","0","52","NA","52","52","0","52","NA","52","NA","52","0","0","52","52","0","52","52","53","/","04/30/19 15:09:11","The main experiment item","yes","FIN__AB__M21__7%3A10%3A17.osexp","C:\Users\ERP Testing Room\Desktop\Joanna\morph21","no","mono","no","18","no","white","no","yes","1080","legacy","52","52","C:/Users/ERP Testing Room/Desktop/Joanna/morph21/subject-176.csv","xpyriment","Kafkaesque Koffka","3.2.5","0","/","NA","NA","NA","NA","space","/","513","NA","NA","NA","NA","238844","513","2","legacy","1024","2","48000","-16","AB_m21","176","even","CW_L","DRYNESS","1974","429977","428327","422218","240827","NA","NA","NA","NA","429971","428824","NA","427827","NA","427816","429971","1983","430377","NA","NA","428977","1974","1974","429368","427816","1974","428977","430377","morph21_Oliver/Morris","43","38406","53","yes","1280","42"
"350","81.4814814815","81.4814814815","720.407407407","720.407407407","black","no","xpyriment","legacy","legacy","0","201","NA","uniform","69280","1000","0.0144341801386","1","undefined","1","0","53","53","53","0","53","53","53","NA","53","53","0","53","NA","53","53","0","53","NA","53","NA","53","0","0","53","53","0","53","53","54","/","04/30/19 15:09:11","The main experiment item","yes","FIN__AB__M21__7%3A10%3A17.osexp","C:\Users\ERP Testing Room\Desktop\Joanna\morph21","no","mono","no","18","no","white","no","yes","1080","legacy","53","53","C:/Users/ERP Testing Room/Desktop/Joanna/morph21/subject-176.csv","xpyriment","Kafkaesque Koffka","3.2.5","0","/","NA","NA","NA","NA","space","/","496","NA","NA","NA","NA","238844","496","2","legacy","1024","2","48000","-16","AB_m21","176","even","CW_S","BOSSY","1974","434720","431553","433211","240827","NA","NA","NA","NA","433207","432050","NA","431053","NA","431042","433207","1983","435070","NA","NA","432211","1974","1974","432611","431042","1974","432211","435070","morph21_Oliver/Morris","44","38902","54","yes","1280","49"
"300","81.8181818182","81.8181818182","716.181818182","716.181818182","black","no","xpyriment","legacy","legacy","0","202","NA","uniform","74839","1000","0.0133620171301","1","undefined","1","0","54","54","54","0","54","54","54","NA","54","54","0","54","NA","54","54","0","54","NA","54","NA","54","0","0","54","54","0","54","54","55","/","04/30/19 15:09:11","The main experiment item","yes","FIN__AB__M21__7%3A10%3A17.osexp","C:\Users\ERP Testing Room\Desktop\Joanna\morph21","no","mono","no","18","no","white","no","yes","1080","legacy","54","54","C:/Users/ERP Testing Room/Desktop/Joanna/morph21/subject-176.csv","xpyriment","Kafkaesque Koffka","3.2.5","0","/","NA","NA","NA","NA","space","/","488","NA","NA","NA","NA","238844","488","2","legacy","1024","2","48000","-16","AB_m21","176","even","CW_L","DAMPISH","1974","437811","436161","433211","240827","NA","NA","NA","NA","437807","436659","NA","435661","NA","435653","437807","1983","438112","NA","NA","436811","1974","1974","437211","435653","1974","436811","438112","morph21_Oliver/Morris","45","39390","55","yes","1280","28"
"250","82.1428571429","82.1428571429","713.767857143","713.767857143","black","no","xpyriment","legacy","legacy","0","207","NA","uniform","67457","1000","0.0148242584165","1","undefined","1","0","55","55","55","0","55","55","55","NA","55","55","0","55","NA","55","55","0","55","NA","55","NA","55","0","0","55","55","0","55","55","56","/","04/30/19 15:09:11","The main experiment item","yes","FIN__AB__M21__7%3A10%3A17.osexp","C:\Users\ERP Testing Room\Desktop\Joanna\morph21","no","mono","no","18","no","white","no","yes","1080","legacy","55","55","C:/Users/ERP Testing Room/Desktop/Joanna/morph21/subject-176.csv","xpyriment","Kafkaesque Koffka","3.2.5","0","/","NA","NA","NA","NA","space","/","581","NA","NA","NA","NA","238844","581","2","legacy","1024","2","48000","-16","AB_m21","176","even","FILL_W","SOFT","1974","440845","439170","433211","240827","NA","NA","NA","NA","440838","439667","NA","438670","NA","438659","440838","1983","441095","NA","NA","439845","1974","1974","440237","438659","1974","439845","441095","morph21_Oliver/Morris","46","39971","56","yes","1280","43"
"300","82.4561403509","82.4561403509","712.578947368","712.578947368","black","no","xpyriment","legacy","legacy","0","201","NA","uniform","63469","1000","0.0157557232665","1","undefined","1","0","56","56","56","0","56","56","56","NA","56","56","0","56","NA","56","56","0","56","NA","56","NA","56","0","0","56","56","0","56","56","57","/","04/30/19 15:09:11","The main experiment item","yes","FIN__AB__M21__7%3A10%3A17.osexp","C:\Users\ERP Testing Room\Desktop\Joanna\morph21","no","mono","no","18","no","white","no","yes","1080","legacy","56","56","C:/Users/ERP Testing Room/Desktop/Joanna/morph21/subject-176.csv","xpyriment","Kafkaesque Koffka","3.2.5","0","/","NA","NA","NA","NA","space","/","646","NA","NA","NA","NA","238844","646","2","legacy","1024","2","48000","-16","AB_m21","176","even","CW_S","GUILTY","1974","445320","442153","443812","240827","NA","NA","NA","NA","443801","442651","NA","441653","NA","441642","443801","1983","445620","NA","NA","442812","1974","1974","443203","441642","1974","442812","445620","morph21_Oliver/Morris","47","40617","57","yes","1280","34"
"400","82.7586206897","82.7586206897","712.568965517","712.568965517","black","no","xpyriment","legacy","legacy","0","206","NA","uniform","65556","1000","0.0152541338703","1","undefined","1","0","57","57","57","0","57","57","57","NA","57","57","0","57","NA","57","57","0","57","NA","57","NA","57","0","0","57","57","0","57","57","58","z","04/30/19 15:09:11","The main experiment item","yes","FIN__AB__M21__7%3A10%3A17.osexp","C:\Users\ERP Testing Room\Desktop\Joanna\morph21","no","mono","no","18","no","white","no","yes","1080","legacy","57","57","C:/Users/ERP Testing Room/Desktop/Joanna/morph21/subject-176.csv","xpyriment","Kafkaesque Koffka","3.2.5","0","z","NA","NA","NA","NA","space","z","712","NA","NA","NA","NA","238844","712","2","legacy","1024","2","48000","-16","AB_m21","176","even","NW_L_SIMP","VALIDEL","1974","448396","446737","443812","240827","NA","NA","NA","NA","448388","447234","NA","446237","NA","446226","448388","1983","448796","NA","NA","447395","1974","1974","447788","446226","1974","447395","448796","morph21_Oliver/Morris","48","41329","58","yes","1280","23"
"300","83.0508474576","83.0508474576","710.288135593","710.288135593","black","no","xpyriment","legacy","legacy","0","202","NA","uniform","64897","1000","0.015409032775","1","undefined","1","0","58","58","58","0","58","58","58","NA","58","58","0","58","NA","58","58","0","58","NA","58","NA","58","0","0","58","58","0","58","58","59","/","04/30/19 15:09:11","The main experiment item","yes","FIN__AB__M21__7%3A10%3A17.osexp","C:\Users\ERP Testing Room\Desktop\Joanna\morph21","no","mono","no","18","no","white","no","yes","1080","legacy","58","58","C:/Users/ERP Testing Room/Desktop/Joanna/morph21/subject-176.csv","xpyriment","Kafkaesque Koffka","3.2.5","0","/","NA","NA","NA","NA","space","/","578","NA","NA","NA","NA","238844","578","2","legacy","1024","2","48000","-16","AB_m21","176","even","CW_L","MADNESS","1974","451513","449863","443812","240827","NA","NA","NA","NA","451510","450360","NA","449363","NA","449354","451510","1983","451813","NA","NA","450521","1974","1974","450913","449354","1974","450521","451813","morph21_Oliver/Morris","49","41907","59","yes","1280","41"
"250","83.3333333333","83.3333333333","708.316666667","708.316666667","black","no","xpyriment","legacy","legacy","0","204","NA","uniform","68120","1000","0.014679976512","1","undefined","1","0","59","59","59","0","59","59","59","NA","59","59","0","59","NA","59","59","0","59","NA","59","NA","59","0","0","59","59","0","59","59","60","z","04/30/19 15:09:11","The main experiment item","yes","FIN__AB__M21__7%3A10%3A17.osexp","C:\Users\ERP Testing Room\Desktop\Joanna\morph21","no","mono","no","18","no","white","no","yes","1080","legacy","59","59","C:/Users/ERP Testing Room/Desktop/Joanna/morph21/subject-176.csv","xpyriment","Kafkaesque Koffka","3.2.5","0","z","NA","NA","NA","NA","space","z","592","NA","NA","NA","NA","238844","592","2","legacy","1024","2","48000","-16","AB_m21","176","even","NW_L_COMP","STIRANCE","1974","456055","452863","454547","240827","NA","NA","NA","NA","454538","453360","NA","452363","NA","452359","454538","1983","456305","NA","NA","453547","1974","1974","453938","452359","1974","453547","456305","morph21_Oliver/Morris","50","42499","60","yes","1280","1"
"250","83.606557377","83.606557377","706.950819672","706.950819672","black","no","xpyriment","legacy","legacy","0","207","NA","uniform","68884","1000","0.0145171592823","1","undefined","1","0","60","60","60","0","60","60","60","NA","60","60","0","60","NA","60","60","0","60","NA","60","NA","60","0","0","60","60","0","60","60","61","/","04/30/19 15:09:11","The main experiment item","yes","FIN__AB__M21__7%3A10%3A17.osexp","C:\Users\ERP Testing Room\Desktop\Joanna\morph21","no","mono","no","18","no","white","no","yes","1080","legacy","60","60","C:/Users/ERP Testing Room/Desktop/Joanna/morph21/subject-176.csv","xpyriment","Kafkaesque Koffka","3.2.5","0","/","NA","NA","NA","NA","space","/","625","NA","NA","NA","NA","238844","625","2","legacy","1024","2","48000","-16","AB_m21","176","even","FILL_W","PACK","1974","459097","457397","454547","240827","NA","NA","NA","NA","459088","457894","NA","456897","NA","456888","459088","1983","459347","NA","NA","458097","1974","1974","458488","456888","1974","458097","459347","morph21_Oliver/Morris","51","43124","61","yes","1280","41"
"400","82.2580645161","82.2580645161","706.806451613","706.806451613","black","no","xpyriment","legacy","legacy","0","202","NA","uniform","64351","1000","0.0155397740517","0","undefined","0","0","61","61","61","0","61","61","61","NA","61","61","0","61","NA","61","61","0","61","NA","61","NA","61","0","0","61","61","0","61","61","62","/","04/30/19 15:09:11","The main experiment item","yes","FIN__AB__M21__7%3A10%3A17.osexp","C:\Users\ERP Testing Room\Desktop\Joanna\morph21","no","mono","no","18","no","white","no","yes","1080","legacy","61","61","C:/Users/ERP Testing Room/Desktop/Joanna/morph21/subject-176.csv","xpyriment","Kafkaesque Koffka","3.2.5","0","z","NA","NA","NA","NA","space","z","698","NA","NA","NA","NA","238844","698","2","legacy","1024","2","48000","-16","AB_m21","176","even","CW_L","WRONGLY","1974","462072","460413","454547","240827","NA","NA","NA","NA","459088","460911","NA","459913","NA","459910","462067","1983","462472","NA","NA","461072","1974","1974","461472","459910","1974","461072","462472","morph21_Oliver/Morris","51","43822","62","yes","1280","37"
"200","82.5396825397","82.5396825397","705.412698413","705.412698413","black","no","xpyriment","legacy","legacy","0","202","NA","uniform","69019","1000","0.0144887639635","1","undefined","1","0","62","62","62","0","62","62","62","NA","62","62","0","62","NA","62","62","0","62","NA","62","NA","62","0","0","62","62","0","62","62","63","/","04/30/19 15:09:11","The main experiment item","yes","FIN__AB__M21__7%3A10%3A17.osexp","C:\Users\ERP Testing Room\Desktop\Joanna\morph21","no","mono","no","18","no","white","no","yes","1080","legacy","62","62","C:/Users/ERP Testing Room/Desktop/Joanna/morph21/subject-176.csv","xpyriment","Kafkaesque Koffka","3.2.5","0","/","NA","NA","NA","NA","space","/","619","NA","NA","NA","NA","238844","619","2","legacy","1024","2","48000","-16","AB_m21","176","even","CW_L","COLLECTOR","1974","466765","463597","465256","240827","NA","NA","NA","NA","465248","464094","NA","463097","NA","463085","465248","1983","466965","NA","NA","464255","1974","1974","464647","463085","1974","464255","466965","morph21_Oliver/Morris","52","44441","63","yes","1280","46"
"250","81.25","81.25","709.796875","709.796875","black","no","xpyriment","legacy","legacy","0","202","NA","uniform","54121","1000","0.0184771160917","0","undefined","0","0","63","63","63","0","63","63","63","NA","63","63","0","63","NA","63","63","0","63","NA","63","NA","63","0","0","63","63","0","63","63","64","/","04/30/19 15:09:11","The main experiment item","yes","FIN__AB__M21__7%3A10%3A17.osexp","C:\Users\ERP Testing Room\Desktop\Joanna\morph21","no","mono","no","18","no","white","no","yes","1080","legacy","63","63","C:/Users/ERP Testing Room/Desktop/Joanna/morph21/subject-176.csv","xpyriment","Kafkaesque Koffka","3.2.5","0","None","NA","NA","NA","NA","space","None","986","NA","NA","NA","NA","238844","986","2","legacy","1024","2","48000","-16","AB_m21","176","even","CW_L","DREAMER","1974","469707","468040","465256","240827","NA","NA","NA","NA","465248","468537","NA","467531","NA","467527","469702","1983","469957","NA","NA","468715","1974","1974","469106","467527","1974","468715","469957","morph21_Oliver/Morris","52","45427","64","yes","1280","12"
"400","81.5384615385","81.5384615385","709.615384615","709.615384615","black","no","xpyriment","legacy","legacy","0","202","NA","uniform","62300","1000","0.016051364366","1","undefined","1","0","64","64","64","0","64","64","64","NA","64","64","0","64","NA","64","64","0","64","NA","64","NA","64","0","0","64","64","0","64","64","65","/","04/30/19 15:09:11","The main experiment item","yes","FIN__AB__M21__7%3A10%3A17.osexp","C:\Users\ERP Testing Room\Desktop\Joanna\morph21","no","mono","no","18","no","white","no","yes","1080","legacy","64","64","C:/Users/ERP Testing Room/Desktop/Joanna/morph21/subject-176.csv","xpyriment","Kafkaesque Koffka","3.2.5","0","/","NA","NA","NA","NA","space","/","698","NA","NA","NA","NA","238844","698","2","legacy","1024","2","48000","-16","AB_m21","176","even","CW_L","STYLISH","1974","472665","471015","465256","240827","NA","NA","NA","NA","472661","471512","NA","470515","NA","470509","472661","1983","473065","NA","NA","471665","1974","1974","472065","470509","1974","471665","473065","morph21_Oliver/Morris","53","46125","65","yes","1280","29"
"350","81.8181818182","81.8181818182","708.015151515","708.015151515","black","no","xpyriment","legacy","legacy","0","202","NA","uniform","65391","1000","0.0152926243673","1","undefined","1","0","65","65","65","0","65","65","65","NA","65","65","0","65","NA","65","65","0","65","NA","65","NA","65","0","0","65","65","0","65","65","66","/","04/30/19 15:09:11","The main experiment item","yes","FIN__AB__M21__7%3A10%3A17.osexp","C:\Users\ERP Testing Room\Desktop\Joanna\morph21","no","mono","no","18","no","white","no","yes","1080","legacy","65","65","C:/Users/ERP Testing Room/Desktop/Joanna/morph21/subject-176.csv","xpyriment","Kafkaesque Koffka","3.2.5","0","/","NA","NA","NA","NA","space","/","604","NA","NA","NA","NA","238844","604","2","legacy","1024","2","48000","-16","AB_m21","176","even","CW_L","RENTER","1974","477290","474132","475782","240827","NA","NA","NA","NA","475779","474629","NA","473632","NA","473621","475779","1983","477640","NA","NA","474790","1974","1974","475182","473621","1974","474790","477640","morph21_Oliver/Morris","54","46729","66","yes","1280","9"
"200","82.0895522388","82.0895522388","709.059701493","709.059701493","black","no","xpyriment","legacy","legacy","0","204","NA","uniform","56173","1000","0.0178021469389","1","undefined","1","0","66","66","66","0","66","66","66","NA","66","66","0","66","NA","66","66","0","66","NA","66","NA","66","0","0","66","66","0","66","66","67","z","04/30/19 15:09:11","The main experiment item","yes","FIN__AB__M21__7%3A10%3A17.osexp","C:\Users\ERP Testing Room\Desktop\Joanna\morph21","no","mono","no","18","no","white","no","yes","1080","legacy","66","66","C:/Users/ERP Testing Room/Desktop/Joanna/morph21/subject-176.csv","xpyriment","Kafkaesque Koffka","3.2.5","0","z","NA","NA","NA","NA","space","z","778","NA","NA","NA","NA","238844","778","2","legacy","1024","2","48000","-16","AB_m21","176","even","NW_L_COMP","PITCHORY","1974","480424","478782","475782","240827","NA","NA","NA","NA","480413","479279","NA","478282","NA","478271","480413","1983","480624","NA","NA","479424","1974","1974","479815","478271","1974","479424","480624","morph21_Oliver/Morris","55","47507","67","yes","1280","25"
"250","82.3529411765","82.3529411765","709.147058824","709.147058824","black","no","xpyriment","legacy","legacy","0","205","NA","uniform","60391","1000","0.0165587587554","1","undefined","1","0","67","67","67","0","67","67","67","NA","67","67","0","67","NA","67","67","0","67","NA","67","NA","67","0","0","67","67","0","67","67","68","z","04/30/19 15:09:11","The main experiment item","yes","FIN__AB__M21__7%3A10%3A17.osexp","C:\Users\ERP Testing Room\Desktop\Joanna\morph21","no","mono","no","18","no","white","no","yes","1080","legacy","67","67","C:/Users/ERP Testing Room/Desktop/Joanna/morph21/subject-176.csv","xpyriment","Kafkaesque Koffka","3.2.5","0","z","NA","NA","NA","NA","space","z","715","NA","NA","NA","NA","238844","715","2","legacy","1024","2","48000","-16","AB_m21","176","even","NW_S_SIMP","ZOOMFIL","1974","483425","481757","475782","240827","NA","NA","NA","NA","483415","482254","NA","481257","NA","481251","483415","1983","483675","NA","NA","482424","1974","1974","482816","481251","1974","482424","483675","morph21_Oliver/Morris","56","48222","68","yes","1280","19"
"250","82.6086956522","82.6086956522","706.31884058","706.31884058","black","no","xpyriment","legacy","legacy","0","208","NA","uniform","68660","1000","0.0145645208273","1","undefined","1","0","68","68","68","0","68","68","68","NA","68","68","0","68","NA","68","68","0","68","NA","68","NA","68","0","0","68","68","0","68","68","69","z","04/30/19 15:09:11","The main experiment item","yes","FIN__AB__M21__7%3A10%3A17.osexp","C:\Users\ERP Testing Room\Desktop\Joanna\morph21","no","mono","no","18","no","white","no","yes","1080","legacy","68","68","C:/Users/ERP Testing Room/Desktop/Joanna/morph21/subject-176.csv","xpyriment","Kafkaesque Koffka","3.2.5","0","z","NA","NA","NA","NA","space","z","514","NA","NA","NA","NA","238844","514","2","legacy","1024","2","48000","-16","AB_m21","176","even","FILL_NW","POLT","1974","487942","484775","486433","240827","NA","NA","NA","NA","486429","485272","NA","484267","NA","484259","486429","1983","488192","NA","NA","485433","1974","1974","485833","484259","1974","485433","488192","morph21_Oliver/Morris","57","48736","69","yes","1280","38"
"350","82.8571428571","82.8571428571","705.2","705.2","black","no","xpyriment","legacy","legacy","0","201","NA","uniform","62461","1000","0.0160099902339","1","undefined","1","0","69","69","69","0","69","69","69","NA","69","69","0","69","NA","69","69","0","69","NA","69","NA","69","0","0","69","69","0","69","69","70","/","04/30/19 15:09:11","The main experiment item","yes","FIN__AB__M21__7%3A10%3A17.osexp","C:\Users\ERP Testing Room\Desktop\Joanna\morph21","no","mono","no","18","no","white","no","yes","1080","legacy","69","69","C:/Users/ERP Testing Room/Desktop/Joanna/morph21/subject-176.csv","xpyriment","Kafkaesque Koffka","3.2.5","0","/","NA","NA","NA","NA","space","/","628","NA","NA","NA","NA","238844","628","2","legacy","1024","2","48000","-16","AB_m21","176","even","CW_S","STRANGENESS","1974","490958","489300","486433","240827","NA","NA","NA","NA","490956","489797","NA","488800","NA","488793","490956","1983","491308","NA","NA","489967","1974","1974","490358","488793","1974","489967","491308","morph21_Oliver/Morris","58","49364","70","yes","1280","46"
"250","83.0985915493","83.0985915493","706.76056338","706.76056338","black","no","xpyriment","legacy","legacy","0","204","NA","uniform","57146","1000","0.0174990375529","1","undefined","1","0","70","70","70","0","70","70","70","NA","70","70","0","70","NA","70","70","0","70","NA","70","NA","70","0","0","70","70","0","70","70","71","z","04/30/19 15:09:11","The main experiment item","yes","FIN__AB__M21__7%3A10%3A17.osexp","C:\Users\ERP Testing Room\Desktop\Joanna\morph21","no","mono","no","18","no","white","no","yes","1080","legacy","70","70","C:/Users/ERP Testing Room/Desktop/Joanna/morph21/subject-176.csv","xpyriment","Kafkaesque Koffka","3.2.5","0","z","NA","NA","NA","NA","space","z","816","NA","NA","NA","NA","238844","816","2","legacy","1024","2","48000","-16","AB_m21","176","even","NW_L_COMP","MUDLY","1974","494050","492392","486433","240827","NA","NA","NA","NA","494041","492889","NA","491892","NA","491884","494041","1983","494300","NA","NA","493050","1974","1974","493442","491884","1974","493050","494300","morph21_Oliver/Morris","59","50180","71","yes","1280","12"
"400","83.3333333333","83.3333333333","706.444444444","706.444444444","black","no","xpyriment","legacy","legacy","0","208","NA","uniform","66026","1000","0.0151455487232","1","undefined","1","0","71","71","71","0","71","71","71","NA","71","71","0","71","NA","71","71","0","71","NA","71","NA","71","0","0","71","71","0","71","71","72","z","04/30/19 15:09:11","The main experiment item","yes","FIN__AB__M21__7%3A10%3A17.osexp","C:\Users\ERP Testing Room\Desktop\Joanna\morph21","no","mono","no","18","no","white","no","yes","1080","legacy","71","71","C:/Users/ERP Testing Room/Desktop/Joanna/morph21/subject-176.csv","xpyriment","Kafkaesque Koffka","3.2.5","0","z","NA","NA","NA","NA","space","z","684","NA","NA","NA","NA","238844","684","2","legacy","1024","2","48000","-16","AB_m21","176","even","FILL_NW","CORG","1974","498650","495425","497142","240827","NA","NA","NA","NA","497134","495922","NA","494925","NA","494916","497134","1983","499051","NA","NA","496142","1974","1974","496534","494916","1974","496142","499051","morph21_Oliver/Morris","60","50864","72","yes","1280","7"
"200","82.1917808219","82.1917808219","710.301369863","710.301369863","black","no","xpyriment","legacy","legacy","0","203","NA","uniform","54860","1000","0.0182282172803","0","undefined","0","0","72","72","72","0","72","72","72","NA","72","72","0","72","NA","72","72","0","72","NA","72","NA","72","0","0","72","72","0","72","72","73","z","04/30/19 15:09:11","The main experiment item","yes","FIN__AB__M21__7%3A10%3A17.osexp","C:\Users\ERP Testing Room\Desktop\Joanna\morph21","no","mono","no","18","no","white","no","yes","1080","legacy","72","72","C:/Users/ERP Testing Room/Desktop/Joanna/morph21/subject-176.csv","xpyriment","Kafkaesque Koffka","3.2.5","0","None","NA","NA","NA","NA","space","None","988","NA","NA","NA","NA","238844","988","2","legacy","1024","2","48000","-16","AB_m21","176","even","NW_S_COMP","FANFUL","1974","501793","500143","497142","240827","NA","NA","NA","NA","497134","500640","NA","499642","NA","499630","501790","1983","501993","NA","NA","500802","1974","1974","501193","499630","1974","500801","501993","morph21_Oliver/Morris","60","51852","73","yes","1280","6"
"350","82.4324324324","82.4324324324","709.256756757","709.256756757","black","no","xpyriment","legacy","legacy","0","202","NA","uniform","68293","1000","0.0146427891585","1","undefined","1","0","73","73","73","0","73","73","73","NA","73","73","0","73","NA","73","73","0","73","NA","73","NA","73","0","0","73","73","0","73","73","74","/","04/30/19 15:09:11","The main experiment item","yes","FIN__AB__M21__7%3A10%3A17.osexp","C:\Users\ERP Testing Room\Desktop\Joanna\morph21","no","mono","no","18","no","white","no","yes","1080","legacy","73","73","C:/Users/ERP Testing Room/Desktop/Joanna/morph21/subject-176.csv","xpyriment","Kafkaesque Koffka","3.2.5","0","/","NA","NA","NA","NA","space","/","633","NA","NA","NA","NA","238844","633","2","legacy","1024","2","48000","-16","AB_m21","176","even","CW_L","PAINTER","1974","504802","503085","497142","240827","NA","NA","NA","NA","504795","503582","NA","502585","NA","502573","504795","1983","505152","NA","NA","503802","1974","1974","504193","502573","1974","503802","505152","morph21_Oliver/Morris","61","52485","74","yes","1280","18"
"300","82.6666666667","82.6666666667","707.653333333","707.653333333","black","no","xpyriment","legacy","legacy","0","201","NA","uniform","64008","1000","0.0156230471191","undefined","undefined","1","0","74","74","74","0","74","74","74","NA","74","74","0","74","NA","74","74","0","74","NA","74","NA","74","0","0","74","74","0","74","74","75","/","04/30/19 15:09:11","The main experiment item","yes","FIN__AB__M21__7%3A10%3A17.osexp","C:\Users\ERP Testing Room\Desktop\Joanna\morph21","no","mono","no","18","no","white","no","yes","1080","legacy","74","74","C:/Users/ERP Testing Room/Desktop/Joanna/morph21/subject-176.csv","xpyriment","Kafkaesque Koffka","3.2.5","0","space","space","NA","NA","NA","space","/","21579","21579","NA","NA","NA","238844","589","2","legacy","1024","2","48000","-16","AB_m21","176","even","CW_S","DESTROYER","1974","509427","506235","507918","240827","509735","NA","NA","NA","507909","506732","NA","505735","NA","505731","507909","1983","531315","NA","NA","506918","1974","1974","507310","505731","1974","506918","509727","morph21_Oliver/Morris","62","53074","75","yes","1280","14"
"350","81.5789473684","81.5789473684","711.394736842","711.394736842","black","no","xpyriment","legacy","legacy","0","201","NA","uniform","55447","1000","0.0180352408606","0","undefined","0","0","75","75","75","0","75","75","75","NA","75","75","0","75","NA","75","75","0","75","NA","75","NA","75","0","0","75","75","0","75","75","76","/","04/30/19 15:09:11","The main experiment item","yes","FIN__AB__M21__7%3A10%3A17.osexp","C:\Users\ERP Testing Room\Desktop\Joanna\morph21","no","mono","no","18","no","white","no","yes","1080","legacy","75","75","C:/Users/ERP Testing Room/Desktop/Joanna/morph21/subject-176.csv","xpyriment","Kafkaesque Koffka","3.2.5","0","None","space","NA","NA","NA","space","None","992","21579","NA","NA","NA","238844","992","2","legacy","1024","2","48000","-16","AB_m21","176","even","CW_S","NEATLY","1974","534071","532404","507918","240827","509735","NA","NA","NA","507909","532901","NA","531904","NA","531900","534063","1983","534421","NA","NA","533071","1974","1974","533462","531900","1974","533071","534421","morph21_Oliver/Morris","62","54066","76","yes","1280","33"
"400","81.8181818182","81.8181818182","711.662337662","711.662337662","black","no","xpyriment","legacy","legacy","0","208","NA","uniform","63157","1000","0.0158335576421","1","undefined","1","0","76","76","76","0","76","76","76","NA","76","76","0","76","NA","76","76","0","76","NA","76","NA","76","0","0","76","76","0","76","76","77","z","04/30/19 15:09:11","The main experiment item","yes","FIN__AB__M21__7%3A10%3A17.osexp","C:\Users\ERP Testing Room\Desktop\Joanna\morph21","no","mono","no","18","no","white","no","yes","1080","legacy","76","76","C:/Users/ERP Testing Room/Desktop/Joanna/morph21/subject-176.csv","xpyriment","Kafkaesque Koffka","3.2.5","0","z","space","NA","NA","NA","space","z","732","21579","NA","NA","NA","238844","732","2","legacy","1024","2","48000","-16","AB_m21","176","even","FILL_NW","VELT","1974","537255","535605","507918","240827","509735","NA","NA","NA","537251","536102","NA","535105","NA","535099","537251","1983","537655","NA","NA","536255","1974","1974","536655","535099","1974","536255","537655","morph21_Oliver/Morris","63","54798","77","yes","1280","46"
"300","82.0512820513","82.0512820513","710.717948718","710.717948718","black","no","xpyriment","legacy","legacy","0","201","NA","uniform","68371","1000","0.0146260841585","1","undefined","1","0","77","77","77","0","77","77","77","NA","77","77","0","77","NA","77","77","0","77","NA","77","NA","77","0","0","77","77","0","77","77","78","/","04/30/19 15:09:11","The main experiment item","yes","FIN__AB__M21__7%3A10%3A17.osexp","C:\Users\ERP Testing Room\Desktop\Joanna\morph21","no","mono","no","18","no","white","no","yes","1080","legacy","77","77","C:/Users/ERP Testing Room/Desktop/Joanna/morph21/subject-176.csv","xpyriment","Kafkaesque Koffka","3.2.5","0","/","space","NA","NA","NA","space","/","638","21579","NA","NA","NA","238844","638","2","legacy","1024","2","48000","-16","AB_m21","176","even","CW_S","DETECTABLE","1974","541905","538738","540397","240827","509735","NA","NA","NA","540386","539236","NA","538239","NA","538233","540386","1983","542205","NA","NA","539397","1974","1974","539788","538233","1974","539397","542205","morph21_Oliver/Morris","64","55436","78","yes","1280","1"
"300","82.2784810127","82.2784810127","709.240506329","709.240506329","black","no","xpyriment","legacy","legacy","0","205","NA","uniform","69738","1000","0.0143393845536","1","undefined","1","0","78","78","78","0","78","78","78","NA","78","78","0","78","NA","78","78","0","78","NA","78","NA","78","0","0","78","78","0","78","78","79","z","04/30/19 15:09:11","The main experiment item","yes","FIN__AB__M21__7%3A10%3A17.osexp","C:\Users\ERP Testing Room\Desktop\Joanna\morph21","no","mono","no","18","no","white","no","yes","1080","legacy","78","78","C:/Users/ERP Testing Room/Desktop/Joanna/morph21/subject-176.csv","xpyriment","Kafkaesque Koffka","3.2.5","0","z","space","NA","NA","NA","space","z","594","21579","NA","NA","NA","238844","594","2","legacy","1024","2","48000","-16","AB_m21","176","even","NW_S_SIMP","WARNODY","1974","545080","543422","540397","240827","509735","NA","NA","NA","545077","543919","NA","542922","NA","542913","545077","1983","545380","NA","NA","544089","1974","1974","544480","542913","1974","544089","545380","morph21_Oliver/Morris","65","56030","79","yes","1280","12"
"400","82.5","82.5","707.875","707.875","black","no","xpyriment","legacy","legacy","0","208","NA","uniform","69917","1000","0.0143026731696","1","undefined","1","0","79","79","79","0","79","79","79","NA","79","79","0","79","NA","79","79","0","79","NA","79","NA","79","0","0","79","79","0","79","79","80","z","04/30/19 15:09:11","The main experiment item","yes","FIN__AB__M21__7%3A10%3A17.osexp","C:\Users\ERP Testing Room\Desktop\Joanna\morph21","no","mono","no","18","no","white","no","yes","1080","legacy","79","79","C:/Users/ERP Testing Room/Desktop/Joanna/morph21/subject-176.csv","xpyriment","Kafkaesque Koffka","3.2.5","0","z","space","NA","NA","NA","space","z","600","21579","NA","NA","NA","238844","600","2","legacy","1024","2","48000","-16","AB_m21","176","even","FILL_NW","BALFS","1974","548105","546439","540397","240827","509735","NA","NA","NA","548097","546936","NA","545939","NA","545936","548097","1983","548506","NA","NA","547106","1974","1974","547497","545936","1974","547105","548506","morph21_Oliver/Morris","66","56630","80","yes","1280","2"
"200","82.7160493827","82.7160493827","705.950617284","705.950617284","black","no","xpyriment","legacy","legacy","0","203","NA","uniform","69377","1000","0.0144139988757","1","undefined","1","0","80","80","80","0","80","80","80","NA","80","80","0","80","NA","80","80","0","80","NA","80","NA","80","0","0","80","80","0","80","80","81","z","04/30/19 15:09:11","The main experiment item","yes","FIN__AB__M21__7%3A10%3A17.osexp","C:\Users\ERP Testing Room\Desktop\Joanna\morph21","no","mono","no","18","no","white","no","yes","1080","legacy","80","80","C:/Users/ERP Testing Room/Desktop/Joanna/morph21/subject-176.csv","xpyriment","Kafkaesque Koffka","3.2.5","0","z","space","NA","NA","NA","space","z","552","21579","NA","NA","NA","238844","552","2","legacy","1024","2","48000","-16","AB_m21","176","even","NW_S_COMP","YANKORY","1974","552832","549664","551322","240827","509735","NA","NA","NA","551318","550161","NA","549164","NA","549154","551318","1983","553032","NA","NA","550322","1974","1974","550722","549154","1974","550322","553032","morph21_Oliver/Morris","67","57182","81","yes","1280","23"
"400","82.9268292683","82.9268292683","703.548780488","703.548780488","black","no","xpyriment","legacy","legacy","0","202","NA","uniform","65845","1000","0.0151871820184","1","undefined","1","0","81","81","81","0","81","81","81","NA","81","81","0","81","NA","81","81","0","81","NA","81","NA","81","0","0","81","81","0","81","81","82","/","04/30/19 15:09:11","The main experiment item","yes","FIN__AB__M21__7%3A10%3A17.osexp","C:\Users\ERP Testing Room\Desktop\Joanna\morph21","no","mono","no","18","no","white","no","yes","1080","legacy","81","81","C:/Users/ERP Testing Room/Desktop/Joanna/morph21/subject-176.csv","xpyriment","Kafkaesque Koffka","3.2.5","0","/","space","NA","NA","NA","space","/","509","21579","NA","NA","NA","238844","509","2","legacy","1024","2","48000","-16","AB_m21","176","even","CW_L","FAITHFUL","1974","555799","554149","551322","240827","509735","NA","NA","NA","555795","554646","NA","553648","NA","553644","555795","1983","556199","NA","NA","554798","1974","1974","555198","553644","1974","554798","556199","morph21_Oliver/Morris","68","57691","82","yes","1280","20"
"350","83.1325301205","83.1325301205","701.409638554","701.409638554","black","no","xpyriment","legacy","legacy","0","201","NA","uniform","65542","1000","0.0152573922065","1","undefined","1","0","82","82","82","0","82","82","82","NA","82","82","0","82","NA","82","82","0","82","NA","82","NA","82","0","0","82","82","0","82","82","83","/","04/30/19 15:09:11","The main experiment item","yes","FIN__AB__M21__7%3A10%3A17.osexp","C:\Users\ERP Testing Room\Desktop\Joanna\morph21","no","mono","no","18","no","white","no","yes","1080","legacy","82","82","C:/Users/ERP Testing Room/Desktop/Joanna/morph21/subject-176.csv","xpyriment","Kafkaesque Koffka","3.2.5","0","/","space","NA","NA","NA","space","/","526","21579","NA","NA","NA","238844","526","2","legacy","1024","2","48000","-16","AB_m21","176","even","CW_S","RICHNESS","1974","558957","557282","551322","240827","509735","NA","NA","NA","558954","557779","NA","556782","NA","556777","558954","1983","559307","NA","NA","557965","1974","1974","558357","556777","1974","557965","559307","morph21_Oliver/Morris","69","58217","83","yes","1280","45"
"300","83.3333333333","83.3333333333","698.511904762","698.511904762","black","no","xpyriment","legacy","legacy","0","207","NA","uniform","69796","1000","0.0143274686228","1","undefined","1","0","83","83","83","0","83","83","83","NA","83","83","0","83","NA","83","83","0","83","NA","83","NA","83","0","0","83","83","0","83","83","84","/","04/30/19 15:09:11","The main experiment item","yes","FIN__AB__M21__7%3A10%3A17.osexp","C:\Users\ERP Testing Room\Desktop\Joanna\morph21","no","mono","no","18","no","white","no","yes","1080","legacy","83","83","C:/Users/ERP Testing Room/Desktop/Joanna/morph21/subject-176.csv","xpyriment","Kafkaesque Koffka","3.2.5","0","/","space","NA","NA","NA","space","/","458","21579","NA","NA","NA","238844","458","2","legacy","1024","2","48000","-16","AB_m21","176","even","FILL_W","BAKE","1974","563566","560382","562057","240827","509735","NA","NA","NA","562048","560879","NA","559882","NA","559875","562048","1983","563866","NA","NA","561057","1974","1974","561449","559875","1974","561057","563866","morph21_Oliver/Morris","70","58675","84","yes","1280","29"
"200","83.5294117647","83.5294117647","698.941176471","698.941176471","black","no","xpyriment","legacy","legacy","0","208","NA","uniform","62205","1000","0.0160758781448","1","undefined","1","0","84","84","84","0","84","84","84","NA","84","84","0","84","NA","84","84","0","84","NA","84","NA","84","0","0","84","84","0","84","84","85","z","04/30/19 15:09:11","The main experiment item","yes","FIN__AB__M21__7%3A10%3A17.osexp","C:\Users\ERP Testing Room\Desktop\Joanna\morph21","no","mono","no","18","no","white","no","yes","1080","legacy","84","84","C:/Users/ERP Testing Room/Desktop/Joanna/morph21/subject-176.csv","xpyriment","Kafkaesque Koffka","3.2.5","0","z","space","NA","NA","NA","space","z","735","21579","NA","NA","NA","238844","735","2","legacy","1024","2","48000","-16","AB_m21","176","even","FILL_NW","DARM","1974","566691","565041","562057","240827","509735","NA","NA","NA","566687","565538","NA","564541","NA","564536","566687","1983","566891","NA","NA","565691","1974","1974","566091","564535","1974","565691","566891","morph21_Oliver/Morris","71","59410","85","yes","1280","11"
"250","83.7209302326","83.7209302326","698.965116279","698.965116279","black","no","xpyriment","legacy","legacy","0","203","NA","uniform","65250","1000","0.0153256704981","1","undefined","1","0","85","85","85","0","85","85","85","NA","85","85","0","85","NA","85","85","0","85","NA","85","NA","85","0","0","85","85","0","85","85","86","z","04/30/19 15:09:11","The main experiment item","yes","FIN__AB__M21__7%3A10%3A17.osexp","C:\Users\ERP Testing Room\Desktop\Joanna\morph21","no","mono","no","18","no","white","no","yes","1080","legacy","85","85","C:/Users/ERP Testing Room/Desktop/Joanna/morph21/subject-176.csv","xpyriment","Kafkaesque Koffka","3.2.5","0","z","space","NA","NA","NA","space","z","701","21579","NA","NA","NA","238844","701","2","legacy","1024","2","48000","-16","AB_m21","176","even","NW_S_COMP","BEERER","1974","569749","568082","562057","240827","509735","NA","NA","NA","569744","568580","NA","567582","NA","567577","569744","1983","569999","NA","NA","568749","1974","1974","569149","567577","1974","568749","569999","morph21_Oliver/Morris","72","60111","86","yes","1280","5"
"300","83.908045977","83.908045977","699.344827586","699.344827586","black","no","xpyriment","legacy","legacy","0","205","NA","uniform","64764","1000","0.0154406769193","1","undefined","1","0","86","86","86","0","86","86","86","NA","86","86","0","86","NA","86","86","0","86","NA","86","NA","86","0","0","86","86","0","86","86","87","z","04/30/19 15:09:11","The main experiment item","yes","FIN__AB__M21__7%3A10%3A17.osexp","C:\Users\ERP Testing Room\Desktop\Joanna\morph21","no","mono","no","18","no","white","no","yes","1080","legacy","86","86","C:/Users/ERP Testing Room/Desktop/Joanna/morph21/subject-176.csv","xpyriment","Kafkaesque Koffka","3.2.5","0","z","space","NA","NA","NA","space","z","732","21579","NA","NA","NA","238844","732","2","legacy","1024","2","48000","-16","AB_m21","176","even","NW_S_SIMP","NEXTNELS","1974","574259","571100","572750","240827","509735","NA","NA","NA","572746","571597","NA","570600","NA","570594","572746","1983","574559","NA","NA","571759","1974","1974","572150","570594","1974","571759","574559","morph21_Oliver/Morris","73","60843","87","yes","1280","9"
"400","84.0909090909","84.0909090909","697.079545455","697.079545455","black","no","xpyriment","legacy","legacy","0","207","NA","uniform","71833","1000","0.0139211782885","1","undefined","1","0","87","87","87","0","87","87","87","NA","87","87","0","87","NA","87","87","0","87","NA","87","NA","87","0","0","87","87","0","87","87","88","/","04/30/19 15:09:11","The main experiment item","yes","FIN__AB__M21__7%3A10%3A17.osexp","C:\Users\ERP Testing Room\Desktop\Joanna\morph21","no","mono","no","18","no","white","no","yes","1080","legacy","87","87","C:/Users/ERP Testing Room/Desktop/Joanna/morph21/subject-176.csv","xpyriment","Kafkaesque Koffka","3.2.5","0","/","space","NA","NA","NA","space","/","500","21579","NA","NA","NA","238844","500","2","legacy","1024","2","48000","-16","AB_m21","176","even","FILL_W","EAT","1974","577375","575650","572750","240827","509735","NA","NA","NA","577370","576148","NA","575150","NA","575145","577370","1983","577775","NA","NA","576375","1974","1974","576767","575145","1974","576375","577775","morph21_Oliver/Morris","74","61343","88","yes","1280","25"
"300","84.2696629213","84.2696629213","696.595505618","696.595505618","black","no","xpyriment","legacy","legacy","0","208","NA","uniform","66678","1000","0.0149974504334","1","undefined","1","0","88","88","88","0","88","88","88","NA","88","88","0","88","NA","88","88","0","88","NA","88","NA","88","0","0","88","88","0","88","88","89","z","04/30/19 15:09:11","The main experiment item","yes","FIN__AB__M21__7%3A10%3A17.osexp","C:\Users\ERP Testing Room\Desktop\Joanna\morph21","no","mono","no","18","no","white","no","yes","1080","legacy","88","88","C:/Users/ERP Testing Room/Desktop/Joanna/morph21/subject-176.csv","xpyriment","Kafkaesque Koffka","3.2.5","0","z","space","NA","NA","NA","space","z","654","21579","NA","NA","NA","238844","654","2","legacy","1024","2","48000","-16","AB_m21","176","even","FILL_NW","SCURE","1974","580492","578842","572750","240827","509735","NA","NA","NA","580488","579339","NA","578342","NA","578330","580488","1983","580792","NA","NA","579492","1974","1974","579892","578330","1974","579492","580792","morph21_Oliver/Morris","75","61997","89","yes","1280","41"
"200","84.4444444444","84.4444444444","697.2","697.2","black","no","xpyriment","legacy","legacy","0","201","NA","uniform","64336","1000","0.0155433971649","1","undefined","1","0","89","89","89","0","89","89","89","NA","89","89","0","89","NA","89","89","0","89","NA","89","NA","89","0","0","89","89","0","89","89","90","/","04/30/19 15:09:11","The main experiment item","yes","FIN__AB__M21__7%3A10%3A17.osexp","C:\Users\ERP Testing Room\Desktop\Joanna\morph21","no","mono","no","18","no","white","no","yes","1080","legacy","89","89","C:/Users/ERP Testing Room/Desktop/Joanna/morph21/subject-176.csv","xpyriment","Kafkaesque Koffka","3.2.5","0","/","space","NA","NA","NA","space","/","751","21579","NA","NA","NA","238844","751","2","legacy","1024","2","48000","-16","AB_m21","176","even","CW_S","THRUSTER","1974","585159","581984","583651","240827","509735","NA","NA","NA","583645","582481","NA","581484","NA","581476","583645","1983","585359","NA","NA","582651","1974","1974","583042","581476","1974","582651","585359","morph21_Oliver/Morris","76","62748","90","yes","1280","24"
