"ITI","acc","accuracy","average_response_time","avg_rt","background","bidi","canvas_backend","clock_backend","color_backend","compensation","cond_trig","condtrigtime","coordinates","coroutines_cycles","coroutines_duration","coroutines_mean_cycle_duration","correct","correct_instructions_1","correct_new_keyboard_response_1","count_BA_m21","count_ITI","count_blank_screen","count_blink_screen","count_block1","count_break1","count_break2","count_break3_1","count_canvas","count_correct_trigger","count_def_chain","count_end_screen","count_fixation_1","count_getting_started","count_inc_counter","count_incorrect_trigger","count_instructions_1","count_logger","count_logscript","count_new_coroutines","count_new_inline_script","count_new_keyboard_response_1","count_reset_counter_prep","count_reset_counter_run","count_responsescreen","count_sequence","count_start_trigger","count_target_present","count_word_trigger","counter","cresp","datetime","description","disable_garbage_collection","experiment_file","experiment_path","font_bold","font_family","font_italic","font_size","font_underline","foreground","form_clicks","fullscreen","height","keyboard_backend","live_row","live_row_block1","logfile","mouse_backend","opensesame_codename","opensesame_version","repeat_cycle","response","response_break1","response_break2","response_break3_1","response_end_screen","response_instructions_1","response_new_keyboard_response_1","response_time","response_time_break1","response_time_break2","response_time_break3_1","response_time_end_screen","response_time_instructions_1","response_time_new_keyboard_response_1","round_decimals","sampler_backend","sound_buf_size","sound_channels","sound_freq","sound_sample_size","start","subject_nr","subject_parity","targ_type","target","time_BA_m21","time_ITI","time_blank_screen","time_blink_screen","time_block1","time_break1","time_break2","time_break3_1","time_canvas","time_correct_trigger","time_def_chain","time_end_screen","time_fixation_1","time_getting_started","time_inc_counter","time_incorrect_trigger","time_instructions_1","time_logger","time_logscript","time_new_inline_script","time_new_keyboard_response_1","time_reset_counter_prep","time_reset_counter_run","time_responsescreen","time_sequence","time_start_trigger","time_target_present","time_word_trigger","title","total_correct","total_response_time","total_responses","uniform_coordinates","width","word_trig"
"400","0","0","502","502","black","no","xpyriment","legacy","legacy","0","205","NA","uniform","81842","1000","0.012218665233","0","undefined","0","0","0","0","0","0","0","0","0","NA","0","0","0","0","NA","0","0","0","0","NA","0","NA","0","0","0","0","0","0","0","0","1","z","12/06/17 16:32:31","The main experiment item","yes","FIN__BA__M21__7%3A10%3A17.osexp","C:\Users\ERP Testing Room\Desktop\Joanna\morph21","no","mono","no","18","no","white","no","yes","1080","legacy","0","0","C:/Users/ERP Testing Room/Desktop/Joanna/morph21/subject-117.csv","xpyriment","Jazzy James","3.1.4","0","/","NA","NA","NA","NA","space","/","502","NA","NA","NA","NA","189061","502","2","legacy","1024","2","48000","-16","BA_m21","117","odd","NW_S_SIMP","ADVERTISELY","1363","193339","191731","NA","190434","NA","NA","NA","NA","NA","192228","NA","191231","NA","191159","193330","1372","193739","NA","NA","192339","1363","1363","192731","191159","1363","192339","193739","morph21_Oliver/Morris","0","502","1","yes","1280","25"
"300","50","50","558.5","558.5","black","no","xpyriment","legacy","legacy","0","207","NA","uniform","73595","1000","0.0135878796114","1","undefined","1","0","1","1","1","0","1","1","1","NA","1","1","0","1","NA","1","1","0","1","NA","1","NA","1","0","0","1","1","0","1","1","2","/","12/06/17 16:32:31","The main experiment item","yes","FIN__BA__M21__7%3A10%3A17.osexp","C:\Users\ERP Testing Room\Desktop\Joanna\morph21","no","mono","no","18","no","white","no","yes","1080","legacy","1","1","C:/Users/ERP Testing Room/Desktop/Joanna/morph21/subject-117.csv","xpyriment","Jazzy James","3.1.4","0","/","NA","NA","NA","NA","space","/","615","NA","NA","NA","NA","189061","615","2","legacy","1024","2","48000","-16","BA_m21","117","odd","FILL_W","BALD","1363","196523","194922","NA","190434","NA","NA","NA","NA","196518","195419","NA","194422","NA","194414","196518","1372","196824","NA","NA","195531","1363","1363","195915","194414","1363","195531","196824","morph21_Oliver/Morris","1","1117","2","yes","1280","3"
"350","66.6666666667","66.6666666667","491","491","black","no","xpyriment","legacy","legacy","0","201","NA","uniform","78361","1000","0.0127614502112","1","undefined","1","0","2","2","2","0","2","2","2","NA","2","2","0","2","NA","2","2","0","2","NA","2","NA","2","0","0","2","2","0","2","2","3","/","12/06/17 16:32:31","The main experiment item","yes","FIN__BA__M21__7%3A10%3A17.osexp","C:\Users\ERP Testing Room\Desktop\Joanna\morph21","no","mono","no","18","no","white","no","yes","1080","legacy","2","2","C:/Users/ERP Testing Room/Desktop/Joanna/morph21/subject-117.csv","xpyriment","Jazzy James","3.1.4","0","/","NA","NA","NA","NA","space","/","356","NA","NA","NA","NA","189061","356","2","legacy","1024","2","48000","-16","BA_m21","117","odd","CW_S","DULLNESS","1363","201090","197974","199582","190434","NA","NA","NA","NA","199578","198471","NA","197474","NA","197468","199578","1372","201441","NA","NA","198582","1363","1363","198982","197468","1363","198582","201441","morph21_Oliver/Morris","2","1473","3","yes","1280","43"
"250","50","50","579","579","black","no","xpyriment","legacy","legacy","0","208","NA","uniform","65826","1000","0.0151915656428","0","undefined","0","0","3","3","3","0","3","3","3","NA","3","3","0","3","NA","3","3","0","3","NA","3","NA","3","0","0","3","3","0","3","3","4","z","12/06/17 16:32:31","The main experiment item","yes","FIN__BA__M21__7%3A10%3A17.osexp","C:\Users\ERP Testing Room\Desktop\Joanna\morph21","no","mono","no","18","no","white","no","yes","1080","legacy","3","3","C:/Users/ERP Testing Room/Desktop/Joanna/morph21/subject-117.csv","xpyriment","Jazzy James","3.1.4","0","/","NA","NA","NA","NA","space","/","843","NA","NA","NA","NA","189061","843","2","legacy","1024","2","48000","-16","BA_m21","117","odd","FILL_NW","PLAODS","1363","204207","202624","199582","190434","NA","NA","NA","NA","199578","203121","NA","202124","NA","202120","204200","1372","204457","NA","NA","203207","1363","1363","203599","202120","1363","203207","204457","morph21_Oliver/Morris","2","2316","4","yes","1280","37"
"300","40","40","594.4","594.4","black","no","xpyriment","legacy","legacy","0","206","NA","uniform","73920","1000","0.0135281385281","0","undefined","0","0","4","4","4","0","4","4","4","NA","4","4","0","4","NA","4","4","0","4","NA","4","NA","4","0","0","4","4","0","4","4","5","z","12/06/17 16:32:31","The main experiment item","yes","FIN__BA__M21__7%3A10%3A17.osexp","C:\Users\ERP Testing Room\Desktop\Joanna\morph21","no","mono","no","18","no","white","no","yes","1080","legacy","4","4","C:/Users/ERP Testing Room/Desktop/Joanna/morph21/subject-117.csv","xpyriment","Jazzy James","3.1.4","0","/","NA","NA","NA","NA","space","/","656","NA","NA","NA","NA","189061","656","2","legacy","1024","2","48000","-16","BA_m21","117","odd","NW_L_SIMP","BEGENCE","1363","207241","205657","199582","190434","NA","NA","NA","NA","199578","206154","NA","205157","NA","205147","207232","1372","207541","NA","NA","206241","1363","1363","206632","205147","1363","206241","207541","morph21_Oliver/Morris","2","2972","5","yes","1280","4"
"350","50","50","586.333333333","586.333333333","black","no","xpyriment","legacy","legacy","0","203","NA","uniform","75229","1000","0.0132927461484","1","undefined","1","0","5","5","5","0","5","5","5","NA","5","5","0","5","NA","5","5","0","5","NA","5","NA","5","0","0","5","5","0","5","5","6","z","12/06/17 16:32:31","The main experiment item","yes","FIN__BA__M21__7%3A10%3A17.osexp","C:\Users\ERP Testing Room\Desktop\Joanna\morph21","no","mono","no","18","no","white","no","yes","1080","legacy","5","5","C:/Users/ERP Testing Room/Desktop/Joanna/morph21/subject-117.csv","xpyriment","Jazzy James","3.1.4","0","z","NA","NA","NA","NA","space","z","546","NA","NA","NA","NA","189061","546","2","legacy","1024","2","48000","-16","BA_m21","117","odd","NW_S_COMP","HUMIDOES","1363","211908","208799","210399","190434","NA","NA","NA","NA","210396","209296","NA","208299","NA","208292","210396","1372","212258","NA","NA","209407","1363","1363","209799","208292","1363","209407","212258","morph21_Oliver/Morris","3","3518","6","yes","1280","25"
"300","57.1428571429","57.1428571429","577.714285714","577.714285714","black","no","xpyriment","legacy","legacy","0","202","NA","uniform","75302","1000","0.0132798597647","1","undefined","1","0","6","6","6","0","6","6","6","NA","6","6","0","6","NA","6","6","0","6","NA","6","NA","6","0","0","6","6","0","6","6","7","/","12/06/17 16:32:31","The main experiment item","yes","FIN__BA__M21__7%3A10%3A17.osexp","C:\Users\ERP Testing Room\Desktop\Joanna\morph21","no","mono","no","18","no","white","no","yes","1080","legacy","6","6","C:/Users/ERP Testing Room/Desktop/Joanna/morph21/subject-117.csv","xpyriment","Jazzy James","3.1.4","0","/","NA","NA","NA","NA","space","/","526","NA","NA","NA","NA","189061","526","2","legacy","1024","2","48000","-16","BA_m21","117","odd","CW_L","COMPOSER","1363","215092","213509","210399","190434","NA","NA","NA","NA","215089","214006","NA","213008","NA","213000","215089","1372","215392","NA","NA","214100","1363","1363","214492","213000","1363","214100","215392","morph21_Oliver/Morris","4","4044","7","yes","1280","6"
"200","62.5","62.5","537.875","537.875","black","no","xpyriment","legacy","legacy","0","201","NA","uniform","87584","1000","0.0114176105225","1","undefined","1","0","7","7","7","0","7","7","7","NA","7","7","0","7","NA","7","7","0","7","NA","7","NA","7","0","0","7","7","0","7","7","8","/","12/06/17 16:32:31","The main experiment item","yes","FIN__BA__M21__7%3A10%3A17.osexp","C:\Users\ERP Testing Room\Desktop\Joanna\morph21","no","mono","no","18","no","white","no","yes","1080","legacy","7","7","C:/Users/ERP Testing Room/Desktop/Joanna/morph21/subject-117.csv","xpyriment","Jazzy James","3.1.4","0","/","NA","NA","NA","NA","space","/","259","NA","NA","NA","NA","189061","259","2","legacy","1024","2","48000","-16","BA_m21","117","odd","CW_S","BOLDNESS","1363","218175","216575","210399","190434","NA","NA","NA","NA","218171","217072","NA","216075","NA","216072","218171","1372","218375","NA","NA","217175","1363","1363","217575","216072","1363","217175","218375","morph21_Oliver/Morris","5","4303","8","yes","1280","41"
"200","55.5555555556","55.5555555556","530.333333333","530.333333333","black","no","xpyriment","legacy","legacy","0","208","NA","uniform","79807","1000","0.0125302291779","0","undefined","0","0","8","8","8","0","8","8","8","NA","8","8","0","8","NA","8","8","0","8","NA","8","NA","8","0","0","8","8","0","8","8","9","z","12/06/17 16:32:31","The main experiment item","yes","FIN__BA__M21__7%3A10%3A17.osexp","C:\Users\ERP Testing Room\Desktop\Joanna\morph21","no","mono","no","18","no","white","no","yes","1080","legacy","8","8","C:/Users/ERP Testing Room/Desktop/Joanna/morph21/subject-117.csv","xpyriment","Jazzy James","3.1.4","0","/","NA","NA","NA","NA","space","/","470","NA","NA","NA","NA","189061","470","2","legacy","1024","2","48000","-16","BA_m21","117","odd","FILL_NW","CINDS","1363","222601","219509","221092","190434","NA","NA","NA","NA","218171","220006","NA","219000","NA","218997","221088","1372","222801","NA","NA","220092","1363","1363","220492","218997","1363","220092","222801","morph21_Oliver/Morris","5","4773","9","yes","1280","6"
"350","50","50","530.1","530.1","black","no","xpyriment","legacy","legacy","0","204","NA","uniform","80874","1000","0.012364913322","0","undefined","0","0","9","9","9","0","9","9","9","NA","9","9","0","9","NA","9","9","0","9","NA","9","NA","9","0","0","9","9","0","9","9","10","z","12/06/17 16:32:31","The main experiment item","yes","FIN__BA__M21__7%3A10%3A17.osexp","C:\Users\ERP Testing Room\Desktop\Joanna\morph21","no","mono","no","18","no","white","no","yes","1080","legacy","9","9","C:/Users/ERP Testing Room/Desktop/Joanna/morph21/subject-117.csv","xpyriment","Jazzy James","3.1.4","0","/","NA","NA","NA","NA","space","/","528","NA","NA","NA","NA","189061","528","2","legacy","1024","2","48000","-16","BA_m21","117","odd","NW_L_COMP","AGREELA","1363","225617","224017","221092","190434","NA","NA","NA","NA","218171","224515","NA","223517","NA","223507","225613","1372","225967","NA","NA","224617","1363","1363","225017","223507","1363","224617","225967","morph21_Oliver/Morris","5","5301","10","yes","1280","24"
"250","45.4545454545","45.4545454545","517.545454545","517.545454545","black","no","xpyriment","legacy","legacy","0","202","NA","uniform","83009","1000","0.0120468864822","0","undefined","0","0","10","10","10","0","10","10","10","NA","10","10","0","10","NA","10","10","0","10","NA","10","NA","10","0","0","10","10","0","10","10","11","/","12/06/17 16:32:31","The main experiment item","yes","FIN__BA__M21__7%3A10%3A17.osexp","C:\Users\ERP Testing Room\Desktop\Joanna\morph21","no","mono","no","18","no","white","no","yes","1080","legacy","10","10","C:/Users/ERP Testing Room/Desktop/Joanna/morph21/subject-117.csv","xpyriment","Jazzy James","3.1.4","0","z","NA","NA","NA","NA","space","z","392","NA","NA","NA","NA","189061","392","2","legacy","1024","2","48000","-16","BA_m21","117","odd","CW_L","EXCITEMENT","1363","228793","227192","221092","190434","NA","NA","NA","NA","218171","227690","NA","226692","NA","226686","228782","1372","229043","NA","NA","227793","1363","1363","228184","226686","1363","227792","229043","morph21_Oliver/Morris","5","5693","11","yes","1280","38"
"350","50","50","502.25","502.25","black","no","xpyriment","legacy","legacy","0","207","NA","uniform","84850","1000","0.0117855038303","1","undefined","1","0","11","11","11","0","11","11","11","NA","11","11","0","11","NA","11","11","0","11","NA","11","NA","11","0","0","11","11","0","11","11","12","/","12/06/17 16:32:31","The main experiment item","yes","FIN__BA__M21__7%3A10%3A17.osexp","C:\Users\ERP Testing Room\Desktop\Joanna\morph21","no","mono","no","18","no","white","no","yes","1080","legacy","11","11","C:/Users/ERP Testing Room/Desktop/Joanna/morph21/subject-117.csv","xpyriment","Jazzy James","3.1.4","0","/","NA","NA","NA","NA","space","/","334","NA","NA","NA","NA","189061","334","2","legacy","1024","2","48000","-16","BA_m21","117","odd","FILL_W","FOLLOW","1363","233361","230251","231852","190434","NA","NA","NA","NA","231849","230748","NA","229751","NA","229740","231849","1372","233711","NA","NA","230860","1363","1363","231252","229740","1363","230860","233711","morph21_Oliver/Morris","6","6027","12","yes","1280","17"
"300","53.8461538462","53.8461538462","518.769230769","518.769230769","black","no","xpyriment","legacy","legacy","0","206","NA","uniform","62457","1000","0.0160110155787","1","undefined","1","0","12","12","12","0","12","12","12","NA","12","12","0","12","NA","12","12","0","12","NA","12","NA","12","0","0","12","12","0","12","12","13","z","12/06/17 16:32:31","The main experiment item","yes","FIN__BA__M21__7%3A10%3A17.osexp","C:\Users\ERP Testing Room\Desktop\Joanna\morph21","no","mono","no","18","no","white","no","yes","1080","legacy","12","12","C:/Users/ERP Testing Room/Desktop/Joanna/morph21/subject-117.csv","xpyriment","Jazzy James","3.1.4","0","z","NA","NA","NA","NA","space","z","717","NA","NA","NA","NA","189061","717","2","legacy","1024","2","48000","-16","BA_m21","117","odd","NW_L_SIMP","ELBOWISM","1363","236469","234877","231852","190434","NA","NA","NA","NA","236463","235374","NA","234377","NA","234374","236463","1372","236769","NA","NA","235469","1363","1363","235861","234374","1363","235469","236769","morph21_Oliver/Morris","7","6744","13","yes","1280","10"
"400","57.1428571429","57.1428571429","506.928571429","506.928571429","black","no","xpyriment","legacy","legacy","0","207","NA","uniform","87625","1000","0.0114122681883","1","undefined","1","0","13","13","13","0","13","13","13","NA","13","13","0","13","NA","13","13","0","13","NA","13","NA","13","0","0","13","13","0","13","13","14","/","12/06/17 16:32:31","The main experiment item","yes","FIN__BA__M21__7%3A10%3A17.osexp","C:\Users\ERP Testing Room\Desktop\Joanna\morph21","no","mono","no","18","no","white","no","yes","1080","legacy","13","13","C:/Users/ERP Testing Room/Desktop/Joanna/morph21/subject-117.csv","xpyriment","Jazzy James","3.1.4","0","/","NA","NA","NA","NA","space","/","353","NA","NA","NA","NA","189061","353","2","legacy","1024","2","48000","-16","BA_m21","117","odd","FILL_W","EAT","1363","239569","237969","231852","190434","NA","NA","NA","NA","239561","238466","NA","237469","NA","237464","239561","1372","239969","NA","NA","238569","1363","1363","238961","237464","1363","238569","239969","morph21_Oliver/Morris","8","7097","14","yes","1280","25"
"200","60","60","497.6","497.6","black","no","xpyriment","legacy","legacy","0","202","NA","uniform","86471","1000","0.011564570781","1","undefined","1","0","14","14","14","0","14","14","14","NA","14","14","0","14","NA","14","14","0","14","NA","14","NA","14","0","0","14","14","0","14","14","15","/","12/06/17 16:32:31","The main experiment item","yes","FIN__BA__M21__7%3A10%3A17.osexp","C:\Users\ERP Testing Room\Desktop\Joanna\morph21","no","mono","no","18","no","white","no","yes","1080","legacy","14","14","C:/Users/ERP Testing Room/Desktop/Joanna/morph21/subject-117.csv","xpyriment","Jazzy James","3.1.4","0","/","NA","NA","NA","NA","space","/","367","NA","NA","NA","NA","189061","367","2","legacy","1024","2","48000","-16","BA_m21","117","odd","CW_L","BOOTLESS","1363","244303","241178","242794","190434","NA","NA","NA","NA","242785","241675","NA","240677","NA","240673","242785","1372","244503","NA","NA","241794","1363","1363","242186","240673","1363","241794","244503","morph21_Oliver/Morris","9","7464","15","yes","1280","32"
"400","56.25","56.25","491.0625","491.0625","black","no","xpyriment","legacy","legacy","0","203","NA","uniform","77919","1000","0.01283384027","0","undefined","0","0","15","15","15","0","15","15","15","NA","15","15","0","15","NA","15","15","0","15","NA","15","NA","15","0","0","15","15","0","15","15","16","z","12/06/17 16:32:31","The main experiment item","yes","FIN__BA__M21__7%3A10%3A17.osexp","C:\Users\ERP Testing Room\Desktop\Joanna\morph21","no","mono","no","18","no","white","no","yes","1080","legacy","15","15","C:/Users/ERP Testing Room/Desktop/Joanna/morph21/subject-117.csv","xpyriment","Jazzy James","3.1.4","0","/","NA","NA","NA","NA","space","/","393","NA","NA","NA","NA","189061","393","2","legacy","1024","2","48000","-16","BA_m21","117","odd","NW_S_COMP","TRUENELS","1363","247336","245728","242794","190434","NA","NA","NA","NA","242785","246225","NA","245228","NA","245219","247329","1372","247736","NA","NA","246336","1363","1363","246728","245219","1363","246336","247736","morph21_Oliver/Morris","9","7857","16","yes","1280","15"
"350","52.9411764706","52.9411764706","487.470588235","487.470588235","black","no","xpyriment","legacy","legacy","0","206","NA","uniform","78847","1000","0.0126827907213","0","undefined","0","0","16","16","16","0","16","16","16","NA","16","16","0","16","NA","16","16","0","16","NA","16","NA","16","0","0","16","16","0","16","16","17","z","12/06/17 16:32:31","The main experiment item","yes","FIN__BA__M21__7%3A10%3A17.osexp","C:\Users\ERP Testing Room\Desktop\Joanna\morph21","no","mono","no","18","no","white","no","yes","1080","legacy","16","16","C:/Users/ERP Testing Room/Desktop/Joanna/morph21/subject-117.csv","xpyriment","Jazzy James","3.1.4","0","/","NA","NA","NA","NA","space","/","430","NA","NA","NA","NA","189061","430","2","legacy","1024","2","48000","-16","BA_m21","117","odd","NW_L_SIMP","CRITICANCE","1363","250604","249004","242794","190434","NA","NA","NA","NA","242785","249501","NA","248504","NA","248500","250594","1372","250954","NA","NA","249604","1363","1363","249996","248500","1363","249604","250954","morph21_Oliver/Morris","9","8287","17","yes","1280","22"
"200","55.5555555556","55.5555555556","480.444444444","480.444444444","black","no","xpyriment","legacy","legacy","0","208","NA","uniform","83915","1000","0.0119168205923","1","undefined","1","0","17","17","17","0","17","17","17","NA","17","17","0","17","NA","17","17","0","17","NA","17","NA","17","0","0","17","17","0","17","17","18","z","12/06/17 16:32:31","The main experiment item","yes","FIN__BA__M21__7%3A10%3A17.osexp","C:\Users\ERP Testing Room\Desktop\Joanna\morph21","no","mono","no","18","no","white","no","yes","1080","legacy","17","17","C:/Users/ERP Testing Room/Desktop/Joanna/morph21/subject-117.csv","xpyriment","Jazzy James","3.1.4","0","z","NA","NA","NA","NA","space","z","361","NA","NA","NA","NA","189061","361","2","legacy","1024","2","48000","-16","BA_m21","117","odd","FILL_NW","GILN","1363","255246","252154","253737","190434","NA","NA","NA","NA","253729","252651","NA","251654","NA","251650","253729","1372","255446","NA","NA","252737","1363","1363","253129","251650","1363","252737","255446","morph21_Oliver/Morris","10","8648","18","yes","1280","25"
"250","57.8947368421","57.8947368421","481.157894737","481.157894737","black","no","xpyriment","legacy","legacy","0","201","NA","uniform","77718","1000","0.0128670320904","1","undefined","1","0","18","18","18","0","18","18","18","NA","18","18","0","18","NA","18","18","0","18","NA","18","NA","18","0","0","18","18","0","18","18","19","/","12/06/17 16:32:31","The main experiment item","yes","FIN__BA__M21__7%3A10%3A17.osexp","C:\Users\ERP Testing Room\Desktop\Joanna\morph21","no","mono","no","18","no","white","no","yes","1080","legacy","18","18","C:/Users/ERP Testing Room/Desktop/Joanna/morph21/subject-117.csv","xpyriment","Jazzy James","3.1.4","0","/","NA","NA","NA","NA","space","/","494","NA","NA","NA","NA","189061","494","2","legacy","1024","2","48000","-16","BA_m21","117","odd","CW_S","AWARENESS","1363","258204","256629","253737","190434","NA","NA","NA","NA","258201","257126","NA","256129","NA","256119","258201","1372","258454","NA","NA","257212","1363","1363","257604","256119","1363","257212","258454","morph21_Oliver/Morris","11","9142","19","yes","1280","44"
"300","55","55","470.05","470.05","black","no","xpyriment","legacy","legacy","0","208","NA","uniform","77354","1000","0.0129275796985","0","undefined","0","0","19","19","19","0","19","19","19","NA","19","19","0","19","NA","19","19","0","19","NA","19","NA","19","0","0","19","19","0","19","19","20","z","12/06/17 16:32:31","The main experiment item","yes","FIN__BA__M21__7%3A10%3A17.osexp","C:\Users\ERP Testing Room\Desktop\Joanna\morph21","no","mono","no","18","no","white","no","yes","1080","legacy","19","19","C:/Users/ERP Testing Room/Desktop/Joanna/morph21/subject-117.csv","xpyriment","Jazzy James","3.1.4","0","/","NA","NA","NA","NA","space","/","259","NA","NA","NA","NA","189061","259","2","legacy","1024","2","48000","-16","BA_m21","117","odd","FILL_NW","BAFED","1363","261246","259663","253737","190434","NA","NA","NA","NA","258201","260160","NA","259163","NA","259158","261241","1372","261546","NA","NA","260246","1363","1363","260646","259158","1363","260246","261546","morph21_Oliver/Morris","11","9401","20","yes","1280","1"
"250","52.380952381","52.380952381","466.476190476","466.476190476","black","no","xpyriment","legacy","legacy","0","202","NA","uniform","79070","1000","0.0126470216264","0","undefined","0","0","20","20","20","0","20","20","20","NA","20","20","0","20","NA","20","20","0","20","NA","20","NA","20","0","0","20","20","0","20","20","21","/","12/06/17 16:32:31","The main experiment item","yes","FIN__BA__M21__7%3A10%3A17.osexp","C:\Users\ERP Testing Room\Desktop\Joanna\morph21","no","mono","no","18","no","white","no","yes","1080","legacy","20","20","C:/Users/ERP Testing Room/Desktop/Joanna/morph21/subject-117.csv","xpyriment","Jazzy James","3.1.4","0","z","NA","NA","NA","NA","space","z","395","NA","NA","NA","NA","189061","395","2","legacy","1024","2","48000","-16","BA_m21","117","odd","CW_L","CREAMY","1363","265956","262854","264446","190434","NA","NA","NA","NA","258201","263352","NA","262354","NA","262349","264436","1372","266206","NA","NA","263446","1363","1363","263838","262349","1363","263446","266206","morph21_Oliver/Morris","11","9796","21","yes","1280","49"
"200","54.5454545455","54.5454545455","461.545454545","461.545454545","black","no","xpyriment","legacy","legacy","0","201","NA","uniform","83329","1000","0.0120006240324","1","undefined","1","0","21","21","21","0","21","21","21","NA","21","21","0","21","NA","21","21","0","21","NA","21","NA","21","0","0","21","21","0","21","21","22","/","12/06/17 16:32:31","The main experiment item","yes","FIN__BA__M21__7%3A10%3A17.osexp","C:\Users\ERP Testing Room\Desktop\Joanna\morph21","no","mono","no","18","no","white","no","yes","1080","legacy","21","21","C:/Users/ERP Testing Room/Desktop/Joanna/morph21/subject-117.csv","xpyriment","Jazzy James","3.1.4","0","/","NA","NA","NA","NA","space","/","358","NA","NA","NA","NA","189061","358","2","legacy","1024","2","48000","-16","BA_m21","117","odd","CW_S","LOCALLY","1363","269172","267556","264446","190434","NA","NA","NA","NA","269165","268053","NA","267056","NA","267052","269165","1372","269372","NA","NA","268172","1363","1363","268564","267052","1363","268172","269372","morph21_Oliver/Morris","12","10154","22","yes","1280","37"
"250","52.1739130435","52.1739130435","460.173913043","460.173913043","black","no","xpyriment","legacy","legacy","0","207","NA","uniform","76101","1000","0.0131404317946","0","undefined","0","0","22","22","22","0","22","22","22","NA","22","22","0","22","NA","22","22","0","22","NA","22","NA","22","0","0","22","22","0","22","22","23","/","12/06/17 16:32:31","The main experiment item","yes","FIN__BA__M21__7%3A10%3A17.osexp","C:\Users\ERP Testing Room\Desktop\Joanna\morph21","no","mono","no","18","no","white","no","yes","1080","legacy","22","22","C:/Users/ERP Testing Room/Desktop/Joanna/morph21/subject-117.csv","xpyriment","Jazzy James","3.1.4","0","z","NA","NA","NA","NA","space","z","430","NA","NA","NA","NA","189061","430","2","legacy","1024","2","48000","-16","BA_m21","117","odd","FILL_W","PREACH","1363","272147","270531","264446","190434","NA","NA","NA","NA","269165","271028","NA","270031","NA","270021","272139","1372","272398","NA","NA","271148","1363","1363","271539","270021","1363","271147","272398","morph21_Oliver/Morris","12","10584","23","yes","1280","7"
"300","50","50","453.708333333","453.708333333","black","no","xpyriment","legacy","legacy","0","205","NA","uniform","86815","1000","0.0115187467604","0","undefined","0","0","23","23","23","0","23","23","23","NA","23","23","0","23","NA","23","23","0","23","NA","23","NA","23","0","0","23","23","0","23","23","24","z","12/06/17 16:32:31","The main experiment item","yes","FIN__BA__M21__7%3A10%3A17.osexp","C:\Users\ERP Testing Room\Desktop\Joanna\morph21","no","mono","no","18","no","white","no","yes","1080","legacy","23","23","C:/Users/ERP Testing Room/Desktop/Joanna/morph21/subject-117.csv","xpyriment","Jazzy James","3.1.4","0","/","NA","NA","NA","NA","space","/","305","NA","NA","NA","NA","189061","305","2","legacy","1024","2","48000","-16","BA_m21","117","odd","NW_S_SIMP","HELMETOUS","1363","276798","273706","275289","190434","NA","NA","NA","NA","269165","274203","NA","273206","NA","273201","275283","1372","277098","NA","NA","274289","1363","1363","274681","273201","1363","274289","277098","morph21_Oliver/Morris","12","10889","24","yes","1280","14"
"250","52","52","451.76","451.76","black","no","xpyriment","legacy","legacy","0","201","NA","uniform","82414","1000","0.0121338607518","1","undefined","1","0","24","24","24","0","24","24","24","NA","24","24","0","24","NA","24","24","0","24","NA","24","NA","24","0","0","24","24","0","24","24","25","/","12/06/17 16:32:31","The main experiment item","yes","FIN__BA__M21__7%3A10%3A17.osexp","C:\Users\ERP Testing Room\Desktop\Joanna\morph21","no","mono","no","18","no","white","no","yes","1080","legacy","24","24","C:/Users/ERP Testing Room/Desktop/Joanna/morph21/subject-117.csv","xpyriment","Jazzy James","3.1.4","0","/","NA","NA","NA","NA","space","/","405","NA","NA","NA","NA","189061","405","2","legacy","1024","2","48000","-16","BA_m21","117","odd","CW_S","NOTICEABLE","1363","279956","278373","275289","190434","NA","NA","NA","NA","279951","278870","NA","277873","NA","277867","279951","1372","280206","NA","NA","278956","1363","1363","279356","277867","1363","278956","280206","morph21_Oliver/Morris","13","11294","25","yes","1280","3"
"250","53.8461538462","53.8461538462","453.269230769","453.269230769","black","no","xpyriment","legacy","legacy","0","202","NA","uniform","73378","1000","0.0136280629071","1","undefined","1","0","25","25","25","0","25","25","25","NA","25","25","0","25","NA","25","25","0","25","NA","25","NA","25","0","0","25","25","0","25","25","26","/","12/06/17 16:32:31","The main experiment item","yes","FIN__BA__M21__7%3A10%3A17.osexp","C:\Users\ERP Testing Room\Desktop\Joanna\morph21","no","mono","no","18","no","white","no","yes","1080","legacy","25","25","C:/Users/ERP Testing Room/Desktop/Joanna/morph21/subject-117.csv","xpyriment","Jazzy James","3.1.4","0","/","NA","NA","NA","NA","space","/","491","NA","NA","NA","NA","189061","491","2","legacy","1024","2","48000","-16","BA_m21","117","odd","CW_L","DANCER","1363","282981","281398","275289","190434","NA","NA","NA","NA","282978","281895","NA","280898","NA","280895","282978","1372","283231","NA","NA","281990","1363","1363","282381","280895","1363","281990","283231","morph21_Oliver/Morris","14","11785","26","yes","1280","11"
"300","51.8518518519","51.8518518519","452.888888889","452.888888889","black","no","xpyriment","legacy","legacy","0","201","NA","uniform","70696","1000","0.014145071857","0","undefined","0","0","26","26","26","0","26","26","26","NA","26","26","0","26","NA","26","26","0","26","NA","26","NA","26","0","0","26","26","0","26","26","27","/","12/06/17 16:32:31","The main experiment item","yes","FIN__BA__M21__7%3A10%3A17.osexp","C:\Users\ERP Testing Room\Desktop\Joanna\morph21","no","mono","no","18","no","white","no","yes","1080","legacy","26","26","C:/Users/ERP Testing Room/Desktop/Joanna/morph21/subject-117.csv","xpyriment","Jazzy James","3.1.4","0","z","NA","NA","NA","NA","space","z","443","NA","NA","NA","NA","189061","443","2","legacy","1024","2","48000","-16","BA_m21","117","odd","CW_S","RISKY","1363","287516","284407","286007","190434","NA","NA","NA","NA","282978","284905","NA","283907","NA","283901","286001","1372","287816","NA","NA","285007","1363","1363","285399","283901","1363","285007","287816","morph21_Oliver/Morris","14","12228","27","yes","1280","50"
"250","50","50","446.75","446.75","black","no","xpyriment","legacy","legacy","0","204","NA","uniform","84925","1000","0.0117750956727","0","undefined","0","0","27","27","27","0","27","27","27","NA","27","27","0","27","NA","27","27","0","27","NA","27","NA","27","0","0","27","27","0","27","27","28","z","12/06/17 16:32:31","The main experiment item","yes","FIN__BA__M21__7%3A10%3A17.osexp","C:\Users\ERP Testing Room\Desktop\Joanna\morph21","no","mono","no","18","no","white","no","yes","1080","legacy","27","27","C:/Users/ERP Testing Room/Desktop/Joanna/morph21/subject-117.csv","xpyriment","Jazzy James","3.1.4","0","/","NA","NA","NA","NA","space","/","281","NA","NA","NA","NA","189061","281","2","legacy","1024","2","48000","-16","BA_m21","117","odd","NW_L_COMP","FREENELS","1363","290641","289058","286007","190434","NA","NA","NA","NA","282978","289555","NA","288558","NA","288548","290632","1372","290891","NA","NA","289641","1363","1363","290033","288548","1363","289641","290891","morph21_Oliver/Morris","14","12509","28","yes","1280","15"
"350","51.724137931","51.724137931","444.896551724","444.896551724","black","no","xpyriment","legacy","legacy","0","207","NA","uniform","79210","1000","0.0126246686024","1","undefined","1","0","28","28","28","0","28","28","28","NA","28","28","0","28","NA","28","28","0","28","NA","28","NA","28","0","0","28","28","0","28","28","29","/","12/06/17 16:32:31","The main experiment item","yes","FIN__BA__M21__7%3A10%3A17.osexp","C:\Users\ERP Testing Room\Desktop\Joanna\morph21","no","mono","no","18","no","white","no","yes","1080","legacy","28","28","C:/Users/ERP Testing Room/Desktop/Joanna/morph21/subject-117.csv","xpyriment","Jazzy James","3.1.4","0","/","NA","NA","NA","NA","space","/","393","NA","NA","NA","NA","189061","393","2","legacy","1024","2","48000","-16","BA_m21","117","odd","FILL_W","LEAK","1363","293649","292066","286007","190434","NA","NA","NA","NA","293642","292563","NA","291566","NA","291555","293642","1372","294000","NA","NA","292649","1363","1363","293041","291555","1363","292649","294000","morph21_Oliver/Morris","15","12902","29","yes","1280","9"
"300","50","50","442.3","442.3","black","no","xpyriment","legacy","legacy","0","203","NA","uniform","79683","1000","0.0125497282984","0","undefined","0","0","29","29","29","0","29","29","29","NA","29","29","0","29","NA","29","29","0","29","NA","29","NA","29","0","0","29","29","0","29","29","30","z","12/06/17 16:32:31","The main experiment item","yes","FIN__BA__M21__7%3A10%3A17.osexp","C:\Users\ERP Testing Room\Desktop\Joanna\morph21","no","mono","no","18","no","white","no","yes","1080","legacy","29","29","C:/Users/ERP Testing Room/Desktop/Joanna/morph21/subject-117.csv","xpyriment","Jazzy James","3.1.4","0","/","NA","NA","NA","NA","space","/","367","NA","NA","NA","NA","189061","367","2","legacy","1024","2","48000","-16","BA_m21","117","odd","NW_S_COMP","FIGEL","1363","298358","295258","296850","190434","NA","NA","NA","NA","293642","295755","NA","294750","NA","294742","296841","1372","298658","NA","NA","295850","1363","1363","296241","294742","1363","295850","298658","morph21_Oliver/Morris","15","13269","30","yes","1280","4"
"350","51.6129032258","51.6129032258","441.935483871","441.935483871","black","no","xpyriment","legacy","legacy","0","202","NA","uniform","75893","1000","0.0131764457855","1","undefined","1","0","30","30","30","0","30","30","30","NA","30","30","0","30","NA","30","30","0","30","NA","30","NA","30","0","0","30","30","0","30","30","31","/","12/06/17 16:32:31","The main experiment item","yes","FIN__BA__M21__7%3A10%3A17.osexp","C:\Users\ERP Testing Room\Desktop\Joanna\morph21","no","mono","no","18","no","white","no","yes","1080","legacy","30","30","C:/Users/ERP Testing Room/Desktop/Joanna/morph21/subject-117.csv","xpyriment","Jazzy James","3.1.4","0","/","NA","NA","NA","NA","space","/","431","NA","NA","NA","NA","189061","431","2","legacy","1024","2","48000","-16","BA_m21","117","odd","CW_L","BOMBER","1363","301468","299866","296850","190434","NA","NA","NA","NA","301463","300364","NA","299366","NA","299358","301463","1372","301818","NA","NA","300475","1363","1363","300867","299358","1363","300475","301818","morph21_Oliver/Morris","16","13700","31","yes","1280","7"
"250","53.125","53.125","440.34375","440.34375","black","no","xpyriment","legacy","legacy","0","201","NA","uniform","80430","1000","0.0124331717021","1","undefined","1","0","31","31","31","0","31","31","31","NA","31","31","0","31","NA","31","31","0","31","NA","31","NA","31","0","0","31","31","0","31","31","32","/","12/06/17 16:32:31","The main experiment item","yes","FIN__BA__M21__7%3A10%3A17.osexp","C:\Users\ERP Testing Room\Desktop\Joanna\morph21","no","mono","no","18","no","white","no","yes","1080","legacy","31","31","C:/Users/ERP Testing Room/Desktop/Joanna/morph21/subject-117.csv","xpyriment","Jazzy James","3.1.4","0","/","NA","NA","NA","NA","space","/","391","NA","NA","NA","NA","189061","391","2","legacy","1024","2","48000","-16","BA_m21","117","odd","CW_S","MILDNESS","1363","304643","303051","296850","190434","NA","NA","NA","NA","304637","303548","NA","302551","NA","302546","304637","1372","304893","NA","NA","303643","1363","1363","304034","302546","1363","303643","304893","morph21_Oliver/Morris","17","14091","32","yes","1280","42"
"400","51.5151515152","51.5151515152","437.666666667","437.666666667","black","no","xpyriment","legacy","legacy","0","201","NA","uniform","85820","1000","0.0116522955022","0","undefined","0","0","32","32","32","0","32","32","32","NA","32","32","0","32","NA","32","32","0","32","NA","32","NA","32","0","0","32","32","0","32","32","33","/","12/06/17 16:32:31","The main experiment item","yes","FIN__BA__M21__7%3A10%3A17.osexp","C:\Users\ERP Testing Room\Desktop\Joanna\morph21","no","mono","no","18","no","white","no","yes","1080","legacy","32","32","C:/Users/ERP Testing Room/Desktop/Joanna/morph21/subject-117.csv","xpyriment","Jazzy James","3.1.4","0","z","NA","NA","NA","NA","space","z","352","NA","NA","NA","NA","189061","352","2","legacy","1024","2","48000","-16","BA_m21","117","odd","CW_S","AVOIDABLE","1363","309126","306034","307618","190434","NA","NA","NA","NA","304637","306531","NA","305534","NA","305527","307610","1372","309526","NA","NA","306618","1363","1363","307009","305527","1363","306618","309526","morph21_Oliver/Morris","17","14443","33","yes","1280","2"
"400","50","50","435.411764706","435.411764706","black","no","xpyriment","legacy","legacy","0","204","NA","uniform","76967","1000","0.0129925812361","0","undefined","0","0","33","33","33","0","33","33","33","NA","33","33","0","33","NA","33","33","0","33","NA","33","NA","33","0","0","33","33","0","33","33","34","z","12/06/17 16:32:31","The main experiment item","yes","FIN__BA__M21__7%3A10%3A17.osexp","C:\Users\ERP Testing Room\Desktop\Joanna\morph21","no","mono","no","18","no","white","no","yes","1080","legacy","33","33","C:/Users/ERP Testing Room/Desktop/Joanna/morph21/subject-117.csv","xpyriment","Jazzy James","3.1.4","0","/","NA","NA","NA","NA","space","/","361","NA","NA","NA","NA","189061","361","2","legacy","1024","2","48000","-16","BA_m21","117","odd","NW_L_COMP","COLDIDY","1363","312360","310751","307618","190434","NA","NA","NA","NA","304637","311248","NA","310251","NA","310245","312352","1372","312760","NA","NA","311360","1363","1363","311751","310245","1363","311360","312760","morph21_Oliver/Morris","17","14804","34","yes","1280","10"
"350","51.4285714286","51.4285714286","436.428571429","436.428571429","black","no","xpyriment","legacy","legacy","0","201","NA","uniform","77546","1000","0.0128955716607","1","undefined","1","0","34","34","34","0","34","34","34","NA","34","34","0","34","NA","34","34","0","34","NA","34","NA","34","0","0","34","34","0","34","34","35","/","12/06/17 16:32:31","The main experiment item","yes","FIN__BA__M21__7%3A10%3A17.osexp","C:\Users\ERP Testing Room\Desktop\Joanna\morph21","no","mono","no","18","no","white","no","yes","1080","legacy","34","34","C:/Users/ERP Testing Room/Desktop/Joanna/morph21/subject-117.csv","xpyriment","Jazzy James","3.1.4","0","/","NA","NA","NA","NA","space","/","471","NA","NA","NA","NA","189061","471","2","legacy","1024","2","48000","-16","BA_m21","117","odd","CW_S","CHILLY","1363","315618","314010","307618","190434","NA","NA","NA","NA","315608","314507","NA","313510","NA","313503","315608","1372","315968","NA","NA","314618","1363","1363","315010","313502","1363","314618","315968","morph21_Oliver/Morris","18","15275","35","yes","1280","48"
"250","50","50","433.861111111","433.861111111","black","no","xpyriment","legacy","legacy","0","207","NA","uniform","84060","1000","0.0118962645729","0","undefined","0","0","35","35","35","0","35","35","35","NA","35","35","0","35","NA","35","35","0","35","NA","35","NA","35","0","0","35","35","0","35","35","36","/","12/06/17 16:32:31","The main experiment item","yes","FIN__BA__M21__7%3A10%3A17.osexp","C:\Users\ERP Testing Room\Desktop\Joanna\morph21","no","mono","no","18","no","white","no","yes","1080","legacy","35","35","C:/Users/ERP Testing Room/Desktop/Joanna/morph21/subject-117.csv","xpyriment","Jazzy James","3.1.4","0","z","NA","NA","NA","NA","space","z","344","NA","NA","NA","NA","189061","344","2","legacy","1024","2","48000","-16","BA_m21","117","odd","FILL_W","STARVE","1363","320286","317193","318778","190434","NA","NA","NA","NA","315608","317690","NA","316693","NA","316682","318769","1372","320536","NA","NA","317777","1363","1363","318168","316682","1363","317776","320536","morph21_Oliver/Morris","18","15619","36","yes","1280","15"
"300","48.6486486486","48.6486486486","430.594594595","430.594594595","black","no","xpyriment","legacy","legacy","0","205","NA","uniform","84378","1000","0.0118514304677","0","undefined","0","0","36","36","36","0","36","36","36","NA","36","36","0","36","NA","36","36","0","36","NA","36","NA","36","0","0","36","36","0","36","36","37","z","12/06/17 16:32:31","The main experiment item","yes","FIN__BA__M21__7%3A10%3A17.osexp","C:\Users\ERP Testing Room\Desktop\Joanna\morph21","no","mono","no","18","no","white","no","yes","1080","legacy","36","36","C:/Users/ERP Testing Room/Desktop/Joanna/morph21/subject-117.csv","xpyriment","Jazzy James","3.1.4","0","/","NA","NA","NA","NA","space","/","313","NA","NA","NA","NA","189061","313","2","legacy","1024","2","48000","-16","BA_m21","117","odd","NW_S_SIMP","TILTARY","1363","323344","321761","318778","190434","NA","NA","NA","NA","315608","322258","NA","321261","NA","321256","323340","1372","323644","NA","NA","322353","1363","1363","322744","321256","1363","322353","323644","morph21_Oliver/Morris","18","15932","37","yes","1280","17"
"250","50","50","429.315789474","429.315789474","black","no","xpyriment","legacy","legacy","0","201","NA","uniform","86657","1000","0.0115397486643","1","undefined","1","0","37","37","37","0","37","37","37","NA","37","37","0","37","NA","37","37","0","37","NA","37","NA","37","0","0","37","37","0","37","37","38","/","12/06/17 16:32:31","The main experiment item","yes","FIN__BA__M21__7%3A10%3A17.osexp","C:\Users\ERP Testing Room\Desktop\Joanna\morph21","no","mono","no","18","no","white","no","yes","1080","legacy","37","37","C:/Users/ERP Testing Room/Desktop/Joanna/morph21/subject-117.csv","xpyriment","Jazzy James","3.1.4","0","/","NA","NA","NA","NA","space","/","382","NA","NA","NA","NA","189061","382","2","legacy","1024","2","48000","-16","BA_m21","117","odd","CW_S","PEAKING","1363","326436","324853","318778","190434","NA","NA","NA","NA","326429","325350","NA","324353","NA","324345","326429","1372","326686","NA","NA","325436","1363","1363","325828","324345","1363","325436","326686","morph21_Oliver/Morris","19","16314","38","yes","1280","28"
"350","48.7179487179","48.7179487179","434.102564103","434.102564103","black","no","xpyriment","legacy","legacy","0","205","NA","uniform","74898","1000","0.0133514913616","0","undefined","0","0","38","38","38","0","38","38","38","NA","38","38","0","38","NA","38","38","0","38","NA","38","NA","38","0","0","38","38","0","38","38","39","z","12/06/17 16:32:31","The main experiment item","yes","FIN__BA__M21__7%3A10%3A17.osexp","C:\Users\ERP Testing Room\Desktop\Joanna\morph21","no","mono","no","18","no","white","no","yes","1080","legacy","38","38","C:/Users/ERP Testing Room/Desktop/Joanna/morph21/subject-117.csv","xpyriment","Jazzy James","3.1.4","0","/","NA","NA","NA","NA","space","/","616","NA","NA","NA","NA","189061","616","2","legacy","1024","2","48000","-16","BA_m21","117","odd","NW_S_SIMP","BASKORY","1363","331053","327945","329545","190434","NA","NA","NA","NA","326429","328442","NA","327436","NA","327424","329540","1372","331403","NA","NA","328545","1363","1363","328945","327424","1363","328545","331403","morph21_Oliver/Morris","19","16930","39","yes","1280","10"
"300","47.5","47.5","431.725","431.725","black","no","xpyriment","legacy","legacy","0","208","NA","uniform","80564","1000","0.0124124919319","0","undefined","0","0","39","39","39","0","39","39","39","NA","39","39","0","39","NA","39","39","0","39","NA","39","NA","39","0","0","39","39","0","39","39","40","z","12/06/17 16:32:31","The main experiment item","yes","FIN__BA__M21__7%3A10%3A17.osexp","C:\Users\ERP Testing Room\Desktop\Joanna\morph21","no","mono","no","18","no","white","no","yes","1080","legacy","39","39","C:/Users/ERP Testing Room/Desktop/Joanna/morph21/subject-117.csv","xpyriment","Jazzy James","3.1.4","0","/","NA","NA","NA","NA","space","/","339","NA","NA","NA","NA","189061","339","2","legacy","1024","2","48000","-16","BA_m21","117","odd","FILL_NW","DASK","1363","334270","332637","329545","190434","NA","NA","NA","NA","326429","333134","NA","332137","NA","332131","334260","1372","334570","NA","NA","333270","1363","1363","333662","332131","1363","333270","334570","morph21_Oliver/Morris","19","17269","40","yes","1280","12"
"350","46.3414634146","46.3414634146","433.804878049","433.804878049","black","no","xpyriment","legacy","legacy","0","201","NA","uniform","81646","1000","0.0122479974524","0","undefined","0","0","40","40","40","0","40","40","40","NA","40","40","0","40","NA","40","40","0","40","NA","40","NA","40","0","0","40","40","0","40","40","41","/","12/06/17 16:32:31","The main experiment item","yes","FIN__BA__M21__7%3A10%3A17.osexp","C:\Users\ERP Testing Room\Desktop\Joanna\morph21","no","mono","no","18","no","white","no","yes","1080","legacy","40","40","C:/Users/ERP Testing Room/Desktop/Joanna/morph21/subject-117.csv","xpyriment","Jazzy James","3.1.4","0","z","NA","NA","NA","NA","space","z","517","NA","NA","NA","NA","189061","517","2","legacy","1024","2","48000","-16","BA_m21","117","odd","CW_S","TEACHER","1363","337421","335813","329545","190434","NA","NA","NA","NA","326429","336310","NA","335312","NA","335302","337414","1372","337771","NA","NA","336421","1363","1363","336813","335302","1363","336421","337771","morph21_Oliver/Morris","19","17786","41","yes","1280","23"
"350","45.2380952381","45.2380952381","434.976190476","434.976190476","black","no","xpyriment","legacy","legacy","0","204","NA","uniform","73589","1000","0.0135889874845","0","undefined","0","0","41","41","41","0","41","41","41","NA","41","41","0","41","NA","41","41","0","41","NA","41","NA","41","0","0","41","41","0","41","41","42","z","12/06/17 16:32:31","The main experiment item","yes","FIN__BA__M21__7%3A10%3A17.osexp","C:\Users\ERP Testing Room\Desktop\Joanna\morph21","no","mono","no","18","no","white","no","yes","1080","legacy","41","41","C:/Users/ERP Testing Room/Desktop/Joanna/morph21/subject-117.csv","xpyriment","Jazzy James","3.1.4","0","/","NA","NA","NA","NA","space","/","483","NA","NA","NA","NA","189061","483","2","legacy","1024","2","48000","-16","BA_m21","117","odd","NW_L_COMP","MOUTHIME","1363","342163","339038","340655","190434","NA","NA","NA","NA","326429","339535","NA","338538","NA","338527","340647","1372","342513","NA","NA","339655","1363","1363","340046","338527","1363","339655","342513","morph21_Oliver/Morris","19","18269","42","yes","1280","11"
"400","46.511627907","46.511627907","434.720930233","434.720930233","black","no","xpyriment","legacy","legacy","0","201","NA","uniform","72660","1000","0.0137627305257","1","undefined","1","0","42","42","42","0","42","42","42","NA","42","42","0","42","NA","42","42","0","42","NA","42","NA","42","0","0","42","42","0","42","42","43","/","12/06/17 16:32:31","The main experiment item","yes","FIN__BA__M21__7%3A10%3A17.osexp","C:\Users\ERP Testing Room\Desktop\Joanna\morph21","no","mono","no","18","no","white","no","yes","1080","legacy","42","42","C:/Users/ERP Testing Room/Desktop/Joanna/morph21/subject-117.csv","xpyriment","Jazzy James","3.1.4","0","/","NA","NA","NA","NA","space","/","424","NA","NA","NA","NA","189061","424","2","legacy","1024","2","48000","-16","BA_m21","117","odd","CW_S","ALLOWANCE","1363","345338","343755","340655","190434","NA","NA","NA","NA","345331","344252","NA","343255","NA","343251","345331","1372","345738","NA","NA","344338","1363","1363","344730","343251","1363","344338","345738","morph21_Oliver/Morris","20","18693","43","yes","1280","5"
"350","47.7272727273","47.7272727273","437.409090909","437.409090909","black","no","xpyriment","legacy","legacy","0","202","NA","uniform","70729","1000","0.0141384721967","1","undefined","1","0","43","43","43","0","43","43","43","NA","43","43","0","43","NA","43","43","0","43","NA","43","NA","43","0","0","43","43","0","43","43","44","/","12/06/17 16:32:31","The main experiment item","yes","FIN__BA__M21__7%3A10%3A17.osexp","C:\Users\ERP Testing Room\Desktop\Joanna\morph21","no","mono","no","18","no","white","no","yes","1080","legacy","43","43","C:/Users/ERP Testing Room/Desktop/Joanna/morph21/subject-117.csv","xpyriment","Jazzy James","3.1.4","0","/","NA","NA","NA","NA","space","/","553","NA","NA","NA","NA","189061","553","2","legacy","1024","2","48000","-16","BA_m21","117","odd","CW_L","KICKING","1363","348488","346905","340655","190434","NA","NA","NA","NA","348480","347402","NA","346405","NA","346398","348480","1372","348838","NA","NA","347488","1363","1363","347880","346397","1363","347488","348838","morph21_Oliver/Morris","21","19246","44","yes","1280","23"
"200","48.8888888889","48.8888888889","436.777777778","436.777777778","black","no","xpyriment","legacy","legacy","0","203","NA","uniform","70774","1000","0.0141294825783","1","undefined","1","0","44","44","44","0","44","44","44","NA","44","44","0","44","NA","44","44","0","44","NA","44","NA","44","0","0","44","44","0","44","44","45","z","12/06/17 16:32:31","The main experiment item","yes","FIN__BA__M21__7%3A10%3A17.osexp","C:\Users\ERP Testing Room\Desktop\Joanna\morph21","no","mono","no","18","no","white","no","yes","1080","legacy","44","44","C:/Users/ERP Testing Room/Desktop/Joanna/morph21/subject-117.csv","xpyriment","Jazzy James","3.1.4","0","z","NA","NA","NA","NA","space","z","409","NA","NA","NA","NA","189061","409","2","legacy","1024","2","48000","-16","BA_m21","117","odd","NW_S_COMP","ADOPTISH","1363","353198","350105","351688","190434","NA","NA","NA","NA","351680","350602","NA","349605","NA","349595","351680","1372","353398","NA","NA","350688","1363","1363","351080","349595","1363","350688","353398","morph21_Oliver/Morris","22","19655","45","yes","1280","19"
"250","47.8260869565","47.8260869565","432.391304348","432.391304348","black","no","xpyriment","legacy","legacy","0","208","NA","uniform","90610","1000","0.0110363094581","0","undefined","0","0","45","45","45","0","45","45","45","NA","45","45","0","45","NA","45","45","0","45","NA","45","NA","45","0","0","45","45","0","45","45","46","z","12/06/17 16:32:31","The main experiment item","yes","FIN__BA__M21__7%3A10%3A17.osexp","C:\Users\ERP Testing Room\Desktop\Joanna\morph21","no","mono","no","18","no","white","no","yes","1080","legacy","45","45","C:/Users/ERP Testing Room/Desktop/Joanna/morph21/subject-117.csv","xpyriment","Jazzy James","3.1.4","0","/","NA","NA","NA","NA","space","/","235","NA","NA","NA","NA","189061","235","2","legacy","1024","2","48000","-16","BA_m21","117","odd","FILL_NW","LOLDS","1363","356223","354598","351688","190434","NA","NA","NA","NA","351680","355095","NA","354090","NA","354084","356216","1372","356473","NA","NA","355223","1363","1363","355615","354084","1363","355223","356473","morph21_Oliver/Morris","22","19890","46","yes","1280","34"
"250","48.9361702128","48.9361702128","430.510638298","430.510638298","black","no","xpyriment","legacy","legacy","0","201","NA","uniform","77875","1000","0.0128410914928","1","undefined","1","0","46","46","46","0","46","46","46","NA","46","46","0","46","NA","46","46","0","46","NA","46","NA","46","0","0","46","46","0","46","46","47","/","12/06/17 16:32:31","The main experiment item","yes","FIN__BA__M21__7%3A10%3A17.osexp","C:\Users\ERP Testing Room\Desktop\Joanna\morph21","no","mono","no","18","no","white","no","yes","1080","legacy","46","46","C:/Users/ERP Testing Room/Desktop/Joanna/morph21/subject-117.csv","xpyriment","Jazzy James","3.1.4","0","/","NA","NA","NA","NA","space","/","344","NA","NA","NA","NA","189061","344","2","legacy","1024","2","48000","-16","BA_m21","117","odd","CW_S","MOSSY","1363","359306","357673","351688","190434","NA","NA","NA","NA","359296","358170","NA","357173","NA","357161","359296","1372","359556","NA","NA","358306","1363","1363","358698","357161","1363","358306","359556","morph21_Oliver/Morris","23","20234","47","yes","1280","47"
"250","47.9166666667","47.9166666667","430.479166667","430.479166667","black","no","xpyriment","legacy","legacy","0","202","NA","uniform","79775","1000","0.0125352554058","0","undefined","0","0","47","47","47","0","47","47","47","NA","47","47","0","47","NA","47","47","0","47","NA","47","NA","47","0","0","47","47","0","47","47","48","/","12/06/17 16:32:31","The main experiment item","yes","FIN__BA__M21__7%3A10%3A17.osexp","C:\Users\ERP Testing Room\Desktop\Joanna\morph21","no","mono","no","18","no","white","no","yes","1080","legacy","47","47","C:/Users/ERP Testing Room/Desktop/Joanna/morph21/subject-117.csv","xpyriment","Jazzy James","3.1.4","0","z","NA","NA","NA","NA","space","z","429","NA","NA","NA","NA","189061","429","2","legacy","1024","2","48000","-16","BA_m21","117","odd","CW_L","LAUGHING","1363","363873","360798","362365","190434","NA","NA","NA","NA","359296","361295","NA","360298","NA","360292","362358","1372","364123","NA","NA","361365","1363","1363","361756","360292","1363","361365","364123","morph21_Oliver/Morris","23","20663","48","yes","1280","27"
"350","48.9795918367","48.9795918367","429.367346939","429.367346939","black","no","xpyriment","legacy","legacy","0","201","NA","uniform","82051","1000","0.0121875418947","1","undefined","1","0","48","48","48","0","48","48","48","NA","48","48","0","48","NA","48","48","0","48","NA","48","NA","48","0","0","48","48","0","48","48","49","/","12/06/17 16:32:31","The main experiment item","yes","FIN__BA__M21__7%3A10%3A17.osexp","C:\Users\ERP Testing Room\Desktop\Joanna\morph21","no","mono","no","18","no","white","no","yes","1080","legacy","48","48","C:/Users/ERP Testing Room/Desktop/Joanna/morph21/subject-117.csv","xpyriment","Jazzy James","3.1.4","0","/","NA","NA","NA","NA","space","/","376","NA","NA","NA","NA","189061","376","2","legacy","1024","2","48000","-16","BA_m21","117","odd","CW_S","LENDER","1363","366873","365290","362365","190434","NA","NA","NA","NA","366864","365787","NA","364790","NA","364779","366864","1372","367223","NA","NA","365873","1363","1363","366265","364778","1363","365873","367223","morph21_Oliver/Morris","24","21039","49","yes","1280","11"
"250","50","50","428.82","428.82","black","no","xpyriment","legacy","legacy","0","207","NA","uniform","74562","1000","0.0134116574126","1","undefined","1","0","49","49","49","0","49","49","49","NA","49","49","0","49","NA","49","49","0","49","NA","49","NA","49","0","0","49","49","0","49","49","50","/","12/06/17 16:32:31","The main experiment item","yes","FIN__BA__M21__7%3A10%3A17.osexp","C:\Users\ERP Testing Room\Desktop\Joanna\morph21","no","mono","no","18","no","white","no","yes","1080","legacy","49","49","C:/Users/ERP Testing Room/Desktop/Joanna/morph21/subject-117.csv","xpyriment","Jazzy James","3.1.4","0","/","NA","NA","NA","NA","space","/","402","NA","NA","NA","NA","189061","402","2","legacy","1024","2","48000","-16","BA_m21","117","odd","FILL_W","SHIP","1363","370015","368432","362365","190434","NA","NA","NA","NA","370009","368929","NA","367932","NA","367928","370009","1372","370265","NA","NA","369015","1363","1363","369407","367928","1363","369015","370265","morph21_Oliver/Morris","25","21441","50","yes","1280","37"
"200","50.9803921569","50.9803921569","430.901960784","430.901960784","black","no","xpyriment","legacy","legacy","0","207","NA","uniform","80767","1000","0.0123812943405","1","undefined","1","0","50","50","50","0","50","50","50","NA","50","50","0","50","NA","50","50","0","50","NA","50","NA","50","0","0","50","50","0","50","50","51","/","12/06/17 16:32:31","The main experiment item","yes","FIN__BA__M21__7%3A10%3A17.osexp","C:\Users\ERP Testing Room\Desktop\Joanna\morph21","no","mono","no","18","no","white","no","yes","1080","legacy","50","50","C:/Users/ERP Testing Room/Desktop/Joanna/morph21/subject-117.csv","xpyriment","Jazzy James","3.1.4","0","/","NA","NA","NA","NA","space","/","535","NA","NA","NA","NA","189061","535","2","legacy","1024","2","48000","-16","BA_m21","117","odd","FILL_W","GOLF","1363","374600","371483","373091","190434","NA","NA","NA","NA","373083","371980","NA","370983","NA","370974","373083","1372","374800","NA","NA","372091","1363","1363","372483","370974","1363","372091","374800","morph21_Oliver/Morris","26","21976","51","yes","1280","28"
"300","50","50","429.442307692","429.442307692","black","no","xpyriment","legacy","legacy","0","205","NA","uniform","87542","1000","0.0114230883462","0","undefined","0","0","51","51","51","0","51","51","51","NA","51","51","0","51","NA","51","51","0","51","NA","51","NA","51","0","0","51","51","0","51","51","52","z","12/06/17 16:32:31","The main experiment item","yes","FIN__BA__M21__7%3A10%3A17.osexp","C:\Users\ERP Testing Room\Desktop\Joanna\morph21","no","mono","no","18","no","white","no","yes","1080","legacy","51","51","C:/Users/ERP Testing Room/Desktop/Joanna/morph21/subject-117.csv","xpyriment","Jazzy James","3.1.4","0","/","NA","NA","NA","NA","space","/","355","NA","NA","NA","NA","189061","355","2","legacy","1024","2","48000","-16","BA_m21","117","odd","NW_S_SIMP","WINKITY","1363","377592","375983","373091","190434","NA","NA","NA","NA","373083","376480","NA","375483","NA","375473","377585","1372","377892","NA","NA","376591","1363","1363","376983","375473","1363","376591","377892","morph21_Oliver/Morris","26","22331","52","yes","1280","21"
"400","50.9433962264","50.9433962264","427.79245283","427.79245283","black","no","xpyriment","legacy","legacy","0","207","NA","uniform","77290","1000","0.0129382843835","1","undefined","1","0","52","52","52","0","52","52","52","NA","52","52","0","52","NA","52","52","0","52","NA","52","NA","52","0","0","52","52","0","52","52","53","/","12/06/17 16:32:31","The main experiment item","yes","FIN__BA__M21__7%3A10%3A17.osexp","C:\Users\ERP Testing Room\Desktop\Joanna\morph21","no","mono","no","18","no","white","no","yes","1080","legacy","52","52","C:/Users/ERP Testing Room/Desktop/Joanna/morph21/subject-117.csv","xpyriment","Jazzy James","3.1.4","0","/","NA","NA","NA","NA","space","/","342","NA","NA","NA","NA","189061","342","2","legacy","1024","2","48000","-16","BA_m21","117","odd","FILL_W","CEASE","1363","380708","379108","373091","190434","NA","NA","NA","NA","380702","379605","NA","378608","NA","378598","380702","1372","381108","NA","NA","379708","1363","1363","380100","378598","1363","379708","381108","morph21_Oliver/Morris","27","22673","53","yes","1280","18"
"300","51.8518518519","51.8518518519","428.222222222","428.222222222","black","no","xpyriment","legacy","legacy","0","202","NA","uniform","76349","1000","0.013097748497","1","undefined","1","0","53","53","53","0","53","53","53","NA","53","53","0","53","NA","53","53","0","53","NA","53","NA","53","0","0","53","53","0","53","53","54","/","12/06/17 16:32:31","The main experiment item","yes","FIN__BA__M21__7%3A10%3A17.osexp","C:\Users\ERP Testing Room\Desktop\Joanna\morph21","no","mono","no","18","no","white","no","yes","1080","legacy","53","53","C:/Users/ERP Testing Room/Desktop/Joanna/morph21/subject-117.csv","xpyriment","Jazzy James","3.1.4","0","/","NA","NA","NA","NA","space","/","451","NA","NA","NA","NA","189061","451","2","legacy","1024","2","48000","-16","BA_m21","117","odd","CW_L","DOUBTFUL","1363","385467","382358","383958","190434","NA","NA","NA","NA","383953","382856","NA","381858","NA","381853","383953","1372","385767","NA","NA","382958","1363","1363","383358","381853","1363","382958","385767","morph21_Oliver/Morris","28","23124","54","yes","1280","21"
"350","50.9090909091","50.9090909091","427.436363636","427.436363636","black","no","xpyriment","legacy","legacy","0","208","NA","uniform","75951","1000","0.0131663835894","0","undefined","0","0","54","54","54","0","54","54","54","NA","54","54","0","54","NA","54","54","0","54","NA","54","NA","54","0","0","54","54","0","54","54","55","z","12/06/17 16:32:31","The main experiment item","yes","FIN__BA__M21__7%3A10%3A17.osexp","C:\Users\ERP Testing Room\Desktop\Joanna\morph21","no","mono","no","18","no","white","no","yes","1080","legacy","54","54","C:/Users/ERP Testing Room/Desktop/Joanna/morph21/subject-117.csv","xpyriment","Jazzy James","3.1.4","0","/","NA","NA","NA","NA","space","/","385","NA","NA","NA","NA","189061","385","2","legacy","1024","2","48000","-16","BA_m21","117","odd","FILL_NW","HEAS","1363","388601","386992","383958","190434","NA","NA","NA","NA","383953","387489","NA","386492","NA","386486","388591","1372","388951","NA","NA","387600","1363","1363","387992","386486","1363","387600","388951","morph21_Oliver/Morris","28","23509","55","yes","1280","26"
"300","51.7857142857","51.7857142857","426.160714286","426.160714286","black","no","xpyriment","legacy","legacy","0","207","NA","uniform","86357","1000","0.0115798371875","1","undefined","1","0","55","55","55","0","55","55","55","NA","55","55","0","55","NA","55","55","0","55","NA","55","NA","55","0","0","55","55","0","55","55","56","/","12/06/17 16:32:31","The main experiment item","yes","FIN__BA__M21__7%3A10%3A17.osexp","C:\Users\ERP Testing Room\Desktop\Joanna\morph21","no","mono","no","18","no","white","no","yes","1080","legacy","55","55","C:/Users/ERP Testing Room/Desktop/Joanna/morph21/subject-117.csv","xpyriment","Jazzy James","3.1.4","0","/","NA","NA","NA","NA","space","/","356","NA","NA","NA","NA","189061","356","2","legacy","1024","2","48000","-16","BA_m21","117","odd","FILL_W","SICK","1363","391710","390126","383958","190434","NA","NA","NA","NA","391701","390624","NA","389626","NA","389621","391701","1372","392010","NA","NA","390710","1363","1363","391101","389621","1363","390710","392010","morph21_Oliver/Morris","29","23865","56","yes","1280","36"
"350","52.6315789474","52.6315789474","425.736842105","425.736842105","black","no","xpyriment","legacy","legacy","0","208","NA","uniform","79789","1000","0.012533055935","1","undefined","1","0","56","56","56","0","56","56","56","NA","56","56","0","56","NA","56","56","0","56","NA","56","NA","56","0","0","56","56","0","56","56","57","z","12/06/17 16:32:31","The main experiment item","yes","FIN__BA__M21__7%3A10%3A17.osexp","C:\Users\ERP Testing Room\Desktop\Joanna\morph21","no","mono","no","18","no","white","no","yes","1080","legacy","56","56","C:/Users/ERP Testing Room/Desktop/Joanna/morph21/subject-117.csv","xpyriment","Jazzy James","3.1.4","0","z","NA","NA","NA","NA","space","z","402","NA","NA","NA","NA","189061","402","2","legacy","1024","2","48000","-16","BA_m21","117","odd","FILL_NW","DARF","1363","396277","393152","394768","190434","NA","NA","NA","NA","394758","393649","NA","392652","NA","392648","394758","1372","396627","NA","NA","393768","1363","1363","394160","392647","1363","393768","396627","morph21_Oliver/Morris","30","24267","57","yes","1280","10"
"200","53.4482758621","53.4482758621","424.982758621","424.982758621","black","no","xpyriment","legacy","legacy","0","202","NA","uniform","80023","1000","0.0124964072829","1","undefined","1","0","57","57","57","0","57","57","57","NA","57","57","0","57","NA","57","57","0","57","NA","57","NA","57","0","0","57","57","0","57","57","58","/","12/06/17 16:32:31","The main experiment item","yes","FIN__BA__M21__7%3A10%3A17.osexp","C:\Users\ERP Testing Room\Desktop\Joanna\morph21","no","mono","no","18","no","white","no","yes","1080","legacy","57","57","C:/Users/ERP Testing Room/Desktop/Joanna/morph21/subject-117.csv","xpyriment","Jazzy James","3.1.4","0","/","NA","NA","NA","NA","space","/","382","NA","NA","NA","NA","189061","382","2","legacy","1024","2","48000","-16","BA_m21","117","odd","CW_L","SAILOR","1363","399452","397835","394768","190434","NA","NA","NA","NA","399447","398332","NA","397335","NA","397330","399447","1372","399652","NA","NA","398452","1363","1363","398852","397330","1363","398452","399652","morph21_Oliver/Morris","31","24649","58","yes","1280","43"
"250","54.2372881356","54.2372881356","425.694915254","425.694915254","black","no","xpyriment","legacy","legacy","0","201","NA","uniform","79006","1000","0.0126572665367","1","undefined","1","0","58","58","58","0","58","58","58","NA","58","58","0","58","NA","58","58","0","58","NA","58","NA","58","0","0","58","58","0","58","58","59","/","12/06/17 16:32:31","The main experiment item","yes","FIN__BA__M21__7%3A10%3A17.osexp","C:\Users\ERP Testing Room\Desktop\Joanna\morph21","no","mono","no","18","no","white","no","yes","1080","legacy","58","58","C:/Users/ERP Testing Room/Desktop/Joanna/morph21/subject-117.csv","xpyriment","Jazzy James","3.1.4","0","/","NA","NA","NA","NA","space","/","467","NA","NA","NA","NA","189061","467","2","legacy","1024","2","48000","-16","BA_m21","117","odd","CW_S","HARMLESS","1363","402485","400894","394768","190434","NA","NA","NA","NA","402482","401391","NA","400394","NA","400386","402482","1372","402735","NA","NA","401494","1363","1363","401885","400386","1363","401494","402735","morph21_Oliver/Morris","32","25116","59","yes","1280","29"
"400","55","55","426.2","426.2","black","no","xpyriment","legacy","legacy","0","202","NA","uniform","78362","1000","0.0127612873587","1","undefined","1","0","59","59","59","0","59","59","59","NA","59","59","0","59","NA","59","59","0","59","NA","59","NA","59","0","0","59","59","0","59","59","60","/","12/06/17 16:32:31","The main experiment item","yes","FIN__BA__M21__7%3A10%3A17.osexp","C:\Users\ERP Testing Room\Desktop\Joanna\morph21","no","mono","no","18","no","white","no","yes","1080","legacy","59","59","C:/Users/ERP Testing Room/Desktop/Joanna/morph21/subject-117.csv","xpyriment","Jazzy James","3.1.4","0","/","NA","NA","NA","NA","space","/","456","NA","NA","NA","NA","189061","456","2","legacy","1024","2","48000","-16","BA_m21","117","odd","CW_L","DRYNESS","1363","407087","403985","405577","190434","NA","NA","NA","NA","405573","404483","NA","403485","NA","403474","405573","1372","407487","NA","NA","404585","1363","1363","404977","403474","1363","404585","407487","morph21_Oliver/Morris","33","25572","60","yes","1280","42"
"300","55.737704918","55.737704918","425.524590164","425.524590164","black","no","xpyriment","legacy","legacy","0","202","NA","uniform","76102","1000","0.0131402591259","1","undefined","1","0","60","60","60","0","60","60","60","NA","60","60","0","60","NA","60","60","0","60","NA","60","NA","60","0","0","60","60","0","60","60","61","/","12/06/17 16:32:31","The main experiment item","yes","FIN__BA__M21__7%3A10%3A17.osexp","C:\Users\ERP Testing Room\Desktop\Joanna\morph21","no","mono","no","18","no","white","no","yes","1080","legacy","60","60","C:/Users/ERP Testing Room/Desktop/Joanna/morph21/subject-117.csv","xpyriment","Jazzy James","3.1.4","0","/","NA","NA","NA","NA","space","/","385","NA","NA","NA","NA","189061","385","2","legacy","1024","2","48000","-16","BA_m21","117","odd","CW_L","DAMPISH","1363","410337","408753","405577","190434","NA","NA","NA","NA","410330","409250","NA","408253","NA","408245","410330","1372","410637","NA","NA","409337","1363","1363","409728","408245","1363","409337","410637","morph21_Oliver/Morris","34","25957","61","yes","1280","28"
"400","54.8387096774","54.8387096774","424.048387097","424.048387097","black","no","xpyriment","legacy","legacy","0","206","NA","uniform","85499","1000","0.0116960432286","0","undefined","0","0","61","61","61","0","61","61","61","NA","61","61","0","61","NA","61","61","0","61","NA","61","NA","61","0","0","61","61","0","61","61","62","z","12/06/17 16:32:31","The main experiment item","yes","FIN__BA__M21__7%3A10%3A17.osexp","C:\Users\ERP Testing Room\Desktop\Joanna\morph21","no","mono","no","18","no","white","no","yes","1080","legacy","61","61","C:/Users/ERP Testing Room/Desktop/Joanna/morph21/subject-117.csv","xpyriment","Jazzy James","3.1.4","0","/","NA","NA","NA","NA","space","/","334","NA","NA","NA","NA","189061","334","2","legacy","1024","2","48000","-16","BA_m21","117","odd","NW_L_SIMP","VALIDER","1363","413428","411845","405577","190434","NA","NA","NA","NA","410330","412342","NA","411345","NA","411340","413420","1372","413829","NA","NA","412428","1363","1363","412820","411340","1363","412428","413829","morph21_Oliver/Morris","34","26291","62","yes","1280","23"
"300","55.5555555556","55.5555555556","422.873015873","422.873015873","black","no","xpyriment","legacy","legacy","0","205","NA","uniform","84303","1000","0.0118619740697","1","undefined","1","0","62","62","62","0","62","62","62","NA","62","62","0","62","NA","62","62","0","62","NA","62","NA","62","0","0","62","62","0","62","62","63","z","12/06/17 16:32:31","The main experiment item","yes","FIN__BA__M21__7%3A10%3A17.osexp","C:\Users\ERP Testing Room\Desktop\Joanna\morph21","no","mono","no","18","no","white","no","yes","1080","legacy","62","62","C:/Users/ERP Testing Room/Desktop/Joanna/morph21/subject-117.csv","xpyriment","Jazzy James","3.1.4","0","z","NA","NA","NA","NA","space","z","350","NA","NA","NA","NA","189061","350","2","legacy","1024","2","48000","-16","BA_m21","117","odd","NW_S_SIMP","FEVERIZE","1363","418120","414987","416612","190434","NA","NA","NA","NA","416609","415484","NA","414479","NA","414473","416609","1372","418421","NA","NA","415620","1363","1363","416012","414473","1363","415620","418421","morph21_Oliver/Morris","35","26641","63","yes","1280","24"
"300","54.6875","54.6875","421.734375","421.734375","black","no","xpyriment","legacy","legacy","0","206","NA","uniform","80868","1000","0.0123658307365","0","undefined","0","0","63","63","63","0","63","63","63","NA","63","63","0","63","NA","63","63","0","63","NA","63","NA","63","0","0","63","63","0","63","63","64","z","12/06/17 16:32:31","The main experiment item","yes","FIN__BA__M21__7%3A10%3A17.osexp","C:\Users\ERP Testing Room\Desktop\Joanna\morph21","no","mono","no","18","no","white","no","yes","1080","legacy","63","63","C:/Users/ERP Testing Room/Desktop/Joanna/morph21/subject-117.csv","xpyriment","Jazzy James","3.1.4","0","/","NA","NA","NA","NA","space","/","350","NA","NA","NA","NA","189061","350","2","legacy","1024","2","48000","-16","BA_m21","117","odd","NW_L_SIMP","BEANISH","1363","421196","419587","416612","190434","NA","NA","NA","NA","416609","420084","NA","419087","NA","419082","421187","1372","421496","NA","NA","420195","1363","1363","420587","419082","1363","420195","421496","morph21_Oliver/Morris","35","26991","64","yes","1280","8"
"400","53.8461538462","53.8461538462","420.692307692","420.692307692","black","no","xpyriment","legacy","legacy","0","208","NA","uniform","86946","1000","0.0115013916684","0","undefined","0","0","64","64","64","0","64","64","64","NA","64","64","0","64","NA","64","64","0","64","NA","64","NA","64","0","0","64","64","0","64","64","65","z","12/06/17 16:32:31","The main experiment item","yes","FIN__BA__M21__7%3A10%3A17.osexp","C:\Users\ERP Testing Room\Desktop\Joanna\morph21","no","mono","no","18","no","white","no","yes","1080","legacy","64","64","C:/Users/ERP Testing Room/Desktop/Joanna/morph21/subject-117.csv","xpyriment","Jazzy James","3.1.4","0","/","NA","NA","NA","NA","space","/","354","NA","NA","NA","NA","189061","354","2","legacy","1024","2","48000","-16","BA_m21","117","odd","FILL_NW","FROES","1363","424288","422712","416612","190434","NA","NA","NA","NA","416609","423209","NA","422212","NA","422208","424284","1372","424688","NA","NA","423288","1363","1363","423688","422208","1363","423288","424688","morph21_Oliver/Morris","35","27345","65","yes","1280","21"
"400","54.5454545455","54.5454545455","422.848484848","422.848484848","black","no","xpyriment","legacy","legacy","0","202","NA","uniform","73018","1000","0.0136952532252","1","undefined","1","0","65","65","65","0","65","65","65","NA","65","65","0","65","NA","65","65","0","65","NA","65","NA","65","0","0","65","65","0","65","65","66","/","12/06/17 16:32:31","The main experiment item","yes","FIN__BA__M21__7%3A10%3A17.osexp","C:\Users\ERP Testing Room\Desktop\Joanna\morph21","no","mono","no","18","no","white","no","yes","1080","legacy","65","65","C:/Users/ERP Testing Room/Desktop/Joanna/morph21/subject-117.csv","xpyriment","Jazzy James","3.1.4","0","/","NA","NA","NA","NA","space","/","563","NA","NA","NA","NA","189061","563","2","legacy","1024","2","48000","-16","BA_m21","117","odd","CW_L","SHAPELY","1363","428972","425872","427463","190434","NA","NA","NA","NA","427456","426369","NA","425372","NA","425367","427456","1372","429372","NA","NA","426463","1363","1363","426855","425367","1363","426463","429372","morph21_Oliver/Morris","36","27908","66","yes","1280","35"
"350","55.223880597","55.223880597","422.014925373","422.014925373","black","no","xpyriment","legacy","legacy","0","201","NA","uniform","84716","1000","0.0118041456159","1","undefined","1","0","66","66","66","0","66","66","66","NA","66","66","0","66","NA","66","66","0","66","NA","66","NA","66","0","0","66","66","0","66","66","67","/","12/06/17 16:32:31","The main experiment item","yes","FIN__BA__M21__7%3A10%3A17.osexp","C:\Users\ERP Testing Room\Desktop\Joanna\morph21","no","mono","no","18","no","white","no","yes","1080","legacy","66","66","C:/Users/ERP Testing Room/Desktop/Joanna/morph21/subject-117.csv","xpyriment","Jazzy James","3.1.4","0","/","NA","NA","NA","NA","space","/","367","NA","NA","NA","NA","189061","367","2","legacy","1024","2","48000","-16","BA_m21","117","odd","CW_S","STRANGENESS","1363","432147","430547","427463","190434","NA","NA","NA","NA","432143","431044","NA","430047","NA","430043","432143","1372","432497","NA","NA","431147","1363","1363","431547","430043","1363","431147","432497","morph21_Oliver/Morris","37","28275","67","yes","1280","46"
"300","54.4117647059","54.4117647059","421.926470588","421.926470588","black","no","xpyriment","legacy","legacy","0","204","NA","uniform","82929","1000","0.0120585078802","0","undefined","0","0","67","67","67","0","67","67","67","NA","67","67","0","67","NA","67","67","0","67","NA","67","NA","67","0","0","67","67","0","67","67","68","z","12/06/17 16:32:31","The main experiment item","yes","FIN__BA__M21__7%3A10%3A17.osexp","C:\Users\ERP Testing Room\Desktop\Joanna\morph21","no","mono","no","18","no","white","no","yes","1080","legacy","67","67","C:/Users/ERP Testing Room/Desktop/Joanna/morph21/subject-117.csv","xpyriment","Jazzy James","3.1.4","0","/","NA","NA","NA","NA","space","/","416","NA","NA","NA","NA","189061","416","2","legacy","1024","2","48000","-16","BA_m21","117","odd","NW_L_COMP","KINGILM","1363","435322","433722","427463","190434","NA","NA","NA","NA","432143","434219","NA","433222","NA","433210","435315","1372","435622","NA","NA","434322","1363","1363","434714","433210","1363","434322","435622","morph21_Oliver/Morris","37","28691","68","yes","1280","19"
"250","55.0724637681","55.0724637681","421.637681159","421.637681159","black","no","xpyriment","legacy","legacy","0","201","NA","uniform","80065","1000","0.0124898519953","1","undefined","1","0","68","68","68","0","68","68","68","NA","68","68","0","68","NA","68","68","0","68","NA","68","NA","68","0","0","68","68","0","68","68","69","/","12/06/17 16:32:31","The main experiment item","yes","FIN__BA__M21__7%3A10%3A17.osexp","C:\Users\ERP Testing Room\Desktop\Joanna\morph21","no","mono","no","18","no","white","no","yes","1080","legacy","68","68","C:/Users/ERP Testing Room/Desktop/Joanna/morph21/subject-117.csv","xpyriment","Jazzy James","3.1.4","0","/","NA","NA","NA","NA","space","/","402","NA","NA","NA","NA","189061","402","2","legacy","1024","2","48000","-16","BA_m21","117","odd","CW_S","PLANNER","1363","439956","436864","438447","190434","NA","NA","NA","NA","438440","437361","NA","436364","NA","436354","438440","1372","440206","NA","NA","437447","1363","1363","437839","436354","1363","437447","440206","morph21_Oliver/Morris","38","29093","69","yes","1280","22"
"300","55.7142857143","55.7142857143","422.985714286","422.985714286","black","no","xpyriment","legacy","legacy","0","208","NA","uniform","74229","1000","0.0134718236808","1","undefined","1","0","69","69","69","0","69","69","69","NA","69","69","0","69","NA","69","69","0","69","NA","69","NA","69","0","0","69","69","0","69","69","70","z","12/06/17 16:32:31","The main experiment item","yes","FIN__BA__M21__7%3A10%3A17.osexp","C:\Users\ERP Testing Room\Desktop\Joanna\morph21","no","mono","no","18","no","white","no","yes","1080","legacy","69","69","C:/Users/ERP Testing Room/Desktop/Joanna/morph21/subject-117.csv","xpyriment","Jazzy James","3.1.4","0","z","NA","NA","NA","NA","space","z","516","NA","NA","NA","NA","189061","516","2","legacy","1024","2","48000","-16","BA_m21","117","odd","FILL_NW","VOGS","1363","442990","441407","438447","190434","NA","NA","NA","NA","442984","441904","NA","440907","NA","440901","442984","1372","443290","NA","NA","441990","1363","1363","442382","440901","1363","441990","443290","morph21_Oliver/Morris","39","29609","70","yes","1280","47"
"200","54.9295774648","54.9295774648","421.408450704","421.408450704","black","no","xpyriment","legacy","legacy","0","203","NA","uniform","83325","1000","0.01200120012","0","undefined","0","0","70","70","70","0","70","70","70","NA","70","70","0","70","NA","70","70","0","70","NA","70","NA","70","0","0","70","70","0","70","70","71","z","12/06/17 16:32:31","The main experiment item","yes","FIN__BA__M21__7%3A10%3A17.osexp","C:\Users\ERP Testing Room\Desktop\Joanna\morph21","no","mono","no","18","no","white","no","yes","1080","legacy","70","70","C:/Users/ERP Testing Room/Desktop/Joanna/morph21/subject-117.csv","xpyriment","Jazzy James","3.1.4","0","/","NA","NA","NA","NA","space","/","311","NA","NA","NA","NA","189061","311","2","legacy","1024","2","48000","-16","BA_m21","117","odd","NW_S_COMP","ANTILM","1363","446115","444507","438447","190434","NA","NA","NA","NA","442984","445004","NA","443999","NA","443990","446106","1372","446315","NA","NA","445115","1363","1363","445507","443990","1363","445115","446315","morph21_Oliver/Morris","39","29920","71","yes","1280","8"
"200","55.5555555556","55.5555555556","422.069444444","422.069444444","black","no","xpyriment","legacy","legacy","0","201","NA","uniform","74515","1000","0.013420116755","1","undefined","1","0","71","71","71","0","71","71","71","NA","71","71","0","71","NA","71","71","0","71","NA","71","NA","71","0","0","71","71","0","71","71","72","/","12/06/17 16:32:31","The main experiment item","yes","FIN__BA__M21__7%3A10%3A17.osexp","C:\Users\ERP Testing Room\Desktop\Joanna\morph21","no","mono","no","18","no","white","no","yes","1080","legacy","71","71","C:/Users/ERP Testing Room/Desktop/Joanna/morph21/subject-117.csv","xpyriment","Jazzy James","3.1.4","0","/","NA","NA","NA","NA","space","/","469","NA","NA","NA","NA","189061","469","2","legacy","1024","2","48000","-16","BA_m21","117","odd","CW_S","ANGELIC","1363","450666","447557","449157","190434","NA","NA","NA","NA","449149","448054","NA","447057","NA","447051","449149","1372","450866","NA","NA","448157","1363","1363","448549","447051","1363","448157","450866","morph21_Oliver/Morris","40","30389","72","yes","1280","25"
"200","54.7945205479","54.7945205479","420.780821918","420.780821918","black","no","xpyriment","legacy","legacy","0","203","NA","uniform","88048","1000","0.0113574413956","0","undefined","0","0","72","72","72","0","72","72","72","NA","72","72","0","72","NA","72","72","0","72","NA","72","NA","72","0","0","72","72","0","72","72","73","z","12/06/17 16:32:31","The main experiment item","yes","FIN__BA__M21__7%3A10%3A17.osexp","C:\Users\ERP Testing Room\Desktop\Joanna\morph21","no","mono","no","18","no","white","no","yes","1080","legacy","72","72","C:/Users/ERP Testing Room/Desktop/Joanna/morph21/subject-117.csv","xpyriment","Jazzy James","3.1.4","0","/","NA","NA","NA","NA","space","/","328","NA","NA","NA","NA","189061","328","2","legacy","1024","2","48000","-16","BA_m21","117","odd","NW_S_COMP","YANKODY","1363","453649","452049","449157","190434","NA","NA","NA","NA","449149","452546","NA","451541","NA","451537","453641","1372","453849","NA","NA","452649","1363","1363","453041","451537","1363","452649","453849","morph21_Oliver/Morris","40","30717","73","yes","1280","23"
"200","54.0540540541","54.0540540541","419.959459459","419.959459459","black","no","xpyriment","legacy","legacy","0","208","NA","uniform","77171","1000","0.0129582356066","0","undefined","0","0","73","73","73","0","73","73","73","NA","73","73","0","73","NA","73","73","0","73","NA","73","NA","73","0","0","73","73","0","73","73","74","z","12/06/17 16:32:31","The main experiment item","yes","FIN__BA__M21__7%3A10%3A17.osexp","C:\Users\ERP Testing Room\Desktop\Joanna\morph21","no","mono","no","18","no","white","no","yes","1080","legacy","73","73","C:/Users/ERP Testing Room/Desktop/Joanna/morph21/subject-117.csv","xpyriment","Jazzy James","3.1.4","0","/","NA","NA","NA","NA","space","/","360","NA","NA","NA","NA","189061","360","2","legacy","1024","2","48000","-16","BA_m21","117","odd","FILL_NW","GAIRS","1363","456649","455041","449157","190434","NA","NA","NA","NA","449149","455538","NA","454541","NA","454536","456639","1372","456849","NA","NA","455649","1363","1363","456041","454536","1363","455649","456849","morph21_Oliver/Morris","40","31077","74","yes","1280","23"
"400","54.6666666667","54.6666666667","418.293333333","418.293333333","black","no","xpyriment","legacy","legacy","0","201","NA","uniform","82331","1000","0.0121460932091","undefined","undefined","1","0","74","74","74","0","74","74","74","NA","74","74","0","74","NA","74","74","0","74","NA","74","NA","74","0","0","74","74","0","74","74","75","/","12/06/17 16:32:31","The main experiment item","yes","FIN__BA__M21__7%3A10%3A17.osexp","C:\Users\ERP Testing Room\Desktop\Joanna\morph21","no","mono","no","18","no","white","no","yes","1080","legacy","74","74","C:/Users/ERP Testing Room/Desktop/Joanna/morph21/subject-117.csv","xpyriment","Jazzy James","3.1.4","0","space","space","NA","NA","NA","space","/","46410","46410","NA","NA","NA","189061","295","2","legacy","1024","2","48000","-16","BA_m21","117","odd","CW_S","RAIDER","1363","461167","458083","459658","190434","461575","NA","NA","NA","459656","458581","NA","457582","NA","457576","459656","1372","507986","NA","NA","458667","1363","1363","459058","457576","1363","458667","461567","morph21_Oliver/Morris","41","31372","75","yes","1280","12"
"400","53.9473684211","53.9473684211","420.671052632","420.671052632","black","no","xpyriment","legacy","legacy","0","208","NA","uniform","75070","1000","0.0133209004929","0","undefined","0","0","75","75","75","0","75","75","75","NA","75","75","0","75","NA","75","75","0","75","NA","75","NA","75","0","0","75","75","0","75","75","76","z","12/06/17 16:32:31","The main experiment item","yes","FIN__BA__M21__7%3A10%3A17.osexp","C:\Users\ERP Testing Room\Desktop\Joanna\morph21","no","mono","no","18","no","white","no","yes","1080","legacy","75","75","C:/Users/ERP Testing Room/Desktop/Joanna/morph21/subject-117.csv","xpyriment","Jazzy James","3.1.4","0","/","space","NA","NA","NA","space","/","599","46410","NA","NA","NA","189061","599","2","legacy","1024","2","48000","-16","BA_m21","117","odd","FILL_NW","BORMS","1363","510747","509163","459658","190434","461575","NA","NA","NA","459656","509660","NA","508663","NA","508652","510739","1372","511147","NA","NA","509746","1363","1363","510138","508652","1363","509746","511147","morph21_Oliver/Morris","41","31971","76","yes","1280","50"
"300","54.5454545455","54.5454545455","421.493506494","421.493506494","black","no","xpyriment","legacy","legacy","0","201","NA","uniform","79379","1000","0.0125977903476","1","undefined","1","0","76","76","76","0","76","76","76","NA","76","76","0","76","NA","76","76","0","76","NA","76","NA","76","0","0","76","76","0","76","76","77","/","12/06/17 16:32:31","The main experiment item","yes","FIN__BA__M21__7%3A10%3A17.osexp","C:\Users\ERP Testing Room\Desktop\Joanna\morph21","no","mono","no","18","no","white","no","yes","1080","legacy","76","76","C:/Users/ERP Testing Room/Desktop/Joanna/morph21/subject-117.csv","xpyriment","Jazzy James","3.1.4","0","/","space","NA","NA","NA","space","/","484","46410","NA","NA","NA","189061","484","2","legacy","1024","2","48000","-16","BA_m21","117","odd","CW_S","INSISTENT","1363","514022","512397","459658","190434","461575","NA","NA","NA","514014","512894","NA","511897","NA","511892","514014","1372","514322","NA","NA","513022","1363","1363","513414","511892","1363","513022","514322","morph21_Oliver/Morris","42","32455","77","yes","1280","9"
"350","55.1282051282","55.1282051282","421.961538462","421.961538462","black","no","xpyriment","legacy","legacy","0","208","NA","uniform","78902","1000","0.0126739499632","1","undefined","1","0","77","77","77","0","77","77","77","NA","77","77","0","77","NA","77","77","0","77","NA","77","NA","77","0","0","77","77","0","77","77","78","z","12/06/17 16:32:31","The main experiment item","yes","FIN__BA__M21__7%3A10%3A17.osexp","C:\Users\ERP Testing Room\Desktop\Joanna\morph21","no","mono","no","18","no","white","no","yes","1080","legacy","77","77","C:/Users/ERP Testing Room/Desktop/Joanna/morph21/subject-117.csv","xpyriment","Jazzy James","3.1.4","0","z","space","NA","NA","NA","space","z","458","46410","NA","NA","NA","189061","458","2","legacy","1024","2","48000","-16","BA_m21","117","odd","FILL_NW","DASP","1363","518581","515472","517072","190434","461575","NA","NA","NA","517064","515969","NA","514972","NA","514968","517064","1372","518931","NA","NA","516072","1363","1363","516464","514968","1363","516072","518931","morph21_Oliver/Morris","43","32913","78","yes","1280","13"
"400","55.6962025316","55.6962025316","421.139240506","421.139240506","black","no","xpyriment","legacy","legacy","0","202","NA","uniform","77734","1000","0.0128643836674","1","undefined","1","0","78","78","78","0","78","78","78","NA","78","78","0","78","NA","78","78","0","78","NA","78","NA","78","0","0","78","78","0","78","78","79","/","12/06/17 16:32:31","The main experiment item","yes","FIN__BA__M21__7%3A10%3A17.osexp","C:\Users\ERP Testing Room\Desktop\Joanna\morph21","no","mono","no","18","no","white","no","yes","1080","legacy","78","78","C:/Users/ERP Testing Room/Desktop/Joanna/morph21/subject-117.csv","xpyriment","Jazzy James","3.1.4","0","/","space","NA","NA","NA","space","/","357","46410","NA","NA","NA","189061","357","2","legacy","1024","2","48000","-16","BA_m21","117","odd","CW_L","CLOUDLESS","1363","521781","520181","517072","190434","461575","NA","NA","NA","521774","520678","NA","519681","NA","519671","521774","1372","522181","NA","NA","520781","1363","1363","521173","519671","1363","520781","522181","morph21_Oliver/Morris","44","33270","79","yes","1280","33"
"350","55","55","420.1625","420.1625","black","no","xpyriment","legacy","legacy","0","208","NA","uniform","79058","1000","0.0126489412836","0","undefined","0","0","79","79","79","0","79","79","79","NA","79","79","0","79","NA","79","79","0","79","NA","79","NA","79","0","0","79","79","0","79","79","80","z","12/06/17 16:32:31","The main experiment item","yes","FIN__BA__M21__7%3A10%3A17.osexp","C:\Users\ERP Testing Room\Desktop\Joanna\morph21","no","mono","no","18","no","white","no","yes","1080","legacy","79","79","C:/Users/ERP Testing Room/Desktop/Joanna/morph21/subject-117.csv","xpyriment","Jazzy James","3.1.4","0","/","space","NA","NA","NA","space","/","343","46410","NA","NA","NA","189061","343","2","legacy","1024","2","48000","-16","BA_m21","117","odd","FILL_NW","JADS","1363","525114","523498","517072","190434","461575","NA","NA","NA","521774","523995","NA","522998","NA","522990","525104","1372","525464","NA","NA","524114","1363","1363","524506","522990","1363","524114","525464","morph21_Oliver/Morris","44","33613","80","yes","1280","31"
"350","55.5555555556","55.5555555556","420","420","black","no","xpyriment","legacy","legacy","0","205","NA","uniform","74359","1000","0.0134482712247","1","undefined","1","0","80","80","80","0","80","80","80","NA","80","80","0","80","NA","80","80","0","80","NA","80","NA","80","0","0","80","80","0","80","80","81","z","12/06/17 16:32:31","The main experiment item","yes","FIN__BA__M21__7%3A10%3A17.osexp","C:\Users\ERP Testing Room\Desktop\Joanna\morph21","no","mono","no","18","no","white","no","yes","1080","legacy","80","80","C:/Users/ERP Testing Room/Desktop/Joanna/morph21/subject-117.csv","xpyriment","Jazzy James","3.1.4","0","z","space","NA","NA","NA","space","z","407","46410","NA","NA","NA","189061","407","2","legacy","1024","2","48000","-16","BA_m21","117","odd","NW_S_SIMP","ACREMENT","1363","529799","526681","528291","190434","461575","NA","NA","NA","528286","527178","NA","526181","NA","526174","528286","1372","530149","NA","NA","527298","1363","1363","527690","526174","1363","527298","530149","morph21_Oliver/Morris","45","34020","81","yes","1280","16"
"300","56.0975609756","56.0975609756","419.012195122","419.012195122","black","no","xpyriment","legacy","legacy","0","207","NA","uniform","84033","1000","0.0119000868706","1","undefined","1","0","81","81","81","0","81","81","81","NA","81","81","0","81","NA","81","81","0","81","NA","81","NA","81","0","0","81","81","0","81","81","82","/","12/06/17 16:32:31","The main experiment item","yes","FIN__BA__M21__7%3A10%3A17.osexp","C:\Users\ERP Testing Room\Desktop\Joanna\morph21","no","mono","no","18","no","white","no","yes","1080","legacy","81","81","C:/Users/ERP Testing Room/Desktop/Joanna/morph21/subject-117.csv","xpyriment","Jazzy James","3.1.4","0","/","space","NA","NA","NA","space","/","339","46410","NA","NA","NA","189061","339","2","legacy","1024","2","48000","-16","BA_m21","117","odd","FILL_W","BOX","1363","532999","531391","528291","190434","461575","NA","NA","NA","532995","531888","NA","530891","NA","530884","532995","1372","533299","NA","NA","532007","1363","1363","532399","530884","1363","532007","533299","morph21_Oliver/Morris","46","34359","82","yes","1280","42"
"350","55.421686747","55.421686747","418","418","black","no","xpyriment","legacy","legacy","0","202","NA","uniform","76975","1000","0.0129912309191","0","undefined","0","0","82","82","82","0","82","82","82","NA","82","82","0","82","NA","82","82","0","82","NA","82","NA","82","0","0","82","82","0","82","82","83","/","12/06/17 16:32:31","The main experiment item","yes","FIN__BA__M21__7%3A10%3A17.osexp","C:\Users\ERP Testing Room\Desktop\Joanna\morph21","no","mono","no","18","no","white","no","yes","1080","legacy","82","82","C:/Users/ERP Testing Room/Desktop/Joanna/morph21/subject-117.csv","xpyriment","Jazzy James","3.1.4","0","z","space","NA","NA","NA","space","z","335","46410","NA","NA","NA","189061","335","2","legacy","1024","2","48000","-16","BA_m21","117","odd","CW_L","FEEDER","1363","536108","534499","528291","190434","461575","NA","NA","NA","532995","534996","NA","533999","NA","533993","536103","1372","536458","NA","NA","535107","1363","1363","535507","533993","1363","535107","536458","morph21_Oliver/Morris","46","34694","83","yes","1280","14"
"350","54.7619047619","54.7619047619","416.821428571","416.821428571","black","no","xpyriment","legacy","legacy","0","208","NA","uniform","80362","1000","0.0124436922924","0","undefined","0","0","83","83","83","0","83","83","83","NA","83","83","0","83","NA","83","83","0","83","NA","83","NA","83","0","0","83","83","0","83","83","84","z","12/06/17 16:32:31","The main experiment item","yes","FIN__BA__M21__7%3A10%3A17.osexp","C:\Users\ERP Testing Room\Desktop\Joanna\morph21","no","mono","no","18","no","white","no","yes","1080","legacy","83","83","C:/Users/ERP Testing Room/Desktop/Joanna/morph21/subject-117.csv","xpyriment","Jazzy James","3.1.4","0","/","space","NA","NA","NA","space","/","319","46410","NA","NA","NA","189061","319","2","legacy","1024","2","48000","-16","BA_m21","117","odd","FILL_NW","DELP","1363","540808","537699","539299","190434","461575","NA","NA","NA","532995","538196","NA","537199","NA","537190","539291","1372","541158","NA","NA","538299","1363","1363","538691","537190","1363","538299","541158","morph21_Oliver/Morris","46","35013","84","yes","1280","14"
"250","54.1176470588","54.1176470588","416.082352941","416.082352941","black","no","xpyriment","legacy","legacy","0","204","NA","uniform","79178","1000","0.012629770896","0","undefined","0","0","84","84","84","0","84","84","84","NA","84","84","0","84","NA","84","84","0","84","NA","84","NA","84","0","0","84","84","0","84","84","85","z","12/06/17 16:32:31","The main experiment item","yes","FIN__BA__M21__7%3A10%3A17.osexp","C:\Users\ERP Testing Room\Desktop\Joanna\morph21","no","mono","no","18","no","white","no","yes","1080","legacy","84","84","C:/Users/ERP Testing Room/Desktop/Joanna/morph21/subject-117.csv","xpyriment","Jazzy James","3.1.4","0","/","space","NA","NA","NA","space","/","354","46410","NA","NA","NA","189061","354","2","legacy","1024","2","48000","-16","BA_m21","117","odd","NW_L_COMP","STIRANGE","1363","543983","542383","539299","190434","461575","NA","NA","NA","532995","542880","NA","541883","NA","541876","543977","1372","544233","NA","NA","542983","1363","1363","543375","541876","1363","542983","544233","morph21_Oliver/Morris","46","35367","85","yes","1280","1"
"250","54.6511627907","54.6511627907","414.581395349","414.581395349","black","no","xpyriment","legacy","legacy","0","201","NA","uniform","83213","1000","0.0120173530578","1","undefined","1","0","85","85","85","0","85","85","85","NA","85","85","0","85","NA","85","85","0","85","NA","85","NA","85","0","0","85","85","0","85","85","86","/","12/06/17 16:32:31","The main experiment item","yes","FIN__BA__M21__7%3A10%3A17.osexp","C:\Users\ERP Testing Room\Desktop\Joanna\morph21","no","mono","no","18","no","white","no","yes","1080","legacy","85","85","C:/Users/ERP Testing Room/Desktop/Joanna/morph21/subject-117.csv","xpyriment","Jazzy James","3.1.4","0","/","space","NA","NA","NA","space","/","287","46410","NA","NA","NA","189061","287","2","legacy","1024","2","48000","-16","BA_m21","117","odd","CW_S","JAILER","1363","547059","545475","539299","190434","461575","NA","NA","NA","547052","545972","NA","544975","NA","544966","547052","1372","547309","NA","NA","546059","1363","1363","546451","544966","1363","546059","547309","morph21_Oliver/Morris","47","35654","86","yes","1280","13"
"200","55.1724137931","55.1724137931","413.804597701","413.804597701","black","no","xpyriment","legacy","legacy","0","204","NA","uniform","82757","1000","0.0120835699699","1","undefined","1","0","86","86","86","0","86","86","86","NA","86","86","0","86","NA","86","86","0","86","NA","86","NA","86","0","0","86","86","0","86","86","87","z","12/06/17 16:32:31","The main experiment item","yes","FIN__BA__M21__7%3A10%3A17.osexp","C:\Users\ERP Testing Room\Desktop\Joanna\morph21","no","mono","no","18","no","white","no","yes","1080","legacy","86","86","C:/Users/ERP Testing Room/Desktop/Joanna/morph21/subject-117.csv","xpyriment","Jazzy James","3.1.4","0","z","space","NA","NA","NA","space","z","347","46410","NA","NA","NA","189061","347","2","legacy","1024","2","48000","-16","BA_m21","117","odd","NW_L_COMP","PITCHODY","1363","551659","548542","550151","190434","461575","NA","NA","NA","550145","549040","NA","548042","NA","548031","550145","1372","551859","NA","NA","549151","1363","1363","549542","548031","1363","549151","551859","morph21_Oliver/Morris","48","36001","87","yes","1280","25"
"200","55.6818181818","55.6818181818","412.806818182","412.806818182","black","no","xpyriment","legacy","legacy","0","202","NA","uniform","89017","1000","0.0112338092724","1","undefined","1","0","87","87","87","0","87","87","87","NA","87","87","0","87","NA","87","87","0","87","NA","87","NA","87","0","0","87","87","0","87","87","88","/","12/06/17 16:32:31","The main experiment item","yes","FIN__BA__M21__7%3A10%3A17.osexp","C:\Users\ERP Testing Room\Desktop\Joanna\morph21","no","mono","no","18","no","white","no","yes","1080","legacy","87","87","C:/Users/ERP Testing Room/Desktop/Joanna/morph21/subject-117.csv","xpyriment","Jazzy James","3.1.4","0","/","space","NA","NA","NA","space","/","326","46410","NA","NA","NA","189061","326","2","legacy","1024","2","48000","-16","BA_m21","117","odd","CW_L","BONELESS","1363","554684","553093","550151","190434","461575","NA","NA","NA","554678","553590","NA","552593","NA","552585","554678","1372","554885","NA","NA","553684","1363","1363","554076","552585","1363","553684","554885","morph21_Oliver/Morris","49","36327","88","yes","1280","34"
"350","56.1797752809","56.1797752809","412.112359551","412.112359551","black","no","xpyriment","legacy","legacy","0","207","NA","uniform","83639","1000","0.0119561448607","1","undefined","1","0","88","88","88","0","88","88","88","NA","88","88","0","88","NA","88","88","0","88","NA","88","NA","88","0","0","88","88","0","88","88","89","/","12/06/17 16:32:31","The main experiment item","yes","FIN__BA__M21__7%3A10%3A17.osexp","C:\Users\ERP Testing Room\Desktop\Joanna\morph21","no","mono","no","18","no","white","no","yes","1080","legacy","88","88","C:/Users/ERP Testing Room/Desktop/Joanna/morph21/subject-117.csv","xpyriment","Jazzy James","3.1.4","0","/","space","NA","NA","NA","space","/","351","46410","NA","NA","NA","189061","351","2","legacy","1024","2","48000","-16","BA_m21","117","odd","FILL_W","FAINT","1363","557659","556051","550151","190434","461575","NA","NA","NA","557655","556548","NA","555551","NA","555540","557655","1372","558010","NA","NA","556659","1363","1363","557059","555540","1363","556659","558010","morph21_Oliver/Morris","50","36678","89","yes","1280","31"
"200","56.6666666667","56.6666666667","411.688888889","411.688888889","black","no","xpyriment","legacy","legacy","0","203","NA","uniform","80553","1000","0.0124141869328","1","undefined","1","0","89","89","89","0","89","89","89","NA","89","89","0","89","NA","89","89","0","89","NA","89","NA","89","0","0","89","89","0","89","89","90","z","12/06/17 16:32:31","The main experiment item","yes","FIN__BA__M21__7%3A10%3A17.osexp","C:\Users\ERP Testing Room\Desktop\Joanna\morph21","no","mono","no","18","no","white","no","yes","1080","legacy","89","89","C:/Users/ERP Testing Room/Desktop/Joanna/morph21/subject-117.csv","xpyriment","Jazzy James","3.1.4","0","z","space","NA","NA","NA","space","z","374","46410","NA","NA","NA","189061","374","2","legacy","1024","2","48000","-16","BA_m21","117","odd","NW_S_COMP","DUMBIDY","1363","562360","559268","560851","190434","461575","NA","NA","NA","560842","559765","NA","558768","NA","558760","560842","1372","562560","NA","NA","559851","1363","1363","560243","558759","1363","559851","562560","morph21_Oliver/Morris","51","37052","90","yes","1280","12"
"350","56.043956044","56.043956044","410.703296703","410.703296703","black","no","xpyriment","legacy","legacy","0","208","NA","uniform","85184","1000","0.0117392937641","0","undefined","0","0","90","90","90","0","90","90","90","NA","90","90","0","90","NA","90","90","0","90","NA","90","NA","90","0","0","90","90","0","90","90","91","z","12/06/17 16:32:31","The main experiment item","yes","FIN__BA__M21__7%3A10%3A17.osexp","C:\Users\ERP Testing Room\Desktop\Joanna\morph21","no","mono","no","18","no","white","no","yes","1080","legacy","90","90","C:/Users/ERP Testing Room/Desktop/Joanna/morph21/subject-117.csv","xpyriment","Jazzy James","3.1.4","0","/","space","NA","NA","NA","space","/","322","46410","NA","NA","NA","189061","322","2","legacy","1024","2","48000","-16","BA_m21","117","odd","FILL_NW","BLANTH","1363","565344","563761","560851","190434","461575","NA","NA","NA","560842","564258","NA","563261","NA","563256","565338","1372","565694","NA","NA","564344","1363","1363","564736","563256","1363","564344","565694","morph21_Oliver/Morris","51","37374","91","yes","1280","3"
