SubjID,z_vcb,z_spl,z_art,Dim.1,Dim.2,correct,response_time,trial_type,target,word_trig,cond_trig,Base,affix,FS,BF,LogFS,LogBF,BaseLength,WholeFormLength,List
S101,-1.4018872914385454,-1.5086391054824275,-0.6399333407607103,-2.015120263591839,-0.6253309311087007,1,544,CW,singer,17,201,sing,er,4,2186,1.3862943611198906,7.69,4,6,AB
S101,-1.4018872914385454,-1.5086391054824275,-0.6399333407607103,-2.015120263591839,-0.6253309311087007,1,810,CW,cooling,24,202,cool,ing,14,1434,2.6390573296152584,7.27,4,7,AB
S101,-1.4018872914385454,-1.5086391054824275,-0.6399333407607103,-2.015120263591839,-0.6253309311087007,1,925,CW,madness,41,202,mad,ness,10,1298,2.302585092994046,7.17,3,7,AB
S101,-1.4018872914385454,-1.5086391054824275,-0.6399333407607103,-2.015120263591839,-0.6253309311087007,1,536,CW,renter,9,202,rent,er,13,1690,2.5649493574615367,7.43,4,6,AB
S101,-1.4018872914385454,-1.5086391054824275,-0.6399333407607103,-2.015120263591839,-0.6253309311087007,1,525,CW,parking,25,202,park,ing,9,1945,2.1972245773362196,7.57,4,7,AB
S101,-1.4018872914385454,-1.5086391054824275,-0.6399333407607103,-2.015120263591839,-0.6253309311087007,1,779,CW,design,19,201,designer,er,7,3296,1.9459101490553132,8.1,8,6,AB
S101,-1.4018872914385454,-1.5086391054824275,-0.6399333407607103,-2.015120263591839,-0.6253309311087007,1,683,CW,campaigner,15,201,campaign,er,3,2003,1.0986122886681098,7.6,8,10,AB
S101,-1.4018872914385454,-1.5086391054824275,-0.6399333407607103,-2.015120263591839,-0.6253309311087007,1,598,CW,jailer,13,201,jail,er,5,678,1.6094379124341003,6.52,4,6,AB
S101,-1.4018872914385454,-1.5086391054824275,-0.6399333407607103,-2.015120263591839,-0.6253309311087007,1,481,CW,faithful,20,202,faith,ful,12,1320,2.4849066497880004,7.19,5,8,AB
S101,-1.4018872914385454,-1.5086391054824275,-0.6399333407607103,-2.015120263591839,-0.6253309311087007,1,527,CW,doubtful,21,202,doubt,ful,8,4135,2.0794415416798357,8.33,5,8,AB
S101,-1.4018872914385454,-1.5086391054824275,-0.6399333407607103,-2.015120263591839,-0.6253309311087007,1,672,CW,widowed,7,201,widow,ed,5,499,1.6094379124341003,6.21,5,7,AB
S101,-1.4018872914385454,-1.5086391054824275,-0.6399333407607103,-2.015120263591839,-0.6253309311087007,1,556,CW,dietary,6,201,diet,ary,6,1181,1.791759469228055,7.07,4,7,AB
S101,-1.4018872914385454,-1.5086391054824275,-0.6399333407607103,-2.015120263591839,-0.6253309311087007,1,664,CW,cleaner,15,202,clean,er,29,2854,3.367295829986474,7.96,5,7,AB
S101,-1.4018872914385454,-1.5086391054824275,-0.6399333407607103,-2.015120263591839,-0.6253309311087007,1,556,CW,conductor,44,202,conduct,or,16,1084,2.772588722239781,6.99,7,9,AB
S101,-1.4018872914385454,-1.5086391054824275,-0.6399333407607103,-2.015120263591839,-0.6253309311087007,1,598,CW,deafness,39,202,deaf,ness,9,290,2.1972245773362196,5.67,4,8,AB
S101,-1.4018872914385454,-1.5086391054824275,-0.6399333407607103,-2.015120263591839,-0.6253309311087007,1,586,CW,speller,3,202,spell,er,10,781,2.302585092994046,6.66,5,7,AB
S101,-1.4018872914385454,-1.5086391054824275,-0.6399333407607103,-2.015120263591839,-0.6253309311087007,1,613,CW,costly,36,201,cost,ly,6,4215,1.791759469228055,8.35,4,6,AB
S101,-1.4018872914385454,-1.5086391054824275,-0.6399333407607103,-2.015120263591839,-0.6253309311087007,1,619,CW,seeker,16,201,seek,er,7,2155,1.9459101490553132,7.68,4,6,AB
S101,-1.4018872914385454,-1.5086391054824275,-0.6399333407607103,-2.015120263591839,-0.6253309311087007,1,547,CW,amazement,39,201,amaze,ment,4,878,1.3862943611198906,6.78,5,9,AB
S101,-1.4018872914385454,-1.5086391054824275,-0.6399333407607103,-2.015120263591839,-0.6253309311087007,1,548,CW,toaster,10,201,toast,er,6,339,1.791759469228055,5.83,5,7,AB
S101,-1.4018872914385454,-1.5086391054824275,-0.6399333407607103,-2.015120263591839,-0.6253309311087007,1,459,CW,painter,18,202,paint,er,17,3666,2.833213344056216,8.21,5,7,AB
S101,-1.4018872914385454,-1.5086391054824275,-0.6399333407607103,-2.015120263591839,-0.6253309311087007,1,562,CW,excitement,38,202,excite,ment,9,1924,2.1972245773362196,7.56,6,10,AB
S101,-1.4018872914385454,-1.5086391054824275,-0.6399333407607103,-2.015120263591839,-0.6253309311087007,1,472,CW,tossing,26,201,toss,ing,5,407,1.6094379124341003,6.01,4,7,AB
S101,-1.4018872914385454,-1.5086391054824275,-0.6399333407607103,-2.015120263591839,-0.6253309311087007,1,782,CW,detectable,1,201,detect,able,7,982,1.9459101490553132,6.89,6,10,AB
S101,-1.4018872914385454,-1.5086391054824275,-0.6399333407607103,-2.015120263591839,-0.6253309311087007,1,549,CW,laughing,27,202,laugh,ing,18,4181,2.8903717578961645,8.34,5,8,AB
S101,-1.4018872914385454,-1.5086391054824275,-0.6399333407607103,-2.015120263591839,-0.6253309311087007,1,551,CW,grimly,31,201,grim,ly,6,552,1.791759469228055,6.31,4,6,AB
S101,-1.4018872914385454,-1.5086391054824275,-0.6399333407607103,-2.015120263591839,-0.6253309311087007,1,619,CW,shapely,35,202,shape,ly,12,1909,2.4849066497880004,7.55,5,7,AB
S101,-1.4018872914385454,-1.5086391054824275,-0.6399333407607103,-2.015120263591839,-0.6253309311087007,1,544,CW,amusement,38,201,amuse,ment,3,857,1.0986122886681098,6.75,5,9,AB
S101,-1.4018872914385454,-1.5086391054824275,-0.6399333407607103,-2.015120263591839,-0.6253309311087007,1,562,CW,creamy,49,202,cream,y,10,792,2.302585092994046,6.67,5,6,AB
S101,-1.4018872914385454,-1.5086391054824275,-0.6399333407607103,-2.015120263591839,-0.6253309311087007,1,587,CW,verbal,50,202,verb,al,22,423,3.091042453358316,6.05,4,6,AB
S101,-1.4018872914385454,-1.5086391054824275,-0.6399333407607103,-2.015120263591839,-0.6253309311087007,1,337,CW,chilly,48,201,chill,y,7,488,1.9459101490553132,6.19,5,6,AB
S101,-1.4018872914385454,-1.5086391054824275,-0.6399333407607103,-2.015120263591839,-0.6253309311087007,1,588,CW,striker,17,202,strike,er,17,3414,2.833213344056216,8.14,6,7,AB
S101,-1.4018872914385454,-1.5086391054824275,-0.6399333407607103,-2.015120263591839,-0.6253309311087007,1,490,CW,attacker,20,201,attack,er,6,3385,1.791759469228055,8.13,6,8,AB
S101,-1.4018872914385454,-1.5086391054824275,-0.6399333407607103,-2.015120263591839,-0.6253309311087007,1,534,CW,effortless,30,201,effort,less,4,2456,1.3862943611198906,7.81,6,10,AB
S101,-1.4018872914385454,-1.5086391054824275,-0.6399333407607103,-2.015120263591839,-0.6253309311087007,1,494,CW,locally,37,201,local,ly,7,4485,1.9459101490553132,8.41,5,7,AB
S101,-1.4018872914385454,-1.5086391054824275,-0.6399333407607103,-2.015120263591839,-0.6253309311087007,1,558,CW,boneless,34,202,bone,less,35,1490,3.5553480614894135,7.31,4,8,AB
S101,-1.4018872914385454,-1.5086391054824275,-0.6399333407607103,-2.015120263591839,-0.6253309311087007,1,471,CW,composer,6,202,compose,er,13,1187,2.5649493574615367,7.08,7,8,AB
S101,-1.4018872914385454,-1.5086391054824275,-0.6399333407607103,-2.015120263591839,-0.6253309311087007,1,605,CW,blindness,40,202,blind,ness,16,1024,2.772588722239781,6.93,5,9,AB
S101,-1.4018872914385454,-1.5086391054824275,-0.6399333407607103,-2.015120263591839,-0.6253309311087007,1,435,CW,destroyer,14,201,destroy,er,3,1906,1.0986122886681098,7.55,7,9,AB
S101,-1.4018872914385454,-1.5086391054824275,-0.6399333407607103,-2.015120263591839,-0.6253309311087007,1,438,CW,strangeness,46,201,strange,ness,4,2912,1.3862943611198906,7.98,7,11,AB
S101,-1.4018872914385454,-1.5086391054824275,-0.6399333407607103,-2.015120263591839,-0.6253309311087007,1,402,CW,pusher,13,202,push,er,17,2507,2.833213344056216,7.83,4,6,AB
S101,-1.4018872914385454,-1.5086391054824275,-0.6399333407607103,-2.015120263591839,-0.6253309311087007,1,456,CW,thruster,24,201,thrust,er,4,584,1.3862943611198906,6.37,6,8,AB
S101,-1.4018872914385454,-1.5086391054824275,-0.6399333407607103,-2.015120263591839,-0.6253309311087007,1,471,CW,listener,18,201,listen,er,4,3081,1.3862943611198906,8.03,6,8,AB
S101,-1.4018872914385454,-1.5086391054824275,-0.6399333407607103,-2.015120263591839,-0.6253309311087007,1,520,CW,harmless,29,201,harm,less,7,1101,1.9459101490553132,7,4,8,AB
S101,-1.4018872914385454,-1.5086391054824275,-0.6399333407607103,-2.015120263591839,-0.6253309311087007,1,445,CW,buyer,21,201,buy,er,3,4386,1.0986122886681098,8.39,3,5,AB
S101,-1.4018872914385454,-1.5086391054824275,-0.6399333407607103,-2.015120263591839,-0.6253309311087007,1,524,CW,risky,50,201,risk,y,5,1827,1.6094379124341003,7.51,4,5,AB
S101,-1.4018872914385454,-1.5086391054824275,-0.6399333407607103,-2.015120263591839,-0.6253309311087007,1,546,CW,avoidable,2,201,avoid,able,5,2172,1.6094379124341003,7.68,5,9,AB
S101,-1.4018872914385454,-1.5086391054824275,-0.6399333407607103,-2.015120263591839,-0.6253309311087007,1,702,CW,tutoring,27,201,tutor,ing,5,499,1.6094379124341003,6.21,5,8,AB
S101,-1.4018872914385454,-1.5086391054824275,-0.6399333407607103,-2.015120263591839,-0.6253309311087007,1,543,CW,heater,16,202,heat,er,15,2881,2.70805020110221,7.97,4,6,AB
S101,-1.4018872914385454,-1.5086391054824275,-0.6399333407607103,-2.015120263591839,-0.6253309311087007,1,888,CW,hunter,10,202,hunt,er,18,1762,2.8903717578961645,7.47,4,6,AB
S101,-1.4018872914385454,-1.5086391054824275,-0.6399333407607103,-2.015120263591839,-0.6253309311087007,1,604,CW,flexible,22,202,flex,ible,16,664,2.772588722239781,6.5,4,8,AB
S101,-1.4018872914385454,-1.5086391054824275,-0.6399333407607103,-2.015120263591839,-0.6253309311087007,1,609,CW,cloudless,33,202,cloud,less,14,1181,2.6390573296152584,7.07,5,9,AB
S101,-1.4018872914385454,-1.5086391054824275,-0.6399333407607103,-2.015120263591839,-0.6253309311087007,1,870,CW,noticeable,3,201,notice,able,6,3426,1.791759469228055,8.14,6,10,AB
S101,-1.4018872914385454,-1.5086391054824275,-0.6399333407607103,-2.015120263591839,-0.6253309311087007,1,620,CW,jumping,30,202,jump,jumping,15,1395,2.70805020110221,7.24,4,7,AB
S101,-1.4018872914385454,-1.5086391054824275,-0.6399333407607103,-2.015120263591839,-0.6253309311087007,1,691,CW,guilty,34,201,guilt,ly,7,1576,1.9459101490553132,7.36,5,6,AB
S101,-1.4018872914385454,-1.5086391054824275,-0.6399333407607103,-2.015120263591839,-0.6253309311087007,1,818,CW,peaking,28,201,peak,ing,6,546,1.791759469228055,6.3,4,7,AB
S101,-1.4018872914385454,-1.5086391054824275,-0.6399333407607103,-2.015120263591839,-0.6253309311087007,1,551,CW,editor,45,202,edit,or,12,1298,2.4849066497880004,7.17,4,6,AB
S101,-1.4018872914385454,-1.5086391054824275,-0.6399333407607103,-2.015120263591839,-0.6253309311087007,1,512,CW,raider,12,201,raid,er,4,505,1.3862943611198906,6.22,4,6,AB
S101,-1.4018872914385454,-1.5086391054824275,-0.6399333407607103,-2.015120263591839,-0.6253309311087007,1,655,CW,planner,22,201,plan,er,4,5475,1.3862943611198906,8.61,4,7,AB
S101,-1.4018872914385454,-1.5086391054824275,-0.6399333407607103,-2.015120263591839,-0.6253309311087007,1,457,CW,bomber,7,202,bomb,er,24,1208,3.1780538303479458,7.1,4,6,AB
S101,-1.4018872914385454,-1.5086391054824275,-0.6399333407607103,-2.015120263591839,-0.6253309311087007,1,513,CW,stylish,29,202,style,ish,16,2119,2.772588722239781,7.66,5,7,AB
S101,-1.4018872914385454,-1.5086391054824275,-0.6399333407607103,-2.015120263591839,-0.6253309311087007,1,536,CW,teacher,23,201,teach,er,6,5662,1.791759469228055,8.64,5,7,AB
S101,-1.4018872914385454,-1.5086391054824275,-0.6399333407607103,-2.015120263591839,-0.6253309311087007,1,435,CW,locker,8,202,lock,er,18,1654,2.8903717578961645,7.41,4,6,AB
S101,-1.4018872914385454,-1.5086391054824275,-0.6399333407607103,-2.015120263591839,-0.6253309311087007,1,638,CW,dullness,43,201,dull,ness,5,703,1.6094379124341003,6.56,4,8,AB
S101,-1.4018872914385454,-1.5086391054824275,-0.6399333407607103,-2.015120263591839,-0.6253309311087007,1,656,CW,puncher,1,202,punch,er,17,325,2.833213344056216,5.78,5,7,AB
S101,-1.4018872914385454,-1.5086391054824275,-0.6399333407607103,-2.015120263591839,-0.6253309311087007,1,628,CW,sailor,43,202,sail,or,17,740,2.833213344056216,6.61,4,6,AB
S101,-1.4018872914385454,-1.5086391054824275,-0.6399333407607103,-2.015120263591839,-0.6253309311087007,1,463,CW,weedy,48,202,weed,y,17,729,2.833213344056216,6.59,4,5,AB
S101,-1.4018872914385454,-1.5086391054824275,-0.6399333407607103,-2.015120263591839,-0.6253309311087007,1,538,CW,boldness,41,201,bold,ness,7,379,1.9459101490553132,5.94,4,8,AB
S101,-1.4018872914385454,-1.5086391054824275,-0.6399333407607103,-2.015120263591839,-0.6253309311087007,1,657,CW,richness,45,201,rich,ness,7,2868,1.9459101490553132,7.96,4,8,AB
S101,-1.4018872914385454,-1.5086391054824275,-0.6399333407607103,-2.015120263591839,-0.6253309311087007,1,411,CW,collector,46,202,collect,or,23,3221,3.1354942159291497,8.08,7,9,AB
S101,-1.4018872914385454,-1.5086391054824275,-0.6399333407607103,-2.015120263591839,-0.6253309311087007,1,417,CW,dryness,42,202,dry,ness,19,2366,2.9444389791664403,7.77,3,7,AB
S101,-1.4018872914385454,-1.5086391054824275,-0.6399333407607103,-2.015120263591839,-0.6253309311087007,1,529,CW,quietly,36,202,quiet,ly,18,2691,2.8903717578961645,7.9,5,7,AB
S101,-1.4018872914385454,-1.5086391054824275,-0.6399333407607103,-2.015120263591839,-0.6253309311087007,1,713,CW,densely,32,201,dense,ly,7,655,1.9459101490553132,6.48,5,7,AB
S101,-1.4018872914385454,-1.5086391054824275,-0.6399333407607103,-2.015120263591839,-0.6253309311087007,1,418,CW,bearded,8,201,beard,ed,7,578,1.9459101490553132,6.36,5,7,AB
S101,-1.4018872914385454,-1.5086391054824275,-0.6399333407607103,-2.015120263591839,-0.6253309311087007,1,509,CW,guarding,26,202,guard,ing,28,2047,3.332204510175204,7.62,5,8,AB
S101,-1.4018872914385454,-1.5086391054824275,-0.6399333407607103,-2.015120263591839,-0.6253309311087007,1,591,CW,allowance,5,201,allow,ance,5,5014,1.6094379124341003,8.52,5,9,AB
S101,-1.4018872914385454,-1.5086391054824275,-0.6399333407607103,-2.015120263591839,-0.6253309311087007,1,635,CW,kicking,23,202,kick,ing,15,1012,2.70805020110221,6.92,4,7,AB
S101,-1.4018872914385454,-1.5086391054824275,-0.6399333407607103,-2.015120263591839,-0.6253309311087007,1,622,CW,bossy,49,201,boss,y,6,551,1.791759469228055,6.31,4,5,AB
S101,-1.4018872914385454,-1.5086391054824275,-0.6399333407607103,-2.015120263591839,-0.6253309311087007,1,728,CW,insistent,9,201,insist,ent,5,1631,1.6094379124341003,7.4,6,9,AB
S101,-1.4018872914385454,-1.5086391054824275,-0.6399333407607103,-2.015120263591839,-0.6253309311087007,1,465,CW,enjoyment,40,201,enjoy,ment,4,2771,1.3862943611198906,7.93,5,9,AB
S101,-1.4018872914385454,-1.5086391054824275,-0.6399333407607103,-2.015120263591839,-0.6253309311087007,1,620,CW,guileless,31,202,guile,less,9,61,2.1972245773362196,4.11,5,9,AB
S101,-1.4018872914385454,-1.5086391054824275,-0.6399333407607103,-2.015120263591839,-0.6253309311087007,1,540,CW,awareness,44,201,aware,ness,4,2391,1.3862943611198906,7.78,5,9,AB
S101,-1.4018872914385454,-1.5086391054824275,-0.6399333407607103,-2.015120263591839,-0.6253309311087007,1,583,CW,wrongly,37,202,wrong,ly,12,3532,2.4849066497880004,8.17,5,7,AB
S101,-1.4018872914385454,-1.5086391054824275,-0.6399333407607103,-2.015120263591839,-0.6253309311087007,1,563,CW,bootless,32,202,boot,less,19,940,2.9444389791664403,6.85,4,8,AB
S101,-1.4018872914385454,-1.5086391054824275,-0.6399333407607103,-2.015120263591839,-0.6253309311087007,1,454,CW,knocker,4,202,knock,er,15,1104,2.70805020110221,7.01,5,7,AB
S101,-1.4018872914385454,-1.5086391054824275,-0.6399333407607103,-2.015120263591839,-0.6253309311087007,1,663,CW,swimmer,5,202,swim,er,11,1145,2.3978952727983707,7.04,4,7,AB
S101,-1.4018872914385454,-1.5086391054824275,-0.6399333407607103,-2.015120263591839,-0.6253309311087007,1,533,CW,feeder,14,202,feed,er,11,2806,2.3978952727983707,7.94,4,6,AB
S101,-1.4018872914385454,-1.5086391054824275,-0.6399333407607103,-2.015120263591839,-0.6253309311087007,1,661,CW,lender,11,201,lend,er,3,505,1.0986122886681098,6.22,4,6,AB
S101,-1.4018872914385454,-1.5086391054824275,-0.6399333407607103,-2.015120263591839,-0.6253309311087007,1,987,CW,hugely,35,201,huge,ly,3,1918,1.0986122886681098,7.56,4,6,AB
S101,-1.4018872914385454,-1.5086391054824275,-0.6399333407607103,-2.015120263591839,-0.6253309311087007,1,717,CW,professor,47,202,profess,pr,14,3563,2.6390573296152584,8.18,7,9,AB
S101,-1.4018872914385454,-1.5086391054824275,-0.6399333407607103,-2.015120263591839,-0.6253309311087007,1,704,CW,neatly,33,201,neat,ly,3,924,1.0986122886681098,6.83,4,6,AB
S101,-1.4018872914385454,-1.5086391054824275,-0.6399333407607103,-2.015120263591839,-0.6253309311087007,1,852,CW,dreamer,12,202,dream,er,19,2325,2.9444389791664403,7.75,5,7,AB
S103,-0.00513511828365796,0.7111822676540035,0.8936514053794943,0.9008754556010866,0.2951016580929784,1,555,CW,harmless,29,201,harm,less,7,1101,1.9459101490553132,7,4,8,BA
S103,-0.00513511828365796,0.7111822676540035,0.8936514053794943,0.9008754556010866,0.2951016580929784,1,506,CW,neatly,33,201,neat,ly,3,924,1.0986122886681098,6.83,4,6,BA
S103,-0.00513511828365796,0.7111822676540035,0.8936514053794943,0.9008754556010866,0.2951016580929784,1,653,CW,puncher,1,202,punch,er,17,325,2.833213344056216,5.78,5,7,BA
S103,-0.00513511828365796,0.7111822676540035,0.8936514053794943,0.9008754556010866,0.2951016580929784,1,750,CW,seeker,16,201,seek,er,7,2155,1.9459101490553132,7.68,4,6,BA
S103,-0.00513511828365796,0.7111822676540035,0.8936514053794943,0.9008754556010866,0.2951016580929784,1,761,CW,thruster,24,201,thrust,er,4,584,1.3862943611198906,6.37,6,8,BA
S103,-0.00513511828365796,0.7111822676540035,0.8936514053794943,0.9008754556010866,0.2951016580929784,1,570,CW,flexible,22,202,flex,ible,16,664,2.772588722239781,6.5,4,8,BA
S103,-0.00513511828365796,0.7111822676540035,0.8936514053794943,0.9008754556010866,0.2951016580929784,1,733,CW,awareness,44,201,aware,ness,4,2391,1.3862943611198906,7.78,5,9,BA
S103,-0.00513511828365796,0.7111822676540035,0.8936514053794943,0.9008754556010866,0.2951016580929784,1,645,CW,boldness,41,201,bold,ness,7,379,1.9459101490553132,5.94,4,8,BA
S103,-0.00513511828365796,0.7111822676540035,0.8936514053794943,0.9008754556010866,0.2951016580929784,1,762,CW,boneless,34,202,bone,less,35,1490,3.5553480614894135,7.31,4,8,BA
S103,-0.00513511828365796,0.7111822676540035,0.8936514053794943,0.9008754556010866,0.2951016580929784,1,811,CW,amusement,38,201,amuse,ment,3,857,1.0986122886681098,6.75,5,9,BA
S103,-0.00513511828365796,0.7111822676540035,0.8936514053794943,0.9008754556010866,0.2951016580929784,1,693,CW,hugely,35,201,huge,ly,3,1918,1.0986122886681098,7.56,4,6,BA
S103,-0.00513511828365796,0.7111822676540035,0.8936514053794943,0.9008754556010866,0.2951016580929784,1,727,CW,singer,17,201,sing,er,4,2186,1.3862943611198906,7.69,4,6,BA
S103,-0.00513511828365796,0.7111822676540035,0.8936514053794943,0.9008754556010866,0.2951016580929784,1,753,CW,detectable,1,201,detect,able,7,982,1.9459101490553132,6.89,6,10,BA
S103,-0.00513511828365796,0.7111822676540035,0.8936514053794943,0.9008754556010866,0.2951016580929784,1,708,CW,swimmer,5,202,swim,er,11,1145,2.3978952727983707,7.04,4,7,BA
S103,-0.00513511828365796,0.7111822676540035,0.8936514053794943,0.9008754556010866,0.2951016580929784,1,791,CW,knocker,4,202,knock,er,15,1104,2.70805020110221,7.01,5,7,BA
S103,-0.00513511828365796,0.7111822676540035,0.8936514053794943,0.9008754556010866,0.2951016580929784,1,458,CW,pusher,13,202,push,er,17,2507,2.833213344056216,7.83,4,6,BA
S103,-0.00513511828365796,0.7111822676540035,0.8936514053794943,0.9008754556010866,0.2951016580929784,1,537,CW,tutoring,27,201,tutor,ing,5,499,1.6094379124341003,6.21,5,8,BA
S103,-0.00513511828365796,0.7111822676540035,0.8936514053794943,0.9008754556010866,0.2951016580929784,1,599,CW,allowance,5,201,allow,ance,5,5014,1.6094379124341003,8.52,5,9,BA
S103,-0.00513511828365796,0.7111822676540035,0.8936514053794943,0.9008754556010866,0.2951016580929784,1,522,CW,peaking,28,201,peak,ing,6,546,1.791759469228055,6.3,4,7,BA
S103,-0.00513511828365796,0.7111822676540035,0.8936514053794943,0.9008754556010866,0.2951016580929784,1,710,CW,bomber,7,202,bomb,er,24,1208,3.1780538303479458,7.1,4,6,BA
S103,-0.00513511828365796,0.7111822676540035,0.8936514053794943,0.9008754556010866,0.2951016580929784,1,501,CW,feeder,14,202,feed,er,11,2806,2.3978952727983707,7.94,4,6,BA
S103,-0.00513511828365796,0.7111822676540035,0.8936514053794943,0.9008754556010866,0.2951016580929784,1,539,CW,shameful,19,202,shame,ful,13,993,2.5649493574615367,6.9,5,8,BA
S103,-0.00513511828365796,0.7111822676540035,0.8936514053794943,0.9008754556010866,0.2951016580929784,1,378,CW,locker,8,202,lock,er,18,1654,2.8903717578961645,7.41,4,6,BA
S103,-0.00513511828365796,0.7111822676540035,0.8936514053794943,0.9008754556010866,0.2951016580929784,1,613,CW,avoidable,2,201,avoid,able,5,2172,1.6094379124341003,7.68,5,9,BA
S103,-0.00513511828365796,0.7111822676540035,0.8936514053794943,0.9008754556010866,0.2951016580929784,1,603,CW,jumping,30,202,jump,jumping,15,1395,2.70805020110221,7.24,4,7,BA
S103,-0.00513511828365796,0.7111822676540035,0.8936514053794943,0.9008754556010866,0.2951016580929784,1,559,CW,widowed,7,201,widow,ed,5,499,1.6094379124341003,6.21,5,7,BA
S103,-0.00513511828365796,0.7111822676540035,0.8936514053794943,0.9008754556010866,0.2951016580929784,1,455,CW,dreamer,12,202,dream,er,19,2325,2.9444389791664403,7.75,5,7,BA
S103,-0.00513511828365796,0.7111822676540035,0.8936514053794943,0.9008754556010866,0.2951016580929784,1,544,CW,renter,9,202,rent,er,13,1690,2.5649493574615367,7.43,4,6,BA
S103,-0.00513511828365796,0.7111822676540035,0.8936514053794943,0.9008754556010866,0.2951016580929784,1,607,CW,campaigner,15,201,campaign,er,3,2003,1.0986122886681098,7.6,8,10,BA
S103,-0.00513511828365796,0.7111822676540035,0.8936514053794943,0.9008754556010866,0.2951016580929784,1,767,CW,insistent,9,201,insist,ent,5,1631,1.6094379124341003,7.4,6,9,BA
S103,-0.00513511828365796,0.7111822676540035,0.8936514053794943,0.9008754556010866,0.2951016580929784,1,490,CW,faithful,20,202,faith,ful,12,1320,2.4849066497880004,7.19,5,8,BA
S103,-0.00513511828365796,0.7111822676540035,0.8936514053794943,0.9008754556010866,0.2951016580929784,1,472,CW,conductor,44,202,conduct,or,16,1084,2.772588722239781,6.99,7,9,BA
S103,-0.00513511828365796,0.7111822676540035,0.8936514053794943,0.9008754556010866,0.2951016580929784,1,612,CW,verbal,50,202,verb,al,22,423,3.091042453358316,6.05,4,6,BA
S103,-0.00513511828365796,0.7111822676540035,0.8936514053794943,0.9008754556010866,0.2951016580929784,1,599,CW,grimly,31,201,grim,ly,6,552,1.791759469228055,6.31,4,6,BA
S103,-0.00513511828365796,0.7111822676540035,0.8936514053794943,0.9008754556010866,0.2951016580929784,1,855,CW,toaster,10,201,toast,er,6,339,1.791759469228055,5.83,5,7,BA
S103,-0.00513511828365796,0.7111822676540035,0.8936514053794943,0.9008754556010866,0.2951016580929784,1,495,CW,strangeness,46,201,strange,ness,4,2912,1.3862943611198906,7.98,7,11,BA
S103,-0.00513511828365796,0.7111822676540035,0.8936514053794943,0.9008754556010866,0.2951016580929784,1,518,CW,creamy,49,202,cream,y,10,792,2.302585092994046,6.67,5,6,BA
S103,-0.00513511828365796,0.7111822676540035,0.8936514053794943,0.9008754556010866,0.2951016580929784,1,401,CW,hunter,10,202,hunt,er,18,1762,2.8903717578961645,7.47,4,6,BA
S103,-0.00513511828365796,0.7111822676540035,0.8936514053794943,0.9008754556010866,0.2951016580929784,1,729,CW,angelic,25,201,angel,ic,7,567,1.9459101490553132,6.34,5,7,BA
S103,-0.00513511828365796,0.7111822676540035,0.8936514053794943,0.9008754556010866,0.2951016580929784,1,736,CW,barker,2,202,bark,er,8,387,2.0794415416798357,5.96,4,6,BA
S103,-0.00513511828365796,0.7111822676540035,0.8936514053794943,0.9008754556010866,0.2951016580929784,1,517,CW,bootless,32,202,boot,less,19,940,2.9444389791664403,6.85,4,8,BA
S103,-0.00513511828365796,0.7111822676540035,0.8936514053794943,0.9008754556010866,0.2951016580929784,1,631,CW,mildness,42,201,mild,ness,4,676,1.3862943611198906,6.52,4,8,BA
S103,-0.00513511828365796,0.7111822676540035,0.8936514053794943,0.9008754556010866,0.2951016580929784,1,667,CW,speller,3,202,spell,er,10,781,2.302585092994046,6.66,5,7,BA
S103,-0.00513511828365796,0.7111822676540035,0.8936514053794943,0.9008754556010866,0.2951016580929784,1,690,CW,dietary,6,201,diet,ary,6,1181,1.791759469228055,7.07,4,7,BA
S103,-0.00513511828365796,0.7111822676540035,0.8936514053794943,0.9008754556010866,0.2951016580929784,1,511,CW,bearded,8,201,beard,ed,7,578,1.9459101490553132,6.36,5,7,BA
S103,-0.00513511828365796,0.7111822676540035,0.8936514053794943,0.9008754556010866,0.2951016580929784,1,711,CW,doubtful,21,202,doubt,ful,8,4135,2.0794415416798357,8.33,5,8,BA
S103,-0.00513511828365796,0.7111822676540035,0.8936514053794943,0.9008754556010866,0.2951016580929784,1,725,CW,collector,46,202,collect,or,23,3221,3.1354942159291497,8.08,7,9,BA
S103,-0.00513511828365796,0.7111822676540035,0.8936514053794943,0.9008754556010866,0.2951016580929784,1,980,CW,deafness,39,202,deaf,ness,9,290,2.1972245773362196,5.67,4,8,BA
S103,-0.00513511828365796,0.7111822676540035,0.8936514053794943,0.9008754556010866,0.2951016580929784,1,501,CW,composer,6,202,compose,er,13,1187,2.5649493574615367,7.08,7,8,BA
S103,-0.00513511828365796,0.7111822676540035,0.8936514053794943,0.9008754556010866,0.2951016580929784,1,654,CW,madness,41,202,mad,ness,10,1298,2.302585092994046,7.17,3,7,BA
S103,-0.00513511828365796,0.7111822676540035,0.8936514053794943,0.9008754556010866,0.2951016580929784,1,495,CW,parking,25,202,park,ing,9,1945,2.1972245773362196,7.57,4,7,BA
S103,-0.00513511828365796,0.7111822676540035,0.8936514053794943,0.9008754556010866,0.2951016580929784,1,794,CW,wrongly,37,202,wrong,ly,12,3532,2.4849066497880004,8.17,5,7,BA
S103,-0.00513511828365796,0.7111822676540035,0.8936514053794943,0.9008754556010866,0.2951016580929784,1,604,CW,editor,45,202,edit,or,12,1298,2.4849066497880004,7.17,4,6,BA
S103,-0.00513511828365796,0.7111822676540035,0.8936514053794943,0.9008754556010866,0.2951016580929784,1,844,CW,design,19,201,designer,er,7,3296,1.9459101490553132,8.1,8,6,BA
S103,-0.00513511828365796,0.7111822676540035,0.8936514053794943,0.9008754556010866,0.2951016580929784,1,612,CW,amazement,39,201,amaze,ment,4,878,1.3862943611198906,6.78,5,9,BA
S103,-0.00513511828365796,0.7111822676540035,0.8936514053794943,0.9008754556010866,0.2951016580929784,1,554,CW,bossy,49,201,boss,y,6,551,1.791759469228055,6.31,4,5,BA
S103,-0.00513511828365796,0.7111822676540035,0.8936514053794943,0.9008754556010866,0.2951016580929784,1,736,CW,buyer,21,201,buy,er,3,4386,1.0986122886681098,8.39,3,5,BA
S103,-0.00513511828365796,0.7111822676540035,0.8936514053794943,0.9008754556010866,0.2951016580929784,1,706,CW,jailer,13,201,jail,er,5,678,1.6094379124341003,6.52,4,6,BA
S103,-0.00513511828365796,0.7111822676540035,0.8936514053794943,0.9008754556010866,0.2951016580929784,1,696,CW,teacher,23,201,teach,er,6,5662,1.791759469228055,8.64,5,7,BA
S103,-0.00513511828365796,0.7111822676540035,0.8936514053794943,0.9008754556010866,0.2951016580929784,1,707,CW,costly,36,201,cost,ly,6,4215,1.791759469228055,8.35,4,6,BA
S103,-0.00513511828365796,0.7111822676540035,0.8936514053794943,0.9008754556010866,0.2951016580929784,1,681,CW,chilly,48,201,chill,y,7,488,1.9459101490553132,6.19,5,6,BA
S103,-0.00513511828365796,0.7111822676540035,0.8936514053794943,0.9008754556010866,0.2951016580929784,1,804,CW,noticeable,3,201,notice,able,6,3426,1.791759469228055,8.14,6,10,BA
S103,-0.00513511828365796,0.7111822676540035,0.8936514053794943,0.9008754556010866,0.2951016580929784,1,745,CW,sailor,43,202,sail,or,17,740,2.833213344056216,6.61,4,6,BA
S103,-0.00513511828365796,0.7111822676540035,0.8936514053794943,0.9008754556010866,0.2951016580929784,1,726,CW,kicking,23,202,kick,ing,15,1012,2.70805020110221,6.92,4,7,BA
S103,-0.00513511828365796,0.7111822676540035,0.8936514053794943,0.9008754556010866,0.2951016580929784,1,606,CW,planner,22,201,plan,er,4,5475,1.3862943611198906,8.61,4,7,BA
S103,-0.00513511828365796,0.7111822676540035,0.8936514053794943,0.9008754556010866,0.2951016580929784,1,413,CW,destroyer,14,201,destroy,er,3,1906,1.0986122886681098,7.55,7,9,BA
S103,-0.00513511828365796,0.7111822676540035,0.8936514053794943,0.9008754556010866,0.2951016580929784,1,478,CW,quietly,36,202,quiet,ly,18,2691,2.8903717578961645,7.9,5,7,BA
S103,-0.00513511828365796,0.7111822676540035,0.8936514053794943,0.9008754556010866,0.2951016580929784,1,684,CW,guilty,34,201,guilt,ly,7,1576,1.9459101490553132,7.36,5,6,BA
S103,-0.00513511828365796,0.7111822676540035,0.8936514053794943,0.9008754556010866,0.2951016580929784,1,660,CW,dancer,11,202,dance,er,16,2003,2.772588722239781,7.6,5,6,BA
S103,-0.00513511828365796,0.7111822676540035,0.8936514053794943,0.9008754556010866,0.2951016580929784,1,612,CW,magical,4,201,magic,al,5,1014,1.6094379124341003,6.92,5,7,BA
S103,-0.00513511828365796,0.7111822676540035,0.8936514053794943,0.9008754556010866,0.2951016580929784,1,560,CW,locally,37,201,local,ly,7,4485,1.9459101490553132,8.41,5,7,BA
S103,-0.00513511828365796,0.7111822676540035,0.8936514053794943,0.9008754556010866,0.2951016580929784,1,901,CW,cloudless,33,202,cloud,less,14,1181,2.6390573296152584,7.07,5,9,BA
S103,-0.00513511828365796,0.7111822676540035,0.8936514053794943,0.9008754556010866,0.2951016580929784,1,490,CW,listener,18,201,listen,er,4,3081,1.3862943611198906,8.03,6,8,BA
S103,-0.00513511828365796,0.7111822676540035,0.8936514053794943,0.9008754556010866,0.2951016580929784,1,575,CW,raider,12,201,raid,er,4,505,1.3862943611198906,6.22,4,6,BA
S104,0.16945890336070296,-0.398728418914212,-0.4482352474931847,-0.3686415830602525,-0.2398231874937962,1,502,CW,locker,8,202,lock,er,18,1654,2.8903717578961645,7.41,4,6,AB
S104,0.16945890336070296,-0.398728418914212,-0.4482352474931847,-0.3686415830602525,-0.2398231874937962,1,566,CW,guarding,26,202,guard,ing,28,2047,3.332204510175204,7.62,5,8,AB
S104,0.16945890336070296,-0.398728418914212,-0.4482352474931847,-0.3686415830602525,-0.2398231874937962,1,481,CW,neatly,33,201,neat,ly,3,924,1.0986122886681098,6.83,4,6,AB
S104,0.16945890336070296,-0.398728418914212,-0.4482352474931847,-0.3686415830602525,-0.2398231874937962,1,530,CW,quietly,36,202,quiet,ly,18,2691,2.8903717578961645,7.9,5,7,AB
S104,0.16945890336070296,-0.398728418914212,-0.4482352474931847,-0.3686415830602525,-0.2398231874937962,1,524,CW,chilly,48,201,chill,y,7,488,1.9459101490553132,6.19,5,6,AB
S104,0.16945890336070296,-0.398728418914212,-0.4482352474931847,-0.3686415830602525,-0.2398231874937962,1,932,CW,hugely,35,201,huge,ly,3,1918,1.0986122886681098,7.56,4,6,AB
S104,0.16945890336070296,-0.398728418914212,-0.4482352474931847,-0.3686415830602525,-0.2398231874937962,1,485,CW,bossy,49,201,boss,y,6,551,1.791759469228055,6.31,4,5,AB
S104,0.16945890336070296,-0.398728418914212,-0.4482352474931847,-0.3686415830602525,-0.2398231874937962,1,614,CW,shameful,19,202,shame,ful,13,993,2.5649493574615367,6.9,5,8,AB
S104,0.16945890336070296,-0.398728418914212,-0.4482352474931847,-0.3686415830602525,-0.2398231874937962,1,510,CW,painter,18,202,paint,er,17,3666,2.833213344056216,8.21,5,7,AB
S104,0.16945890336070296,-0.398728418914212,-0.4482352474931847,-0.3686415830602525,-0.2398231874937962,1,580,CW,cleaner,15,202,clean,er,29,2854,3.367295829986474,7.96,5,7,AB
S104,0.16945890336070296,-0.398728418914212,-0.4482352474931847,-0.3686415830602525,-0.2398231874937962,1,694,CW,peaking,28,201,peak,ing,6,546,1.791759469228055,6.3,4,7,AB
S104,0.16945890336070296,-0.398728418914212,-0.4482352474931847,-0.3686415830602525,-0.2398231874937962,1,631,CW,shapely,35,202,shape,ly,12,1909,2.4849066497880004,7.55,5,7,AB
S104,0.16945890336070296,-0.398728418914212,-0.4482352474931847,-0.3686415830602525,-0.2398231874937962,1,657,CW,dampish,28,202,damp,ish,11,621,2.3978952727983707,6.43,4,7,AB
S104,0.16945890336070296,-0.398728418914212,-0.4482352474931847,-0.3686415830602525,-0.2398231874937962,1,534,CW,blindness,40,202,blind,ness,16,1024,2.772588722239781,6.93,5,9,AB
S104,0.16945890336070296,-0.398728418914212,-0.4482352474931847,-0.3686415830602525,-0.2398231874937962,1,657,CW,barker,2,202,bark,er,8,387,2.0794415416798357,5.96,4,6,AB
S104,0.16945890336070296,-0.398728418914212,-0.4482352474931847,-0.3686415830602525,-0.2398231874937962,1,697,CW,allowance,5,201,allow,ance,5,5014,1.6094379124341003,8.52,5,9,AB
S104,0.16945890336070296,-0.398728418914212,-0.4482352474931847,-0.3686415830602525,-0.2398231874937962,1,587,CW,wrongly,37,202,wrong,ly,12,3532,2.4849066497880004,8.17,5,7,AB
S104,0.16945890336070296,-0.398728418914212,-0.4482352474931847,-0.3686415830602525,-0.2398231874937962,1,538,CW,flexible,22,202,flex,ible,16,664,2.772588722239781,6.5,4,8,AB
S104,0.16945890336070296,-0.398728418914212,-0.4482352474931847,-0.3686415830602525,-0.2398231874937962,1,569,CW,tossing,26,201,toss,ing,5,407,1.6094379124341003,6.01,4,7,AB
S104,0.16945890336070296,-0.398728418914212,-0.4482352474931847,-0.3686415830602525,-0.2398231874937962,1,659,CW,buyer,21,201,buy,er,3,4386,1.0986122886681098,8.39,3,5,AB
S104,0.16945890336070296,-0.398728418914212,-0.4482352474931847,-0.3686415830602525,-0.2398231874937962,1,629,CW,bomber,7,202,bomb,er,24,1208,3.1780538303479458,7.1,4,6,AB
S104,0.16945890336070296,-0.398728418914212,-0.4482352474931847,-0.3686415830602525,-0.2398231874937962,1,805,CW,cooling,24,202,cool,ing,14,1434,2.6390573296152584,7.27,4,7,AB
S104,0.16945890336070296,-0.398728418914212,-0.4482352474931847,-0.3686415830602525,-0.2398231874937962,1,888,CW,mildness,42,201,mild,ness,4,676,1.3862943611198906,6.52,4,8,AB
S104,0.16945890336070296,-0.398728418914212,-0.4482352474931847,-0.3686415830602525,-0.2398231874937962,1,548,CW,puncher,1,202,punch,er,17,325,2.833213344056216,5.78,5,7,AB
S104,0.16945890336070296,-0.398728418914212,-0.4482352474931847,-0.3686415830602525,-0.2398231874937962,1,635,CW,conductor,44,202,conduct,or,16,1084,2.772588722239781,6.99,7,9,AB
S104,0.16945890336070296,-0.398728418914212,-0.4482352474931847,-0.3686415830602525,-0.2398231874937962,1,640,CW,speller,3,202,spell,er,10,781,2.302585092994046,6.66,5,7,AB
S104,0.16945890336070296,-0.398728418914212,-0.4482352474931847,-0.3686415830602525,-0.2398231874937962,1,772,CW,campaigner,15,201,campaign,er,3,2003,1.0986122886681098,7.6,8,10,AB
S104,0.16945890336070296,-0.398728418914212,-0.4482352474931847,-0.3686415830602525,-0.2398231874937962,1,518,CW,risky,50,201,risk,y,5,1827,1.6094379124341003,7.51,4,5,AB
S104,0.16945890336070296,-0.398728418914212,-0.4482352474931847,-0.3686415830602525,-0.2398231874937962,1,610,CW,renter,9,202,rent,er,13,1690,2.5649493574615367,7.43,4,6,AB
S104,0.16945890336070296,-0.398728418914212,-0.4482352474931847,-0.3686415830602525,-0.2398231874937962,1,557,CW,weedy,48,202,weed,y,17,729,2.833213344056216,6.59,4,5,AB
S104,0.16945890336070296,-0.398728418914212,-0.4482352474931847,-0.3686415830602525,-0.2398231874937962,1,572,CW,effortless,30,201,effort,less,4,2456,1.3862943611198906,7.81,6,10,AB
S104,0.16945890336070296,-0.398728418914212,-0.4482352474931847,-0.3686415830602525,-0.2398231874937962,1,753,CW,guilty,34,201,guilt,ly,7,1576,1.9459101490553132,7.36,5,6,AB
S104,0.16945890336070296,-0.398728418914212,-0.4482352474931847,-0.3686415830602525,-0.2398231874937962,1,639,CW,pusher,13,202,push,er,17,2507,2.833213344056216,7.83,4,6,AB
S104,0.16945890336070296,-0.398728418914212,-0.4482352474931847,-0.3686415830602525,-0.2398231874937962,1,984,CW,insistent,9,201,insist,ent,5,1631,1.6094379124341003,7.4,6,9,AB
S104,0.16945890336070296,-0.398728418914212,-0.4482352474931847,-0.3686415830602525,-0.2398231874937962,1,705,CW,madness,41,202,mad,ness,10,1298,2.302585092994046,7.17,3,7,AB
S104,0.16945890336070296,-0.398728418914212,-0.4482352474931847,-0.3686415830602525,-0.2398231874937962,1,548,CW,mossy,47,201,moss,y,3,149,1.0986122886681098,5,4,5,AB
S104,0.16945890336070296,-0.398728418914212,-0.4482352474931847,-0.3686415830602525,-0.2398231874937962,1,516,CW,creamy,49,202,cream,y,10,792,2.302585092994046,6.67,5,6,AB
S104,0.16945890336070296,-0.398728418914212,-0.4482352474931847,-0.3686415830602525,-0.2398231874937962,1,680,CW,feeder,14,202,feed,er,11,2806,2.3978952727983707,7.94,4,6,AB
S104,0.16945890336070296,-0.398728418914212,-0.4482352474931847,-0.3686415830602525,-0.2398231874937962,1,628,CW,amusement,38,201,amuse,ment,3,857,1.0986122886681098,6.75,5,9,AB
S104,0.16945890336070296,-0.398728418914212,-0.4482352474931847,-0.3686415830602525,-0.2398231874937962,1,628,CW,attacker,20,201,attack,er,6,3385,1.791759469228055,8.13,6,8,AB
S104,0.16945890336070296,-0.398728418914212,-0.4482352474931847,-0.3686415830602525,-0.2398231874937962,1,688,CW,collector,46,202,collect,or,23,3221,3.1354942159291497,8.08,7,9,AB
S104,0.16945890336070296,-0.398728418914212,-0.4482352474931847,-0.3686415830602525,-0.2398231874937962,1,734,CW,angelic,25,201,angel,ic,7,567,1.9459101490553132,6.34,5,7,AB
S104,0.16945890336070296,-0.398728418914212,-0.4482352474931847,-0.3686415830602525,-0.2398231874937962,1,688,CW,striker,17,202,strike,er,17,3414,2.833213344056216,8.14,6,7,AB
S104,0.16945890336070296,-0.398728418914212,-0.4482352474931847,-0.3686415830602525,-0.2398231874937962,1,542,CW,enjoyment,40,201,enjoy,ment,4,2771,1.3862943611198906,7.93,5,9,AB
S104,0.16945890336070296,-0.398728418914212,-0.4482352474931847,-0.3686415830602525,-0.2398231874937962,1,667,CW,verbal,50,202,verb,al,22,423,3.091042453358316,6.05,4,6,AB
S104,0.16945890336070296,-0.398728418914212,-0.4482352474931847,-0.3686415830602525,-0.2398231874937962,1,718,CW,jailer,13,201,jail,er,5,678,1.6094379124341003,6.52,4,6,AB
S104,0.16945890336070296,-0.398728418914212,-0.4482352474931847,-0.3686415830602525,-0.2398231874937962,1,563,CW,destroyer,14,201,destroy,er,3,1906,1.0986122886681098,7.55,7,9,AB
S104,0.16945890336070296,-0.398728418914212,-0.4482352474931847,-0.3686415830602525,-0.2398231874937962,1,653,CW,editor,45,202,edit,or,12,1298,2.4849066497880004,7.17,4,6,AB
S104,0.16945890336070296,-0.398728418914212,-0.4482352474931847,-0.3686415830602525,-0.2398231874937962,1,604,CW,toaster,10,201,toast,er,6,339,1.791759469228055,5.83,5,7,AB
S104,0.16945890336070296,-0.398728418914212,-0.4482352474931847,-0.3686415830602525,-0.2398231874937962,1,427,CW,professor,47,202,profess,pr,14,3563,2.6390573296152584,8.18,7,9,AB
S104,0.16945890336070296,-0.398728418914212,-0.4482352474931847,-0.3686415830602525,-0.2398231874937962,1,686,CW,doubtful,21,202,doubt,ful,8,4135,2.0794415416798357,8.33,5,8,AB
S104,0.16945890336070296,-0.398728418914212,-0.4482352474931847,-0.3686415830602525,-0.2398231874937962,1,579,CW,jumping,30,202,jump,jumping,15,1395,2.70805020110221,7.24,4,7,AB
S104,0.16945890336070296,-0.398728418914212,-0.4482352474931847,-0.3686415830602525,-0.2398231874937962,1,547,CW,avoidable,2,201,avoid,able,5,2172,1.6094379124341003,7.68,5,9,AB
S104,0.16945890336070296,-0.398728418914212,-0.4482352474931847,-0.3686415830602525,-0.2398231874937962,1,619,CW,richness,45,201,rich,ness,7,2868,1.9459101490553132,7.96,4,8,AB
S104,0.16945890336070296,-0.398728418914212,-0.4482352474931847,-0.3686415830602525,-0.2398231874937962,1,642,CW,excitement,38,202,excite,ment,9,1924,2.1972245773362196,7.56,6,10,AB
S104,0.16945890336070296,-0.398728418914212,-0.4482352474931847,-0.3686415830602525,-0.2398231874937962,1,693,CW,detectable,1,201,detect,able,7,982,1.9459101490553132,6.89,6,10,AB
S104,0.16945890336070296,-0.398728418914212,-0.4482352474931847,-0.3686415830602525,-0.2398231874937962,1,692,CW,composer,6,202,compose,er,13,1187,2.5649493574615367,7.08,7,8,AB
S104,0.16945890336070296,-0.398728418914212,-0.4482352474931847,-0.3686415830602525,-0.2398231874937962,1,638,CW,stylish,29,202,style,ish,16,2119,2.772588722239781,7.66,5,7,AB
S104,0.16945890336070296,-0.398728418914212,-0.4482352474931847,-0.3686415830602525,-0.2398231874937962,1,759,CW,tutoring,27,201,tutor,ing,5,499,1.6094379124341003,6.21,5,8,AB
S104,0.16945890336070296,-0.398728418914212,-0.4482352474931847,-0.3686415830602525,-0.2398231874937962,1,583,CW,dullness,43,201,dull,ness,5,703,1.6094379124341003,6.56,4,8,AB
S104,0.16945890336070296,-0.398728418914212,-0.4482352474931847,-0.3686415830602525,-0.2398231874937962,1,560,CW,cloudless,33,202,cloud,less,14,1181,2.6390573296152584,7.07,5,9,AB
S104,0.16945890336070296,-0.398728418914212,-0.4482352474931847,-0.3686415830602525,-0.2398231874937962,1,531,CW,design,19,201,designer,er,7,3296,1.9459101490553132,8.1,8,6,AB
S104,0.16945890336070296,-0.398728418914212,-0.4482352474931847,-0.3686415830602525,-0.2398231874937962,1,602,CW,laughing,27,202,laugh,ing,18,4181,2.8903717578961645,8.34,5,8,AB
S104,0.16945890336070296,-0.398728418914212,-0.4482352474931847,-0.3686415830602525,-0.2398231874937962,1,583,CW,dreamer,12,202,dream,er,19,2325,2.9444389791664403,7.75,5,7,AB
S104,0.16945890336070296,-0.398728418914212,-0.4482352474931847,-0.3686415830602525,-0.2398231874937962,1,706,CW,densely,32,201,dense,ly,7,655,1.9459101490553132,6.48,5,7,AB
S104,0.16945890336070296,-0.398728418914212,-0.4482352474931847,-0.3686415830602525,-0.2398231874937962,1,766,CW,strangeness,46,201,strange,ness,4,2912,1.3862943611198906,7.98,7,11,AB
S104,0.16945890336070296,-0.398728418914212,-0.4482352474931847,-0.3686415830602525,-0.2398231874937962,1,819,CW,heater,16,202,heat,er,15,2881,2.70805020110221,7.97,4,6,AB
S104,0.16945890336070296,-0.398728418914212,-0.4482352474931847,-0.3686415830602525,-0.2398231874937962,1,651,CW,listener,18,201,listen,er,4,3081,1.3862943611198906,8.03,6,8,AB
S104,0.16945890336070296,-0.398728418914212,-0.4482352474931847,-0.3686415830602525,-0.2398231874937962,1,628,CW,singer,17,201,sing,er,4,2186,1.3862943611198906,7.69,4,6,AB
S104,0.16945890336070296,-0.398728418914212,-0.4482352474931847,-0.3686415830602525,-0.2398231874937962,1,496,CW,grimly,31,201,grim,ly,6,552,1.791759469228055,6.31,4,6,AB
S104,0.16945890336070296,-0.398728418914212,-0.4482352474931847,-0.3686415830602525,-0.2398231874937962,1,525,CW,bearded,8,201,beard,ed,7,578,1.9459101490553132,6.36,5,7,AB
S104,0.16945890336070296,-0.398728418914212,-0.4482352474931847,-0.3686415830602525,-0.2398231874937962,1,486,CW,hunter,10,202,hunt,er,18,1762,2.8903717578961645,7.47,4,6,AB
S104,0.16945890336070296,-0.398728418914212,-0.4482352474931847,-0.3686415830602525,-0.2398231874937962,1,635,CW,sailor,43,202,sail,or,17,740,2.833213344056216,6.61,4,6,AB
S104,0.16945890336070296,-0.398728418914212,-0.4482352474931847,-0.3686415830602525,-0.2398231874937962,1,526,CW,magical,4,201,magic,al,5,1014,1.6094379124341003,6.92,5,7,AB
S104,0.16945890336070296,-0.398728418914212,-0.4482352474931847,-0.3686415830602525,-0.2398231874937962,1,729,CW,dietary,6,201,diet,ary,6,1181,1.791759469228055,7.07,4,7,AB
S104,0.16945890336070296,-0.398728418914212,-0.4482352474931847,-0.3686415830602525,-0.2398231874937962,1,420,CW,dancer,11,202,dance,er,16,2003,2.772588722239781,7.6,5,6,AB
S104,0.16945890336070296,-0.398728418914212,-0.4482352474931847,-0.3686415830602525,-0.2398231874937962,1,541,CW,boldness,41,201,bold,ness,7,379,1.9459101490553132,5.94,4,8,AB
S104,0.16945890336070296,-0.398728418914212,-0.4482352474931847,-0.3686415830602525,-0.2398231874937962,1,600,CW,faithful,20,202,faith,ful,12,1320,2.4849066497880004,7.19,5,8,AB
S104,0.16945890336070296,-0.398728418914212,-0.4482352474931847,-0.3686415830602525,-0.2398231874937962,1,547,CW,seeker,16,201,seek,er,7,2155,1.9459101490553132,7.68,4,6,AB
S104,0.16945890336070296,-0.398728418914212,-0.4482352474931847,-0.3686415830602525,-0.2398231874937962,1,651,CW,parking,25,202,park,ing,9,1945,2.1972245773362196,7.57,4,7,AB
S104,0.16945890336070296,-0.398728418914212,-0.4482352474931847,-0.3686415830602525,-0.2398231874937962,1,564,CW,lender,11,201,lend,er,3,505,1.0986122886681098,6.22,4,6,AB
S104,0.16945890336070296,-0.398728418914212,-0.4482352474931847,-0.3686415830602525,-0.2398231874937962,1,569,CW,kicking,23,202,kick,ing,15,1012,2.70805020110221,6.92,4,7,AB
S104,0.16945890336070296,-0.398728418914212,-0.4482352474931847,-0.3686415830602525,-0.2398231874937962,1,662,CW,harmless,29,201,harm,less,7,1101,1.9459101490553132,7,4,8,AB
S104,0.16945890336070296,-0.398728418914212,-0.4482352474931847,-0.3686415830602525,-0.2398231874937962,1,628,CW,awareness,44,201,aware,ness,4,2391,1.3862943611198906,7.78,5,9,AB
S104,0.16945890336070296,-0.398728418914212,-0.4482352474931847,-0.3686415830602525,-0.2398231874937962,1,636,CW,noticeable,3,201,notice,able,6,3426,1.791759469228055,8.14,6,10,AB
S104,0.16945890336070296,-0.398728418914212,-0.4482352474931847,-0.3686415830602525,-0.2398231874937962,1,537,CW,planner,22,201,plan,er,4,5475,1.3862943611198906,8.61,4,7,AB
S104,0.16945890336070296,-0.398728418914212,-0.4482352474931847,-0.3686415830602525,-0.2398231874937962,1,774,CW,widowed,7,201,widow,ed,5,499,1.6094379124341003,6.21,5,7,AB
S104,0.16945890336070296,-0.398728418914212,-0.4482352474931847,-0.3686415830602525,-0.2398231874937962,1,668,CW,deafness,39,202,deaf,ness,9,290,2.1972245773362196,5.67,4,8,AB
S104,0.16945890336070296,-0.398728418914212,-0.4482352474931847,-0.3686415830602525,-0.2398231874937962,1,617,CW,dryness,42,202,dry,ness,19,2366,2.9444389791664403,7.77,3,7,AB
S104,0.16945890336070296,-0.398728418914212,-0.4482352474931847,-0.3686415830602525,-0.2398231874937962,1,653,CW,locally,37,201,local,ly,7,4485,1.9459101490553132,8.41,5,7,AB
S104,0.16945890336070296,-0.398728418914212,-0.4482352474931847,-0.3686415830602525,-0.2398231874937962,1,564,CW,knocker,4,202,knock,er,15,1104,2.70805020110221,7.01,5,7,AB
S104,0.16945890336070296,-0.398728418914212,-0.4482352474931847,-0.3686415830602525,-0.2398231874937962,1,558,CW,swimmer,5,202,swim,er,11,1145,2.3978952727983707,7.04,4,7,AB
S104,0.16945890336070296,-0.398728418914212,-0.4482352474931847,-0.3686415830602525,-0.2398231874937962,1,474,CW,teacher,23,201,teach,er,6,5662,1.791759469228055,8.64,5,7,AB
S104,0.16945890336070296,-0.398728418914212,-0.4482352474931847,-0.3686415830602525,-0.2398231874937962,1,439,CW,bootless,32,202,boot,less,19,940,2.9444389791664403,6.85,4,8,AB
S105,-1.5764813130829065,-0.08161107989472187,0.31855712557691757,-0.8258044315481203,0.3296197259925228,1,762,CW,cleaner,15,202,clean,er,29,2854,3.367295829986474,7.96,5,7,BA
S105,-1.5764813130829065,-0.08161107989472187,0.31855712557691757,-0.8258044315481203,0.3296197259925228,1,420,CW,stylish,29,202,style,ish,16,2119,2.772588722239781,7.66,5,7,BA
S105,-1.5764813130829065,-0.08161107989472187,0.31855712557691757,-0.8258044315481203,0.3296197259925228,1,525,CW,amazement,39,201,amaze,ment,4,878,1.3862943611198906,6.78,5,9,BA
S105,-1.5764813130829065,-0.08161107989472187,0.31855712557691757,-0.8258044315481203,0.3296197259925228,1,407,CW,madness,41,202,mad,ness,10,1298,2.302585092994046,7.17,3,7,BA
S105,-1.5764813130829065,-0.08161107989472187,0.31855712557691757,-0.8258044315481203,0.3296197259925228,1,498,CW,composer,6,202,compose,er,13,1187,2.5649493574615367,7.08,7,8,BA
S105,-1.5764813130829065,-0.08161107989472187,0.31855712557691757,-0.8258044315481203,0.3296197259925228,1,432,CW,jumping,30,202,jump,jumping,15,1395,2.70805020110221,7.24,4,7,BA
S105,-1.5764813130829065,-0.08161107989472187,0.31855712557691757,-0.8258044315481203,0.3296197259925228,1,527,CW,bomber,7,202,bomb,er,24,1208,3.1780538303479458,7.1,4,6,BA
S105,-1.5764813130829065,-0.08161107989472187,0.31855712557691757,-0.8258044315481203,0.3296197259925228,1,448,CW,thruster,24,201,thrust,er,4,584,1.3862943611198906,6.37,6,8,BA
S105,-1.5764813130829065,-0.08161107989472187,0.31855712557691757,-0.8258044315481203,0.3296197259925228,1,609,CW,costly,36,201,cost,ly,6,4215,1.791759469228055,8.35,4,6,BA
S105,-1.5764813130829065,-0.08161107989472187,0.31855712557691757,-0.8258044315481203,0.3296197259925228,1,548,CW,pusher,13,202,push,er,17,2507,2.833213344056216,7.83,4,6,BA
S105,-1.5764813130829065,-0.08161107989472187,0.31855712557691757,-0.8258044315481203,0.3296197259925228,1,395,CW,heater,16,202,heat,er,15,2881,2.70805020110221,7.97,4,6,BA
S105,-1.5764813130829065,-0.08161107989472187,0.31855712557691757,-0.8258044315481203,0.3296197259925228,1,492,CW,richness,45,201,rich,ness,7,2868,1.9459101490553132,7.96,4,8,BA
S105,-1.5764813130829065,-0.08161107989472187,0.31855712557691757,-0.8258044315481203,0.3296197259925228,1,447,CW,noticeable,3,201,notice,able,6,3426,1.791759469228055,8.14,6,10,BA
S105,-1.5764813130829065,-0.08161107989472187,0.31855712557691757,-0.8258044315481203,0.3296197259925228,1,477,CW,sailor,43,202,sail,or,17,740,2.833213344056216,6.61,4,6,BA
S105,-1.5764813130829065,-0.08161107989472187,0.31855712557691757,-0.8258044315481203,0.3296197259925228,1,487,CW,neatly,33,201,neat,ly,3,924,1.0986122886681098,6.83,4,6,BA
S105,-1.5764813130829065,-0.08161107989472187,0.31855712557691757,-0.8258044315481203,0.3296197259925228,1,524,CW,magical,4,201,magic,al,5,1014,1.6094379124341003,6.92,5,7,BA
S105,-1.5764813130829065,-0.08161107989472187,0.31855712557691757,-0.8258044315481203,0.3296197259925228,1,436,CW,flexible,22,202,flex,ible,16,664,2.772588722239781,6.5,4,8,BA
S105,-1.5764813130829065,-0.08161107989472187,0.31855712557691757,-0.8258044315481203,0.3296197259925228,1,448,CW,knocker,4,202,knock,er,15,1104,2.70805020110221,7.01,5,7,BA
S105,-1.5764813130829065,-0.08161107989472187,0.31855712557691757,-0.8258044315481203,0.3296197259925228,1,774,CW,dietary,6,201,diet,ary,6,1181,1.791759469228055,7.07,4,7,BA
S105,-1.5764813130829065,-0.08161107989472187,0.31855712557691757,-0.8258044315481203,0.3296197259925228,1,904,CW,bootless,32,202,boot,less,19,940,2.9444389791664403,6.85,4,8,BA
S105,-1.5764813130829065,-0.08161107989472187,0.31855712557691757,-0.8258044315481203,0.3296197259925228,1,568,CW,hunter,10,202,hunt,er,18,1762,2.8903717578961645,7.47,4,6,BA
S105,-1.5764813130829065,-0.08161107989472187,0.31855712557691757,-0.8258044315481203,0.3296197259925228,1,680,CW,allowance,5,201,allow,ance,5,5014,1.6094379124341003,8.52,5,9,BA
S105,-1.5764813130829065,-0.08161107989472187,0.31855712557691757,-0.8258044315481203,0.3296197259925228,1,521,CW,teacher,23,201,teach,er,6,5662,1.791759469228055,8.64,5,7,BA
S105,-1.5764813130829065,-0.08161107989472187,0.31855712557691757,-0.8258044315481203,0.3296197259925228,1,528,CW,campaigner,15,201,campaign,er,3,2003,1.0986122886681098,7.6,8,10,BA
S105,-1.5764813130829065,-0.08161107989472187,0.31855712557691757,-0.8258044315481203,0.3296197259925228,1,394,CW,dreamer,12,202,dream,er,19,2325,2.9444389791664403,7.75,5,7,BA
S105,-1.5764813130829065,-0.08161107989472187,0.31855712557691757,-0.8258044315481203,0.3296197259925228,1,697,CW,deafness,39,202,deaf,ness,9,290,2.1972245773362196,5.67,4,8,BA
S105,-1.5764813130829065,-0.08161107989472187,0.31855712557691757,-0.8258044315481203,0.3296197259925228,1,465,CW,strangeness,46,201,strange,ness,4,2912,1.3862943611198906,7.98,7,11,BA
S105,-1.5764813130829065,-0.08161107989472187,0.31855712557691757,-0.8258044315481203,0.3296197259925228,1,545,CW,angelic,25,201,angel,ic,7,567,1.9459101490553132,6.34,5,7,BA
S105,-1.5764813130829065,-0.08161107989472187,0.31855712557691757,-0.8258044315481203,0.3296197259925228,1,628,CW,densely,32,201,dense,ly,7,655,1.9459101490553132,6.48,5,7,BA
S105,-1.5764813130829065,-0.08161107989472187,0.31855712557691757,-0.8258044315481203,0.3296197259925228,1,590,CW,bearded,8,201,beard,ed,7,578,1.9459101490553132,6.36,5,7,BA
S105,-1.5764813130829065,-0.08161107989472187,0.31855712557691757,-0.8258044315481203,0.3296197259925228,1,797,CW,insistent,9,201,insist,ent,5,1631,1.6094379124341003,7.4,6,9,BA
S105,-1.5764813130829065,-0.08161107989472187,0.31855712557691757,-0.8258044315481203,0.3296197259925228,1,624,CW,guarding,26,202,guard,ing,28,2047,3.332204510175204,7.62,5,8,BA
S105,-1.5764813130829065,-0.08161107989472187,0.31855712557691757,-0.8258044315481203,0.3296197259925228,1,492,CW,chilly,48,201,chill,y,7,488,1.9459101490553132,6.19,5,6,BA
S105,-1.5764813130829065,-0.08161107989472187,0.31855712557691757,-0.8258044315481203,0.3296197259925228,1,629,CW,cooling,24,202,cool,ing,14,1434,2.6390573296152584,7.27,4,7,BA
S105,-1.5764813130829065,-0.08161107989472187,0.31855712557691757,-0.8258044315481203,0.3296197259925228,1,493,CW,seeker,16,201,seek,er,7,2155,1.9459101490553132,7.68,4,6,BA
S105,-1.5764813130829065,-0.08161107989472187,0.31855712557691757,-0.8258044315481203,0.3296197259925228,1,568,CW,blindness,40,202,blind,ness,16,1024,2.772588722239781,6.93,5,9,BA
S105,-1.5764813130829065,-0.08161107989472187,0.31855712557691757,-0.8258044315481203,0.3296197259925228,1,487,CW,lender,11,201,lend,er,3,505,1.0986122886681098,6.22,4,6,BA
S105,-1.5764813130829065,-0.08161107989472187,0.31855712557691757,-0.8258044315481203,0.3296197259925228,1,435,CW,painter,18,202,paint,er,17,3666,2.833213344056216,8.21,5,7,BA
S105,-1.5764813130829065,-0.08161107989472187,0.31855712557691757,-0.8258044315481203,0.3296197259925228,1,445,CW,barker,2,202,bark,er,8,387,2.0794415416798357,5.96,4,6,BA
S105,-1.5764813130829065,-0.08161107989472187,0.31855712557691757,-0.8258044315481203,0.3296197259925228,1,625,CW,dullness,43,201,dull,ness,5,703,1.6094379124341003,6.56,4,8,BA
S105,-1.5764813130829065,-0.08161107989472187,0.31855712557691757,-0.8258044315481203,0.3296197259925228,1,660,CW,parking,25,202,park,ing,9,1945,2.1972245773362196,7.57,4,7,BA
S105,-1.5764813130829065,-0.08161107989472187,0.31855712557691757,-0.8258044315481203,0.3296197259925228,1,577,CW,shameful,19,202,shame,ful,13,993,2.5649493574615367,6.9,5,8,BA
S105,-1.5764813130829065,-0.08161107989472187,0.31855712557691757,-0.8258044315481203,0.3296197259925228,1,657,CW,enjoyment,40,201,enjoy,ment,4,2771,1.3862943611198906,7.93,5,9,BA
S105,-1.5764813130829065,-0.08161107989472187,0.31855712557691757,-0.8258044315481203,0.3296197259925228,1,407,CW,faithful,20,202,faith,ful,12,1320,2.4849066497880004,7.19,5,8,BA
S105,-1.5764813130829065,-0.08161107989472187,0.31855712557691757,-0.8258044315481203,0.3296197259925228,1,628,CW,mildness,42,201,mild,ness,4,676,1.3862943611198906,6.52,4,8,BA
S105,-1.5764813130829065,-0.08161107989472187,0.31855712557691757,-0.8258044315481203,0.3296197259925228,1,489,CW,collector,46,202,collect,or,23,3221,3.1354942159291497,8.08,7,9,BA
S105,-1.5764813130829065,-0.08161107989472187,0.31855712557691757,-0.8258044315481203,0.3296197259925228,1,392,CW,amusement,38,201,amuse,ment,3,857,1.0986122886681098,6.75,5,9,BA
S105,-1.5764813130829065,-0.08161107989472187,0.31855712557691757,-0.8258044315481203,0.3296197259925228,1,511,CW,toaster,10,201,toast,er,6,339,1.791759469228055,5.83,5,7,BA
S105,-1.5764813130829065,-0.08161107989472187,0.31855712557691757,-0.8258044315481203,0.3296197259925228,1,609,CW,speller,3,202,spell,er,10,781,2.302585092994046,6.66,5,7,BA
S105,-1.5764813130829065,-0.08161107989472187,0.31855712557691757,-0.8258044315481203,0.3296197259925228,1,624,CW,bossy,49,201,boss,y,6,551,1.791759469228055,6.31,4,5,BA
S105,-1.5764813130829065,-0.08161107989472187,0.31855712557691757,-0.8258044315481203,0.3296197259925228,1,531,CW,guilty,34,201,guilt,ly,7,1576,1.9459101490553132,7.36,5,6,BA
S105,-1.5764813130829065,-0.08161107989472187,0.31855712557691757,-0.8258044315481203,0.3296197259925228,1,590,CW,swimmer,5,202,swim,er,11,1145,2.3978952727983707,7.04,4,7,BA
S105,-1.5764813130829065,-0.08161107989472187,0.31855712557691757,-0.8258044315481203,0.3296197259925228,1,509,CW,quietly,36,202,quiet,ly,18,2691,2.8903717578961645,7.9,5,7,BA
S105,-1.5764813130829065,-0.08161107989472187,0.31855712557691757,-0.8258044315481203,0.3296197259925228,1,554,CW,design,19,201,designer,er,7,3296,1.9459101490553132,8.1,8,6,BA
S105,-1.5764813130829065,-0.08161107989472187,0.31855712557691757,-0.8258044315481203,0.3296197259925228,1,531,CW,locally,37,201,local,ly,7,4485,1.9459101490553132,8.41,5,7,BA
S105,-1.5764813130829065,-0.08161107989472187,0.31855712557691757,-0.8258044315481203,0.3296197259925228,1,775,CW,cloudless,33,202,cloud,less,14,1181,2.6390573296152584,7.07,5,9,BA
S105,-1.5764813130829065,-0.08161107989472187,0.31855712557691757,-0.8258044315481203,0.3296197259925228,1,657,CW,locker,8,202,lock,er,18,1654,2.8903717578961645,7.41,4,6,BA
S105,-1.5764813130829065,-0.08161107989472187,0.31855712557691757,-0.8258044315481203,0.3296197259925228,1,437,CW,professor,47,202,profess,pr,14,3563,2.6390573296152584,8.18,7,9,BA
S105,-1.5764813130829065,-0.08161107989472187,0.31855712557691757,-0.8258044315481203,0.3296197259925228,1,374,CW,dancer,11,202,dance,er,16,2003,2.772588722239781,7.6,5,6,BA
S105,-1.5764813130829065,-0.08161107989472187,0.31855712557691757,-0.8258044315481203,0.3296197259925228,1,498,CW,editor,45,202,edit,or,12,1298,2.4849066497880004,7.17,4,6,BA
S105,-1.5764813130829065,-0.08161107989472187,0.31855712557691757,-0.8258044315481203,0.3296197259925228,1,657,CW,grimly,31,201,grim,ly,6,552,1.791759469228055,6.31,4,6,BA
S105,-1.5764813130829065,-0.08161107989472187,0.31855712557691757,-0.8258044315481203,0.3296197259925228,1,489,CW,verbal,50,202,verb,al,22,423,3.091042453358316,6.05,4,6,BA
S105,-1.5764813130829065,-0.08161107989472187,0.31855712557691757,-0.8258044315481203,0.3296197259925228,1,524,CW,widowed,7,201,widow,ed,5,499,1.6094379124341003,6.21,5,7,BA
S105,-1.5764813130829065,-0.08161107989472187,0.31855712557691757,-0.8258044315481203,0.3296197259925228,1,801,CW,weedy,48,202,weed,y,17,729,2.833213344056216,6.59,4,5,BA
S105,-1.5764813130829065,-0.08161107989472187,0.31855712557691757,-0.8258044315481203,0.3296197259925228,1,581,CW,striker,17,202,strike,er,17,3414,2.833213344056216,8.14,6,7,BA
S105,-1.5764813130829065,-0.08161107989472187,0.31855712557691757,-0.8258044315481203,0.3296197259925228,1,432,CW,risky,50,201,risk,y,5,1827,1.6094379124341003,7.51,4,5,BA
S105,-1.5764813130829065,-0.08161107989472187,0.31855712557691757,-0.8258044315481203,0.3296197259925228,1,435,CW,creamy,49,202,cream,y,10,792,2.302585092994046,6.67,5,6,BA
S105,-1.5764813130829065,-0.08161107989472187,0.31855712557691757,-0.8258044315481203,0.3296197259925228,1,459,CW,kicking,23,202,kick,ing,15,1012,2.70805020110221,6.92,4,7,BA
S105,-1.5764813130829065,-0.08161107989472187,0.31855712557691757,-0.8258044315481203,0.3296197259925228,1,423,CW,conductor,44,202,conduct,or,16,1084,2.772588722239781,6.99,7,9,BA
S105,-1.5764813130829065,-0.08161107989472187,0.31855712557691757,-0.8258044315481203,0.3296197259925228,1,470,CW,listener,18,201,listen,er,4,3081,1.3862943611198906,8.03,6,8,BA
S105,-1.5764813130829065,-0.08161107989472187,0.31855712557691757,-0.8258044315481203,0.3296197259925228,1,346,CW,singer,17,201,sing,er,4,2186,1.3862943611198906,7.69,4,6,BA
S105,-1.5764813130829065,-0.08161107989472187,0.31855712557691757,-0.8258044315481203,0.3296197259925228,1,555,CW,awareness,44,201,aware,ness,4,2391,1.3862943611198906,7.78,5,9,BA
S105,-1.5764813130829065,-0.08161107989472187,0.31855712557691757,-0.8258044315481203,0.3296197259925228,1,447,CW,feeder,14,202,feed,er,11,2806,2.3978952727983707,7.94,4,6,BA
S105,-1.5764813130829065,-0.08161107989472187,0.31855712557691757,-0.8258044315481203,0.3296197259925228,1,563,CW,raider,12,201,raid,er,4,505,1.3862943611198906,6.22,4,6,BA
S105,-1.5764813130829065,-0.08161107989472187,0.31855712557691757,-0.8258044315481203,0.3296197259925228,1,460,CW,excitement,38,202,excite,ment,9,1924,2.1972245773362196,7.56,6,10,BA
S105,-1.5764813130829065,-0.08161107989472187,0.31855712557691757,-0.8258044315481203,0.3296197259925228,1,676,CW,harmless,29,201,harm,less,7,1101,1.9459101490553132,7,4,8,BA
S105,-1.5764813130829065,-0.08161107989472187,0.31855712557691757,-0.8258044315481203,0.3296197259925228,1,618,CW,renter,9,202,rent,er,13,1690,2.5649493574615367,7.43,4,6,BA
S105,-1.5764813130829065,-0.08161107989472187,0.31855712557691757,-0.8258044315481203,0.3296197259925228,1,521,CW,shapely,35,202,shape,ly,12,1909,2.4849066497880004,7.55,5,7,BA
S105,-1.5764813130829065,-0.08161107989472187,0.31855712557691757,-0.8258044315481203,0.3296197259925228,1,516,CW,destroyer,14,201,destroy,er,3,1906,1.0986122886681098,7.55,7,9,BA
S105,-1.5764813130829065,-0.08161107989472187,0.31855712557691757,-0.8258044315481203,0.3296197259925228,1,578,CW,planner,22,201,plan,er,4,5475,1.3862943611198906,8.61,4,7,BA
S105,-1.5764813130829065,-0.08161107989472187,0.31855712557691757,-0.8258044315481203,0.3296197259925228,1,565,CW,laughing,27,202,laugh,ing,18,4181,2.8903717578961645,8.34,5,8,BA
S105,-1.5764813130829065,-0.08161107989472187,0.31855712557691757,-0.8258044315481203,0.3296197259925228,1,769,CW,boneless,34,202,bone,less,35,1490,3.5553480614894135,7.31,4,8,BA
S105,-1.5764813130829065,-0.08161107989472187,0.31855712557691757,-0.8258044315481203,0.3296197259925228,1,617,CW,tutoring,27,201,tutor,ing,5,499,1.6094379124341003,6.21,5,8,BA
S105,-1.5764813130829065,-0.08161107989472187,0.31855712557691757,-0.8258044315481203,0.3296197259925228,1,632,CW,dampish,28,202,damp,ish,11,621,2.3978952727983707,6.43,4,7,BA
S105,-1.5764813130829065,-0.08161107989472187,0.31855712557691757,-0.8258044315481203,0.3296197259925228,1,561,CW,avoidable,2,201,avoid,able,5,2172,1.6094379124341003,7.68,5,9,BA
S105,-1.5764813130829065,-0.08161107989472187,0.31855712557691757,-0.8258044315481203,0.3296197259925228,1,619,CW,effortless,30,201,effort,less,4,2456,1.3862943611198906,7.81,6,10,BA
S105,-1.5764813130829065,-0.08161107989472187,0.31855712557691757,-0.8258044315481203,0.3296197259925228,1,610,CW,boldness,41,201,bold,ness,7,379,1.9459101490553132,5.94,4,8,BA
S106,0.5186469466494249,1.979651623731964,-0.25653715422565915,1.1434640633960211,1.660946387091918,1,577,CW,verbal,50,202,verb,al,22,423,3.091042453358316,6.05,4,6,AB
S106,0.5186469466494249,1.979651623731964,-0.25653715422565915,1.1434640633960211,1.660946387091918,1,630,CW,locally,37,201,local,ly,7,4485,1.9459101490553132,8.41,5,7,AB
S106,0.5186469466494249,1.979651623731964,-0.25653715422565915,1.1434640633960211,1.660946387091918,1,664,CW,neatly,33,201,neat,ly,3,924,1.0986122886681098,6.83,4,6,AB
S106,0.5186469466494249,1.979651623731964,-0.25653715422565915,1.1434640633960211,1.660946387091918,1,498,CW,allowance,5,201,allow,ance,5,5014,1.6094379124341003,8.52,5,9,AB
S106,0.5186469466494249,1.979651623731964,-0.25653715422565915,1.1434640633960211,1.660946387091918,1,628,CW,peaking,28,201,peak,ing,6,546,1.791759469228055,6.3,4,7,AB
S106,0.5186469466494249,1.979651623731964,-0.25653715422565915,1.1434640633960211,1.660946387091918,1,684,CW,detectable,1,201,detect,able,7,982,1.9459101490553132,6.89,6,10,AB
S106,0.5186469466494249,1.979651623731964,-0.25653715422565915,1.1434640633960211,1.660946387091918,1,444,CW,mossy,47,201,moss,y,3,149,1.0986122886681098,5,4,5,AB
S106,0.5186469466494249,1.979651623731964,-0.25653715422565915,1.1434640633960211,1.660946387091918,1,526,CW,barker,2,202,bark,er,8,387,2.0794415416798357,5.96,4,6,AB
S106,0.5186469466494249,1.979651623731964,-0.25653715422565915,1.1434640633960211,1.660946387091918,1,766,CW,bootless,32,202,boot,less,19,940,2.9444389791664403,6.85,4,8,AB
S106,0.5186469466494249,1.979651623731964,-0.25653715422565915,1.1434640633960211,1.660946387091918,1,766,CW,speller,3,202,spell,er,10,781,2.302585092994046,6.66,5,7,AB
S106,0.5186469466494249,1.979651623731964,-0.25653715422565915,1.1434640633960211,1.660946387091918,1,585,CW,tossing,26,201,toss,ing,5,407,1.6094379124341003,6.01,4,7,AB
S106,0.5186469466494249,1.979651623731964,-0.25653715422565915,1.1434640633960211,1.660946387091918,1,524,CW,grimly,31,201,grim,ly,6,552,1.791759469228055,6.31,4,6,AB
S106,0.5186469466494249,1.979651623731964,-0.25653715422565915,1.1434640633960211,1.660946387091918,1,505,CW,hunter,10,202,hunt,er,18,1762,2.8903717578961645,7.47,4,6,AB
S106,0.5186469466494249,1.979651623731964,-0.25653715422565915,1.1434640633960211,1.660946387091918,1,625,CW,excitement,38,202,excite,ment,9,1924,2.1972245773362196,7.56,6,10,AB
S106,0.5186469466494249,1.979651623731964,-0.25653715422565915,1.1434640633960211,1.660946387091918,1,481,CW,cleaner,15,202,clean,er,29,2854,3.367295829986474,7.96,5,7,AB
S106,0.5186469466494249,1.979651623731964,-0.25653715422565915,1.1434640633960211,1.660946387091918,1,549,CW,dryness,42,202,dry,ness,19,2366,2.9444389791664403,7.77,3,7,AB
S106,0.5186469466494249,1.979651623731964,-0.25653715422565915,1.1434640633960211,1.660946387091918,1,531,CW,conductor,44,202,conduct,or,16,1084,2.772588722239781,6.99,7,9,AB
S106,0.5186469466494249,1.979651623731964,-0.25653715422565915,1.1434640633960211,1.660946387091918,1,531,CW,locker,8,202,lock,er,18,1654,2.8903717578961645,7.41,4,6,AB
S106,0.5186469466494249,1.979651623731964,-0.25653715422565915,1.1434640633960211,1.660946387091918,1,525,CW,costly,36,201,cost,ly,6,4215,1.791759469228055,8.35,4,6,AB
S106,0.5186469466494249,1.979651623731964,-0.25653715422565915,1.1434640633960211,1.660946387091918,1,680,CW,dreamer,12,202,dream,er,19,2325,2.9444389791664403,7.75,5,7,AB
S106,0.5186469466494249,1.979651623731964,-0.25653715422565915,1.1434640633960211,1.660946387091918,1,464,CW,laughing,27,202,laugh,ing,18,4181,2.8903717578961645,8.34,5,8,AB
S106,0.5186469466494249,1.979651623731964,-0.25653715422565915,1.1434640633960211,1.660946387091918,1,468,CW,deafness,39,202,deaf,ness,9,290,2.1972245773362196,5.67,4,8,AB
S106,0.5186469466494249,1.979651623731964,-0.25653715422565915,1.1434640633960211,1.660946387091918,1,479,CW,cooling,24,202,cool,ing,14,1434,2.6390573296152584,7.27,4,7,AB
S106,0.5186469466494249,1.979651623731964,-0.25653715422565915,1.1434640633960211,1.660946387091918,1,658,CW,swimmer,5,202,swim,er,11,1145,2.3978952727983707,7.04,4,7,AB
S106,0.5186469466494249,1.979651623731964,-0.25653715422565915,1.1434640633960211,1.660946387091918,1,503,CW,guilty,34,201,guilt,ly,7,1576,1.9459101490553132,7.36,5,6,AB
S106,0.5186469466494249,1.979651623731964,-0.25653715422565915,1.1434640633960211,1.660946387091918,1,562,CW,faithful,20,202,faith,ful,12,1320,2.4849066497880004,7.19,5,8,AB
S106,0.5186469466494249,1.979651623731964,-0.25653715422565915,1.1434640633960211,1.660946387091918,1,548,CW,bossy,49,201,boss,y,6,551,1.791759469228055,6.31,4,5,AB
S106,0.5186469466494249,1.979651623731964,-0.25653715422565915,1.1434640633960211,1.660946387091918,1,475,CW,magical,4,201,magic,al,5,1014,1.6094379124341003,6.92,5,7,AB
S106,0.5186469466494249,1.979651623731964,-0.25653715422565915,1.1434640633960211,1.660946387091918,1,682,CW,mildness,42,201,mild,ness,4,676,1.3862943611198906,6.52,4,8,AB
S106,0.5186469466494249,1.979651623731964,-0.25653715422565915,1.1434640633960211,1.660946387091918,1,421,CW,jumping,30,202,jump,jumping,15,1395,2.70805020110221,7.24,4,7,AB
S106,0.5186469466494249,1.979651623731964,-0.25653715422565915,1.1434640633960211,1.660946387091918,1,876,CW,toaster,10,201,toast,er,6,339,1.791759469228055,5.83,5,7,AB
S106,0.5186469466494249,1.979651623731964,-0.25653715422565915,1.1434640633960211,1.660946387091918,1,785,CW,planner,22,201,plan,er,4,5475,1.3862943611198906,8.61,4,7,AB
S106,0.5186469466494249,1.979651623731964,-0.25653715422565915,1.1434640633960211,1.660946387091918,1,501,CW,heater,16,202,heat,er,15,2881,2.70805020110221,7.97,4,6,AB
S106,0.5186469466494249,1.979651623731964,-0.25653715422565915,1.1434640633960211,1.660946387091918,1,892,CW,flexible,22,202,flex,ible,16,664,2.772588722239781,6.5,4,8,AB
S106,0.5186469466494249,1.979651623731964,-0.25653715422565915,1.1434640633960211,1.660946387091918,1,536,CW,madness,41,202,mad,ness,10,1298,2.302585092994046,7.17,3,7,AB
S106,0.5186469466494249,1.979651623731964,-0.25653715422565915,1.1434640633960211,1.660946387091918,1,718,CW,boldness,41,201,bold,ness,7,379,1.9459101490553132,5.94,4,8,AB
S106,0.5186469466494249,1.979651623731964,-0.25653715422565915,1.1434640633960211,1.660946387091918,1,706,CW,jailer,13,201,jail,er,5,678,1.6094379124341003,6.52,4,6,AB
S106,0.5186469466494249,1.979651623731964,-0.25653715422565915,1.1434640633960211,1.660946387091918,1,752,CW,teacher,23,201,teach,er,6,5662,1.791759469228055,8.64,5,7,AB
S106,0.5186469466494249,1.979651623731964,-0.25653715422565915,1.1434640633960211,1.660946387091918,1,758,CW,effortless,30,201,effort,less,4,2456,1.3862943611198906,7.81,6,10,AB
S106,0.5186469466494249,1.979651623731964,-0.25653715422565915,1.1434640633960211,1.660946387091918,1,734,CW,singer,17,201,sing,er,4,2186,1.3862943611198906,7.69,4,6,AB
S106,0.5186469466494249,1.979651623731964,-0.25653715422565915,1.1434640633960211,1.660946387091918,1,743,CW,amusement,38,201,amuse,ment,3,857,1.0986122886681098,6.75,5,9,AB
S106,0.5186469466494249,1.979651623731964,-0.25653715422565915,1.1434640633960211,1.660946387091918,1,734,CW,widowed,7,201,widow,ed,5,499,1.6094379124341003,6.21,5,7,AB
S106,0.5186469466494249,1.979651623731964,-0.25653715422565915,1.1434640633960211,1.660946387091918,1,508,CW,kicking,23,202,kick,ing,15,1012,2.70805020110221,6.92,4,7,AB
S106,0.5186469466494249,1.979651623731964,-0.25653715422565915,1.1434640633960211,1.660946387091918,1,817,CW,collector,46,202,collect,or,23,3221,3.1354942159291497,8.08,7,9,AB
S106,0.5186469466494249,1.979651623731964,-0.25653715422565915,1.1434640633960211,1.660946387091918,1,727,CW,awareness,44,201,aware,ness,4,2391,1.3862943611198906,7.78,5,9,AB
S106,0.5186469466494249,1.979651623731964,-0.25653715422565915,1.1434640633960211,1.660946387091918,1,847,CW,pusher,13,202,push,er,17,2507,2.833213344056216,7.83,4,6,AB
S106,0.5186469466494249,1.979651623731964,-0.25653715422565915,1.1434640633960211,1.660946387091918,1,572,CW,densely,32,201,dense,ly,7,655,1.9459101490553132,6.48,5,7,AB
S106,0.5186469466494249,1.979651623731964,-0.25653715422565915,1.1434640633960211,1.660946387091918,1,655,CW,strangeness,46,201,strange,ness,4,2912,1.3862943611198906,7.98,7,11,AB
S106,0.5186469466494249,1.979651623731964,-0.25653715422565915,1.1434640633960211,1.660946387091918,1,780,CW,richness,45,201,rich,ness,7,2868,1.9459101490553132,7.96,4,8,AB
S106,0.5186469466494249,1.979651623731964,-0.25653715422565915,1.1434640633960211,1.660946387091918,1,694,CW,professor,47,202,profess,pr,14,3563,2.6390573296152584,8.18,7,9,AB
S106,0.5186469466494249,1.979651623731964,-0.25653715422565915,1.1434640633960211,1.660946387091918,1,629,CW,buyer,21,201,buy,er,3,4386,1.0986122886681098,8.39,3,5,AB
S106,0.5186469466494249,1.979651623731964,-0.25653715422565915,1.1434640633960211,1.660946387091918,1,726,CW,boneless,34,202,bone,less,35,1490,3.5553480614894135,7.31,4,8,AB
S106,0.5186469466494249,1.979651623731964,-0.25653715422565915,1.1434640633960211,1.660946387091918,1,758,CW,enjoyment,40,201,enjoy,ment,4,2771,1.3862943611198906,7.93,5,9,AB
S106,0.5186469466494249,1.979651623731964,-0.25653715422565915,1.1434640633960211,1.660946387091918,1,598,CW,doubtful,21,202,doubt,ful,8,4135,2.0794415416798357,8.33,5,8,AB
S106,0.5186469466494249,1.979651623731964,-0.25653715422565915,1.1434640633960211,1.660946387091918,1,791,CW,avoidable,2,201,avoid,able,5,2172,1.6094379124341003,7.68,5,9,AB
S106,0.5186469466494249,1.979651623731964,-0.25653715422565915,1.1434640633960211,1.660946387091918,1,498,CW,dancer,11,202,dance,er,16,2003,2.772588722239781,7.6,5,6,AB
S106,0.5186469466494249,1.979651623731964,-0.25653715422565915,1.1434640633960211,1.660946387091918,1,769,CW,raider,12,201,raid,er,4,505,1.3862943611198906,6.22,4,6,AB
S106,0.5186469466494249,1.979651623731964,-0.25653715422565915,1.1434640633960211,1.660946387091918,1,854,CW,harmless,29,201,harm,less,7,1101,1.9459101490553132,7,4,8,AB
S106,0.5186469466494249,1.979651623731964,-0.25653715422565915,1.1434640633960211,1.660946387091918,1,679,CW,dullness,43,201,dull,ness,5,703,1.6094379124341003,6.56,4,8,AB
S106,0.5186469466494249,1.979651623731964,-0.25653715422565915,1.1434640633960211,1.660946387091918,1,580,CW,hugely,35,201,huge,ly,3,1918,1.0986122886681098,7.56,4,6,AB
S106,0.5186469466494249,1.979651623731964,-0.25653715422565915,1.1434640633960211,1.660946387091918,1,582,CW,wrongly,37,202,wrong,ly,12,3532,2.4849066497880004,8.17,5,7,AB
S106,0.5186469466494249,1.979651623731964,-0.25653715422565915,1.1434640633960211,1.660946387091918,1,551,CW,angelic,25,201,angel,ic,7,567,1.9459101490553132,6.34,5,7,AB
S106,0.5186469466494249,1.979651623731964,-0.25653715422565915,1.1434640633960211,1.660946387091918,1,690,CW,composer,6,202,compose,er,13,1187,2.5649493574615367,7.08,7,8,AB
S106,0.5186469466494249,1.979651623731964,-0.25653715422565915,1.1434640633960211,1.660946387091918,1,788,CW,listener,18,201,listen,er,4,3081,1.3862943611198906,8.03,6,8,AB
S106,0.5186469466494249,1.979651623731964,-0.25653715422565915,1.1434640633960211,1.660946387091918,1,539,CW,destroyer,14,201,destroy,er,3,1906,1.0986122886681098,7.55,7,9,AB
S106,0.5186469466494249,1.979651623731964,-0.25653715422565915,1.1434640633960211,1.660946387091918,1,618,CW,knocker,4,202,knock,er,15,1104,2.70805020110221,7.01,5,7,AB
S106,0.5186469466494249,1.979651623731964,-0.25653715422565915,1.1434640633960211,1.660946387091918,1,535,CW,guarding,26,202,guard,ing,28,2047,3.332204510175204,7.62,5,8,AB
S106,0.5186469466494249,1.979651623731964,-0.25653715422565915,1.1434640633960211,1.660946387091918,1,640,CW,shapely,35,202,shape,ly,12,1909,2.4849066497880004,7.55,5,7,AB
S106,0.5186469466494249,1.979651623731964,-0.25653715422565915,1.1434640633960211,1.660946387091918,1,718,CW,sailor,43,202,sail,or,17,740,2.833213344056216,6.61,4,6,AB
S106,0.5186469466494249,1.979651623731964,-0.25653715422565915,1.1434640633960211,1.660946387091918,1,521,CW,attacker,20,201,attack,er,6,3385,1.791759469228055,8.13,6,8,AB
S106,0.5186469466494249,1.979651623731964,-0.25653715422565915,1.1434640633960211,1.660946387091918,1,767,CW,thruster,24,201,thrust,er,4,584,1.3862943611198906,6.37,6,8,AB
S106,0.5186469466494249,1.979651623731964,-0.25653715422565915,1.1434640633960211,1.660946387091918,1,565,CW,bomber,7,202,bomb,er,24,1208,3.1780538303479458,7.1,4,6,AB
S106,0.5186469466494249,1.979651623731964,-0.25653715422565915,1.1434640633960211,1.660946387091918,1,486,CW,creamy,49,202,cream,y,10,792,2.302585092994046,6.67,5,6,AB
S106,0.5186469466494249,1.979651623731964,-0.25653715422565915,1.1434640633960211,1.660946387091918,1,576,CW,dietary,6,201,diet,ary,6,1181,1.791759469228055,7.07,4,7,AB
S106,0.5186469466494249,1.979651623731964,-0.25653715422565915,1.1434640633960211,1.660946387091918,1,577,CW,chilly,48,201,chill,y,7,488,1.9459101490553132,6.19,5,6,AB
S106,0.5186469466494249,1.979651623731964,-0.25653715422565915,1.1434640633960211,1.660946387091918,1,594,CW,tutoring,27,201,tutor,ing,5,499,1.6094379124341003,6.21,5,8,AB
S106,0.5186469466494249,1.979651623731964,-0.25653715422565915,1.1434640633960211,1.660946387091918,1,534,CW,risky,50,201,risk,y,5,1827,1.6094379124341003,7.51,4,5,AB
S106,0.5186469466494249,1.979651623731964,-0.25653715422565915,1.1434640633960211,1.660946387091918,1,647,CW,striker,17,202,strike,er,17,3414,2.833213344056216,8.14,6,7,AB
S106,0.5186469466494249,1.979651623731964,-0.25653715422565915,1.1434640633960211,1.660946387091918,1,570,CW,editor,45,202,edit,or,12,1298,2.4849066497880004,7.17,4,6,AB
S106,0.5186469466494249,1.979651623731964,-0.25653715422565915,1.1434640633960211,1.660946387091918,1,576,CW,renter,9,202,rent,er,13,1690,2.5649493574615367,7.43,4,6,AB
S106,0.5186469466494249,1.979651623731964,-0.25653715422565915,1.1434640633960211,1.660946387091918,1,564,CW,blindness,40,202,blind,ness,16,1024,2.772588722239781,6.93,5,9,AB
S106,0.5186469466494249,1.979651623731964,-0.25653715422565915,1.1434640633960211,1.660946387091918,1,589,CW,shameful,19,202,shame,ful,13,993,2.5649493574615367,6.9,5,8,AB
S106,0.5186469466494249,1.979651623731964,-0.25653715422565915,1.1434640633960211,1.660946387091918,1,696,CW,noticeable,3,201,notice,able,6,3426,1.791759469228055,8.14,6,10,AB
S106,0.5186469466494249,1.979651623731964,-0.25653715422565915,1.1434640633960211,1.660946387091918,1,555,CW,amazement,39,201,amaze,ment,4,878,1.3862943611198906,6.78,5,9,AB
S106,0.5186469466494249,1.979651623731964,-0.25653715422565915,1.1434640633960211,1.660946387091918,1,818,CW,feeder,14,202,feed,er,11,2806,2.3978952727983707,7.94,4,6,AB
S106,0.5186469466494249,1.979651623731964,-0.25653715422565915,1.1434640633960211,1.660946387091918,1,637,CW,seeker,16,201,seek,er,7,2155,1.9459101490553132,7.68,4,6,AB
S106,0.5186469466494249,1.979651623731964,-0.25653715422565915,1.1434640633960211,1.660946387091918,1,523,CW,quietly,36,202,quiet,ly,18,2691,2.8903717578961645,7.9,5,7,AB
S106,0.5186469466494249,1.979651623731964,-0.25653715422565915,1.1434640633960211,1.660946387091918,1,860,CW,lender,11,201,lend,er,3,505,1.0986122886681098,6.22,4,6,AB
S106,0.5186469466494249,1.979651623731964,-0.25653715422565915,1.1434640633960211,1.660946387091918,1,485,CW,painter,18,202,paint,er,17,3666,2.833213344056216,8.21,5,7,AB
S106,0.5186469466494249,1.979651623731964,-0.25653715422565915,1.1434640633960211,1.660946387091918,1,724,CW,bearded,8,201,beard,ed,7,578,1.9459101490553132,6.36,5,7,AB
S106,0.5186469466494249,1.979651623731964,-0.25653715422565915,1.1434640633960211,1.660946387091918,1,735,CW,stylish,29,202,style,ish,16,2119,2.772588722239781,7.66,5,7,AB
S106,0.5186469466494249,1.979651623731964,-0.25653715422565915,1.1434640633960211,1.660946387091918,1,955,CW,guileless,31,202,guile,less,9,61,2.1972245773362196,4.11,5,9,AB
S107,-0.5289171832167407,0.5526235981442584,-0.8316314340282359,-0.5704277789435946,0.9665754514310148,1,519,CW,dampish,28,202,damp,ish,11,621,2.3978952727983707,6.43,4,7,BA
S107,-0.5289171832167407,0.5526235981442584,-0.8316314340282359,-0.5704277789435946,0.9665754514310148,1,571,CW,shameful,19,202,shame,ful,13,993,2.5649493574615367,6.9,5,8,BA
S107,-0.5289171832167407,0.5526235981442584,-0.8316314340282359,-0.5704277789435946,0.9665754514310148,1,351,CW,magical,4,201,magic,al,5,1014,1.6094379124341003,6.92,5,7,BA
S107,-0.5289171832167407,0.5526235981442584,-0.8316314340282359,-0.5704277789435946,0.9665754514310148,1,327,CW,shapely,35,202,shape,ly,12,1909,2.4849066497880004,7.55,5,7,BA
S107,-0.5289171832167407,0.5526235981442584,-0.8316314340282359,-0.5704277789435946,0.9665754514310148,1,391,CW,costly,36,201,cost,ly,6,4215,1.791759469228055,8.35,4,6,BA
S107,-0.5289171832167407,0.5526235981442584,-0.8316314340282359,-0.5704277789435946,0.9665754514310148,1,444,CW,allowance,5,201,allow,ance,5,5014,1.6094379124341003,8.52,5,9,BA
S107,-0.5289171832167407,0.5526235981442584,-0.8316314340282359,-0.5704277789435946,0.9665754514310148,1,319,CW,renter,9,202,rent,er,13,1690,2.5649493574615367,7.43,4,6,BA
S107,-0.5289171832167407,0.5526235981442584,-0.8316314340282359,-0.5704277789435946,0.9665754514310148,1,392,CW,bossy,49,201,boss,y,6,551,1.791759469228055,6.31,4,5,BA
S107,-0.5289171832167407,0.5526235981442584,-0.8316314340282359,-0.5704277789435946,0.9665754514310148,1,357,CW,bootless,32,202,boot,less,19,940,2.9444389791664403,6.85,4,8,BA
S107,-0.5289171832167407,0.5526235981442584,-0.8316314340282359,-0.5704277789435946,0.9665754514310148,1,316,CW,composer,6,202,compose,er,13,1187,2.5649493574615367,7.08,7,8,BA
S107,-0.5289171832167407,0.5526235981442584,-0.8316314340282359,-0.5704277789435946,0.9665754514310148,1,397,CW,harmless,29,201,harm,less,7,1101,1.9459101490553132,7,4,8,BA
S107,-0.5289171832167407,0.5526235981442584,-0.8316314340282359,-0.5704277789435946,0.9665754514310148,1,302,CW,madness,41,202,mad,ness,10,1298,2.302585092994046,7.17,3,7,BA
S107,-0.5289171832167407,0.5526235981442584,-0.8316314340282359,-0.5704277789435946,0.9665754514310148,1,473,CW,dancer,11,202,dance,er,16,2003,2.772588722239781,7.6,5,6,BA
S107,-0.5289171832167407,0.5526235981442584,-0.8316314340282359,-0.5704277789435946,0.9665754514310148,1,389,CW,noticeable,3,201,notice,able,6,3426,1.791759469228055,8.14,6,10,BA
S107,-0.5289171832167407,0.5526235981442584,-0.8316314340282359,-0.5704277789435946,0.9665754514310148,1,484,CW,attacker,20,201,attack,er,6,3385,1.791759469228055,8.13,6,8,BA
S107,-0.5289171832167407,0.5526235981442584,-0.8316314340282359,-0.5704277789435946,0.9665754514310148,1,303,CW,insistent,9,201,insist,ent,5,1631,1.6094379124341003,7.4,6,9,BA
S107,-0.5289171832167407,0.5526235981442584,-0.8316314340282359,-0.5704277789435946,0.9665754514310148,1,517,CW,angelic,25,201,angel,ic,7,567,1.9459101490553132,6.34,5,7,BA
S107,-0.5289171832167407,0.5526235981442584,-0.8316314340282359,-0.5704277789435946,0.9665754514310148,1,385,CW,sailor,43,202,sail,or,17,740,2.833213344056216,6.61,4,6,BA
S107,-0.5289171832167407,0.5526235981442584,-0.8316314340282359,-0.5704277789435946,0.9665754514310148,1,392,CW,tossing,26,201,toss,ing,5,407,1.6094379124341003,6.01,4,7,BA
S107,-0.5289171832167407,0.5526235981442584,-0.8316314340282359,-0.5704277789435946,0.9665754514310148,1,417,CW,thruster,24,201,thrust,er,4,584,1.3862943611198906,6.37,6,8,BA
S107,-0.5289171832167407,0.5526235981442584,-0.8316314340282359,-0.5704277789435946,0.9665754514310148,1,467,CW,dullness,43,201,dull,ness,5,703,1.6094379124341003,6.56,4,8,BA
S107,-0.5289171832167407,0.5526235981442584,-0.8316314340282359,-0.5704277789435946,0.9665754514310148,1,490,CW,bomber,7,202,bomb,er,24,1208,3.1780538303479458,7.1,4,6,BA
S107,-0.5289171832167407,0.5526235981442584,-0.8316314340282359,-0.5704277789435946,0.9665754514310148,1,379,CW,dryness,42,202,dry,ness,19,2366,2.9444389791664403,7.77,3,7,BA
S107,-0.5289171832167407,0.5526235981442584,-0.8316314340282359,-0.5704277789435946,0.9665754514310148,1,431,CW,puncher,1,202,punch,er,17,325,2.833213344056216,5.78,5,7,BA
S107,-0.5289171832167407,0.5526235981442584,-0.8316314340282359,-0.5704277789435946,0.9665754514310148,1,452,CW,guarding,26,202,guard,ing,28,2047,3.332204510175204,7.62,5,8,BA
S107,-0.5289171832167407,0.5526235981442584,-0.8316314340282359,-0.5704277789435946,0.9665754514310148,1,430,CW,hunter,10,202,hunt,er,18,1762,2.8903717578961645,7.47,4,6,BA
S107,-0.5289171832167407,0.5526235981442584,-0.8316314340282359,-0.5704277789435946,0.9665754514310148,1,496,CW,boldness,41,201,bold,ness,7,379,1.9459101490553132,5.94,4,8,BA
S107,-0.5289171832167407,0.5526235981442584,-0.8316314340282359,-0.5704277789435946,0.9665754514310148,1,428,CW,peaking,28,201,peak,ing,6,546,1.791759469228055,6.3,4,7,BA
S107,-0.5289171832167407,0.5526235981442584,-0.8316314340282359,-0.5704277789435946,0.9665754514310148,1,421,CW,planner,22,201,plan,er,4,5475,1.3862943611198906,8.61,4,7,BA
S107,-0.5289171832167407,0.5526235981442584,-0.8316314340282359,-0.5704277789435946,0.9665754514310148,1,518,CW,editor,45,202,edit,or,12,1298,2.4849066497880004,7.17,4,6,BA
S107,-0.5289171832167407,0.5526235981442584,-0.8316314340282359,-0.5704277789435946,0.9665754514310148,1,433,CW,jumping,30,202,jump,jumping,15,1395,2.70805020110221,7.24,4,7,BA
S107,-0.5289171832167407,0.5526235981442584,-0.8316314340282359,-0.5704277789435946,0.9665754514310148,1,440,CW,parking,25,202,park,ing,9,1945,2.1972245773362196,7.57,4,7,BA
S107,-0.5289171832167407,0.5526235981442584,-0.8316314340282359,-0.5704277789435946,0.9665754514310148,1,487,CW,wrongly,37,202,wrong,ly,12,3532,2.4849066497880004,8.17,5,7,BA
S107,-0.5289171832167407,0.5526235981442584,-0.8316314340282359,-0.5704277789435946,0.9665754514310148,1,400,CW,seeker,16,201,seek,er,7,2155,1.9459101490553132,7.68,4,6,BA
S107,-0.5289171832167407,0.5526235981442584,-0.8316314340282359,-0.5704277789435946,0.9665754514310148,1,461,CW,enjoyment,40,201,enjoy,ment,4,2771,1.3862943611198906,7.93,5,9,BA
S107,-0.5289171832167407,0.5526235981442584,-0.8316314340282359,-0.5704277789435946,0.9665754514310148,1,563,CW,effortless,30,201,effort,less,4,2456,1.3862943611198906,7.81,6,10,BA
S107,-0.5289171832167407,0.5526235981442584,-0.8316314340282359,-0.5704277789435946,0.9665754514310148,1,445,CW,bearded,8,201,beard,ed,7,578,1.9459101490553132,6.36,5,7,BA
S107,-0.5289171832167407,0.5526235981442584,-0.8316314340282359,-0.5704277789435946,0.9665754514310148,1,540,CW,mildness,42,201,mild,ness,4,676,1.3862943611198906,6.52,4,8,BA
S107,-0.5289171832167407,0.5526235981442584,-0.8316314340282359,-0.5704277789435946,0.9665754514310148,1,421,CW,toaster,10,201,toast,er,6,339,1.791759469228055,5.83,5,7,BA
S107,-0.5289171832167407,0.5526235981442584,-0.8316314340282359,-0.5704277789435946,0.9665754514310148,1,381,CW,heater,16,202,heat,er,15,2881,2.70805020110221,7.97,4,6,BA
S107,-0.5289171832167407,0.5526235981442584,-0.8316314340282359,-0.5704277789435946,0.9665754514310148,1,555,CW,design,19,201,designer,er,7,3296,1.9459101490553132,8.1,8,6,BA
S107,-0.5289171832167407,0.5526235981442584,-0.8316314340282359,-0.5704277789435946,0.9665754514310148,1,352,CW,dreamer,12,202,dream,er,19,2325,2.9444389791664403,7.75,5,7,BA
S107,-0.5289171832167407,0.5526235981442584,-0.8316314340282359,-0.5704277789435946,0.9665754514310148,1,474,CW,buyer,21,201,buy,er,3,4386,1.0986122886681098,8.39,3,5,BA
S107,-0.5289171832167407,0.5526235981442584,-0.8316314340282359,-0.5704277789435946,0.9665754514310148,1,482,CW,excitement,38,202,excite,ment,9,1924,2.1972245773362196,7.56,6,10,BA
S107,-0.5289171832167407,0.5526235981442584,-0.8316314340282359,-0.5704277789435946,0.9665754514310148,1,410,CW,professor,47,202,profess,pr,14,3563,2.6390573296152584,8.18,7,9,BA
S107,-0.5289171832167407,0.5526235981442584,-0.8316314340282359,-0.5704277789435946,0.9665754514310148,1,302,CW,mossy,47,201,moss,y,3,149,1.0986122886681098,5,4,5,BA
S107,-0.5289171832167407,0.5526235981442584,-0.8316314340282359,-0.5704277789435946,0.9665754514310148,1,394,CW,locker,8,202,lock,er,18,1654,2.8903717578961645,7.41,4,6,BA
S107,-0.5289171832167407,0.5526235981442584,-0.8316314340282359,-0.5704277789435946,0.9665754514310148,1,485,CW,cleaner,15,202,clean,er,29,2854,3.367295829986474,7.96,5,7,BA
S107,-0.5289171832167407,0.5526235981442584,-0.8316314340282359,-0.5704277789435946,0.9665754514310148,1,450,CW,conductor,44,202,conduct,or,16,1084,2.772588722239781,6.99,7,9,BA
S107,-0.5289171832167407,0.5526235981442584,-0.8316314340282359,-0.5704277789435946,0.9665754514310148,1,673,CW,creamy,49,202,cream,y,10,792,2.302585092994046,6.67,5,6,BA
S107,-0.5289171832167407,0.5526235981442584,-0.8316314340282359,-0.5704277789435946,0.9665754514310148,1,533,CW,raider,12,201,raid,er,4,505,1.3862943611198906,6.22,4,6,BA
S107,-0.5289171832167407,0.5526235981442584,-0.8316314340282359,-0.5704277789435946,0.9665754514310148,1,568,CW,locally,37,201,local,ly,7,4485,1.9459101490553132,8.41,5,7,BA
S107,-0.5289171832167407,0.5526235981442584,-0.8316314340282359,-0.5704277789435946,0.9665754514310148,1,528,CW,boneless,34,202,bone,less,35,1490,3.5553480614894135,7.31,4,8,BA
S107,-0.5289171832167407,0.5526235981442584,-0.8316314340282359,-0.5704277789435946,0.9665754514310148,1,378,CW,quietly,36,202,quiet,ly,18,2691,2.8903717578961645,7.9,5,7,BA
S107,-0.5289171832167407,0.5526235981442584,-0.8316314340282359,-0.5704277789435946,0.9665754514310148,1,461,CW,kicking,23,202,kick,ing,15,1012,2.70805020110221,6.92,4,7,BA
S107,-0.5289171832167407,0.5526235981442584,-0.8316314340282359,-0.5704277789435946,0.9665754514310148,1,345,CW,collector,46,202,collect,or,23,3221,3.1354942159291497,8.08,7,9,BA
S107,-0.5289171832167407,0.5526235981442584,-0.8316314340282359,-0.5704277789435946,0.9665754514310148,1,734,CW,dietary,6,201,diet,ary,6,1181,1.791759469228055,7.07,4,7,BA
S107,-0.5289171832167407,0.5526235981442584,-0.8316314340282359,-0.5704277789435946,0.9665754514310148,1,439,CW,knocker,4,202,knock,er,15,1104,2.70805020110221,7.01,5,7,BA
S107,-0.5289171832167407,0.5526235981442584,-0.8316314340282359,-0.5704277789435946,0.9665754514310148,1,541,CW,strangeness,46,201,strange,ness,4,2912,1.3862943611198906,7.98,7,11,BA
S107,-0.5289171832167407,0.5526235981442584,-0.8316314340282359,-0.5704277789435946,0.9665754514310148,1,488,CW,chilly,48,201,chill,y,7,488,1.9459101490553132,6.19,5,6,BA
S107,-0.5289171832167407,0.5526235981442584,-0.8316314340282359,-0.5704277789435946,0.9665754514310148,1,404,CW,richness,45,201,rich,ness,7,2868,1.9459101490553132,7.96,4,8,BA
S107,-0.5289171832167407,0.5526235981442584,-0.8316314340282359,-0.5704277789435946,0.9665754514310148,1,667,CW,risky,50,201,risk,y,5,1827,1.6094379124341003,7.51,4,5,BA
S107,-0.5289171832167407,0.5526235981442584,-0.8316314340282359,-0.5704277789435946,0.9665754514310148,1,892,CW,singer,17,201,sing,er,4,2186,1.3862943611198906,7.69,4,6,BA
S107,-0.5289171832167407,0.5526235981442584,-0.8316314340282359,-0.5704277789435946,0.9665754514310148,1,578,CW,lender,11,201,lend,er,3,505,1.0986122886681098,6.22,4,6,BA
S107,-0.5289171832167407,0.5526235981442584,-0.8316314340282359,-0.5704277789435946,0.9665754514310148,1,491,CW,speller,3,202,spell,er,10,781,2.302585092994046,6.66,5,7,BA
S107,-0.5289171832167407,0.5526235981442584,-0.8316314340282359,-0.5704277789435946,0.9665754514310148,1,479,CW,neatly,33,201,neat,ly,3,924,1.0986122886681098,6.83,4,6,BA
S107,-0.5289171832167407,0.5526235981442584,-0.8316314340282359,-0.5704277789435946,0.9665754514310148,1,380,CW,painter,18,202,paint,er,17,3666,2.833213344056216,8.21,5,7,BA
S107,-0.5289171832167407,0.5526235981442584,-0.8316314340282359,-0.5704277789435946,0.9665754514310148,1,416,CW,avoidable,2,201,avoid,able,5,2172,1.6094379124341003,7.68,5,9,BA
S107,-0.5289171832167407,0.5526235981442584,-0.8316314340282359,-0.5704277789435946,0.9665754514310148,1,565,CW,campaigner,15,201,campaign,er,3,2003,1.0986122886681098,7.6,8,10,BA
S107,-0.5289171832167407,0.5526235981442584,-0.8316314340282359,-0.5704277789435946,0.9665754514310148,1,659,CW,destroyer,14,201,destroy,er,3,1906,1.0986122886681098,7.55,7,9,BA
S107,-0.5289171832167407,0.5526235981442584,-0.8316314340282359,-0.5704277789435946,0.9665754514310148,1,630,CW,amusement,38,201,amuse,ment,3,857,1.0986122886681098,6.75,5,9,BA
S107,-0.5289171832167407,0.5526235981442584,-0.8316314340282359,-0.5704277789435946,0.9665754514310148,1,437,CW,jailer,13,201,jail,er,5,678,1.6094379124341003,6.52,4,6,BA
S107,-0.5289171832167407,0.5526235981442584,-0.8316314340282359,-0.5704277789435946,0.9665754514310148,1,398,CW,cloudless,33,202,cloud,less,14,1181,2.6390573296152584,7.07,5,9,BA
S107,-0.5289171832167407,0.5526235981442584,-0.8316314340282359,-0.5704277789435946,0.9665754514310148,1,635,CW,guilty,34,201,guilt,ly,7,1576,1.9459101490553132,7.36,5,6,BA
S107,-0.5289171832167407,0.5526235981442584,-0.8316314340282359,-0.5704277789435946,0.9665754514310148,1,504,CW,swimmer,5,202,swim,er,11,1145,2.3978952727983707,7.04,4,7,BA
S107,-0.5289171832167407,0.5526235981442584,-0.8316314340282359,-0.5704277789435946,0.9665754514310148,1,528,CW,weedy,48,202,weed,y,17,729,2.833213344056216,6.59,4,5,BA
S107,-0.5289171832167407,0.5526235981442584,-0.8316314340282359,-0.5704277789435946,0.9665754514310148,1,414,CW,awareness,44,201,aware,ness,4,2391,1.3862943611198906,7.78,5,9,BA
S107,-0.5289171832167407,0.5526235981442584,-0.8316314340282359,-0.5704277789435946,0.9665754514310148,1,499,CW,striker,17,202,strike,er,17,3414,2.833213344056216,8.14,6,7,BA
S107,-0.5289171832167407,0.5526235981442584,-0.8316314340282359,-0.5704277789435946,0.9665754514310148,1,531,CW,detectable,1,201,detect,able,7,982,1.9459101490553132,6.89,6,10,BA
S107,-0.5289171832167407,0.5526235981442584,-0.8316314340282359,-0.5704277789435946,0.9665754514310148,1,339,CW,barker,2,202,bark,er,8,387,2.0794415416798357,5.96,4,6,BA
S107,-0.5289171832167407,0.5526235981442584,-0.8316314340282359,-0.5704277789435946,0.9665754514310148,1,520,CW,deafness,39,202,deaf,ness,9,290,2.1972245773362196,5.67,4,8,BA
S107,-0.5289171832167407,0.5526235981442584,-0.8316314340282359,-0.5704277789435946,0.9665754514310148,1,486,CW,verbal,50,202,verb,al,22,423,3.091042453358316,6.05,4,6,BA
S107,-0.5289171832167407,0.5526235981442584,-0.8316314340282359,-0.5704277789435946,0.9665754514310148,1,521,CW,tutoring,27,201,tutor,ing,5,499,1.6094379124341003,6.21,5,8,BA
S107,-0.5289171832167407,0.5526235981442584,-0.8316314340282359,-0.5704277789435946,0.9665754514310148,1,535,CW,guileless,31,202,guile,less,9,61,2.1972245773362196,4.11,5,9,BA
S107,-0.5289171832167407,0.5526235981442584,-0.8316314340282359,-0.5704277789435946,0.9665754514310148,1,440,CW,cooling,24,202,cool,ing,14,1434,2.6390573296152584,7.27,4,7,BA
S107,-0.5289171832167407,0.5526235981442584,-0.8316314340282359,-0.5704277789435946,0.9665754514310148,1,385,CW,faithful,20,202,faith,ful,12,1320,2.4849066497880004,7.19,5,8,BA
S107,-0.5289171832167407,0.5526235981442584,-0.8316314340282359,-0.5704277789435946,0.9665754514310148,1,532,CW,flexible,22,202,flex,ible,16,664,2.772588722239781,6.5,4,8,BA
S107,-0.5289171832167407,0.5526235981442584,-0.8316314340282359,-0.5704277789435946,0.9665754514310148,1,407,CW,amazement,39,201,amaze,ment,4,878,1.3862943611198906,6.78,5,9,BA
S108,0.16945890336070296,0.7111822676540035,0.126859032309392,0.5356671982631784,0.521231925261265,1,632,CW,insistent,9,201,insist,ent,5,1631,1.6094379124341003,7.4,6,9,AB
S108,0.16945890336070296,0.7111822676540035,0.126859032309392,0.5356671982631784,0.521231925261265,1,599,CW,guarding,26,202,guard,ing,28,2047,3.332204510175204,7.62,5,8,AB
S108,0.16945890336070296,0.7111822676540035,0.126859032309392,0.5356671982631784,0.521231925261265,1,673,CW,stylish,29,202,style,ish,16,2119,2.772588722239781,7.66,5,7,AB
S108,0.16945890336070296,0.7111822676540035,0.126859032309392,0.5356671982631784,0.521231925261265,1,937,CW,cloudless,33,202,cloud,less,14,1181,2.6390573296152584,7.07,5,9,AB
S108,0.16945890336070296,0.7111822676540035,0.126859032309392,0.5356671982631784,0.521231925261265,1,564,CW,boneless,34,202,bone,less,35,1490,3.5553480614894135,7.31,4,8,AB
S108,0.16945890336070296,0.7111822676540035,0.126859032309392,0.5356671982631784,0.521231925261265,1,519,CW,mossy,47,201,moss,y,3,149,1.0986122886681098,5,4,5,AB
S108,0.16945890336070296,0.7111822676540035,0.126859032309392,0.5356671982631784,0.521231925261265,1,494,CW,boldness,41,201,bold,ness,7,379,1.9459101490553132,5.94,4,8,AB
S108,0.16945890336070296,0.7111822676540035,0.126859032309392,0.5356671982631784,0.521231925261265,1,602,CW,widowed,7,201,widow,ed,5,499,1.6094379124341003,6.21,5,7,AB
S108,0.16945890336070296,0.7111822676540035,0.126859032309392,0.5356671982631784,0.521231925261265,1,595,CW,speller,3,202,spell,er,10,781,2.302585092994046,6.66,5,7,AB
S108,0.16945890336070296,0.7111822676540035,0.126859032309392,0.5356671982631784,0.521231925261265,1,578,CW,feeder,14,202,feed,er,11,2806,2.3978952727983707,7.94,4,6,AB
S108,0.16945890336070296,0.7111822676540035,0.126859032309392,0.5356671982631784,0.521231925261265,1,625,CW,hugely,35,201,huge,ly,3,1918,1.0986122886681098,7.56,4,6,AB
S108,0.16945890336070296,0.7111822676540035,0.126859032309392,0.5356671982631784,0.521231925261265,1,611,CW,doubtful,21,202,doubt,ful,8,4135,2.0794415416798357,8.33,5,8,AB
S108,0.16945890336070296,0.7111822676540035,0.126859032309392,0.5356671982631784,0.521231925261265,1,616,CW,flexible,22,202,flex,ible,16,664,2.772588722239781,6.5,4,8,AB
S108,0.16945890336070296,0.7111822676540035,0.126859032309392,0.5356671982631784,0.521231925261265,1,602,CW,shameful,19,202,shame,ful,13,993,2.5649493574615367,6.9,5,8,AB
S108,0.16945890336070296,0.7111822676540035,0.126859032309392,0.5356671982631784,0.521231925261265,1,560,CW,dryness,42,202,dry,ness,19,2366,2.9444389791664403,7.77,3,7,AB
S108,0.16945890336070296,0.7111822676540035,0.126859032309392,0.5356671982631784,0.521231925261265,1,763,CW,parking,25,202,park,ing,9,1945,2.1972245773362196,7.57,4,7,AB
S108,0.16945890336070296,0.7111822676540035,0.126859032309392,0.5356671982631784,0.521231925261265,1,461,CW,bomber,7,202,bomb,er,24,1208,3.1780538303479458,7.1,4,6,AB
S108,0.16945890336070296,0.7111822676540035,0.126859032309392,0.5356671982631784,0.521231925261265,1,681,CW,quietly,36,202,quiet,ly,18,2691,2.8903717578961645,7.9,5,7,AB
S108,0.16945890336070296,0.7111822676540035,0.126859032309392,0.5356671982631784,0.521231925261265,1,691,CW,thruster,24,201,thrust,er,4,584,1.3862943611198906,6.37,6,8,AB
S108,0.16945890336070296,0.7111822676540035,0.126859032309392,0.5356671982631784,0.521231925261265,1,505,CW,noticeable,3,201,notice,able,6,3426,1.791759469228055,8.14,6,10,AB
S108,0.16945890336070296,0.7111822676540035,0.126859032309392,0.5356671982631784,0.521231925261265,1,576,CW,amazement,39,201,amaze,ment,4,878,1.3862943611198906,6.78,5,9,AB
S108,0.16945890336070296,0.7111822676540035,0.126859032309392,0.5356671982631784,0.521231925261265,1,556,CW,allowance,5,201,allow,ance,5,5014,1.6094379124341003,8.52,5,9,AB
S108,0.16945890336070296,0.7111822676540035,0.126859032309392,0.5356671982631784,0.521231925261265,1,484,CW,creamy,49,202,cream,y,10,792,2.302585092994046,6.67,5,6,AB
S108,0.16945890336070296,0.7111822676540035,0.126859032309392,0.5356671982631784,0.521231925261265,1,509,CW,toaster,10,201,toast,er,6,339,1.791759469228055,5.83,5,7,AB
S108,0.16945890336070296,0.7111822676540035,0.126859032309392,0.5356671982631784,0.521231925261265,1,552,CW,deafness,39,202,deaf,ness,9,290,2.1972245773362196,5.67,4,8,AB
S108,0.16945890336070296,0.7111822676540035,0.126859032309392,0.5356671982631784,0.521231925261265,1,611,CW,weedy,48,202,weed,y,17,729,2.833213344056216,6.59,4,5,AB
S108,0.16945890336070296,0.7111822676540035,0.126859032309392,0.5356671982631784,0.521231925261265,1,472,CW,enjoyment,40,201,enjoy,ment,4,2771,1.3862943611198906,7.93,5,9,AB
S108,0.16945890336070296,0.7111822676540035,0.126859032309392,0.5356671982631784,0.521231925261265,1,617,CW,dietary,6,201,diet,ary,6,1181,1.791759469228055,7.07,4,7,AB
S108,0.16945890336070296,0.7111822676540035,0.126859032309392,0.5356671982631784,0.521231925261265,1,713,CW,campaigner,15,201,campaign,er,3,2003,1.0986122886681098,7.6,8,10,AB
S108,0.16945890336070296,0.7111822676540035,0.126859032309392,0.5356671982631784,0.521231925261265,1,524,CW,bearded,8,201,beard,ed,7,578,1.9459101490553132,6.36,5,7,AB
S108,0.16945890336070296,0.7111822676540035,0.126859032309392,0.5356671982631784,0.521231925261265,1,525,CW,locker,8,202,lock,er,18,1654,2.8903717578961645,7.41,4,6,AB
S108,0.16945890336070296,0.7111822676540035,0.126859032309392,0.5356671982631784,0.521231925261265,1,726,CW,raider,12,201,raid,er,4,505,1.3862943611198906,6.22,4,6,AB
S108,0.16945890336070296,0.7111822676540035,0.126859032309392,0.5356671982631784,0.521231925261265,1,520,CW,planner,22,201,plan,er,4,5475,1.3862943611198906,8.61,4,7,AB
S108,0.16945890336070296,0.7111822676540035,0.126859032309392,0.5356671982631784,0.521231925261265,1,388,CW,buyer,21,201,buy,er,3,4386,1.0986122886681098,8.39,3,5,AB
S108,0.16945890336070296,0.7111822676540035,0.126859032309392,0.5356671982631784,0.521231925261265,1,490,CW,puncher,1,202,punch,er,17,325,2.833213344056216,5.78,5,7,AB
S108,0.16945890336070296,0.7111822676540035,0.126859032309392,0.5356671982631784,0.521231925261265,1,833,CW,jumping,30,202,jump,jumping,15,1395,2.70805020110221,7.24,4,7,AB
S108,0.16945890336070296,0.7111822676540035,0.126859032309392,0.5356671982631784,0.521231925261265,1,757,CW,blindness,40,202,blind,ness,16,1024,2.772588722239781,6.93,5,9,AB
S108,0.16945890336070296,0.7111822676540035,0.126859032309392,0.5356671982631784,0.521231925261265,1,560,CW,composer,6,202,compose,er,13,1187,2.5649493574615367,7.08,7,8,AB
S108,0.16945890336070296,0.7111822676540035,0.126859032309392,0.5356671982631784,0.521231925261265,1,606,CW,editor,45,202,edit,or,12,1298,2.4849066497880004,7.17,4,6,AB
S108,0.16945890336070296,0.7111822676540035,0.126859032309392,0.5356671982631784,0.521231925261265,1,438,CW,laughing,27,202,laugh,ing,18,4181,2.8903717578961645,8.34,5,8,AB
S108,0.16945890336070296,0.7111822676540035,0.126859032309392,0.5356671982631784,0.521231925261265,1,482,CW,avoidable,2,201,avoid,able,5,2172,1.6094379124341003,7.68,5,9,AB
S108,0.16945890336070296,0.7111822676540035,0.126859032309392,0.5356671982631784,0.521231925261265,1,504,CW,richness,45,201,rich,ness,7,2868,1.9459101490553132,7.96,4,8,AB
S108,0.16945890336070296,0.7111822676540035,0.126859032309392,0.5356671982631784,0.521231925261265,1,487,CW,harmless,29,201,harm,less,7,1101,1.9459101490553132,7,4,8,AB
S108,0.16945890336070296,0.7111822676540035,0.126859032309392,0.5356671982631784,0.521231925261265,1,466,CW,verbal,50,202,verb,al,22,423,3.091042453358316,6.05,4,6,AB
S108,0.16945890336070296,0.7111822676540035,0.126859032309392,0.5356671982631784,0.521231925261265,1,423,CW,madness,41,202,mad,ness,10,1298,2.302585092994046,7.17,3,7,AB
S108,0.16945890336070296,0.7111822676540035,0.126859032309392,0.5356671982631784,0.521231925261265,1,650,CW,seeker,16,201,seek,er,7,2155,1.9459101490553132,7.68,4,6,AB
S108,0.16945890336070296,0.7111822676540035,0.126859032309392,0.5356671982631784,0.521231925261265,1,579,CW,detectable,1,201,detect,able,7,982,1.9459101490553132,6.89,6,10,AB
