"ITI","acc","accuracy","average_response_time","avg_rt","background","bidi","canvas_backend","clock_backend","color_backend","compensation","cond_trig","condtrigtime","coordinates","coroutines_cycles","coroutines_duration","coroutines_mean_cycle_duration","correct","correct_instructions_1","correct_new_keyboard_response_1","count_AB_m21","count_ITI","count_blank_screen","count_blink_screen","count_block1","count_break1","count_break2","count_break3_1","count_canvas","count_correct_trigger","count_def_chain","count_end_screen","count_fixation_1","count_getting_started","count_inc_counter","count_incorrect_trigger","count_instructions_1","count_logger","count_logscript","count_new_coroutines","count_new_inline_script","count_new_keyboard_response_1","count_reset_counter_prep","count_reset_counter_run","count_responsescreen","count_sequence","count_start_trigger","count_target_present","count_word_trigger","counter","cresp","datetime","description","disable_garbage_collection","experiment_file","experiment_path","font_bold","font_family","font_italic","font_size","font_underline","foreground","form_clicks","fullscreen","height","keyboard_backend","live_row","live_row_block1","logfile","mouse_backend","opensesame_codename","opensesame_version","repeat_cycle","response","response_break1","response_break2","response_break3_1","response_end_screen","response_instructions_1","response_new_keyboard_response_1","response_time","response_time_break1","response_time_break2","response_time_break3_1","response_time_end_screen","response_time_instructions_1","response_time_new_keyboard_response_1","round_decimals","sampler_backend","sound_buf_size","sound_channels","sound_freq","sound_sample_size","start","subject_nr","subject_parity","targ_type","target","time_AB_m21","time_ITI","time_blank_screen","time_blink_screen","time_block1","time_break1","time_break2","time_break3_1","time_canvas","time_correct_trigger","time_def_chain","time_end_screen","time_fixation_1","time_getting_started","time_inc_counter","time_incorrect_trigger","time_instructions_1","time_logger","time_logscript","time_new_inline_script","time_new_keyboard_response_1","time_reset_counter_prep","time_reset_counter_run","time_responsescreen","time_sequence","time_start_trigger","time_target_present","time_word_trigger","title","total_correct","total_response_time","total_responses","uniform_coordinates","width","word_trig"
"300","0","0","995","995","black","no","xpyriment","legacy","legacy","0","201","NA","uniform","54932","1000","0.0182043253477","0","undefined","0","0","0","0","0","0","0","0","0","NA","0","0","0","0","NA","0","0","0","0","NA","0","NA","0","0","0","0","0","0","0","0","1","/","09/19/17 15:43:22","The main experiment item","yes","FIN__AB__M21__7%3A10%3A17.osexp","C:\Users\ERP Testing Room\Desktop\Joanna\morph21","no","mono","no","18","no","white","no","yes","1080","legacy","0","0","C:/Users/ERP Testing Room/Desktop/Joanna/morph21/subject-101.csv","xpyriment","Jazzy James","3.1.4","0","None","NA","NA","NA","NA","/","None","995","NA","NA","NA","NA","214968","995","2","legacy","1024","2","48000","-16","AB_m21","101","odd","CW_S","MAGICAL","1378","219167","217584","NA","216356","NA","NA","NA","NA","NA","218081","NA","217078","NA","217009","219162","1387","219467","NA","NA","218167","1378","1378","218567","217009","1378","218167","219467","morph21_Oliver/Morris","0","995","1","yes","1280","4"
"350","50","50","924.5","924.5","black","no","xpyriment","legacy","legacy","0","207","NA","uniform","57011","1000","0.0175404746452","1","undefined","1","0","1","1","1","0","1","1","1","NA","1","1","0","1","NA","1","1","0","1","NA","1","NA","1","0","0","1","1","0","1","1","2","/","09/19/17 15:43:22","The main experiment item","yes","FIN__AB__M21__7%3A10%3A17.osexp","C:\Users\ERP Testing Room\Desktop\Joanna\morph21","no","mono","no","18","no","white","no","yes","1080","legacy","1","1","C:/Users/ERP Testing Room/Desktop/Joanna/morph21/subject-101.csv","xpyriment","Jazzy James","3.1.4","0","/","NA","NA","NA","NA","/","/","854","NA","NA","NA","NA","214968","854","2","legacy","1024","2","48000","-16","AB_m21","101","odd","FILL_W","WEIRD","1378","222317","220742","NA","216356","NA","NA","NA","NA","222307","221239","NA","220242","NA","220239","222307","1387","222667","NA","NA","221317","1378","1378","221709","220239","1378","221317","222667","morph21_Oliver/Morris","1","1849","2","yes","1280","2"
"350","66.6666666667","66.6666666667","797.666666667","797.666666667","black","no","xpyriment","legacy","legacy","0","201","NA","uniform","70635","1000","0.0141572874637","1","undefined","1","0","2","2","2","0","2","2","2","NA","2","2","0","2","NA","2","2","0","2","NA","2","NA","2","0","0","2","2","0","2","2","3","/","09/19/17 15:43:22","The main experiment item","yes","FIN__AB__M21__7%3A10%3A17.osexp","C:\Users\ERP Testing Room\Desktop\Joanna\morph21","no","mono","no","18","no","white","no","yes","1080","legacy","2","2","C:/Users/ERP Testing Room/Desktop/Joanna/morph21/subject-101.csv","xpyriment","Jazzy James","3.1.4","0","/","NA","NA","NA","NA","/","/","544","NA","NA","NA","NA","214968","544","2","legacy","1024","2","48000","-16","AB_m21","101","odd","CW_S","SINGER","1378","226967","223875","225459","216356","NA","NA","NA","NA","225455","224373","NA","223376","NA","223369","225455","1387","227317","NA","NA","224459","1378","1378","224859","223368","1378","224459","227317","morph21_Oliver/Morris","2","2393","3","yes","1280","17"
"400","50","50","847.25","847.25","black","no","xpyriment","legacy","legacy","0","208","NA","uniform","54944","1000","0.0182003494467","0","undefined","0","0","3","3","3","0","3","3","3","NA","3","3","0","3","NA","3","3","0","3","NA","3","NA","3","0","0","3","3","0","3","3","4","z","09/19/17 15:43:22","The main experiment item","yes","FIN__AB__M21__7%3A10%3A17.osexp","C:\Users\ERP Testing Room\Desktop\Joanna\morph21","no","mono","no","18","no","white","no","yes","1080","legacy","3","3","C:/Users/ERP Testing Room/Desktop/Joanna/morph21/subject-101.csv","xpyriment","Jazzy James","3.1.4","0","None","NA","NA","NA","NA","/","None","996","NA","NA","NA","NA","214968","996","2","legacy","1024","2","48000","-16","AB_m21","101","odd","FILL_NW","BALFS","1378","230126","228534","225459","216356","NA","NA","NA","NA","225455","229031","NA","228034","NA","228029","230122","1387","230526","NA","NA","229126","1378","1378","229526","228029","1378","229126","230526","morph21_Oliver/Morris","2","3389","4","yes","1280","2"
"200","40","40","875.8","875.8","black","no","xpyriment","legacy","legacy","0","203","NA","uniform","48776","1000","0.0205018861735","0","undefined","0","0","4","4","4","0","4","4","4","NA","4","4","0","4","NA","4","4","0","4","NA","4","NA","4","0","0","4","4","0","4","4","5","z","09/19/17 15:43:22","The main experiment item","yes","FIN__AB__M21__7%3A10%3A17.osexp","C:\Users\ERP Testing Room\Desktop\Joanna\morph21","no","mono","no","18","no","white","no","yes","1080","legacy","4","4","C:/Users/ERP Testing Room/Desktop/Joanna/morph21/subject-101.csv","xpyriment","Jazzy James","3.1.4","0","None","NA","NA","NA","NA","/","None","990","NA","NA","NA","NA","214968","990","2","legacy","1024","2","48000","-16","AB_m21","101","odd","NW_S_COMP","PILLIZE","1378","233377","231752","225459","216356","NA","NA","NA","NA","225455","232249","NA","231252","NA","231241","233367","1387","233577","NA","NA","232377","1378","1378","232769","231241","1378","232377","233577","morph21_Oliver/Morris","2","4379","5","yes","1280","13"
"400","33.3333333333","33.3333333333","895.833333333","895.833333333","black","no","xpyriment","legacy","legacy","0","205","NA","uniform","53006","1000","0.0188657887786","0","undefined","0","0","5","5","5","0","5","5","5","NA","5","5","0","5","NA","5","5","0","5","NA","5","NA","5","0","0","5","5","0","5","5","6","z","09/19/17 15:43:22","The main experiment item","yes","FIN__AB__M21__7%3A10%3A17.osexp","C:\Users\ERP Testing Room\Desktop\Joanna\morph21","no","mono","no","18","no","white","no","yes","1080","legacy","5","5","C:/Users/ERP Testing Room/Desktop/Joanna/morph21/subject-101.csv","xpyriment","Jazzy James","3.1.4","0","None","NA","NA","NA","NA","/","None","996","NA","NA","NA","NA","214968","996","2","legacy","1024","2","48000","-16","AB_m21","101","odd","NW_S_SIMP","AIDIG","1378","237902","234794","236394","216356","NA","NA","NA","NA","225455","235291","NA","234294","NA","234289","236390","1387","238302","NA","NA","235394","1378","1378","235794","234289","1378","235394","238302","morph21_Oliver/Morris","2","5375","6","yes","1280","4"
"400","28.5714285714","28.5714285714","873.142857143","873.142857143","black","no","xpyriment","legacy","legacy","0","204","NA","uniform","63105","1000","0.0158466048649","0","undefined","0","0","6","6","6","0","6","6","6","NA","6","6","0","6","NA","6","6","0","6","NA","6","NA","6","0","0","6","6","0","6","6","7","z","09/19/17 15:43:22","The main experiment item","yes","FIN__AB__M21__7%3A10%3A17.osexp","C:\Users\ERP Testing Room\Desktop\Joanna\morph21","no","mono","no","18","no","white","no","yes","1080","legacy","6","6","C:/Users/ERP Testing Room/Desktop/Joanna/morph21/subject-101.csv","xpyriment","Jazzy James","3.1.4","0","/","NA","NA","NA","NA","/","/","737","NA","NA","NA","NA","214968","737","2","legacy","1024","2","48000","-16","AB_m21","101","odd","NW_L_COMP","ANGELISH","1378","241194","239586","236394","216356","NA","NA","NA","NA","225455","240083","NA","239086","NA","239080","241188","1387","241594","NA","NA","240194","1378","1378","240586","239080","1378","240194","241594","morph21_Oliver/Morris","2","6112","7","yes","1280","7"
"400","37.5","37.5","865.25","865.25","black","no","xpyriment","legacy","legacy","0","202","NA","uniform","61013","1000","0.0163899496829","1","undefined","1","0","7","7","7","0","7","7","7","NA","7","7","0","7","NA","7","7","0","7","NA","7","NA","7","0","0","7","7","0","7","7","8","/","09/19/17 15:43:22","The main experiment item","yes","FIN__AB__M21__7%3A10%3A17.osexp","C:\Users\ERP Testing Room\Desktop\Joanna\morph21","no","mono","no","18","no","white","no","yes","1080","legacy","7","7","C:/Users/ERP Testing Room/Desktop/Joanna/morph21/subject-101.csv","xpyriment","Jazzy James","3.1.4","0","/","NA","NA","NA","NA","/","/","810","NA","NA","NA","NA","214968","810","2","legacy","1024","2","48000","-16","AB_m21","101","odd","CW_L","COOLING","1378","244369","242786","236394","216356","NA","NA","NA","NA","244366","243283","NA","242286","NA","242281","244366","1387","244769","NA","NA","243369","1378","1378","243769","242281","1378","243369","244769","morph21_Oliver/Morris","3","6922","8","yes","1280","24"
"200","33.3333333333","33.3333333333","837","837","black","no","xpyriment","legacy","legacy","0","208","NA","uniform","74176","1000","0.0134814495255","0","undefined","0","0","8","8","8","0","8","8","8","NA","8","8","0","8","NA","8","8","0","8","NA","8","NA","8","0","0","8","8","0","8","8","9","z","09/19/17 15:43:22","The main experiment item","yes","FIN__AB__M21__7%3A10%3A17.osexp","C:\Users\ERP Testing Room\Desktop\Joanna\morph21","no","mono","no","18","no","white","no","yes","1080","legacy","8","8","C:/Users/ERP Testing Room/Desktop/Joanna/morph21/subject-101.csv","xpyriment","Jazzy James","3.1.4","0","/","NA","NA","NA","NA","/","/","611","NA","NA","NA","NA","214968","611","2","legacy","1024","2","48000","-16","AB_m21","101","odd","FILL_NW","HESK","1378","249045","245952","247536","216356","NA","NA","NA","NA","244366","246450","NA","245453","NA","245441","247530","1387","249246","NA","NA","246536","1378","1378","246927","245441","1378","246536","249246","morph21_Oliver/Morris","3","7533","9","yes","1280","29"
"200","30","30","852.9","852.9","black","no","xpyriment","legacy","legacy","0","208","NA","uniform","54129","1000","0.0184743852648","0","undefined","0","0","9","9","9","0","9","9","9","NA","9","9","0","9","NA","9","9","0","9","NA","9","NA","9","0","0","9","9","0","9","9","10","z","09/19/17 15:43:22","The main experiment item","yes","FIN__AB__M21__7%3A10%3A17.osexp","C:\Users\ERP Testing Room\Desktop\Joanna\morph21","no","mono","no","18","no","white","no","yes","1080","legacy","9","9","C:/Users/ERP Testing Room/Desktop/Joanna/morph21/subject-101.csv","xpyriment","Jazzy James","3.1.4","0","None","NA","NA","NA","NA","/","None","996","NA","NA","NA","NA","214968","996","2","legacy","1024","2","48000","-16","AB_m21","101","odd","FILL_NW","BLAYS","1378","252112","250529","247536","216356","NA","NA","NA","NA","244366","251026","NA","250029","NA","250019","252108","1387","252312","NA","NA","251112","1378","1378","251512","250019","1378","251112","252312","morph21_Oliver/Morris","3","8529","10","yes","1280","8"
"300","36.3636363636","36.3636363636","859.454545455","859.454545455","black","no","xpyriment","legacy","legacy","0","202","NA","uniform","55998","1000","0.017857780635","1","undefined","1","0","10","10","10","0","10","10","10","NA","10","10","0","10","NA","10","10","0","10","NA","10","NA","10","0","0","10","10","0","10","10","11","/","09/19/17 15:43:22","The main experiment item","yes","FIN__AB__M21__7%3A10%3A17.osexp","C:\Users\ERP Testing Room\Desktop\Joanna\morph21","no","mono","no","18","no","white","no","yes","1080","legacy","10","10","C:/Users/ERP Testing Room/Desktop/Joanna/morph21/subject-101.csv","xpyriment","Jazzy James","3.1.4","0","/","NA","NA","NA","NA","/","/","925","NA","NA","NA","NA","214968","925","2","legacy","1024","2","48000","-16","AB_m21","101","odd","CW_L","MADNESS","1378","255062","253479","247536","216356","NA","NA","NA","NA","255056","253976","NA","252979","NA","252969","255056","1387","255362","NA","NA","254062","1378","1378","254454","252969","1378","254062","255362","morph21_Oliver/Morris","4","9454","11","yes","1280","41"
"250","33.3333333333","33.3333333333","870.833333333","870.833333333","black","no","xpyriment","legacy","legacy","0","204","NA","uniform","59458","1000","0.0168185946382","0","undefined","0","0","11","11","11","0","11","11","11","NA","11","11","0","11","NA","11","11","0","11","NA","11","NA","11","0","0","11","11","0","11","11","12","z","09/19/17 15:43:22","The main experiment item","yes","FIN__AB__M21__7%3A10%3A17.osexp","C:\Users\ERP Testing Room\Desktop\Joanna\morph21","no","mono","no","18","no","white","no","yes","1080","legacy","11","11","C:/Users/ERP Testing Room/Desktop/Joanna/morph21/subject-101.csv","xpyriment","Jazzy James","3.1.4","0","None","NA","NA","NA","NA","/","None","996","NA","NA","NA","NA","214968","996","2","legacy","1024","2","48000","-16","AB_m21","101","odd","NW_L_COMP","FREENESS","1378","259696","256604","258187","216356","NA","NA","NA","NA","255056","257101","NA","256104","NA","256092","258183","1387","259946","NA","NA","257187","1378","1378","257587","256092","1378","257187","259946","morph21_Oliver/Morris","4","10450","12","yes","1280","15"
"350","38.4615384615","38.4615384615","845.076923077","845.076923077","black","no","xpyriment","legacy","legacy","0","202","NA","uniform","70126","1000","0.0142600462025","1","undefined","1","0","12","12","12","0","12","12","12","NA","12","12","0","12","NA","12","12","0","12","NA","12","NA","12","0","0","12","12","0","12","12","13","/","09/19/17 15:43:22","The main experiment item","yes","FIN__AB__M21__7%3A10%3A17.osexp","C:\Users\ERP Testing Room\Desktop\Joanna\morph21","no","mono","no","18","no","white","no","yes","1080","legacy","12","12","C:/Users/ERP Testing Room/Desktop/Joanna/morph21/subject-101.csv","xpyriment","Jazzy James","3.1.4","0","/","NA","NA","NA","NA","/","/","536","NA","NA","NA","NA","214968","536","2","legacy","1024","2","48000","-16","AB_m21","101","odd","CW_L","RENTER","1378","262779","261196","258187","216356","NA","NA","NA","NA","262774","261693","NA","260696","NA","260691","262774","1387","263129","NA","NA","261779","1378","1378","262179","260691","1378","261779","263129","morph21_Oliver/Morris","5","10986","13","yes","1280","9"
"300","35.7142857143","35.7142857143","844.571428571","844.571428571","black","no","xpyriment","legacy","legacy","0","204","NA","uniform","59887","1000","0.0166981147828","0","undefined","0","0","13","13","13","0","13","13","13","NA","13","13","0","13","NA","13","13","0","13","NA","13","NA","13","0","0","13","13","0","13","13","14","z","09/19/17 15:43:22","The main experiment item","yes","FIN__AB__M21__7%3A10%3A17.osexp","C:\Users\ERP Testing Room\Desktop\Joanna\morph21","no","mono","no","18","no","white","no","yes","1080","legacy","13","13","C:/Users/ERP Testing Room/Desktop/Joanna/morph21/subject-101.csv","xpyriment","Jazzy James","3.1.4","0","/","NA","NA","NA","NA","/","/","838","NA","NA","NA","NA","214968","838","2","legacy","1024","2","48000","-16","AB_m21","101","odd","NW_L_COMP","NORTHIZE","1378","266047","264463","258187","216356","NA","NA","NA","NA","262774","264960","NA","263963","NA","263952","266039","1387","266347","NA","NA","265046","1378","1378","265438","263952","1378","265046","266347","morph21_Oliver/Morris","5","11824","14","yes","1280","20"
"200","33.3333333333","33.3333333333","836.8","836.8","black","no","xpyriment","legacy","legacy","0","208","NA","uniform","62600","1000","0.0159744408946","0","undefined","0","0","14","14","14","0","14","14","14","NA","14","14","0","14","NA","14","14","0","14","NA","14","NA","14","0","0","14","14","0","14","14","15","z","09/19/17 15:43:22","The main experiment item","yes","FIN__AB__M21__7%3A10%3A17.osexp","C:\Users\ERP Testing Room\Desktop\Joanna\morph21","no","mono","no","18","no","white","no","yes","1080","legacy","14","14","C:/Users/ERP Testing Room/Desktop/Joanna/morph21/subject-101.csv","xpyriment","Jazzy James","3.1.4","0","/","NA","NA","NA","NA","/","/","728","NA","NA","NA","NA","214968","728","2","legacy","1024","2","48000","-16","AB_m21","101","odd","FILL_NW","PORDS","1378","270639","267522","269131","216356","NA","NA","NA","NA","262774","268019","NA","267022","NA","267013","269128","1387","270839","NA","NA","268139","1378","1378","268531","267013","1378","268139","270839","morph21_Oliver/Morris","5","12552","15","yes","1280","39"
"350","31.25","31.25","836.625","836.625","black","no","xpyriment","legacy","legacy","0","208","NA","uniform","62847","1000","0.0159116584722","0","undefined","0","0","15","15","15","0","15","15","15","NA","15","15","0","15","NA","15","15","0","15","NA","15","NA","15","0","0","15","15","0","15","15","16","z","09/19/17 15:43:22","The main experiment item","yes","FIN__AB__M21__7%3A10%3A17.osexp","C:\Users\ERP Testing Room\Desktop\Joanna\morph21","no","mono","no","18","no","white","no","yes","1080","legacy","15","15","C:/Users/ERP Testing Room/Desktop/Joanna/morph21/subject-101.csv","xpyriment","Jazzy James","3.1.4","0","/","NA","NA","NA","NA","/","/","834","NA","NA","NA","NA","214968","834","2","legacy","1024","2","48000","-16","AB_m21","101","odd","FILL_NW","BLANTH","1378","273681","272097","269131","216356","NA","NA","NA","NA","262774","272595","NA","271597","NA","271592","273678","1387","274031","NA","NA","272681","1378","1378","273081","271592","1378","272681","274031","morph21_Oliver/Morris","5","13386","16","yes","1280","3"
"250","29.4117647059","29.4117647059","829.705882353","829.705882353","black","no","xpyriment","legacy","legacy","0","203","NA","uniform","59086","1000","0.016924482957","0","undefined","0","0","16","16","16","0","16","16","16","NA","16","16","0","16","NA","16","16","0","16","NA","16","NA","16","0","0","16","16","0","16","16","17","z","09/19/17 15:43:22","The main experiment item","yes","FIN__AB__M21__7%3A10%3A17.osexp","C:\Users\ERP Testing Room\Desktop\Joanna\morph21","no","mono","no","18","no","white","no","yes","1080","legacy","16","16","C:/Users/ERP Testing Room/Desktop/Joanna/morph21/subject-101.csv","xpyriment","Jazzy James","3.1.4","0","/","NA","NA","NA","NA","/","/","719","NA","NA","NA","NA","214968","719","2","legacy","1024","2","48000","-16","AB_m21","101","odd","NW_S_COMP","TREASONIZE","1378","276756","275172","269131","216356","NA","NA","NA","NA","262774","275670","NA","274672","NA","274668","276750","1387","277006","NA","NA","275756","1378","1378","276148","274668","1378","275756","277006","morph21_Oliver/Morris","5","14105","17","yes","1280","14"
"350","33.3333333333","33.3333333333","812.777777778","812.777777778","black","no","xpyriment","legacy","legacy","0","202","NA","uniform","77325","1000","0.0129324280634","1","undefined","1","0","17","17","17","0","17","17","17","NA","17","17","0","17","NA","17","17","0","17","NA","17","NA","17","0","0","17","17","0","17","17","18","/","09/19/17 15:43:22","The main experiment item","yes","FIN__AB__M21__7%3A10%3A17.osexp","C:\Users\ERP Testing Room\Desktop\Joanna\morph21","no","mono","no","18","no","white","no","yes","1080","legacy","17","17","C:/Users/ERP Testing Room/Desktop/Joanna/morph21/subject-101.csv","xpyriment","Jazzy James","3.1.4","0","/","NA","NA","NA","NA","/","/","525","NA","NA","NA","NA","214968","525","2","legacy","1024","2","48000","-16","AB_m21","101","odd","CW_L","PARKING","1378","281314","278223","279806","216356","NA","NA","NA","NA","279800","278720","NA","277723","NA","277715","279800","1387","281665","NA","NA","278806","1378","1378","279198","277714","1378","278806","281665","morph21_Oliver/Morris","6","14630","18","yes","1280","25"
"200","36.8421052632","36.8421052632","808.789473684","808.789473684","black","no","xpyriment","legacy","legacy","0","207","NA","uniform","60366","1000","0.0165656164066","1","undefined","1","0","18","18","18","0","18","18","18","NA","18","18","0","18","NA","18","18","0","18","NA","18","NA","18","0","0","18","18","0","18","18","19","/","09/19/17 15:43:22","The main experiment item","yes","FIN__AB__M21__7%3A10%3A17.osexp","C:\Users\ERP Testing Room\Desktop\Joanna\morph21","no","mono","no","18","no","white","no","yes","1080","legacy","18","18","C:/Users/ERP Testing Room/Desktop/Joanna/morph21/subject-101.csv","xpyriment","Jazzy James","3.1.4","0","/","NA","NA","NA","NA","/","/","737","NA","NA","NA","NA","214968","737","2","legacy","1024","2","48000","-16","AB_m21","101","odd","FILL_W","BLEAK","1378","284491","282881","279806","216356","NA","NA","NA","NA","284485","283378","NA","282381","NA","282373","284485","1387","284691","NA","NA","283491","1378","1378","283882","282373","1378","283491","284691","morph21_Oliver/Morris","7","15367","19","yes","1280","5"
"250","35","35","812.5","812.5","black","no","xpyriment","legacy","legacy","0","203","NA","uniform","58736","1000","0.0170253336965","0","undefined","0","0","19","19","19","0","19","19","19","NA","19","19","0","19","NA","19","19","0","19","NA","19","NA","19","0","0","19","19","0","19","19","20","z","09/19/17 15:43:22","The main experiment item","yes","FIN__AB__M21__7%3A10%3A17.osexp","C:\Users\ERP Testing Room\Desktop\Joanna\morph21","no","mono","no","18","no","white","no","yes","1080","legacy","19","19","C:/Users/ERP Testing Room/Desktop/Joanna/morph21/subject-101.csv","xpyriment","Jazzy James","3.1.4","0","/","NA","NA","NA","NA","/","/","883","NA","NA","NA","NA","214968","883","2","legacy","1024","2","48000","-16","AB_m21","101","odd","NW_S_COMP","BRANCHER","1378","287616","285999","279806","216356","NA","NA","NA","NA","284485","286496","NA","285499","NA","285493","287612","1387","287866","NA","NA","286616","1378","1378","287016","285493","1378","286616","287866","morph21_Oliver/Morris","7","16250","20","yes","1280","16"
"250","38.0952380952","38.0952380952","808.857142857","808.857142857","black","no","xpyriment","legacy","legacy","0","203","NA","uniform","58251","1000","0.0171670872603","1","undefined","1","0","20","20","20","0","20","20","20","NA","20","20","0","20","NA","20","20","0","20","NA","20","NA","20","0","0","20","20","0","20","20","21","z","09/19/17 15:43:22","The main experiment item","yes","FIN__AB__M21__7%3A10%3A17.osexp","C:\Users\ERP Testing Room\Desktop\Joanna\morph21","no","mono","no","18","no","white","no","yes","1080","legacy","20","20","C:/Users/ERP Testing Room/Desktop/Joanna/morph21/subject-101.csv","xpyriment","Jazzy James","3.1.4","0","z","NA","NA","NA","NA","/","z","736","NA","NA","NA","NA","214968","736","2","legacy","1024","2","48000","-16","AB_m21","101","odd","NW_S_COMP","LIDARY","1378","292208","289116","290699","216356","NA","NA","NA","NA","290690","289613","NA","288616","NA","288607","290690","1387","292458","NA","NA","289699","1378","1378","290091","288607","1378","289699","292458","morph21_Oliver/Morris","8","16986","21","yes","1280","3"
"300","36.3636363636","36.3636363636","817.227272727","817.227272727","black","no","xpyriment","legacy","legacy","0","206","NA","uniform","56961","1000","0.0175558715612","0","undefined","0","0","21","21","21","0","21","21","21","NA","21","21","0","21","NA","21","21","0","21","NA","21","NA","21","0","0","21","21","0","21","21","22","z","09/19/17 15:43:22","The main experiment item","yes","FIN__AB__M21__7%3A10%3A17.osexp","C:\Users\ERP Testing Room\Desktop\Joanna\morph21","no","mono","no","18","no","white","no","yes","1080","legacy","21","21","C:/Users/ERP Testing Room/Desktop/Joanna/morph21/subject-101.csv","xpyriment","Jazzy James","3.1.4","0","None","NA","NA","NA","NA","/","None","993","NA","NA","NA","NA","214968","993","2","legacy","1024","2","48000","-16","AB_m21","101","odd","NW_L_SIMP","EARILT","1378","295233","293649","290699","216356","NA","NA","NA","NA","290690","294146","NA","293149","NA","293141","295226","1387","295533","NA","NA","294233","1378","1378","294624","293141","1378","294233","295533","morph21_Oliver/Morris","8","17979","22","yes","1280","12"
"400","39.1304347826","39.1304347826","815.565217391","815.565217391","black","no","xpyriment","legacy","legacy","0","201","NA","uniform","60406","1000","0.0165546468894","1","undefined","1","0","22","22","22","0","22","22","22","NA","22","22","0","22","NA","22","22","0","22","NA","22","NA","22","0","0","22","22","0","22","22","23","/","09/19/17 15:43:22","The main experiment item","yes","FIN__AB__M21__7%3A10%3A17.osexp","C:\Users\ERP Testing Room\Desktop\Joanna\morph21","no","mono","no","18","no","white","no","yes","1080","legacy","22","22","C:/Users/ERP Testing Room/Desktop/Joanna/morph21/subject-101.csv","xpyriment","Jazzy James","3.1.4","0","/","NA","NA","NA","NA","/","/","779","NA","NA","NA","NA","214968","779","2","legacy","1024","2","48000","-16","AB_m21","101","odd","CW_S","DESIGN","1378","298416","296808","290699","216356","NA","NA","NA","NA","298410","297305","NA","296308","NA","296300","298410","1387","298816","NA","NA","297416","1378","1378","297808","296300","1378","297416","298816","morph21_Oliver/Morris","9","18758","23","yes","1280","19"
"400","37.5","37.5","811","811","black","no","xpyriment","legacy","legacy","0","204","NA","uniform","59296","1000","0.0168645439827","0","undefined","0","0","23","23","23","0","23","23","23","NA","23","23","0","23","NA","23","23","0","23","NA","23","NA","23","0","0","23","23","0","23","23","24","z","09/19/17 15:43:22","The main experiment item","yes","FIN__AB__M21__7%3A10%3A17.osexp","C:\Users\ERP Testing Room\Desktop\Joanna\morph21","no","mono","no","18","no","white","no","yes","1080","legacy","23","23","C:/Users/ERP Testing Room/Desktop/Joanna/morph21/subject-101.csv","xpyriment","Jazzy James","3.1.4","0","/","NA","NA","NA","NA","/","/","706","NA","NA","NA","NA","214968","706","2","legacy","1024","2","48000","-16","AB_m21","101","odd","NW_L_COMP","RIPENCE","1378","303159","300066","301651","216356","NA","NA","NA","NA","298410","300563","NA","299566","NA","299561","301642","1387","303559","NA","NA","300650","1378","1378","301042","299561","1378","300650","303559","morph21_Oliver/Morris","9","19464","24","yes","1280","4"
"200","40","40","805.88","805.88","black","no","xpyriment","legacy","legacy","0","201","NA","uniform","67929","1000","0.0147212530731","1","undefined","1","0","24","24","24","0","24","24","24","NA","24","24","0","24","NA","24","24","0","24","NA","24","NA","24","0","0","24","24","0","24","24","25","/","09/19/17 15:43:22","The main experiment item","yes","FIN__AB__M21__7%3A10%3A17.osexp","C:\Users\ERP Testing Room\Desktop\Joanna\morph21","no","mono","no","18","no","white","no","yes","1080","legacy","24","24","C:/Users/ERP Testing Room/Desktop/Joanna/morph21/subject-101.csv","xpyriment","Jazzy James","3.1.4","0","/","NA","NA","NA","NA","/","/","683","NA","NA","NA","NA","214968","683","2","legacy","1024","2","48000","-16","AB_m21","101","odd","CW_S","CAMPAIGNER","1378","306384","304751","301651","216356","NA","NA","NA","NA","306376","305248","NA","304251","NA","304246","306376","1387","306584","NA","NA","305384","1378","1378","305776","304246","1378","305384","306584","morph21_Oliver/Morris","10","20147","25","yes","1280","15"
"400","42.3076923077","42.3076923077","804","804","black","no","xpyriment","legacy","legacy","0","205","NA","uniform","68484","1000","0.0146019508206","1","undefined","1","0","25","25","25","0","25","25","25","NA","25","25","0","25","NA","25","25","0","25","NA","25","NA","25","0","0","25","25","0","25","25","26","z","09/19/17 15:43:22","The main experiment item","yes","FIN__AB__M21__7%3A10%3A17.osexp","C:\Users\ERP Testing Room\Desktop\Joanna\morph21","no","mono","no","18","no","white","no","yes","1080","legacy","25","25","C:/Users/ERP Testing Room/Desktop/Joanna/morph21/subject-101.csv","xpyriment","Jazzy James","3.1.4","0","z","NA","NA","NA","NA","/","z","757","NA","NA","NA","NA","214968","757","2","legacy","1024","2","48000","-16","AB_m21","101","odd","NW_S_SIMP","ADVERTISELA","1378","309326","307743","301651","216356","NA","NA","NA","NA","309323","308240","NA","307243","NA","307235","309323","1387","309726","NA","NA","308334","1378","1378","308726","307235","1378","308334","309726","morph21_Oliver/Morris","11","20904","26","yes","1280","25"
"250","44.4444444444","44.4444444444","795.444444444","795.444444444","black","no","xpyriment","legacy","legacy","0","207","NA","uniform","71665","1000","0.0139538128794","1","undefined","1","0","26","26","26","0","26","26","26","NA","26","26","0","26","NA","26","26","0","26","NA","26","NA","26","0","0","26","26","0","26","26","27","/","09/19/17 15:43:22","The main experiment item","yes","FIN__AB__M21__7%3A10%3A17.osexp","C:\Users\ERP Testing Room\Desktop\Joanna\morph21","no","mono","no","18","no","white","no","yes","1080","legacy","26","26","C:/Users/ERP Testing Room/Desktop/Joanna/morph21/subject-101.csv","xpyriment","Jazzy James","3.1.4","0","/","NA","NA","NA","NA","/","/","573","NA","NA","NA","NA","214968","573","2","legacy","1024","2","48000","-16","AB_m21","101","odd","FILL_W","SMOKE","1378","314035","310926","312526","216356","NA","NA","NA","NA","312521","311423","NA","310426","NA","310416","312521","1387","314285","NA","NA","311526","1378","1378","311926","310416","1378","311526","314285","morph21_Oliver/Morris","12","21477","27","yes","1280","50"
"350","42.8571428571","42.8571428571","797.857142857","797.857142857","black","no","xpyriment","legacy","legacy","0","206","NA","uniform","61234","1000","0.0163307966163","0","undefined","0","0","27","27","27","0","27","27","27","NA","27","27","0","27","NA","27","27","0","27","NA","27","NA","27","0","0","27","27","0","27","27","28","z","09/19/17 15:43:22","The main experiment item","yes","FIN__AB__M21__7%3A10%3A17.osexp","C:\Users\ERP Testing Room\Desktop\Joanna\morph21","no","mono","no","18","no","white","no","yes","1080","legacy","27","27","C:/Users/ERP Testing Room/Desktop/Joanna/morph21/subject-101.csv","xpyriment","Jazzy James","3.1.4","0","/","NA","NA","NA","NA","/","/","863","NA","NA","NA","NA","214968","863","2","legacy","1024","2","48000","-16","AB_m21","101","odd","NW_L_SIMP","PICKENGE","1378","317076","315493","312526","216356","NA","NA","NA","NA","312521","315990","NA","314993","NA","314987","317070","1387","317427","NA","NA","316076","1378","1378","316468","314987","1378","316076","317427","morph21_Oliver/Morris","12","22340","28","yes","1280","5"
"300","41.3793103448","41.3793103448","794.275862069","794.275862069","black","no","xpyriment","legacy","legacy","0","204","NA","uniform","68360","1000","0.0146284376829","0","undefined","0","0","28","28","28","0","28","28","28","NA","28","28","0","28","NA","28","28","0","28","NA","28","NA","28","0","0","28","28","0","28","28","29","z","09/19/17 15:43:22","The main experiment item","yes","FIN__AB__M21__7%3A10%3A17.osexp","C:\Users\ERP Testing Room\Desktop\Joanna\morph21","no","mono","no","18","no","white","no","yes","1080","legacy","28","28","C:/Users/ERP Testing Room/Desktop/Joanna/morph21/subject-101.csv","xpyriment","Jazzy James","3.1.4","0","/","NA","NA","NA","NA","/","/","694","NA","NA","NA","NA","214968","694","2","legacy","1024","2","48000","-16","AB_m21","101","odd","NW_L_COMP","ILLIST","1378","320278","318686","312526","216356","NA","NA","NA","NA","312521","319183","NA","318185","NA","318179","320267","1387","320578","NA","NA","319278","1378","1378","319669","318179","1378","319278","320578","morph21_Oliver/Morris","12","23034","29","yes","1280","9"
"200","40","40","801","801","black","no","xpyriment","legacy","legacy","0","204","NA","uniform","59925","1000","0.0166875260743","0","undefined","0","0","29","29","29","0","29","29","29","NA","29","29","0","29","NA","29","29","0","29","NA","29","NA","29","0","0","29","29","0","29","29","30","z","09/19/17 15:43:22","The main experiment item","yes","FIN__AB__M21__7%3A10%3A17.osexp","C:\Users\ERP Testing Room\Desktop\Joanna\morph21","no","mono","no","18","no","white","no","yes","1080","legacy","29","29","C:/Users/ERP Testing Room/Desktop/Joanna/morph21/subject-101.csv","xpyriment","Jazzy James","3.1.4","0","None","NA","NA","NA","NA","/","None","996","NA","NA","NA","NA","214968","996","2","legacy","1024","2","48000","-16","AB_m21","101","odd","NW_L_COMP","PITCHORY","1378","324936","321828","323428","216356","NA","NA","NA","NA","312521","322325","NA","321328","NA","321317","323424","1387","325136","NA","NA","322428","1378","1378","322828","321317","1378","322428","325136","morph21_Oliver/Morris","12","24030","30","yes","1280","25"
"300","38.7096774194","38.7096774194","797.64516129","797.64516129","black","no","xpyriment","legacy","legacy","0","205","NA","uniform","67553","1000","0.0148031915681","0","undefined","0","0","30","30","30","0","30","30","30","NA","30","30","0","30","NA","30","30","0","30","NA","30","NA","30","0","0","30","30","0","30","30","31","z","09/19/17 15:43:22","The main experiment item","yes","FIN__AB__M21__7%3A10%3A17.osexp","C:\Users\ERP Testing Room\Desktop\Joanna\morph21","no","mono","no","18","no","white","no","yes","1080","legacy","30","30","C:/Users/ERP Testing Room/Desktop/Joanna/morph21/subject-101.csv","xpyriment","Jazzy James","3.1.4","0","/","NA","NA","NA","NA","/","/","697","NA","NA","NA","NA","214968","697","2","legacy","1024","2","48000","-16","AB_m21","101","odd","NW_S_SIMP","TILTADY","1378","327986","326403","323428","216356","NA","NA","NA","NA","312521","326900","NA","325895","NA","325889","327980","1387","328286","NA","NA","326986","1378","1378","327378","325889","1378","326986","328286","morph21_Oliver/Morris","12","24727","31","yes","1280","17"
"250","37.5","37.5","794.0625","794.0625","black","no","xpyriment","legacy","legacy","0","208","NA","uniform","57380","1000","0.0174276751481","0","undefined","0","0","31","31","31","0","31","31","31","NA","31","31","0","31","NA","31","31","0","31","NA","31","NA","31","0","0","31","31","0","31","31","32","z","09/19/17 15:43:22","The main experiment item","yes","FIN__AB__M21__7%3A10%3A17.osexp","C:\Users\ERP Testing Room\Desktop\Joanna\morph21","no","mono","no","18","no","white","no","yes","1080","legacy","31","31","C:/Users/ERP Testing Room/Desktop/Joanna/morph21/subject-101.csv","xpyriment","Jazzy James","3.1.4","0","/","NA","NA","NA","NA","/","/","683","NA","NA","NA","NA","214968","683","2","legacy","1024","2","48000","-16","AB_m21","101","odd","FILL_NW","PLAODS","1378","331136","329528","323428","216356","NA","NA","NA","NA","312521","330025","NA","329028","NA","329023","331133","1387","331387","NA","NA","330136","1378","1378","330536","329023","1378","330136","331387","morph21_Oliver/Morris","12","25410","32","yes","1280","37"
"250","39.3939393939","39.3939393939","788.121212121","788.121212121","black","no","xpyriment","legacy","legacy","0","201","NA","uniform","69032","1000","0.0144860354618","1","undefined","1","0","32","32","32","0","32","32","32","NA","32","32","0","32","NA","32","32","0","32","NA","32","NA","32","0","0","32","32","0","32","32","33","/","09/19/17 15:43:22","The main experiment item","yes","FIN__AB__M21__7%3A10%3A17.osexp","C:\Users\ERP Testing Room\Desktop\Joanna\morph21","no","mono","no","18","no","white","no","yes","1080","legacy","32","32","C:/Users/ERP Testing Room/Desktop/Joanna/morph21/subject-101.csv","xpyriment","Jazzy James","3.1.4","0","/","NA","NA","NA","NA","/","/","598","NA","NA","NA","NA","214968","598","2","legacy","1024","2","48000","-16","AB_m21","101","odd","CW_S","JAILER","1378","335763","332661","334253","216356","NA","NA","NA","NA","334244","333159","NA","332161","NA","332154","334244","1387","336013","NA","NA","333253","1378","1378","333645","332154","1378","333253","336013","morph21_Oliver/Morris","13","26008","33","yes","1280","13"
"400","38.2352941176","38.2352941176","783.058823529","783.058823529","black","no","xpyriment","legacy","legacy","0","205","NA","uniform","67799","1000","0.0147494800808","0","undefined","0","0","33","33","33","0","33","33","33","NA","33","33","0","33","NA","33","33","0","33","NA","33","NA","33","0","0","33","33","0","33","33","34","z","09/19/17 15:43:22","The main experiment item","yes","FIN__AB__M21__7%3A10%3A17.osexp","C:\Users\ERP Testing Room\Desktop\Joanna\morph21","no","mono","no","18","no","white","no","yes","1080","legacy","33","33","C:/Users/ERP Testing Room/Desktop/Joanna/morph21/subject-101.csv","xpyriment","Jazzy James","3.1.4","0","/","NA","NA","NA","NA","/","/","616","NA","NA","NA","NA","214968","616","2","legacy","1024","2","48000","-16","AB_m21","101","odd","NW_S_SIMP","RAMPIME","1378","338796","337213","334253","216356","NA","NA","NA","NA","334244","337710","NA","336713","NA","336703","338789","1387","339196","NA","NA","337796","1378","1378","338188","336703","1378","337796","339196","morph21_Oliver/Morris","13","26624","34","yes","1280","6"
"250","37.1428571429","37.1428571429","782.371428571","782.371428571","black","no","xpyriment","legacy","legacy","0","205","NA","uniform","61542","1000","0.0162490656787","0","undefined","0","0","34","34","34","0","34","34","34","NA","34","34","0","34","NA","34","34","0","34","NA","34","NA","34","0","0","34","34","0","34","34","35","z","09/19/17 15:43:22","The main experiment item","yes","FIN__AB__M21__7%3A10%3A17.osexp","C:\Users\ERP Testing Room\Desktop\Joanna\morph21","no","mono","no","18","no","white","no","yes","1080","legacy","34","34","C:/Users/ERP Testing Room/Desktop/Joanna/morph21/subject-101.csv","xpyriment","Jazzy James","3.1.4","0","/","NA","NA","NA","NA","/","/","759","NA","NA","NA","NA","214968","759","2","legacy","1024","2","48000","-16","AB_m21","101","odd","NW_S_SIMP","DIGODY","1378","341988","340405","334253","216356","NA","NA","NA","NA","334244","340902","NA","339905","NA","339898","341985","1387","342238","NA","NA","340996","1378","1378","341388","339898","1378","340996","342238","morph21_Oliver/Morris","13","27383","35","yes","1280","11"
"400","38.8888888889","38.8888888889","772.805555556","772.805555556","black","no","xpyriment","legacy","legacy","0","208","NA","uniform","80659","1000","0.0123978725251","1","undefined","1","0","35","35","35","0","35","35","35","NA","35","35","0","35","NA","35","35","0","35","NA","35","NA","35","0","0","35","35","0","35","35","36","z","09/19/17 15:43:22","The main experiment item","yes","FIN__AB__M21__7%3A10%3A17.osexp","C:\Users\ERP Testing Room\Desktop\Joanna\morph21","no","mono","no","18","no","white","no","yes","1080","legacy","35","35","C:/Users/ERP Testing Room/Desktop/Joanna/morph21/subject-101.csv","xpyriment","Jazzy James","3.1.4","0","z","NA","NA","NA","NA","/","z","438","NA","NA","NA","NA","214968","438","2","legacy","1024","2","48000","-16","AB_m21","101","odd","FILL_NW","ULNS","1378","346513","343421","345005","216356","NA","NA","NA","NA","344999","343918","NA","342921","NA","342915","344999","1387","346913","NA","NA","344005","1378","1378","344396","342915","1378","344005","346913","morph21_Oliver/Morris","14","27821","36","yes","1280","45"
"200","37.8378378378","37.8378378378","764.864864865","764.864864865","black","no","xpyriment","legacy","legacy","0","206","NA","uniform","75691","1000","0.0132116103632","0","undefined","0","0","36","36","36","0","36","36","36","NA","36","36","0","36","NA","36","36","0","36","NA","36","NA","36","0","0","36","36","0","36","36","37","z","09/19/17 15:43:22","The main experiment item","yes","FIN__AB__M21__7%3A10%3A17.osexp","C:\Users\ERP Testing Room\Desktop\Joanna\morph21","no","mono","no","18","no","white","no","yes","1080","legacy","36","36","C:/Users/ERP Testing Room/Desktop/Joanna/morph21/subject-101.csv","xpyriment","Jazzy James","3.1.4","0","/","NA","NA","NA","NA","/","/","479","NA","NA","NA","NA","214968","479","2","legacy","1024","2","48000","-16","AB_m21","101","odd","NW_L_SIMP","GROWILT","1378","349763","348163","345005","216356","NA","NA","NA","NA","344999","348660","NA","347663","NA","347661","349761","1387","349963","NA","NA","348772","1378","1378","349163","347661","1378","348772","349963","morph21_Oliver/Morris","14","28300","37","yes","1280","20"
"400","39.4736842105","39.4736842105","757.394736842","757.394736842","black","no","xpyriment","legacy","legacy","0","202","NA","uniform","75597","1000","0.0132280381497","1","undefined","1","0","37","37","37","0","37","37","37","NA","37","37","0","37","NA","37","37","0","37","NA","37","NA","37","0","0","37","37","0","37","37","38","/","09/19/17 15:43:22","The main experiment item","yes","FIN__AB__M21__7%3A10%3A17.osexp","C:\Users\ERP Testing Room\Desktop\Joanna\morph21","no","mono","no","18","no","white","no","yes","1080","legacy","37","37","C:/Users/ERP Testing Room/Desktop/Joanna/morph21/subject-101.csv","xpyriment","Jazzy James","3.1.4","0","/","NA","NA","NA","NA","/","/","481","NA","NA","NA","NA","214968","481","2","legacy","1024","2","48000","-16","AB_m21","101","odd","CW_L","FAITHFUL","1378","352730","351138","345005","216356","NA","NA","NA","NA","352722","351635","NA","350638","NA","350635","352722","1387","353130","NA","NA","351730","1378","1378","352122","350634","1378","351730","353130","morph21_Oliver/Morris","15","28781","38","yes","1280","20"
"300","41.0256410256","41.0256410256","751.487179487","751.487179487","black","no","xpyriment","legacy","legacy","0","202","NA","uniform","67835","1000","0.0147416525392","1","undefined","1","0","38","38","38","0","38","38","38","NA","38","38","0","38","NA","38","38","0","38","NA","38","NA","38","0","0","38","38","0","38","38","39","/","09/19/17 15:43:22","The main experiment item","yes","FIN__AB__M21__7%3A10%3A17.osexp","C:\Users\ERP Testing Room\Desktop\Joanna\morph21","no","mono","no","18","no","white","no","yes","1080","legacy","38","38","C:/Users/ERP Testing Room/Desktop/Joanna/morph21/subject-101.csv","xpyriment","Jazzy James","3.1.4","0","/","NA","NA","NA","NA","/","/","527","NA","NA","NA","NA","214968","527","2","legacy","1024","2","48000","-16","AB_m21","101","odd","CW_L","DOUBTFUL","1378","357481","354389","355973","216356","NA","NA","NA","NA","355969","354887","NA","353890","NA","353880","355969","1387","357782","NA","NA","354973","1378","1378","355373","353880","1378","354973","357782","morph21_Oliver/Morris","16","29308","39","yes","1280","21"
"300","40","40","757.55","757.55","black","no","xpyriment","legacy","legacy","0","206","NA","uniform","55619","1000","0.0179794674482","0","undefined","0","0","39","39","39","0","39","39","39","NA","39","39","0","39","NA","39","39","0","39","NA","39","NA","39","0","0","39","39","0","39","39","40","z","09/19/17 15:43:22","The main experiment item","yes","FIN__AB__M21__7%3A10%3A17.osexp","C:\Users\ERP Testing Room\Desktop\Joanna\morph21","no","mono","no","18","no","white","no","yes","1080","legacy","39","39","C:/Users/ERP Testing Room/Desktop/Joanna/morph21/subject-101.csv","xpyriment","Jazzy James","3.1.4","0","None","NA","NA","NA","NA","/","None","994","NA","NA","NA","NA","214968","994","2","legacy","1024","2","48000","-16","AB_m21","101","odd","NW_L_SIMP","BEANITH","1378","360615","359031","355973","216356","NA","NA","NA","NA","355969","359528","NA","358531","NA","358526","360609","1387","360915","NA","NA","359615","1378","1378","360006","358526","1378","359615","360915","morph21_Oliver/Morris","16","30302","40","yes","1280","8"
"250","39.0243902439","39.0243902439","763.292682927","763.292682927","black","no","xpyriment","legacy","legacy","0","206","NA","uniform","44768","1000","0.0223373838456","0","undefined","0","0","40","40","40","0","40","40","40","NA","40","40","0","40","NA","40","40","0","40","NA","40","NA","40","0","0","40","40","0","40","40","41","z","09/19/17 15:43:22","The main experiment item","yes","FIN__AB__M21__7%3A10%3A17.osexp","C:\Users\ERP Testing Room\Desktop\Joanna\morph21","no","mono","no","18","no","white","no","yes","1080","legacy","40","40","C:/Users/ERP Testing Room/Desktop/Joanna/morph21/subject-101.csv","xpyriment","Jazzy James","3.1.4","0","None","NA","NA","NA","NA","/","None","993","NA","NA","NA","NA","214968","993","2","legacy","1024","2","48000","-16","AB_m21","101","odd","NW_L_SIMP","BEARILT","1378","363723","362140","355973","216356","NA","NA","NA","NA","355969","362637","NA","361640","NA","361631","363717","1387","363973","NA","NA","362723","1378","1378","363115","361631","1378","362723","363973","morph21_Oliver/Morris","16","31295","41","yes","1280","25"
"250","38.0952380952","38.0952380952","768.761904762","768.761904762","black","no","xpyriment","legacy","legacy","0","202","NA","uniform","57027","1000","0.0175355533344","0","undefined","0","0","41","41","41","0","41","41","41","NA","41","41","0","41","NA","41","41","0","41","NA","41","NA","41","0","0","41","41","0","41","41","42","/","09/19/17 15:43:22","The main experiment item","yes","FIN__AB__M21__7%3A10%3A17.osexp","C:\Users\ERP Testing Room\Desktop\Joanna\morph21","no","mono","no","18","no","white","no","yes","1080","legacy","41","41","C:/Users/ERP Testing Room/Desktop/Joanna/morph21/subject-101.csv","xpyriment","Jazzy James","3.1.4","0","None","NA","NA","NA","NA","/","None","993","NA","NA","NA","NA","214968","993","2","legacy","1024","2","48000","-16","AB_m21","101","odd","CW_L","DANCER","1378","368265","365173","366757","216356","NA","NA","NA","NA","355969","365670","NA","364673","NA","364668","366750","1387","368515","NA","NA","365757","1378","1378","366148","364668","1378","365757","368515","morph21_Oliver/Morris","16","32288","42","yes","1280","11"
"400","39.5348837209","39.5348837209","766.511627907","766.511627907","black","no","xpyriment","legacy","legacy","0","201","NA","uniform","63032","1000","0.0158649574819","1","undefined","1","0","42","42","42","0","42","42","42","NA","42","42","0","42","NA","42","42","0","42","NA","42","NA","42","0","0","42","42","0","42","42","43","/","09/19/17 15:43:22","The main experiment item","yes","FIN__AB__M21__7%3A10%3A17.osexp","C:\Users\ERP Testing Room\Desktop\Joanna\morph21","no","mono","no","18","no","white","no","yes","1080","legacy","42","42","C:/Users/ERP Testing Room/Desktop/Joanna/morph21/subject-101.csv","xpyriment","Jazzy James","3.1.4","0","/","NA","NA","NA","NA","/","/","672","NA","NA","NA","NA","214968","672","2","legacy","1024","2","48000","-16","AB_m21","101","odd","CW_S","WIDOWED","1378","371333","369715","366757","216356","NA","NA","NA","NA","371329","370212","NA","369215","NA","369209","371329","1387","371733","NA","NA","370340","1378","1378","370733","369209","1378","370340","371733","morph21_Oliver/Morris","17","32960","43","yes","1280","7"
"250","40.9090909091","40.9090909091","764.727272727","764.727272727","black","no","xpyriment","legacy","legacy","0","207","NA","uniform","71231","1000","0.0140388314077","1","undefined","1","0","43","43","43","0","43","43","43","NA","43","43","0","43","NA","43","43","0","43","NA","43","NA","43","0","0","43","43","0","43","43","44","/","09/19/17 15:43:22","The main experiment item","yes","FIN__AB__M21__7%3A10%3A17.osexp","C:\Users\ERP Testing Room\Desktop\Joanna\morph21","no","mono","no","18","no","white","no","yes","1080","legacy","43","43","C:/Users/ERP Testing Room/Desktop/Joanna/morph21/subject-101.csv","xpyriment","Jazzy James","3.1.4","0","/","NA","NA","NA","NA","/","/","688","NA","NA","NA","NA","214968","688","2","legacy","1024","2","48000","-16","AB_m21","101","odd","FILL_W","FIERCE","1378","374516","372933","366757","216356","NA","NA","NA","NA","374510","373430","NA","372433","NA","372421","374510","1387","374766","NA","NA","373516","1378","1378","373908","372421","1378","373516","374766","morph21_Oliver/Morris","18","33648","44","yes","1280","24"
"400","42.2222222222","42.2222222222","760.088888889","760.088888889","black","no","xpyriment","legacy","legacy","0","201","NA","uniform","70820","1000","0.0141203049986","1","undefined","1","0","44","44","44","0","44","44","44","NA","44","44","0","44","NA","44","44","0","44","NA","44","NA","44","0","0","44","44","0","44","44","45","/","09/19/17 15:43:22","The main experiment item","yes","FIN__AB__M21__7%3A10%3A17.osexp","C:\Users\ERP Testing Room\Desktop\Joanna\morph21","no","mono","no","18","no","white","no","yes","1080","legacy","44","44","C:/Users/ERP Testing Room/Desktop/Joanna/morph21/subject-101.csv","xpyriment","Jazzy James","3.1.4","0","/","NA","NA","NA","NA","/","/","556","NA","NA","NA","NA","214968","556","2","legacy","1024","2","48000","-16","AB_m21","101","odd","CW_S","DIETARY","1378","379083","375983","377575","216356","NA","NA","NA","NA","377566","376480","NA","375483","NA","375475","377566","1387","379483","NA","NA","376575","1378","1378","376966","375475","1378","376575","379483","morph21_Oliver/Morris","19","34204","45","yes","1280","6"
"400","43.4782608696","43.4782608696","758","758","black","no","xpyriment","legacy","legacy","0","202","NA","uniform","72195","1000","0.0138513747489","1","undefined","1","0","45","45","45","0","45","45","45","NA","45","45","0","45","NA","45","45","0","45","NA","45","NA","45","0","0","45","45","0","45","45","46","/","09/19/17 15:43:22","The main experiment item","yes","FIN__AB__M21__7%3A10%3A17.osexp","C:\Users\ERP Testing Room\Desktop\Joanna\morph21","no","mono","no","18","no","white","no","yes","1080","legacy","45","45","C:/Users/ERP Testing Room/Desktop/Joanna/morph21/subject-101.csv","xpyriment","Jazzy James","3.1.4","0","/","NA","NA","NA","NA","/","/","664","NA","NA","NA","NA","214968","664","2","legacy","1024","2","48000","-16","AB_m21","101","odd","CW_L","CLEANER","1378","382267","380683","377575","216356","NA","NA","NA","NA","382260","381180","NA","380183","NA","380175","382260","1387","382667","NA","NA","381267","1378","1378","381658","380175","1378","381267","382667","morph21_Oliver/Morris","20","34868","46","yes","1280","15"
"350","42.5531914894","42.5531914894","763","763","black","no","xpyriment","legacy","legacy","0","203","NA","uniform","55709","1000","0.0179504209374","0","undefined","0","0","46","46","46","0","46","46","46","NA","46","46","0","46","NA","46","46","0","46","NA","46","NA","46","0","0","46","46","0","46","46","47","z","09/19/17 15:43:22","The main experiment item","yes","FIN__AB__M21__7%3A10%3A17.osexp","C:\Users\ERP Testing Room\Desktop\Joanna\morph21","no","mono","no","18","no","white","no","yes","1080","legacy","46","46","C:/Users/ERP Testing Room/Desktop/Joanna/morph21/subject-101.csv","xpyriment","Jazzy James","3.1.4","0","None","NA","NA","NA","NA","/","None","993","NA","NA","NA","NA","214968","993","2","legacy","1024","2","48000","-16","AB_m21","101","odd","NW_S_COMP","WELDIC","1378","385459","383867","377575","216356","NA","NA","NA","NA","382260","384364","NA","383359","NA","383353","385453","1387","385809","NA","NA","384459","1378","1378","384850","383353","1378","384458","385809","morph21_Oliver/Morris","20","35861","47","yes","1280","21"
"400","41.6666666667","41.6666666667","760.708333333","760.708333333","black","no","xpyriment","legacy","legacy","0","206","NA","uniform","70109","1000","0.0142635039724","0","undefined","0","0","47","47","47","0","47","47","47","NA","47","47","0","47","NA","47","47","0","47","NA","47","NA","47","0","0","47","47","0","47","47","48","z","09/19/17 15:43:22","The main experiment item","yes","FIN__AB__M21__7%3A10%3A17.osexp","C:\Users\ERP Testing Room\Desktop\Joanna\morph21","no","mono","no","18","no","white","no","yes","1080","legacy","47","47","C:/Users/ERP Testing Room/Desktop/Joanna/morph21/subject-101.csv","xpyriment","Jazzy James","3.1.4","0","/","NA","NA","NA","NA","/","/","653","NA","NA","NA","NA","214968","653","2","legacy","1024","2","48000","-16","AB_m21","101","odd","NW_L_SIMP","BOGADY","1378","390068","386975","388560","216356","NA","NA","NA","NA","382260","387472","NA","386475","NA","386466","388550","1387","390468","NA","NA","387559","1378","1378","387950","386466","1378","387559","390468","morph21_Oliver/Morris","20","36514","48","yes","1280","2"
"300","40.8163265306","40.8163265306","765.408163265","765.408163265","black","no","xpyriment","legacy","legacy","0","208","NA","uniform","57058","1000","0.0175260261488","0","undefined","0","0","48","48","48","0","48","48","48","NA","48","48","0","48","NA","48","48","0","48","NA","48","NA","48","0","0","48","48","0","48","48","49","z","09/19/17 15:43:22","The main experiment item","yes","FIN__AB__M21__7%3A10%3A17.osexp","C:\Users\ERP Testing Room\Desktop\Joanna\morph21","no","mono","no","18","no","white","no","yes","1080","legacy","48","48","C:/Users/ERP Testing Room/Desktop/Joanna/morph21/subject-101.csv","xpyriment","Jazzy James","3.1.4","0","None","NA","NA","NA","NA","/","None","991","NA","NA","NA","NA","214968","991","2","legacy","1024","2","48000","-16","AB_m21","101","odd","FILL_NW","VOGS","1378","393252","391660","388560","216356","NA","NA","NA","NA","382260","392157","NA","391160","NA","391152","393243","1387","393552","NA","NA","392252","1378","1378","392643","391152","1378","392251","393552","morph21_Oliver/Morris","20","37505","49","yes","1280","47"
"400","42","42","761.22","761.22","black","no","xpyriment","legacy","legacy","0","202","NA","uniform","72319","1000","0.0138276248289","1","undefined","1","0","49","49","49","0","49","49","49","NA","49","49","0","49","NA","49","49","0","49","NA","49","NA","49","0","0","49","49","0","49","49","50","/","09/19/17 15:43:22","The main experiment item","yes","FIN__AB__M21__7%3A10%3A17.osexp","C:\Users\ERP Testing Room\Desktop\Joanna\morph21","no","mono","no","18","no","white","no","yes","1080","legacy","49","49","C:/Users/ERP Testing Room/Desktop/Joanna/morph21/subject-101.csv","xpyriment","Jazzy James","3.1.4","0","/","NA","NA","NA","NA","/","/","556","NA","NA","NA","NA","214968","556","2","legacy","1024","2","48000","-16","AB_m21","101","odd","CW_L","CONDUCTOR","1378","396343","394743","388560","216356","NA","NA","NA","NA","396338","395240","NA","394243","NA","394236","396338","1387","396744","NA","NA","395343","1378","1378","395743","394236","1378","395343","396744","morph21_Oliver/Morris","21","38061","50","yes","1280","44"
"350","43.137254902","43.137254902","758.274509804","758.274509804","black","no","xpyriment","legacy","legacy","0","207","NA","uniform","67963","1000","0.0147138884393","1","undefined","1","0","50","50","50","0","50","50","50","NA","50","50","0","50","NA","50","50","0","50","NA","50","NA","50","0","0","50","50","0","50","50","51","/","09/19/17 15:43:22","The main experiment item","yes","FIN__AB__M21__7%3A10%3A17.osexp","C:\Users\ERP Testing Room\Desktop\Joanna\morph21","no","mono","no","18","no","white","no","yes","1080","legacy","50","50","C:/Users/ERP Testing Room/Desktop/Joanna/morph21/subject-101.csv","xpyriment","Jazzy James","3.1.4","0","/","NA","NA","NA","NA","/","/","611","NA","NA","NA","NA","214968","611","2","legacy","1024","2","48000","-16","AB_m21","101","odd","FILL_W","GLOOM","1378","401069","397968","399560","216356","NA","NA","NA","NA","399555","398466","NA","397468","NA","397464","399555","1387","401419","NA","NA","398560","1378","1378","398960","397464","1378","398560","401419","morph21_Oliver/Morris","22","38672","51","yes","1280","14"
"200","42.3076923077","42.3076923077","756.615384615","756.615384615","black","no","xpyriment","legacy","legacy","0","208","NA","uniform","65718","1000","0.0152165312395","0","undefined","0","0","51","51","51","0","51","51","51","NA","51","51","0","51","NA","51","51","0","51","NA","51","NA","51","0","0","51","51","0","51","51","52","z","09/19/17 15:43:22","The main experiment item","yes","FIN__AB__M21__7%3A10%3A17.osexp","C:\Users\ERP Testing Room\Desktop\Joanna\morph21","no","mono","no","18","no","white","no","yes","1080","legacy","51","51","C:/Users/ERP Testing Room/Desktop/Joanna/morph21/subject-101.csv","xpyriment","Jazzy James","3.1.4","0","/","NA","NA","NA","NA","/","/","672","NA","NA","NA","NA","214968","672","2","legacy","1024","2","48000","-16","AB_m21","101","odd","FILL_NW","FROT","1378","404227","402644","399560","216356","NA","NA","NA","NA","399555","403141","NA","402144","NA","402136","404222","1387","404427","NA","NA","403227","1378","1378","403627","402135","1378","403227","404427","morph21_Oliver/Morris","22","39344","52","yes","1280","22"
"250","43.3962264151","43.3962264151","753.622641509","753.622641509","black","no","xpyriment","legacy","legacy","0","202","NA","uniform","68148","1000","0.0146739449434","1","undefined","1","0","52","52","52","0","52","52","52","NA","52","52","0","52","NA","52","52","0","52","NA","52","NA","52","0","0","52","52","0","52","52","53","/","09/19/17 15:43:22","The main experiment item","yes","FIN__AB__M21__7%3A10%3A17.osexp","C:\Users\ERP Testing Room\Desktop\Joanna\morph21","no","mono","no","18","no","white","no","yes","1080","legacy","52","52","C:/Users/ERP Testing Room/Desktop/Joanna/morph21/subject-101.csv","xpyriment","Jazzy James","3.1.4","0","/","NA","NA","NA","NA","/","/","598","NA","NA","NA","NA","214968","598","2","legacy","1024","2","48000","-16","AB_m21","101","odd","CW_L","DEAFNESS","1378","407270","405678","399560","216356","NA","NA","NA","NA","407265","406175","NA","405177","NA","405170","407265","1387","407520","NA","NA","406270","1378","1378","406670","405170","1378","406270","407520","morph21_Oliver/Morris","23","39942","53","yes","1280","39"
"400","44.4444444444","44.4444444444","757.62962963","757.62962963","black","no","xpyriment","legacy","legacy","0","206","NA","uniform","47829","1000","0.0209078174329","1","undefined","1","0","53","53","53","0","53","53","53","NA","53","53","0","53","NA","53","53","0","53","NA","53","NA","53","0","0","53","53","0","53","53","54","z","09/19/17 15:43:22","The main experiment item","yes","FIN__AB__M21__7%3A10%3A17.osexp","C:\Users\ERP Testing Room\Desktop\Joanna\morph21","no","mono","no","18","no","white","no","yes","1080","legacy","53","53","C:/Users/ERP Testing Room/Desktop/Joanna/morph21/subject-101.csv","xpyriment","Jazzy James","3.1.4","0","z","NA","NA","NA","NA","/","z","970","NA","NA","NA","NA","214968","970","2","legacy","1024","2","48000","-16","AB_m21","101","odd","NW_L_SIMP","VALIDEL","1378","411870","408770","410362","216356","NA","NA","NA","NA","410355","409267","NA","408270","NA","408261","410355","1387","412270","NA","NA","409362","1378","1378","409753","408261","1378","409362","412270","morph21_Oliver/Morris","24","40912","54","yes","1280","23"
"200","45.4545454545","45.4545454545","757.890909091","757.890909091","black","no","xpyriment","legacy","legacy","0","205","NA","uniform","61318","1000","0.0163084249323","1","undefined","1","0","54","54","54","0","54","54","54","NA","54","54","0","54","NA","54","54","0","54","NA","54","NA","54","0","0","54","54","0","54","54","55","z","09/19/17 15:43:22","The main experiment item","yes","FIN__AB__M21__7%3A10%3A17.osexp","C:\Users\ERP Testing Room\Desktop\Joanna\morph21","no","mono","no","18","no","white","no","yes","1080","legacy","54","54","C:/Users/ERP Testing Room/Desktop/Joanna/morph21/subject-101.csv","xpyriment","Jazzy James","3.1.4","0","z","NA","NA","NA","NA","/","z","772","NA","NA","NA","NA","214968","772","2","legacy","1024","2","48000","-16","AB_m21","101","odd","NW_S_SIMP","GUMFIL","1378","415095","413479","410362","216356","NA","NA","NA","NA","415090","413976","NA","412978","NA","412969","415090","1387","415295","NA","NA","414095","1378","1378","414487","412969","1378","414095","415295","morph21_Oliver/Morris","25","41684","55","yes","1280","2"
"400","46.4285714286","46.4285714286","754.821428571","754.821428571","black","no","xpyriment","legacy","legacy","0","202","NA","uniform","71753","1000","0.0139366995108","1","undefined","1","0","55","55","55","0","55","55","55","NA","55","55","0","55","NA","55","55","0","55","NA","55","NA","55","0","0","55","55","0","55","55","56","/","09/19/17 15:43:22","The main experiment item","yes","FIN__AB__M21__7%3A10%3A17.osexp","C:\Users\ERP Testing Room\Desktop\Joanna\morph21","no","mono","no","18","no","white","no","yes","1080","legacy","55","55","C:/Users/ERP Testing Room/Desktop/Joanna/morph21/subject-101.csv","xpyriment","Jazzy James","3.1.4","0","/","NA","NA","NA","NA","/","/","586","NA","NA","NA","NA","214968","586","2","legacy","1024","2","48000","-16","AB_m21","101","odd","CW_L","SPELLER","1378","418145","416545","410362","216356","NA","NA","NA","NA","418140","417042","NA","416045","NA","416035","418140","1387","418545","NA","NA","417145","1378","1378","417537","416035","1378","417145","418545","morph21_Oliver/Morris","26","42270","56","yes","1280","3"
"350","47.3684210526","47.3684210526","752.035087719","752.035087719","black","no","xpyriment","legacy","legacy","0","208","NA","uniform","70526","1000","0.0141791679664","1","undefined","1","0","56","56","56","0","56","56","56","NA","56","56","0","56","NA","56","56","0","56","NA","56","NA","56","0","0","56","56","0","56","56","57","z","09/19/17 15:43:22","The main experiment item","yes","FIN__AB__M21__7%3A10%3A17.osexp","C:\Users\ERP Testing Room\Desktop\Joanna\morph21","no","mono","no","18","no","white","no","yes","1080","legacy","56","56","C:/Users/ERP Testing Room/Desktop/Joanna/morph21/subject-101.csv","xpyriment","Jazzy James","3.1.4","0","z","NA","NA","NA","NA","/","z","596","NA","NA","NA","NA","214968","596","2","legacy","1024","2","48000","-16","AB_m21","101","odd","FILL_NW","HEAS","1378","422796","419695","421287","216356","NA","NA","NA","NA","421278","420193","NA","419195","NA","419190","421278","1387","423146","NA","NA","420287","1378","1378","420679","419190","1378","420287","423146","morph21_Oliver/Morris","27","42866","57","yes","1280","26"
"250","48.275862069","48.275862069","751.448275862","751.448275862","black","no","xpyriment","legacy","legacy","0","208","NA","uniform","64349","1000","0.0155402570359","1","undefined","1","0","57","57","57","0","57","57","57","NA","57","57","0","57","NA","57","57","0","57","NA","57","NA","57","0","0","57","57","0","57","57","58","z","09/19/17 15:43:22","The main experiment item","yes","FIN__AB__M21__7%3A10%3A17.osexp","C:\Users\ERP Testing Room\Desktop\Joanna\morph21","no","mono","no","18","no","white","no","yes","1080","legacy","57","57","C:/Users/ERP Testing Room/Desktop/Joanna/morph21/subject-101.csv","xpyriment","Jazzy James","3.1.4","0","z","NA","NA","NA","NA","/","z","718","NA","NA","NA","NA","214968","718","2","legacy","1024","2","48000","-16","AB_m21","101","odd","FILL_NW","BUWL","1378","426022","424438","421287","216356","NA","NA","NA","NA","426018","424935","NA","423938","NA","423932","426018","1387","426272","NA","NA","425030","1378","1378","425422","423932","1378","425030","426272","morph21_Oliver/Morris","28","43584","58","yes","1280","9"
"400","49.1525423729","49.1525423729","753.711864407","753.711864407","black","no","xpyriment","legacy","legacy","0","208","NA","uniform","50832","1000","0.0196726471514","1","undefined","1","0","58","58","58","0","58","58","58","NA","58","58","0","58","NA","58","58","0","58","NA","58","NA","58","0","0","58","58","0","58","58","59","z","09/19/17 15:43:22","The main experiment item","yes","FIN__AB__M21__7%3A10%3A17.osexp","C:\Users\ERP Testing Room\Desktop\Joanna\morph21","no","mono","no","18","no","white","no","yes","1080","legacy","58","58","C:/Users/ERP Testing Room/Desktop/Joanna/morph21/subject-101.csv","xpyriment","Jazzy James","3.1.4","0","z","NA","NA","NA","NA","/","z","885","NA","NA","NA","NA","214968","885","2","legacy","1024","2","48000","-16","AB_m21","101","odd","FILL_NW","HEND","1378","429022","427430","421287","216356","NA","NA","NA","NA","429015","427927","NA","426930","NA","426921","429015","1387","429422","NA","NA","428022","1378","1378","428413","426921","1378","428022","429422","morph21_Oliver/Morris","29","44469","59","yes","1280","28"
"200","50","50","751.6","751.6","black","no","xpyriment","legacy","legacy","0","208","NA","uniform","71999","1000","0.0138890817928","1","undefined","1","0","59","59","59","0","59","59","59","NA","59","59","0","59","NA","59","59","0","59","NA","59","NA","59","0","0","59","59","0","59","59","60","z","09/19/17 15:43:22","The main experiment item","yes","FIN__AB__M21__7%3A10%3A17.osexp","C:\Users\ERP Testing Room\Desktop\Joanna\morph21","no","mono","no","18","no","white","no","yes","1080","legacy","59","59","C:/Users/ERP Testing Room/Desktop/Joanna/morph21/subject-101.csv","xpyriment","Jazzy James","3.1.4","0","z","NA","NA","NA","NA","/","z","627","NA","NA","NA","NA","214968","627","2","legacy","1024","2","48000","-16","AB_m21","101","odd","FILL_NW","VUNKS","1378","433772","430639","432264","216356","NA","NA","NA","NA","432260","431136","NA","430139","NA","430127","432260","1387","433972","NA","NA","431272","1378","1378","431664","430127","1378","431272","433972","morph21_Oliver/Morris","30","45096","60","yes","1280","49"
"250","50.8196721311","50.8196721311","754.098360656","754.098360656","black","no","xpyriment","legacy","legacy","0","206","NA","uniform","59879","1000","0.0167003456972","1","undefined","1","0","60","60","60","0","60","60","60","NA","60","60","0","60","NA","60","60","0","60","NA","60","NA","60","0","0","60","60","0","60","60","61","z","09/19/17 15:43:22","The main experiment item","yes","FIN__AB__M21__7%3A10%3A17.osexp","C:\Users\ERP Testing Room\Desktop\Joanna\morph21","no","mono","no","18","no","white","no","yes","1080","legacy","60","60","C:/Users/ERP Testing Room/Desktop/Joanna/morph21/subject-101.csv","xpyriment","Jazzy James","3.1.4","0","z","NA","NA","NA","NA","/","z","904","NA","NA","NA","NA","214968","904","2","legacy","1024","2","48000","-16","AB_m21","101","odd","NW_L_SIMP"," DRESSODY","1378","436747","435164","432264","216356","NA","NA","NA","NA","436741","435661","NA","434664","NA","434656","436741","1387","436997","NA","NA","435747","1378","1378","436139","434656","1378","435747","436997","morph21_Oliver/Morris","31","46000","61","yes","1280","21"
"250","51.6129032258","51.6129032258","751.822580645","751.822580645","black","no","xpyriment","legacy","legacy","0","201","NA","uniform","73964","1000","0.013520090855","1","undefined","1","0","61","61","61","0","61","61","61","NA","61","61","0","61","NA","61","61","0","61","NA","61","NA","61","0","0","61","61","0","61","61","62","/","09/19/17 15:43:22","The main experiment item","yes","FIN__AB__M21__7%3A10%3A17.osexp","C:\Users\ERP Testing Room\Desktop\Joanna\morph21","no","mono","no","18","no","white","no","yes","1080","legacy","61","61","C:/Users/ERP Testing Room/Desktop/Joanna/morph21/subject-101.csv","xpyriment","Jazzy James","3.1.4","0","/","NA","NA","NA","NA","/","/","613","NA","NA","NA","NA","214968","613","2","legacy","1024","2","48000","-16","AB_m21","101","odd","CW_S","COSTLY","1378","439822","438239","432264","216356","NA","NA","NA","NA","439818","438736","NA","437739","NA","437733","439818","1387","440072","NA","NA","438822","1378","1378","439222","437733","1378","438822","440072","morph21_Oliver/Morris","32","46613","62","yes","1280","36"
"400","52.380952381","52.380952381","752.888888889","752.888888889","black","no","xpyriment","legacy","legacy","0","208","NA","uniform","60863","1000","0.0164303435585","1","undefined","1","0","62","62","62","0","62","62","62","NA","62","62","0","62","NA","62","62","0","62","NA","62","NA","62","0","0","62","62","0","62","62","63","z","09/19/17 15:43:22","The main experiment item","yes","FIN__AB__M21__7%3A10%3A17.osexp","C:\Users\ERP Testing Room\Desktop\Joanna\morph21","no","mono","no","18","no","white","no","yes","1080","legacy","62","62","C:/Users/ERP Testing Room/Desktop/Joanna/morph21/subject-101.csv","xpyriment","Jazzy James","3.1.4","0","z","NA","NA","NA","NA","/","z","819","NA","NA","NA","NA","214968","819","2","legacy","1024","2","48000","-16","AB_m21","101","odd","FILL_NW","DROES","1378","444374","441282","442865","216356","NA","NA","NA","NA","442861","441779","NA","440782","NA","440774","442861","1387","444774","NA","NA","441865","1378","1378","442265","440774","1378","441865","444774","morph21_Oliver/Morris","33","47432","63","yes","1280","17"
"250","53.125","53.125","750.796875","750.796875","black","no","xpyriment","legacy","legacy","0","201","NA","uniform","68624","1000","0.014572161343","1","undefined","1","0","63","63","63","0","63","63","63","NA","63","63","0","63","NA","63","63","0","63","NA","63","NA","63","0","0","63","63","0","63","63","64","/","09/19/17 15:43:22","The main experiment item","yes","FIN__AB__M21__7%3A10%3A17.osexp","C:\Users\ERP Testing Room\Desktop\Joanna\morph21","no","mono","no","18","no","white","no","yes","1080","legacy","63","63","C:/Users/ERP Testing Room/Desktop/Joanna/morph21/subject-101.csv","xpyriment","Jazzy James","3.1.4","0","/","NA","NA","NA","NA","/","/","619","NA","NA","NA","NA","214968","619","2","legacy","1024","2","48000","-16","AB_m21","101","odd","CW_S","SEEKER","1378","447624","446032","442865","216356","NA","NA","NA","NA","447616","446529","NA","445532","NA","445525","447616","1387","447874","NA","NA","446624","1378","1378","447015","445525","1378","446624","447874","morph21_Oliver/Morris","34","48051","64","yes","1280","16"
"350","53.8461538462","53.8461538462","747.661538462","747.661538462","black","no","xpyriment","legacy","legacy","0","201","NA","uniform","67317","1000","0.0148550886106","1","undefined","1","0","64","64","64","0","64","64","64","NA","64","64","0","64","NA","64","64","0","64","NA","64","NA","64","0","0","64","64","0","64","64","65","/","09/19/17 15:43:22","The main experiment item","yes","FIN__AB__M21__7%3A10%3A17.osexp","C:\Users\ERP Testing Room\Desktop\Joanna\morph21","no","mono","no","18","no","white","no","yes","1080","legacy","64","64","C:/Users/ERP Testing Room/Desktop/Joanna/morph21/subject-101.csv","xpyriment","Jazzy James","3.1.4","0","/","NA","NA","NA","NA","/","/","547","NA","NA","NA","NA","214968","547","2","legacy","1024","2","48000","-16","AB_m21","101","odd","CW_S","AMAZEMENT","1378","450616","449024","442865","216356","NA","NA","NA","NA","450612","449521","NA","448515","NA","448512","450612","1387","450966","NA","NA","449624","1378","1378","450015","448512","1378","449624","450966","morph21_Oliver/Morris","35","48598","65","yes","1280","39"
"350","54.5454545455","54.5454545455","744.636363636","744.636363636","black","no","xpyriment","legacy","legacy","0","201","NA","uniform","69081","1000","0.0144757603393","1","undefined","1","0","65","65","65","0","65","65","65","NA","65","65","0","65","NA","65","65","0","65","NA","65","NA","65","0","0","65","65","0","65","65","66","/","09/19/17 15:43:22","The main experiment item","yes","FIN__AB__M21__7%3A10%3A17.osexp","C:\Users\ERP Testing Room\Desktop\Joanna\morph21","no","mono","no","18","no","white","no","yes","1080","legacy","65","65","C:/Users/ERP Testing Room/Desktop/Joanna/morph21/subject-101.csv","xpyriment","Jazzy James","3.1.4","0","/","NA","NA","NA","NA","/","/","548","NA","NA","NA","NA","214968","548","2","legacy","1024","2","48000","-16","AB_m21","101","odd","CW_S","TOASTER","1378","455316","452216","453807","216356","NA","NA","NA","NA","453797","452713","NA","451716","NA","451713","453797","1387","455666","NA","NA","452807","1378","1378","453199","451713","1378","452807","455666","morph21_Oliver/Morris","36","49146","66","yes","1280","10"
"400","55.223880597","55.223880597","741.52238806","741.52238806","black","no","xpyriment","legacy","legacy","0","207","NA","uniform","70363","1000","0.0142120148373","1","undefined","1","0","66","66","66","0","66","66","66","NA","66","66","0","66","NA","66","66","0","66","NA","66","NA","66","0","0","66","66","0","66","66","67","/","09/19/17 15:43:22","The main experiment item","yes","FIN__AB__M21__7%3A10%3A17.osexp","C:\Users\ERP Testing Room\Desktop\Joanna\morph21","no","mono","no","18","no","white","no","yes","1080","legacy","66","66","C:/Users/ERP Testing Room/Desktop/Joanna/morph21/subject-101.csv","xpyriment","Jazzy James","3.1.4","0","/","NA","NA","NA","NA","/","/","536","NA","NA","NA","NA","214968","536","2","legacy","1024","2","48000","-16","AB_m21","101","odd","FILL_W","DRUNK","1378","458483","456899","453807","216356","NA","NA","NA","NA","458476","457396","NA","456399","NA","456395","458476","1387","458884","NA","NA","457483","1378","1378","457874","456395","1378","457482","458884","morph21_Oliver/Morris","37","49682","67","yes","1280","19"
"250","55.8823529412","55.8823529412","738.426470588","738.426470588","black","no","xpyriment","legacy","legacy","0","207","NA","uniform","68141","1000","0.0146754523708","1","undefined","1","0","67","67","67","0","67","67","67","NA","67","67","0","67","NA","67","67","0","67","NA","67","NA","67","0","0","67","67","0","67","67","68","/","09/19/17 15:43:22","The main experiment item","yes","FIN__AB__M21__7%3A10%3A17.osexp","C:\Users\ERP Testing Room\Desktop\Joanna\morph21","no","mono","no","18","no","white","no","yes","1080","legacy","67","67","C:/Users/ERP Testing Room/Desktop/Joanna/morph21/subject-101.csv","xpyriment","Jazzy James","3.1.4","0","/","NA","NA","NA","NA","/","/","531","NA","NA","NA","NA","214968","531","2","legacy","1024","2","48000","-16","AB_m21","101","odd","FILL_W","STARVE","1378","461825","460225","453807","216356","NA","NA","NA","NA","461820","460722","NA","459725","NA","459721","461820","1387","462075","NA","NA","460825","1378","1378","461225","459721","1378","460825","462075","morph21_Oliver/Morris","38","50213","68","yes","1280","15"
"300","56.5217391304","56.5217391304","738.144927536","738.144927536","black","no","xpyriment","legacy","legacy","0","205","NA","uniform","68947","1000","0.0145038942956","1","undefined","1","0","68","68","68","0","68","68","68","NA","68","68","0","68","NA","68","68","0","68","NA","68","NA","68","0","0","68","68","0","68","68","69","z","09/19/17 15:43:22","The main experiment item","yes","FIN__AB__M21__7%3A10%3A17.osexp","C:\Users\ERP Testing Room\Desktop\Joanna\morph21","no","mono","no","18","no","white","no","yes","1080","legacy","68","68","C:/Users/ERP Testing Room/Desktop/Joanna/morph21/subject-101.csv","xpyriment","Jazzy James","3.1.4","0","z","NA","NA","NA","NA","/","z","719","NA","NA","NA","NA","214968","719","2","legacy","1024","2","48000","-16","AB_m21","101","odd","NW_S_SIMP","WARNODY","1378","466392","463300","464884","216356","NA","NA","NA","NA","464879","463798","NA","462800","NA","462795","464879","1387","466692","NA","NA","463884","1378","1378","464284","462795","1378","463884","466692","morph21_Oliver/Morris","39","50932","69","yes","1280","12"
"200","55.7142857143","55.7142857143","738.685714286","738.685714286","black","no","xpyriment","legacy","legacy","0","208","NA","uniform","64678","1000","0.0154612078296","0","undefined","0","0","69","69","69","0","69","69","69","NA","69","69","0","69","NA","69","69","0","69","NA","69","NA","69","0","0","69","69","0","69","69","70","z","09/19/17 15:43:22","The main experiment item","yes","FIN__AB__M21__7%3A10%3A17.osexp","C:\Users\ERP Testing Room\Desktop\Joanna\morph21","no","mono","no","18","no","white","no","yes","1080","legacy","69","69","C:/Users/ERP Testing Room/Desktop/Joanna/morph21/subject-101.csv","xpyriment","Jazzy James","3.1.4","0","/","NA","NA","NA","NA","/","/","776","NA","NA","NA","NA","214968","776","2","legacy","1024","2","48000","-16","AB_m21","101","odd","FILL_NW","FALONS","1378","469467","467884","464884","216356","NA","NA","NA","NA","464879","468381","NA","467384","NA","467376","469460","1387","469667","NA","NA","468467","1378","1378","468859","467376","1378","468467","469667","morph21_Oliver/Morris","39","51708","70","yes","1280","19"
"350","54.9295774648","54.9295774648","737.211267606","737.211267606","black","no","xpyriment","legacy","legacy","0","208","NA","uniform","70506","1000","0.0141831900831","0","undefined","0","0","70","70","70","0","70","70","70","NA","70","70","0","70","NA","70","70","0","70","NA","70","NA","70","0","0","70","70","0","70","70","71","z","09/19/17 15:43:22","The main experiment item","yes","FIN__AB__M21__7%3A10%3A17.osexp","C:\Users\ERP Testing Room\Desktop\Joanna\morph21","no","mono","no","18","no","white","no","yes","1080","legacy","70","70","C:/Users/ERP Testing Room/Desktop/Joanna/morph21/subject-101.csv","xpyriment","Jazzy James","3.1.4","0","/","NA","NA","NA","NA","/","/","634","NA","NA","NA","NA","214968","634","2","legacy","1024","2","48000","-16","AB_m21","101","odd","FILL_NW","DOADS","1378","472418","470834","464884","216356","NA","NA","NA","NA","464879","471331","NA","470334","NA","470328","472412","1387","472768","NA","NA","471417","1378","1378","471809","470328","1378","471417","472768","morph21_Oliver/Morris","39","52342","71","yes","1280","15"
"350","55.5555555556","55.5555555556","733.347222222","733.347222222","black","no","xpyriment","legacy","legacy","0","202","NA","uniform","79288","1000","0.0126122490162","1","undefined","1","0","71","71","71","0","71","71","71","NA","71","71","0","71","NA","71","71","0","71","NA","71","NA","71","0","0","71","71","0","71","71","72","/","09/19/17 15:43:22","The main experiment item","yes","FIN__AB__M21__7%3A10%3A17.osexp","C:\Users\ERP Testing Room\Desktop\Joanna\morph21","no","mono","no","18","no","white","no","yes","1080","legacy","71","71","C:/Users/ERP Testing Room/Desktop/Joanna/morph21/subject-101.csv","xpyriment","Jazzy James","3.1.4","0","/","NA","NA","NA","NA","/","/","459","NA","NA","NA","NA","214968","459","2","legacy","1024","2","48000","-16","AB_m21","101","odd","CW_L","PAINTER","1378","477094","474001","475585","216356","NA","NA","NA","NA","475578","474498","NA","473501","NA","473492","475578","1387","477444","NA","NA","474584","1378","1378","474976","473492","1378","474584","477444","morph21_Oliver/Morris","40","52801","72","yes","1280","18"
"250","56.1643835616","56.1643835616","731","731","black","no","xpyriment","legacy","legacy","0","202","NA","uniform","71264","1000","0.0140323304894","1","undefined","1","0","72","72","72","0","72","72","72","NA","72","72","0","72","NA","72","72","0","72","NA","72","NA","72","0","0","72","72","0","72","72","73","/","09/19/17 15:43:22","The main experiment item","yes","FIN__AB__M21__7%3A10%3A17.osexp","C:\Users\ERP Testing Room\Desktop\Joanna\morph21","no","mono","no","18","no","white","no","yes","1080","legacy","72","72","C:/Users/ERP Testing Room/Desktop/Joanna/morph21/subject-101.csv","xpyriment","Jazzy James","3.1.4","0","/","NA","NA","NA","NA","/","/","562","NA","NA","NA","NA","214968","562","2","legacy","1024","2","48000","-16","AB_m21","101","odd","CW_L","EXCITEMENT","1378","480202","478619","475585","216356","NA","NA","NA","NA","480198","479116","NA","478119","NA","478110","480198","1387","480452","NA","NA","479202","1378","1378","479602","478110","1378","479202","480452","morph21_Oliver/Morris","41","53363","73","yes","1280","38"
"300","56.7567567568","56.7567567568","729.445945946","729.445945946","black","no","xpyriment","legacy","legacy","0","205","NA","uniform","70069","1000","0.0142716465199","1","undefined","1","0","73","73","73","0","73","73","73","NA","73","73","0","73","NA","73","73","0","73","NA","73","NA","73","0","0","73","73","0","73","73","74","z","09/19/17 15:43:22","The main experiment item","yes","FIN__AB__M21__7%3A10%3A17.osexp","C:\Users\ERP Testing Room\Desktop\Joanna\morph21","no","mono","no","18","no","white","no","yes","1080","legacy","73","73","C:/Users/ERP Testing Room/Desktop/Joanna/morph21/subject-101.csv","xpyriment","Jazzy James","3.1.4","0","z","NA","NA","NA","NA","/","z","616","NA","NA","NA","NA","214968","616","2","legacy","1024","2","48000","-16","AB_m21","101","odd","NW_S_SIMP","BOLTOES","1378","483219","481636","475585","216356","NA","NA","NA","NA","483215","482133","NA","481136","NA","481131","483215","1387","483519","NA","NA","482219","1378","1378","482619","481131","1378","482219","483519","morph21_Oliver/Morris","42","53979","74","yes","1280","13"
"400","57.3333333333","57.3333333333","726.88","726.88","black","no","xpyriment","legacy","legacy","0","204","NA","uniform","72113","1000","0.0138671252063","undefined","undefined","1","0","74","74","74","0","74","74","74","NA","74","74","0","74","NA","74","74","0","74","NA","74","NA","74","0","0","74","74","0","74","74","75","z","09/19/17 15:43:22","The main experiment item","yes","FIN__AB__M21__7%3A10%3A17.osexp","C:\Users\ERP Testing Room\Desktop\Joanna\morph21","no","mono","no","18","no","white","no","yes","1080","legacy","74","74","C:/Users/ERP Testing Room/Desktop/Joanna/morph21/subject-101.csv","xpyriment","Jazzy James","3.1.4","0","space","space","NA","NA","NA","/","z","51644","51644","NA","NA","NA","214968","537","2","legacy","1024","2","48000","-16","AB_m21","101","odd","NW_L_COMP","BOILOUS","1378","487903","484811","486394","216356","488311","NA","NA","NA","486387","485308","NA","484311","NA","484305","486387","1387","539956","NA","NA","485394","1378","1378","485786","484305","1378","485394","488303","morph21_Oliver/Morris","43","54516","75","yes","1280","18"
"200","57.8947368421","57.8947368421","725.302631579","725.302631579","black","no","xpyriment","legacy","legacy","0","207","NA","uniform","71367","1000","0.0140120784116","1","undefined","1","0","75","75","75","0","75","75","75","NA","75","75","0","75","NA","75","75","0","75","NA","75","NA","75","0","0","75","75","0","75","75","76","/","09/19/17 15:43:22","The main experiment item","yes","FIN__AB__M21__7%3A10%3A17.osexp","C:\Users\ERP Testing Room\Desktop\Joanna\morph21","no","mono","no","18","no","white","no","yes","1080","legacy","75","75","C:/Users/ERP Testing Room/Desktop/Joanna/morph21/subject-101.csv","xpyriment","Jazzy James","3.1.4","0","/","space","NA","NA","NA","/","/","607","51644","NA","NA","NA","214968","607","2","legacy","1024","2","48000","-16","AB_m21","101","odd","FILL_W","OLD","1378","542716","541100","486394","216356","488311","NA","NA","NA","542708","541597","NA","540600","NA","540590","542708","1387","542916","NA","NA","541716","1378","1378","542108","540590","1378","541716","542916","morph21_Oliver/Morris","44","55123","76","yes","1280","44"
"250","58.4415584416","58.4415584416","722.012987013","722.012987013","black","no","xpyriment","legacy","legacy","0","201","NA","uniform","78701","1000","0.0127063188524","1","undefined","1","0","76","76","76","0","76","76","76","NA","76","76","0","76","NA","76","76","0","76","NA","76","NA","76","0","0","76","76","0","76","76","77","/","09/19/17 15:43:22","The main experiment item","yes","FIN__AB__M21__7%3A10%3A17.osexp","C:\Users\ERP Testing Room\Desktop\Joanna\morph21","no","mono","no","18","no","white","no","yes","1080","legacy","76","76","C:/Users/ERP Testing Room/Desktop/Joanna/morph21/subject-101.csv","xpyriment","Jazzy James","3.1.4","0","/","space","NA","NA","NA","/","/","472","51644","NA","NA","NA","214968","472","2","legacy","1024","2","48000","-16","AB_m21","101","odd","CW_S","TOSSING","1378","545667","544083","486394","216356","488311","NA","NA","NA","545659","544580","NA","543583","NA","543576","545659","1387","545918","NA","NA","544667","1378","1378","545058","543575","1378","544666","545918","morph21_Oliver/Morris","45","55595","77","yes","1280","26"
"350","58.9743589744","58.9743589744","724.641025641","724.641025641","black","no","xpyriment","legacy","legacy","0","208","NA","uniform","56458","1000","0.0177122816961","1","undefined","1","0","77","77","77","0","77","77","77","NA","77","77","0","77","NA","77","77","0","77","NA","77","NA","77","0","0","77","77","0","77","77","78","z","09/19/17 15:43:22","The main experiment item","yes","FIN__AB__M21__7%3A10%3A17.osexp","C:\Users\ERP Testing Room\Desktop\Joanna\morph21","no","mono","no","18","no","white","no","yes","1080","legacy","77","77","C:/Users/ERP Testing Room/Desktop/Joanna/morph21/subject-101.csv","xpyriment","Jazzy James","3.1.4","0","z","space","NA","NA","NA","/","z","927","51644","NA","NA","NA","214968","927","2","legacy","1024","2","48000","-16","AB_m21","101","odd","FILL_NW","DARF","1378","550218","547101","548709","216356","488311","NA","NA","NA","548703","547598","NA","546601","NA","546597","548703","1387","550568","NA","NA","547709","1378","1378","548101","546597","1378","547709","550568","morph21_Oliver/Morris","46","56522","78","yes","1280","10"
"300","59.4936708861","59.4936708861","725.367088608","725.367088608","black","no","xpyriment","legacy","legacy","0","201","NA","uniform","58538","1000","0.0170829204961","1","undefined","1","0","78","78","78","0","78","78","78","NA","78","78","0","78","NA","78","78","0","78","NA","78","NA","78","0","0","78","78","0","78","78","79","/","09/19/17 15:43:22","The main experiment item","yes","FIN__AB__M21__7%3A10%3A17.osexp","C:\Users\ERP Testing Room\Desktop\Joanna\morph21","no","mono","no","18","no","white","no","yes","1080","legacy","78","78","C:/Users/ERP Testing Room/Desktop/Joanna/morph21/subject-101.csv","xpyriment","Jazzy James","3.1.4","0","/","space","NA","NA","NA","/","/","782","51644","NA","NA","NA","214968","782","2","legacy","1024","2","48000","-16","AB_m21","101","odd","CW_S","DETECTABLE","1378","553493","551868","548709","216356","488311","NA","NA","NA","553482","552365","NA","551360","NA","551355","553482","1387","553793","NA","NA","552493","1378","1378","552884","551355","1378","552493","553793","morph21_Oliver/Morris","47","57304","79","yes","1280","1"
"200","60","60","725.3125","725.3125","black","no","xpyriment","legacy","legacy","0","208","NA","uniform","63001","1000","0.0158727639244","1","undefined","1","0","79","79","79","0","79","79","79","NA","79","79","0","79","NA","79","79","0","79","NA","79","NA","79","0","0","79","79","0","79","79","80","z","09/19/17 15:43:22","The main experiment item","yes","FIN__AB__M21__7%3A10%3A17.osexp","C:\Users\ERP Testing Room\Desktop\Joanna\morph21","no","mono","no","18","no","white","no","yes","1080","legacy","79","79","C:/Users/ERP Testing Room/Desktop/Joanna/morph21/subject-101.csv","xpyriment","Jazzy James","3.1.4","0","z","space","NA","NA","NA","/","z","721","51644","NA","NA","NA","214968","721","2","legacy","1024","2","48000","-16","AB_m21","101","odd","FILL_NW","PUCTS","1378","556610","555010","548709","216356","488311","NA","NA","NA","556604","555507","NA","554510","NA","554505","556604","1387","556810","NA","NA","555610","1378","1378","556001","554505","1378","555610","556810","morph21_Oliver/Morris","48","58025","80","yes","1280","40"
"300","59.2592592593","59.2592592593","726.024691358","726.024691358","black","no","xpyriment","legacy","legacy","0","208","NA","uniform","61833","1000","0.0161725939223","0","undefined","0","0","80","80","80","0","80","80","80","NA","80","80","0","80","NA","80","80","0","80","NA","80","NA","80","0","0","80","80","0","80","80","81","z","09/19/17 15:43:22","The main experiment item","yes","FIN__AB__M21__7%3A10%3A17.osexp","C:\Users\ERP Testing Room\Desktop\Joanna\morph21","no","mono","no","18","no","white","no","yes","1080","legacy","80","80","C:/Users/ERP Testing Room/Desktop/Joanna/morph21/subject-101.csv","xpyriment","Jazzy James","3.1.4","0","/","space","NA","NA","NA","/","/","783","51644","NA","NA","NA","214968","783","2","legacy","1024","2","48000","-16","AB_m21","101","odd","FILL_NW","SCURE","1378","561185","558068","559676","216356","488311","NA","NA","NA","556604","558565","NA","557568","NA","557561","559669","1387","561485","NA","NA","558676","1378","1378","559068","557561","1378","558676","561485","morph21_Oliver/Morris","48","58808","81","yes","1280","41"
"250","59.756097561","59.756097561","723.865853659","723.865853659","black","no","xpyriment","legacy","legacy","0","202","NA","uniform","63127","1000","0.0158410822627","1","undefined","1","0","81","81","81","0","81","81","81","NA","81","81","0","81","NA","81","81","0","81","NA","81","NA","81","0","0","81","81","0","81","81","82","/","09/19/17 15:43:22","The main experiment item","yes","FIN__AB__M21__7%3A10%3A17.osexp","C:\Users\ERP Testing Room\Desktop\Joanna\morph21","no","mono","no","18","no","white","no","yes","1080","legacy","81","81","C:/Users/ERP Testing Room/Desktop/Joanna/morph21/subject-101.csv","xpyriment","Jazzy James","3.1.4","0","/","space","NA","NA","NA","/","/","549","51644","NA","NA","NA","214968","549","2","legacy","1024","2","48000","-16","AB_m21","101","odd","CW_L","LAUGHING","1378","564319","562718","559676","216356","488311","NA","NA","NA","564310","563215","NA","562218","NA","562211","564310","1387","564569","NA","NA","563319","1378","1378","563711","562211","1378","563319","564569","morph21_Oliver/Morris","49","59357","82","yes","1280","27"
"300","60.2409638554","60.2409638554","721.168674699","721.168674699","black","no","xpyriment","legacy","legacy","0","207","NA","uniform","74178","1000","0.0134810860363","1","undefined","1","0","82","82","82","0","82","82","82","NA","82","82","0","82","NA","82","82","0","82","NA","82","NA","82","0","0","82","82","0","82","82","83","/","09/19/17 15:43:22","The main experiment item","yes","FIN__AB__M21__7%3A10%3A17.osexp","C:\Users\ERP Testing Room\Desktop\Joanna\morph21","no","mono","no","18","no","white","no","yes","1080","legacy","82","82","C:/Users/ERP Testing Room/Desktop/Joanna/morph21/subject-101.csv","xpyriment","Jazzy James","3.1.4","0","/","space","NA","NA","NA","/","/","500","51644","NA","NA","NA","214968","500","2","legacy","1024","2","48000","-16","AB_m21","101","odd","FILL_W","SICK","1378","567336","565753","559676","216356","488311","NA","NA","NA","567329","566250","NA","565253","NA","565244","567329","1387","567636","NA","NA","566336","1378","1378","566728","565244","1378","566336","567636","morph21_Oliver/Morris","50","59857","83","yes","1280","36"
"250","60.7142857143","60.7142857143","719.142857143","719.142857143","black","no","xpyriment","legacy","legacy","0","201","NA","uniform","65409","1000","0.0152884159672","1","undefined","1","0","83","83","83","0","83","83","83","NA","83","83","0","83","NA","83","83","0","83","NA","83","NA","83","0","0","83","83","0","83","83","84","/","09/19/17 15:43:22","The main experiment item","yes","FIN__AB__M21__7%3A10%3A17.osexp","C:\Users\ERP Testing Room\Desktop\Joanna\morph21","no","mono","no","18","no","white","no","yes","1080","legacy","83","83","C:/Users/ERP Testing Room/Desktop/Joanna/morph21/subject-101.csv","xpyriment","Jazzy James","3.1.4","0","/","space","NA","NA","NA","/","/","551","51644","NA","NA","NA","214968","551","2","legacy","1024","2","48000","-16","AB_m21","101","odd","CW_S","GRIMLY","1378","571953","568828","570445","216356","488311","NA","NA","NA","570434","569325","NA","568328","NA","568319","570434","1387","572203","NA","NA","569445","1378","1378","569836","568319","1378","569445","572203","morph21_Oliver/Morris","51","60408","84","yes","1280","31"
"300","60","60","722.341176471","722.341176471","black","no","xpyriment","legacy","legacy","0","204","NA","uniform","47922","1000","0.0208672426026","0","undefined","0","0","84","84","84","0","84","84","84","NA","84","84","0","84","NA","84","84","0","84","NA","84","NA","84","0","0","84","84","0","84","84","85","z","09/19/17 15:43:22","The main experiment item","yes","FIN__AB__M21__7%3A10%3A17.osexp","C:\Users\ERP Testing Room\Desktop\Joanna\morph21","no","mono","no","18","no","white","no","yes","1080","legacy","84","84","C:/Users/ERP Testing Room/Desktop/Joanna/morph21/subject-101.csv","xpyriment","Jazzy James","3.1.4","0","None","space","NA","NA","NA","/","None","991","51644","NA","NA","NA","214968","991","2","legacy","1024","2","48000","-16","AB_m21","101","odd","NW_L_COMP","FELLOWOUS","1378","575036","573453","570445","216356","488311","NA","NA","NA","570434","573950","NA","572953","NA","572943","575028","1387","575337","NA","NA","574037","1378","1378","574428","572943","1378","574037","575337","morph21_Oliver/Morris","51","61399","85","yes","1280","17"
"400","60.4651162791","60.4651162791","721.139534884","721.139534884","black","no","xpyriment","legacy","legacy","0","202","NA","uniform","69229","1000","0.0144448135897","1","undefined","1","0","85","85","85","0","85","85","85","NA","85","85","0","85","NA","85","85","0","85","NA","85","NA","85","0","0","85","85","0","85","85","86","/","09/19/17 15:43:22","The main experiment item","yes","FIN__AB__M21__7%3A10%3A17.osexp","C:\Users\ERP Testing Room\Desktop\Joanna\morph21","no","mono","no","18","no","white","no","yes","1080","legacy","85","85","C:/Users/ERP Testing Room/Desktop/Joanna/morph21/subject-101.csv","xpyriment","Jazzy James","3.1.4","0","/","space","NA","NA","NA","/","/","619","51644","NA","NA","NA","214968","619","2","legacy","1024","2","48000","-16","AB_m21","101","odd","CW_L","SHAPELY","1378","578128","576545","570445","216356","488311","NA","NA","NA","578120","577042","NA","576045","NA","576034","578120","1387","578528","NA","NA","577128","1378","1378","577520","576034","1378","577128","578528","morph21_Oliver/Morris","52","62018","86","yes","1280","35"
"200","60.9195402299","60.9195402299","719.103448276","719.103448276","black","no","xpyriment","legacy","legacy","0","201","NA","uniform","75275","1000","0.0132846230488","1","undefined","1","0","86","86","86","0","86","86","86","NA","86","86","0","86","NA","86","86","0","86","NA","86","NA","86","0","0","86","86","0","86","86","87","/","09/19/17 15:43:22","The main experiment item","yes","FIN__AB__M21__7%3A10%3A17.osexp","C:\Users\ERP Testing Room\Desktop\Joanna\morph21","no","mono","no","18","no","white","no","yes","1080","legacy","86","86","C:/Users/ERP Testing Room/Desktop/Joanna/morph21/subject-101.csv","xpyriment","Jazzy James","3.1.4","0","/","space","NA","NA","NA","/","/","544","51644","NA","NA","NA","214968","544","2","legacy","1024","2","48000","-16","AB_m21","101","odd","CW_S","AMUSEMENT","1378","582930","579837","581421","216356","488311","NA","NA","NA","581417","580334","NA","579328","NA","579324","581417","1387","583130","NA","NA","580428","1378","1378","580821","579324","1378","580428","583130","morph21_Oliver/Morris","53","62562","87","yes","1280","38"
"250","61.3636363636","61.3636363636","717.318181818","717.318181818","black","no","xpyriment","legacy","legacy","0","202","NA","uniform","69999","1000","0.0142859183703","1","undefined","1","0","87","87","87","0","87","87","87","NA","87","87","0","87","NA","87","87","0","87","NA","87","NA","87","0","0","87","87","0","87","87","88","/","09/19/17 15:43:22","The main experiment item","yes","FIN__AB__M21__7%3A10%3A17.osexp","C:\Users\ERP Testing Room\Desktop\Joanna\morph21","no","mono","no","18","no","white","no","yes","1080","legacy","87","87","C:/Users/ERP Testing Room/Desktop/Joanna/morph21/subject-101.csv","xpyriment","Jazzy James","3.1.4","0","/","space","NA","NA","NA","/","/","562","51644","NA","NA","NA","214968","562","2","legacy","1024","2","48000","-16","AB_m21","101","odd","CW_L","CREAMY","1378","585946","584346","581421","216356","488311","NA","NA","NA","585941","584843","NA","583846","NA","583842","585941","1387","586196","NA","NA","584946","1378","1378","585338","583842","1378","584946","586196","morph21_Oliver/Morris","54","63124","88","yes","1280","49"
"250","60.6741573034","60.6741573034","720.04494382","720.04494382","black","no","xpyriment","legacy","legacy","0","204","NA","uniform","54816","1000","0.0182428488033","0","undefined","0","0","88","88","88","0","88","88","88","NA","88","88","0","88","NA","88","88","0","88","NA","88","NA","88","0","0","88","88","0","88","88","89","z","09/19/17 15:43:22","The main experiment item","yes","FIN__AB__M21__7%3A10%3A17.osexp","C:\Users\ERP Testing Room\Desktop\Joanna\morph21","no","mono","no","18","no","white","no","yes","1080","legacy","88","88","C:/Users/ERP Testing Room/Desktop/Joanna/morph21/subject-101.csv","xpyriment","Jazzy James","3.1.4","0","/","space","NA","NA","NA","/","/","960","51644","NA","NA","NA","214968","960","2","legacy","1024","2","48000","-16","AB_m21","101","odd","NW_L_COMP","TRIPARY","1378","588955","587338","581421","216356","488311","NA","NA","NA","585941","587835","NA","586838","NA","586833","588952","1387","589205","NA","NA","587963","1378","1378","588355","586833","1378","587963","589205","morph21_Oliver/Morris","54","64084","89","yes","1280","2"
"200","61.1111111111","61.1111111111","719.388888889","719.388888889","black","no","xpyriment","legacy","legacy","0","205","NA","uniform","66043","1000","0.015141650137","1","undefined","1","0","89","89","89","0","89","89","89","NA","89","89","0","89","NA","89","89","0","89","NA","89","NA","89","0","0","89","89","0","89","89","90","z","09/19/17 15:43:22","The main experiment item","yes","FIN__AB__M21__7%3A10%3A17.osexp","C:\Users\ERP Testing Room\Desktop\Joanna\morph21","no","mono","no","18","no","white","no","yes","1080","legacy","89","89","C:/Users/ERP Testing Room/Desktop/Joanna/morph21/subject-101.csv","xpyriment","Jazzy James","3.1.4","0","z","space","NA","NA","NA","/","z","661","51644","NA","NA","NA","214968","661","2","legacy","1024","2","48000","-16","AB_m21","101","odd","NW_S_SIMP","NULLITH","1378","593530","590422","592022","216356","488311","NA","NA","NA","592012","590919","NA","589921","NA","589913","592012","1387","593730","NA","NA","591022","1378","1378","591413","589913","1378","591022","593730","morph21_Oliver/Morris","55","64745","90","yes","1280","23"
"350","61.5384615385","61.5384615385","721.252747253","721.252747253","black","no","xpyriment","legacy","legacy","0","208","NA","uniform","62547","1000","0.0159879770413","1","undefined","1","0","90","90","90","0","90","90","90","NA","90","90","0","90","NA","90","90","0","90","NA","90","NA","90","0","0","90","90","0","90","90","91","z","09/19/17 15:43:22","The main experiment item","yes","FIN__AB__M21__7%3A10%3A17.osexp","C:\Users\ERP Testing Room\Desktop\Joanna\morph21","no","mono","no","18","no","white","no","yes","1080","legacy","90","90","C:/Users/ERP Testing Room/Desktop/Joanna/morph21/subject-101.csv","xpyriment","Jazzy James","3.1.4","0","z","space","NA","NA","NA","/","z","889","51644","NA","NA","NA","214968","889","2","legacy","1024","2","48000","-16","AB_m21","101","odd","FILL_NW","JADS","1378","596530","594930","592022","216356","488311","NA","NA","NA","596522","595427","NA","594430","NA","594423","596522","1387","596880","NA","NA","595530","1378","1378","595922","594423","1378","595530","596880","morph21_Oliver/Morris","56","65634","91","yes","1280","31"
