"ITI","acc","accuracy","average_response_time","avg_rt","background","bidi","canvas_backend","clock_backend","color_backend","compensation","cond_trig","condtrigtime","coordinates","coroutines_cycles","coroutines_duration","coroutines_mean_cycle_duration","correct","correct_instructions_1","correct_new_keyboard_response_1","count_BA_m21","count_ITI","count_blank_screen","count_blink_screen","count_block1","count_break1","count_break2","count_break3_1","count_canvas","count_correct_trigger","count_def_chain","count_end_screen","count_fixation_1","count_getting_started","count_inc_counter","count_incorrect_trigger","count_instructions_1","count_logger","count_logscript","count_new_coroutines","count_new_inline_script","count_new_keyboard_response_1","count_reset_counter_prep","count_reset_counter_run","count_responsescreen","count_sequence","count_start_trigger","count_target_present","count_word_trigger","counter","cresp","datetime","description","disable_garbage_collection","experiment_file","experiment_path","font_bold","font_family","font_italic","font_size","font_underline","foreground","form_clicks","fullscreen","height","keyboard_backend","live_row","live_row_block1","logfile","mouse_backend","opensesame_codename","opensesame_version","repeat_cycle","response","response_break1","response_break2","response_break3_1","response_end_screen","response_instructions_1","response_new_keyboard_response_1","response_time","response_time_break1","response_time_break2","response_time_break3_1","response_time_end_screen","response_time_instructions_1","response_time_new_keyboard_response_1","round_decimals","sampler_backend","sound_buf_size","sound_channels","sound_freq","sound_sample_size","start","subject_nr","subject_parity","targ_type","target","time_BA_m21","time_ITI","time_blank_screen","time_blink_screen","time_block1","time_break1","time_break2","time_break3_1","time_canvas","time_correct_trigger","time_def_chain","time_end_screen","time_fixation_1","time_getting_started","time_inc_counter","time_incorrect_trigger","time_instructions_1","time_logger","time_logscript","time_new_inline_script","time_new_keyboard_response_1","time_reset_counter_prep","time_reset_counter_run","time_responsescreen","time_sequence","time_start_trigger","time_target_present","time_word_trigger","title","total_correct","total_response_time","total_responses","uniform_coordinates","width","word_trig"
"400","0","0","994","994","black","no","xpyriment","legacy","legacy","0","208","NA","uniform","52301","1000","0.0191200933061","0","undefined","0","0","0","0","0","0","0","0","0","NA","0","0","0","0","NA","0","0","0","0","NA","0","NA","0","0","0","0","0","0","0","0","1","z","11/12/18 16:11:50","The main experiment item","yes","FIN__BA__M21__7%3A10%3A17.osexp","C:\Users\ERP Testing Room\Desktop\Joanna\morph21","no","mono","no","18","no","white","no","yes","1080","legacy","0","0","C:/Users/ERP Testing Room/Desktop/Joanna/morph21/subject-151.csv","xpyriment","Kafkaesque Koffka","3.2.5","0","None","NA","NA","NA","NA","space","None","994","NA","NA","NA","NA","125906","994","2","legacy","1024","2","48000","-16","BA_m21","151","odd","FILL_NW","GIKE","2069","130869","129202","NA","127989","NA","NA","NA","NA","NA","129699","NA","128697","NA","128628","130863","2083","131269","NA","NA","129869","2069","2069","130261","128628","2069","129869","131269","morph21_Oliver/Morris","0","994","1","yes","1280","24"
"250","0","0","742.5","742.5","black","no","xpyriment","legacy","legacy","0","203","NA","uniform","68505","1000","0.0145974746369","0","undefined","0","0","1","1","1","0","1","1","1","NA","1","1","0","1","NA","1","1","0","1","NA","1","NA","1","0","0","1","1","0","1","1","2","z","11/12/18 16:11:50","The main experiment item","yes","FIN__BA__M21__7%3A10%3A17.osexp","C:\Users\ERP Testing Room\Desktop\Joanna\morph21","no","mono","no","18","no","white","no","yes","1080","legacy","1","1","C:/Users/ERP Testing Room/Desktop/Joanna/morph21/subject-151.csv","xpyriment","Kafkaesque Koffka","3.2.5","0","/","NA","NA","NA","NA","space","/","491","NA","NA","NA","NA","125906","491","2","legacy","1024","2","48000","-16","BA_m21","151","odd","NW_S_COMP","TREASONIME","2069","134186","132477","NA","127989","NA","NA","NA","NA","NA","132974","NA","131977","NA","131971","134178","2083","134436","NA","NA","133186","2069","2069","133577","131971","2069","133186","134436","morph21_Oliver/Morris","0","1485","2","yes","1280","14"
"400","33.3333333333","33.3333333333","759","759","black","no","xpyriment","legacy","legacy","0","208","NA","uniform","55715","1000","0.0179484878399","1","undefined","1","0","2","2","2","0","2","2","2","NA","2","2","0","2","NA","2","2","0","2","NA","2","NA","2","0","0","2","2","0","2","2","3","z","11/12/18 16:11:50","The main experiment item","yes","FIN__BA__M21__7%3A10%3A17.osexp","C:\Users\ERP Testing Room\Desktop\Joanna\morph21","no","mono","no","18","no","white","no","yes","1080","legacy","2","2","C:/Users/ERP Testing Room/Desktop/Joanna/morph21/subject-151.csv","xpyriment","Kafkaesque Koffka","3.2.5","0","z","NA","NA","NA","NA","space","z","792","NA","NA","NA","NA","125906","792","2","legacy","1024","2","48000","-16","BA_m21","151","odd","FILL_NW","ULNS","2069","138770","135602","137262","127989","NA","NA","NA","NA","137258","136100","NA","135102","NA","135099","137258","2083","139170","NA","NA","136269","2069","2069","136662","135099","2069","136269","139170","morph21_Oliver/Morris","1","2277","3","yes","1280","45"
"250","50","50","795.75","795.75","black","no","xpyriment","legacy","legacy","0","203","NA","uniform","53592","1000","0.0186595014181","1","undefined","1","0","3","3","3","0","3","3","3","NA","3","3","0","3","NA","3","3","0","3","NA","3","NA","3","0","0","3","3","0","3","3","4","z","11/12/18 16:11:50","The main experiment item","yes","FIN__BA__M21__7%3A10%3A17.osexp","C:\Users\ERP Testing Room\Desktop\Joanna\morph21","no","mono","no","18","no","white","no","yes","1080","legacy","3","3","C:/Users/ERP Testing Room/Desktop/Joanna/morph21/subject-151.csv","xpyriment","Kafkaesque Koffka","3.2.5","0","z","NA","NA","NA","NA","space","z","906","NA","NA","NA","NA","125906","906","2","legacy","1024","2","48000","-16","BA_m21","151","odd","NW_S_COMP","LIDADY","2069","141987","140312","137262","127989","NA","NA","NA","NA","141978","140809","NA","139812","NA","139807","141978","2083","142237","NA","NA","140987","2069","2069","141379","139807","2069","140987","142237","morph21_Oliver/Morris","2","3183","4","yes","1280","3"
"250","60","60","743.8","743.8","black","no","xpyriment","legacy","legacy","0","201","NA","uniform","74800","1000","0.0133689839572","1","undefined","1","0","4","4","4","0","4","4","4","NA","4","4","0","4","NA","4","4","0","4","NA","4","NA","4","0","0","4","4","0","4","4","5","/","11/12/18 16:11:50","The main experiment item","yes","FIN__BA__M21__7%3A10%3A17.osexp","C:\Users\ERP Testing Room\Desktop\Joanna\morph21","no","mono","no","18","no","white","no","yes","1080","legacy","4","4","C:/Users/ERP Testing Room/Desktop/Joanna/morph21/subject-151.csv","xpyriment","Kafkaesque Koffka","3.2.5","0","/","NA","NA","NA","NA","space","/","536","NA","NA","NA","NA","125906","536","2","legacy","1024","2","48000","-16","BA_m21","151","odd","CW_S","NOTICEABLE","2069","145046","143396","137262","127989","NA","NA","NA","NA","145037","143893","NA","142895","NA","142884","145037","2083","145296","NA","NA","144045","2069","2069","144437","142884","2069","144045","145296","morph21_Oliver/Morris","3","3719","5","yes","1280","3"
"300","66.6666666667","66.6666666667","712.666666667","712.666666667","black","no","xpyriment","legacy","legacy","0","202","NA","uniform","64398","1000","0.01552843256","1","undefined","1","0","5","5","5","0","5","5","5","NA","5","5","0","5","NA","5","5","0","5","NA","5","NA","5","0","0","5","5","0","5","5","6","/","11/12/18 16:11:50","The main experiment item","yes","FIN__BA__M21__7%3A10%3A17.osexp","C:\Users\ERP Testing Room\Desktop\Joanna\morph21","no","mono","no","18","no","white","no","yes","1080","legacy","5","5","C:/Users/ERP Testing Room/Desktop/Joanna/morph21/subject-151.csv","xpyriment","Kafkaesque Koffka","3.2.5","0","/","NA","NA","NA","NA","space","/","557","NA","NA","NA","NA","125906","557","2","legacy","1024","2","48000","-16","BA_m21","151","odd","CW_L","KNOCKER","2069","149612","146454","148104","127989","NA","NA","NA","NA","148095","146951","NA","145954","NA","145946","148095","2083","149913","NA","NA","147104","2069","2069","147496","145946","2069","147104","149913","morph21_Oliver/Morris","4","4276","6","yes","1280","4"
"400","71.4285714286","71.4285714286","689.857142857","689.857142857","black","no","xpyriment","legacy","legacy","0","201","NA","uniform","68289","1000","0.0146436468538","1","undefined","1","0","6","6","6","0","6","6","6","NA","6","6","0","6","NA","6","6","0","6","NA","6","NA","6","0","0","6","6","0","6","6","7","/","11/12/18 16:11:50","The main experiment item","yes","FIN__BA__M21__7%3A10%3A17.osexp","C:\Users\ERP Testing Room\Desktop\Joanna\morph21","no","mono","no","18","no","white","no","yes","1080","legacy","6","6","C:/Users/ERP Testing Room/Desktop/Joanna/morph21/subject-151.csv","xpyriment","Kafkaesque Koffka","3.2.5","0","/","NA","NA","NA","NA","space","/","553","NA","NA","NA","NA","125906","553","2","legacy","1024","2","48000","-16","BA_m21","151","odd","CW_S","RAIDER","2069","152771","151096","148104","127989","NA","NA","NA","NA","152763","151593","NA","150596","NA","150592","152763","2083","153171","NA","NA","151771","2069","2069","152163","150591","2069","151771","153171","morph21_Oliver/Morris","5","4829","7","yes","1280","12"
"350","75","75","685","685","black","no","xpyriment","legacy","legacy","0","208","NA","uniform","65606","1000","0.0152425083072","1","undefined","1","0","7","7","7","0","7","7","7","NA","7","7","0","7","NA","7","7","0","7","NA","7","NA","7","0","0","7","7","0","7","7","8","z","11/12/18 16:11:50","The main experiment item","yes","FIN__BA__M21__7%3A10%3A17.osexp","C:\Users\ERP Testing Room\Desktop\Joanna\morph21","no","mono","no","18","no","white","no","yes","1080","legacy","7","7","C:/Users/ERP Testing Room/Desktop/Joanna/morph21/subject-151.csv","xpyriment","Kafkaesque Koffka","3.2.5","0","z","NA","NA","NA","NA","space","z","651","NA","NA","NA","NA","125906","651","2","legacy","1024","2","48000","-16","BA_m21","151","odd","FILL_NW","DASP","2069","156114","154389","148104","127989","NA","NA","NA","NA","156109","154886","NA","153889","NA","153877","156109","2083","156464","NA","NA","155114","2069","2069","155514","153877","2069","155114","156464","morph21_Oliver/Morris","6","5480","8","yes","1280","13"
"250","77.7777777778","77.7777777778","653.222222222","653.222222222","black","no","xpyriment","legacy","legacy","0","201","NA","uniform","71981","1000","0.0138925549798","1","undefined","1","0","8","8","8","0","8","8","8","NA","8","8","0","8","NA","8","8","0","8","NA","8","NA","8","0","0","8","8","0","8","8","9","/","11/12/18 16:11:50","The main experiment item","yes","FIN__BA__M21__7%3A10%3A17.osexp","C:\Users\ERP Testing Room\Desktop\Joanna\morph21","no","mono","no","18","no","white","no","yes","1080","legacy","8","8","C:/Users/ERP Testing Room/Desktop/Joanna/morph21/subject-151.csv","xpyriment","Kafkaesque Koffka","3.2.5","0","/","NA","NA","NA","NA","space","/","399","NA","NA","NA","NA","125906","399","2","legacy","1024","2","48000","-16","BA_m21","151","odd","CW_S","AWARENESS","2069","160839","157647","159330","127989","NA","NA","NA","NA","159326","158144","NA","157147","NA","157137","159326","2083","161089","NA","NA","158331","2069","2069","158730","157137","2069","158331","161089","morph21_Oliver/Morris","7","5879","9","yes","1280","44"
"350","80","80","668.9","668.9","black","no","xpyriment","legacy","legacy","0","204","NA","uniform","59225","1000","0.0168847615027","1","undefined","1","0","9","9","9","0","9","9","9","NA","9","9","0","9","NA","9","9","0","9","NA","9","NA","9","0","0","9","9","0","9","9","10","z","11/12/18 16:11:50","The main experiment item","yes","FIN__BA__M21__7%3A10%3A17.osexp","C:\Users\ERP Testing Room\Desktop\Joanna\morph21","no","mono","no","18","no","white","no","yes","1080","legacy","9","9","C:/Users/ERP Testing Room/Desktop/Joanna/morph21/subject-151.csv","xpyriment","Kafkaesque Koffka","3.2.5","0","z","NA","NA","NA","NA","space","z","810","NA","NA","NA","NA","125906","810","2","legacy","1024","2","48000","-16","BA_m21","151","odd","NW_L_COMP","MOUTHIME","2069","163947","162247","159330","127989","NA","NA","NA","NA","163938","162744","NA","161747","NA","161736","163938","2083","164297","NA","NA","162947","2069","2069","163339","161736","2069","162947","164297","morph21_Oliver/Morris","8","6689","10","yes","1280","11"
"400","81.8181818182","81.8181818182","646.272727273","646.272727273","black","no","xpyriment","legacy","legacy","0","202","NA","uniform","69477","1000","0.0143932524433","1","undefined","1","0","10","10","10","0","10","10","10","NA","10","10","0","10","NA","10","10","0","10","NA","10","NA","10","0","0","10","10","0","10","10","11","/","11/12/18 16:11:50","The main experiment item","yes","FIN__BA__M21__7%3A10%3A17.osexp","C:\Users\ERP Testing Room\Desktop\Joanna\morph21","no","mono","no","18","no","white","no","yes","1080","legacy","10","10","C:/Users/ERP Testing Room/Desktop/Joanna/morph21/subject-151.csv","xpyriment","Kafkaesque Koffka","3.2.5","0","/","NA","NA","NA","NA","space","/","420","NA","NA","NA","NA","125906","420","2","legacy","1024","2","48000","-16","BA_m21","151","odd","CW_L","WRONGLY","2069","167089","165414","159330","127989","NA","NA","NA","NA","167085","165911","NA","164914","NA","164907","167085","2083","167489","NA","NA","166089","2069","2069","166489","164907","2069","166089","167489","morph21_Oliver/Morris","9","7109","11","yes","1280","37"
"350","83.3333333333","83.3333333333","637.166666667","637.166666667","black","no","xpyriment","legacy","legacy","0","202","NA","uniform","73028","1000","0.0136933778825","1","undefined","1","0","11","11","11","0","11","11","11","NA","11","11","0","11","NA","11","11","0","11","NA","11","NA","11","0","0","11","11","0","11","11","12","/","11/12/18 16:11:50","The main experiment item","yes","FIN__BA__M21__7%3A10%3A17.osexp","C:\Users\ERP Testing Room\Desktop\Joanna\morph21","no","mono","no","18","no","white","no","yes","1080","legacy","11","11","C:/Users/ERP Testing Room/Desktop/Joanna/morph21/subject-151.csv","xpyriment","Kafkaesque Koffka","3.2.5","0","/","NA","NA","NA","NA","space","/","537","NA","NA","NA","NA","125906","537","2","legacy","1024","2","48000","-16","BA_m21","151","odd","CW_L","HUNTER","2069","171849","168631","170339","127989","NA","NA","NA","NA","170329","169128","NA","168131","NA","168124","170329","2083","172199","NA","NA","169339","2069","2069","169731","168124","2069","169339","172199","morph21_Oliver/Morris","10","7646","12","yes","1280","10"
"200","84.6153846154","84.6153846154","617.923076923","617.923076923","black","no","xpyriment","legacy","legacy","0","201","NA","uniform","79572","1000","0.0125672347057","1","undefined","1","0","12","12","12","0","12","12","12","NA","12","12","0","12","NA","12","12","0","12","NA","12","NA","12","0","0","12","12","0","12","12","13","/","11/12/18 16:11:50","The main experiment item","yes","FIN__BA__M21__7%3A10%3A17.osexp","C:\Users\ERP Testing Room\Desktop\Joanna\morph21","no","mono","no","18","no","white","no","yes","1080","legacy","12","12","C:/Users/ERP Testing Room/Desktop/Joanna/morph21/subject-151.csv","xpyriment","Kafkaesque Koffka","3.2.5","0","/","NA","NA","NA","NA","space","/","387","NA","NA","NA","NA","125906","387","2","legacy","1024","2","48000","-16","BA_m21","151","odd","CW_S","LISTENER","2069","175082","173399","170339","127989","NA","NA","NA","NA","175076","173896","NA","172899","NA","172892","175076","2083","175282","NA","NA","174082","2069","2069","174474","172892","2069","174082","175282","morph21_Oliver/Morris","11","8033","13","yes","1280","18"
"350","78.5714285714","78.5714285714","606.714285714","606.714285714","black","no","xpyriment","legacy","legacy","0","208","NA","uniform","67848","1000","0.0147388279684","0","undefined","0","0","13","13","13","0","13","13","13","NA","13","13","0","13","NA","13","13","0","13","NA","13","NA","13","0","0","13","13","0","13","13","14","z","11/12/18 16:11:50","The main experiment item","yes","FIN__BA__M21__7%3A10%3A17.osexp","C:\Users\ERP Testing Room\Desktop\Joanna\morph21","no","mono","no","18","no","white","no","yes","1080","legacy","13","13","C:/Users/ERP Testing Room/Desktop/Joanna/morph21/subject-151.csv","xpyriment","Kafkaesque Koffka","3.2.5","0","/","NA","NA","NA","NA","space","/","461","NA","NA","NA","NA","125906","461","2","legacy","1024","2","48000","-16","BA_m21","151","odd","FILL_NW","DELP","2069","178016","176366","170339","127989","NA","NA","NA","NA","175076","176863","NA","175866","NA","175858","178005","2083","178366","NA","NA","177016","2069","2069","177407","175858","2069","177016","178366","morph21_Oliver/Morris","11","8494","14","yes","1280","14"
"300","80","80","613.466666667","613.466666667","black","no","xpyriment","legacy","legacy","0","205","NA","uniform","63005","1000","0.0158717562098","1","undefined","1","0","14","14","14","0","14","14","14","NA","14","14","0","14","NA","14","14","0","14","NA","14","NA","14","0","0","14","14","0","14","14","15","z","11/12/18 16:11:50","The main experiment item","yes","FIN__BA__M21__7%3A10%3A17.osexp","C:\Users\ERP Testing Room\Desktop\Joanna\morph21","no","mono","no","18","no","white","no","yes","1080","legacy","14","14","C:/Users/ERP Testing Room/Desktop/Joanna/morph21/subject-151.csv","xpyriment","Kafkaesque Koffka","3.2.5","0","z","NA","NA","NA","NA","space","z","708","NA","NA","NA","NA","125906","708","2","legacy","1024","2","48000","-16","BA_m21","151","odd","NW_S_SIMP","HELMETOUS","2069","182749","179549","181241","127989","NA","NA","NA","NA","181237","180046","NA","179049","NA","179038","181237","2083","183049","NA","NA","180241","2069","2069","180641","179038","2069","180241","183049","morph21_Oliver/Morris","12","9202","15","yes","1280","14"
"350","81.25","81.25","607.75","607.75","black","no","xpyriment","legacy","legacy","0","208","NA","uniform","65699","1000","0.0152209318254","1","undefined","1","0","15","15","15","0","15","15","15","NA","15","15","0","15","NA","15","15","0","15","NA","15","NA","15","0","0","15","15","0","15","15","16","z","11/12/18 16:11:50","The main experiment item","yes","FIN__BA__M21__7%3A10%3A17.osexp","C:\Users\ERP Testing Room\Desktop\Joanna\morph21","no","mono","no","18","no","white","no","yes","1080","legacy","15","15","C:/Users/ERP Testing Room/Desktop/Joanna/morph21/subject-151.csv","xpyriment","Kafkaesque Koffka","3.2.5","0","z","NA","NA","NA","NA","space","z","522","NA","NA","NA","NA","125906","522","2","legacy","1024","2","48000","-16","BA_m21","151","odd","FILL_NW","HEAS","2069","185883","184199","181241","127989","NA","NA","NA","NA","185879","184696","NA","183699","NA","183695","185879","2083","186233","NA","NA","184891","2069","2069","185283","183695","2069","184891","186233","morph21_Oliver/Morris","13","9724","16","yes","1280","26"
"400","82.3529411765","82.3529411765","608.352941176","608.352941176","black","no","xpyriment","legacy","legacy","0","206","NA","uniform","67020","1000","0.0149209191286","1","undefined","1","0","16","16","16","0","16","16","16","NA","16","16","0","16","NA","16","16","0","16","NA","16","NA","16","0","0","16","16","0","16","16","17","z","11/12/18 16:11:50","The main experiment item","yes","FIN__BA__M21__7%3A10%3A17.osexp","C:\Users\ERP Testing Room\Desktop\Joanna\morph21","no","mono","no","18","no","white","no","yes","1080","legacy","16","16","C:/Users/ERP Testing Room/Desktop/Joanna/morph21/subject-151.csv","xpyriment","Kafkaesque Koffka","3.2.5","0","z","NA","NA","NA","NA","space","z","618","NA","NA","NA","NA","125906","618","2","legacy","1024","2","48000","-16","BA_m21","151","odd","NW_L_SIMP","CLASSOUS","2069","189075","187399","181241","127989","NA","NA","NA","NA","189068","187897","NA","186899","NA","186888","189068","2083","189475","NA","NA","188074","2069","2069","188466","186888","2069","188074","189475","morph21_Oliver/Morris","14","10342","17","yes","1280","18"
"200","83.3333333333","83.3333333333","599.277777778","599.277777778","black","no","xpyriment","legacy","legacy","0","202","NA","uniform","74309","1000","0.0134573201093","1","undefined","1","0","17","17","17","0","17","17","17","NA","17","17","0","17","NA","17","17","0","17","NA","17","NA","17","0","0","17","17","0","17","17","18","/","11/12/18 16:11:50","The main experiment item","yes","FIN__BA__M21__7%3A10%3A17.osexp","C:\Users\ERP Testing Room\Desktop\Joanna\morph21","no","mono","no","18","no","white","no","yes","1080","legacy","17","17","C:/Users/ERP Testing Room/Desktop/Joanna/morph21/subject-151.csv","xpyriment","Kafkaesque Koffka","3.2.5","0","/","NA","NA","NA","NA","space","/","445","NA","NA","NA","NA","125906","445","2","legacy","1024","2","48000","-16","BA_m21","151","odd","CW_L","VERBAL","2069","193901","190742","192392","127989","NA","NA","NA","NA","192388","191239","NA","190242","NA","190233","192388","2083","194101","NA","NA","191392","2069","2069","191792","190233","2069","191392","194101","morph21_Oliver/Morris","15","10787","18","yes","1280","50"
"200","84.2105263158","84.2105263158","597.263157895","597.263157895","black","no","xpyriment","legacy","legacy","0","207","NA","uniform","67326","1000","0.0148531028132","1","undefined","1","0","18","18","18","0","18","18","18","NA","18","18","0","18","NA","18","18","0","18","NA","18","NA","18","0","0","18","18","0","18","18","19","/","11/12/18 16:11:50","The main experiment item","yes","FIN__BA__M21__7%3A10%3A17.osexp","C:\Users\ERP Testing Room\Desktop\Joanna\morph21","no","mono","no","18","no","white","no","yes","1080","legacy","18","18","C:/Users/ERP Testing Room/Desktop/Joanna/morph21/subject-151.csv","xpyriment","Kafkaesque Koffka","3.2.5","0","/","NA","NA","NA","NA","space","/","561","NA","NA","NA","NA","125906","561","2","legacy","1024","2","48000","-16","BA_m21","151","odd","FILL_W","LEGAL","2069","197076","195359","192392","127989","NA","NA","NA","NA","197069","195856","NA","194859","NA","194847","197069","2083","197276","NA","NA","196076","2069","2069","196467","194847","2069","196076","197276","morph21_Oliver/Morris","16","11348","19","yes","1280","35"
"300","80","80","592.65","592.65","black","no","xpyriment","legacy","legacy","0","206","NA","uniform","74343","1000","0.0134511655435","0","undefined","0","0","19","19","19","0","19","19","19","NA","19","19","0","19","NA","19","19","0","19","NA","19","NA","19","0","0","19","19","0","19","19","20","z","11/12/18 16:11:50","The main experiment item","yes","FIN__BA__M21__7%3A10%3A17.osexp","C:\Users\ERP Testing Room\Desktop\Joanna\morph21","no","mono","no","18","no","white","no","yes","1080","legacy","19","19","C:/Users/ERP Testing Room/Desktop/Joanna/morph21/subject-151.csv","xpyriment","Kafkaesque Koffka","3.2.5","0","/","NA","NA","NA","NA","space","/","505","NA","NA","NA","NA","125906","505","2","legacy","1024","2","48000","-16","BA_m21","151","odd","NW_L_SIMP","LONGNESS","2069","200084","198384","192392","127989","NA","NA","NA","NA","197069","198881","NA","197884","NA","197873","200075","2083","200384","NA","NA","199084","2069","2069","199476","197873","2069","199084","200384","morph21_Oliver/Morris","16","11853","20","yes","1280","17"
"300","80.9523809524","80.9523809524","584.761904762","584.761904762","black","no","xpyriment","legacy","legacy","0","202","NA","uniform","68921","1000","0.0145093657956","1","undefined","1","0","20","20","20","0","20","20","20","NA","20","20","0","20","NA","20","20","0","20","NA","20","NA","20","0","0","20","20","0","20","20","21","/","11/12/18 16:11:50","The main experiment item","yes","FIN__BA__M21__7%3A10%3A17.osexp","C:\Users\ERP Testing Room\Desktop\Joanna\morph21","no","mono","no","18","no","white","no","yes","1080","legacy","20","20","C:/Users/ERP Testing Room/Desktop/Joanna/morph21/subject-151.csv","xpyriment","Kafkaesque Koffka","3.2.5","0","/","NA","NA","NA","NA","space","/","427","NA","NA","NA","NA","125906","427","2","legacy","1024","2","48000","-16","BA_m21","151","odd","CW_L","DOUBTFUL","2069","204726","201568","203218","127989","NA","NA","NA","NA","203213","202065","NA","201059","NA","201049","203213","2083","205026","NA","NA","202218","2069","2069","202618","201049","2069","202218","205026","morph21_Oliver/Morris","17","12280","21","yes","1280","21"
"200","81.8181818182","81.8181818182","598.590909091","598.590909091","black","no","xpyriment","legacy","legacy","0","203","NA","uniform","56888","1000","0.0175783996625","1","undefined","1","0","21","21","21","0","21","21","21","NA","21","21","0","21","NA","21","21","0","21","NA","21","NA","21","0","0","21","21","0","21","21","22","z","11/12/18 16:11:50","The main experiment item","yes","FIN__BA__M21__7%3A10%3A17.osexp","C:\Users\ERP Testing Room\Desktop\Joanna\morph21","no","mono","no","18","no","white","no","yes","1080","legacy","21","21","C:/Users/ERP Testing Room/Desktop/Joanna/morph21/subject-151.csv","xpyriment","Kafkaesque Koffka","3.2.5","0","z","NA","NA","NA","NA","space","z","889","NA","NA","NA","NA","125906","889","2","legacy","1024","2","48000","-16","BA_m21","151","odd","NW_S_COMP","ADOPTISH","2069","207844","206151","203218","127989","NA","NA","NA","NA","207837","206648","NA","205651","NA","205641","207837","2083","208044","NA","NA","206844","2069","2069","207236","205641","2069","206844","208044","morph21_Oliver/Morris","18","13169","22","yes","1280","19"
"200","82.6086956522","82.6086956522","598.652173913","598.652173913","black","no","xpyriment","legacy","legacy","0","207","NA","uniform","64291","1000","0.0155542766484","1","undefined","1","0","22","22","22","0","22","22","22","NA","22","22","0","22","NA","22","22","0","22","NA","22","NA","22","0","0","22","22","0","22","22","23","/","11/12/18 16:11:50","The main experiment item","yes","FIN__BA__M21__7%3A10%3A17.osexp","C:\Users\ERP Testing Room\Desktop\Joanna\morph21","no","mono","no","18","no","white","no","yes","1080","legacy","22","22","C:/Users/ERP Testing Room/Desktop/Joanna/morph21/subject-151.csv","xpyriment","Kafkaesque Koffka","3.2.5","0","/","NA","NA","NA","NA","space","/","600","NA","NA","NA","NA","125906","600","2","legacy","1024","2","48000","-16","BA_m21","151","odd","FILL_W","STALK","2069","210877","209202","203218","127989","NA","NA","NA","NA","210867","209699","NA","208702","NA","208691","210867","2083","211077","NA","NA","209877","2069","2069","210269","208691","2069","209877","211077","morph21_Oliver/Morris","19","13769","23","yes","1280","27"
"300","83.3333333333","83.3333333333","593.958333333","593.958333333","black","no","xpyriment","legacy","legacy","0","201","NA","uniform","73109","1000","0.0136782065136","1","undefined","1","0","23","23","23","0","23","23","23","NA","23","23","0","23","NA","23","23","0","23","NA","23","NA","23","0","0","23","23","0","23","23","24","/","11/12/18 16:11:50","The main experiment item","yes","FIN__BA__M21__7%3A10%3A17.osexp","C:\Users\ERP Testing Room\Desktop\Joanna\morph21","no","mono","no","18","no","white","no","yes","1080","legacy","23","23","C:/Users/ERP Testing Room/Desktop/Joanna/morph21/subject-151.csv","xpyriment","Kafkaesque Koffka","3.2.5","0","/","NA","NA","NA","NA","space","/","486","NA","NA","NA","NA","125906","486","2","legacy","1024","2","48000","-16","BA_m21","151","odd","CW_S","ATTACKER","2069","215419","212219","213911","127989","NA","NA","NA","NA","213900","212716","NA","211719","NA","211713","213900","2083","215719","NA","NA","212911","2069","2069","213303","211713","2069","212911","215719","morph21_Oliver/Morris","20","14255","24","yes","1280","20"
"350","84","84","604.4","604.4","black","no","xpyriment","legacy","legacy","0","206","NA","uniform","52475","1000","0.0190566936636","1","undefined","1","0","24","24","24","0","24","24","24","NA","24","24","0","24","NA","24","24","0","24","NA","24","NA","24","0","0","24","24","0","24","24","25","z","11/12/18 16:11:50","The main experiment item","yes","FIN__BA__M21__7%3A10%3A17.osexp","C:\Users\ERP Testing Room\Desktop\Joanna\morph21","no","mono","no","18","no","white","no","yes","1080","legacy","24","24","C:/Users/ERP Testing Room/Desktop/Joanna/morph21/subject-151.csv","xpyriment","Kafkaesque Koffka","3.2.5","0","z","NA","NA","NA","NA","space","z","855","NA","NA","NA","NA","125906","855","2","legacy","1024","2","48000","-16","BA_m21","151","odd","NW_L_SIMP","WITCHISH","2069","218494","216828","213911","127989","NA","NA","NA","NA","218491","217325","NA","216328","NA","216318","218491","2083","218844","NA","NA","217494","2069","2069","217894","216318","2069","217494","218844","morph21_Oliver/Morris","21","15110","25","yes","1280","11"
"350","84.6153846154","84.6153846154","602.692307692","602.692307692","black","no","xpyriment","legacy","legacy","0","207","NA","uniform","66665","1000","0.0150003750094","1","undefined","1","0","25","25","25","0","25","25","25","NA","25","25","0","25","NA","25","25","0","25","NA","25","NA","25","0","0","25","25","0","25","25","26","/","11/12/18 16:11:50","The main experiment item","yes","FIN__BA__M21__7%3A10%3A17.osexp","C:\Users\ERP Testing Room\Desktop\Joanna\morph21","no","mono","no","18","no","white","no","yes","1080","legacy","25","25","C:/Users/ERP Testing Room/Desktop/Joanna/morph21/subject-151.csv","xpyriment","Kafkaesque Koffka","3.2.5","0","/","NA","NA","NA","NA","space","/","560","NA","NA","NA","NA","125906","560","2","legacy","1024","2","48000","-16","BA_m21","151","odd","FILL_W","BRISK","2069","221653","219978","213911","127989","NA","NA","NA","NA","221643","220475","NA","219478","NA","219473","221643","2083","222003","NA","NA","220653","2069","2069","221044","219473","2069","220653","222003","morph21_Oliver/Morris","22","15670","26","yes","1280","8"
"300","85.1851851852","85.1851851852","600.777777778","600.777777778","black","no","xpyriment","legacy","legacy","0","202","NA","uniform","73350","1000","0.013633265167","1","undefined","1","0","26","26","26","0","26","26","26","NA","26","26","0","26","NA","26","26","0","26","NA","26","NA","26","0","0","26","26","0","26","26","27","/","11/12/18 16:11:50","The main experiment item","yes","FIN__BA__M21__7%3A10%3A17.osexp","C:\Users\ERP Testing Room\Desktop\Joanna\morph21","no","mono","no","18","no","white","no","yes","1080","legacy","26","26","C:/Users/ERP Testing Room/Desktop/Joanna/morph21/subject-151.csv","xpyriment","Kafkaesque Koffka","3.2.5","0","/","NA","NA","NA","NA","space","/","551","NA","NA","NA","NA","125906","551","2","legacy","1024","2","48000","-16","BA_m21","151","odd","CW_L","WEEDY","2069","226354","223161","224846","127989","NA","NA","NA","NA","224838","223658","NA","222661","NA","222657","224838","2083","226654","NA","NA","223846","2069","2069","224237","222657","2069","223846","226654","morph21_Oliver/Morris","23","16221","27","yes","1280","48"
"300","85.7142857143","85.7142857143","602.821428571","602.821428571","black","no","xpyriment","legacy","legacy","0","208","NA","uniform","63909","1000","0.0156472484314","1","undefined","1","0","27","27","27","0","27","27","27","NA","27","27","0","27","NA","27","27","0","27","NA","27","NA","27","0","0","27","27","0","27","27","28","z","11/12/18 16:11:50","The main experiment item","yes","FIN__BA__M21__7%3A10%3A17.osexp","C:\Users\ERP Testing Room\Desktop\Joanna\morph21","no","mono","no","18","no","white","no","yes","1080","legacy","27","27","C:/Users/ERP Testing Room/Desktop/Joanna/morph21/subject-151.csv","xpyriment","Kafkaesque Koffka","3.2.5","0","z","NA","NA","NA","NA","space","z","658","NA","NA","NA","NA","125906","658","2","legacy","1024","2","48000","-16","BA_m21","151","odd","FILL_NW","SCURE","2069","229579","227896","224846","127989","NA","NA","NA","NA","229573","228393","NA","227387","NA","227384","229573","2083","229879","NA","NA","228579","2069","2069","228971","227384","2069","228579","229879","morph21_Oliver/Morris","24","16879","28","yes","1280","41"
"200","86.2068965517","86.2068965517","603.413793103","603.413793103","black","no","xpyriment","legacy","legacy","0","208","NA","uniform","62998","1000","0.0158735197943","1","undefined","1","0","28","28","28","0","28","28","28","NA","28","28","0","28","NA","28","28","0","28","NA","28","NA","28","0","0","28","28","0","28","28","29","z","11/12/18 16:11:50","The main experiment item","yes","FIN__BA__M21__7%3A10%3A17.osexp","C:\Users\ERP Testing Room\Desktop\Joanna\morph21","no","mono","no","18","no","white","no","yes","1080","legacy","28","28","C:/Users/ERP Testing Room/Desktop/Joanna/morph21/subject-151.csv","xpyriment","Kafkaesque Koffka","3.2.5","0","z","NA","NA","NA","NA","space","z","620","NA","NA","NA","NA","125906","620","2","legacy","1024","2","48000","-16","BA_m21","151","odd","FILL_NW","DARM","2069","232729","231063","224846","127989","NA","NA","NA","NA","232721","231560","NA","230563","NA","230551","232721","2083","232929","NA","NA","231729","2069","2069","232121","230551","2069","231729","232929","morph21_Oliver/Morris","25","17499","29","yes","1280","11"
"250","83.3333333333","83.3333333333","603.666666667","603.666666667","black","no","xpyriment","legacy","legacy","0","201","NA","uniform","67378","1000","0.0148416397044","0","undefined","0","0","29","29","29","0","29","29","29","NA","29","29","0","29","NA","29","29","0","29","NA","29","NA","29","0","0","29","29","0","29","29","30","/","11/12/18 16:11:50","The main experiment item","yes","FIN__BA__M21__7%3A10%3A17.osexp","C:\Users\ERP Testing Room\Desktop\Joanna\morph21","no","mono","no","18","no","white","no","yes","1080","legacy","29","29","C:/Users/ERP Testing Room/Desktop/Joanna/morph21/subject-151.csv","xpyriment","Kafkaesque Koffka","3.2.5","0","z","NA","NA","NA","NA","space","z","611","NA","NA","NA","NA","125906","611","2","legacy","1024","2","48000","-16","BA_m21","151","odd","CW_S","MOSSY","2069","237246","234088","235738","127989","NA","NA","NA","NA","232721","234585","NA","233588","NA","233580","235731","2083","237496","NA","NA","234738","2069","2069","235129","233580","2069","234738","237496","morph21_Oliver/Morris","25","18110","30","yes","1280","47"
"200","83.8709677419","83.8709677419","605","605","black","no","xpyriment","legacy","legacy","0","208","NA","uniform","68216","1000","0.0146593174622","1","undefined","1","0","30","30","30","0","30","30","30","NA","30","30","0","30","NA","30","30","0","30","NA","30","NA","30","0","0","30","30","0","30","30","31","z","11/12/18 16:11:50","The main experiment item","yes","FIN__BA__M21__7%3A10%3A17.osexp","C:\Users\ERP Testing Room\Desktop\Joanna\morph21","no","mono","no","18","no","white","no","yes","1080","legacy","30","30","C:/Users/ERP Testing Room/Desktop/Joanna/morph21/subject-151.csv","xpyriment","Kafkaesque Koffka","3.2.5","0","z","NA","NA","NA","NA","space","z","645","NA","NA","NA","NA","125906","645","2","legacy","1024","2","48000","-16","BA_m21","151","odd","FILL_NW","SMADE","2069","240288","238621","235738","127989","NA","NA","NA","NA","240285","239118","NA","238121","NA","238118","240285","2083","240488","NA","NA","239296","2069","2069","239688","238118","2069","239296","240488","morph21_Oliver/Morris","26","18755","31","yes","1280","42"
"250","84.375","84.375","606.59375","606.59375","black","no","xpyriment","legacy","legacy","0","202","NA","uniform","65621","1000","0.0152390240929","1","undefined","1","0","31","31","31","0","31","31","31","NA","31","31","0","31","NA","31","31","0","31","NA","31","NA","31","0","0","31","31","0","31","31","32","/","11/12/18 16:11:50","The main experiment item","yes","FIN__BA__M21__7%3A10%3A17.osexp","C:\Users\ERP Testing Room\Desktop\Joanna\morph21","no","mono","no","18","no","white","no","yes","1080","legacy","31","31","C:/Users/ERP Testing Room/Desktop/Joanna/morph21/subject-151.csv","xpyriment","Kafkaesque Koffka","3.2.5","0","/","NA","NA","NA","NA","space","/","656","NA","NA","NA","NA","125906","656","2","legacy","1024","2","48000","-16","BA_m21","151","odd","CW_L","DEAFNESS","2069","243389","241681","235738","127989","NA","NA","NA","NA","243379","242178","NA","241180","NA","241174","243379","2083","243639","NA","NA","242389","2069","2069","242781","241174","2069","242389","243639","morph21_Oliver/Morris","27","19411","32","yes","1280","39"
"200","84.8484848485","84.8484848485","605.121212121","605.121212121","black","no","xpyriment","legacy","legacy","0","207","NA","uniform","70575","1000","0.0141693234148","1","undefined","1","0","32","32","32","0","32","32","32","NA","32","32","0","32","NA","32","32","0","32","NA","32","NA","32","0","0","32","32","0","32","32","33","/","11/12/18 16:11:50","The main experiment item","yes","FIN__BA__M21__7%3A10%3A17.osexp","C:\Users\ERP Testing Room\Desktop\Joanna\morph21","no","mono","no","18","no","white","no","yes","1080","legacy","32","32","C:/Users/ERP Testing Room/Desktop/Joanna/morph21/subject-151.csv","xpyriment","Kafkaesque Koffka","3.2.5","0","/","NA","NA","NA","NA","space","/","558","NA","NA","NA","NA","125906","558","2","legacy","1024","2","48000","-16","BA_m21","151","odd","FILL_W","SAVE","2069","247939","244764","246431","127989","NA","NA","NA","NA","246424","245261","NA","244264","NA","244257","246424","2083","248140","NA","NA","245431","2069","2069","245823","244257","2069","245431","248140","morph21_Oliver/Morris","28","19969","33","yes","1280","46"
"300","85.2941176471","85.2941176471","605.764705882","605.764705882","black","no","xpyriment","legacy","legacy","0","201","NA","uniform","64288","1000","0.0155550024888","1","undefined","1","0","33","33","33","0","33","33","33","NA","33","33","0","33","NA","33","33","0","33","NA","33","NA","33","0","0","33","33","0","33","33","34","/","11/12/18 16:11:50","The main experiment item","yes","FIN__BA__M21__7%3A10%3A17.osexp","C:\Users\ERP Testing Room\Desktop\Joanna\morph21","no","mono","no","18","no","white","no","yes","1080","legacy","33","33","C:/Users/ERP Testing Room/Desktop/Joanna/morph21/subject-151.csv","xpyriment","Kafkaesque Koffka","3.2.5","0","/","NA","NA","NA","NA","space","/","627","NA","NA","NA","NA","125906","627","2","legacy","1024","2","48000","-16","BA_m21","151","odd","CW_S","DESTROYER","2069","251106","249431","246431","127989","NA","NA","NA","NA","251101","249928","NA","248931","NA","248921","251101","2083","251406","NA","NA","250106","2069","2069","250506","248921","2069","250106","251406","morph21_Oliver/Morris","29","20596","34","yes","1280","14"
"300","85.7142857143","85.7142857143","610.571428571","610.571428571","black","no","xpyriment","legacy","legacy","0","202","NA","uniform","63267","1000","0.0158060284192","1","undefined","1","0","34","34","34","0","34","34","34","NA","34","34","0","34","NA","34","34","0","34","NA","34","NA","34","0","0","34","34","0","34","34","35","/","11/12/18 16:11:50","The main experiment item","yes","FIN__BA__M21__7%3A10%3A17.osexp","C:\Users\ERP Testing Room\Desktop\Joanna\morph21","no","mono","no","18","no","white","no","yes","1080","legacy","34","34","C:/Users/ERP Testing Room/Desktop/Joanna/morph21/subject-151.csv","xpyriment","Kafkaesque Koffka","3.2.5","0","/","NA","NA","NA","NA","space","/","774","NA","NA","NA","NA","125906","774","2","legacy","1024","2","48000","-16","BA_m21","151","odd","CW_L","DAMPISH","2069","254231","252556","246431","127989","NA","NA","NA","NA","254224","253053","NA","252056","NA","252045","254224","2083","254531","NA","NA","253231","2069","2069","253623","252045","2069","253231","254531","morph21_Oliver/Morris","30","21370","35","yes","1280","28"
"350","86.1111111111","86.1111111111","610.916666667","610.916666667","black","no","xpyriment","legacy","legacy","0","206","NA","uniform","65979","1000","0.0151563376226","1","undefined","1","0","35","35","35","0","35","35","35","NA","35","35","0","35","NA","35","35","0","35","NA","35","NA","35","0","0","35","35","0","35","35","36","z","11/12/18 16:11:50","The main experiment item","yes","FIN__BA__M21__7%3A10%3A17.osexp","C:\Users\ERP Testing Room\Desktop\Joanna\morph21","no","mono","no","18","no","white","no","yes","1080","legacy","35","35","C:/Users/ERP Testing Room/Desktop/Joanna/morph21/subject-151.csv","xpyriment","Kafkaesque Koffka","3.2.5","0","z","NA","NA","NA","NA","space","z","623","NA","NA","NA","NA","125906","623","2","legacy","1024","2","48000","-16","BA_m21","151","odd","NW_L_SIMP","WIGISH","2069","258916","255731","257406","127989","NA","NA","NA","NA","257396","256228","NA","255231","NA","255228","257396","2083","259266","NA","NA","256406","2069","2069","256798","255228","2069","256406","259266","morph21_Oliver/Morris","31","21993","36","yes","1280","9"
"200","86.4864864865","86.4864864865","608.405405405","608.405405405","black","no","xpyriment","legacy","legacy","0","207","NA","uniform","70386","1000","0.014207370784","1","undefined","1","0","36","36","36","0","36","36","36","NA","36","36","0","36","NA","36","36","0","36","NA","36","NA","36","0","0","36","36","0","36","36","37","/","11/12/18 16:11:50","The main experiment item","yes","FIN__BA__M21__7%3A10%3A17.osexp","C:\Users\ERP Testing Room\Desktop\Joanna\morph21","no","mono","no","18","no","white","no","yes","1080","legacy","36","36","C:/Users/ERP Testing Room/Desktop/Joanna/morph21/subject-151.csv","xpyriment","Kafkaesque Koffka","3.2.5","0","/","NA","NA","NA","NA","space","/","518","NA","NA","NA","NA","125906","518","2","legacy","1024","2","48000","-16","BA_m21","151","odd","FILL_W","FLOAT","2069","261991","260341","257406","127989","NA","NA","NA","NA","261987","260838","NA","259841","NA","259835","261987","2083","262191","NA","NA","260991","2069","2069","261391","259835","2069","260991","262191","morph21_Oliver/Morris","32","22511","37","yes","1280","30"
"300","84.2105263158","84.2105263158","618.552631579","618.552631579","black","no","xpyriment","legacy","legacy","0","204","NA","uniform","55988","1000","0.0178609702079","0","undefined","0","0","37","37","37","0","37","37","37","NA","37","37","0","37","NA","37","37","0","37","NA","37","NA","37","0","0","37","37","0","37","37","38","z","11/12/18 16:11:50","The main experiment item","yes","FIN__BA__M21__7%3A10%3A17.osexp","C:\Users\ERP Testing Room\Desktop\Joanna\morph21","no","mono","no","18","no","white","no","yes","1080","legacy","37","37","C:/Users/ERP Testing Room/Desktop/Joanna/morph21/subject-151.csv","xpyriment","Kafkaesque Koffka","3.2.5","0","None","NA","NA","NA","NA","space","None","994","NA","NA","NA","NA","125906","994","2","legacy","1024","2","48000","-16","BA_m21","151","odd","NW_L_COMP","ADDMANT","2069","265058","263358","257406","127989","NA","NA","NA","NA","261987","263855","NA","262858","NA","262846","265052","2083","265358","NA","NA","264058","2069","2069","264449","262846","2069","264058","265358","morph21_Oliver/Morris","32","23505","38","yes","1280","13"
"200","84.6153846154","84.6153846154","620.384615385","620.384615385","black","no","xpyriment","legacy","legacy","0","208","NA","uniform","65026","1000","0.015378463999","1","undefined","1","0","38","38","38","0","38","38","38","NA","38","38","0","38","NA","38","38","0","38","NA","38","NA","38","0","0","38","38","0","38","38","39","z","11/12/18 16:11:50","The main experiment item","yes","FIN__BA__M21__7%3A10%3A17.osexp","C:\Users\ERP Testing Room\Desktop\Joanna\morph21","no","mono","no","18","no","white","no","yes","1080","legacy","38","38","C:/Users/ERP Testing Room/Desktop/Joanna/morph21/subject-151.csv","xpyriment","Kafkaesque Koffka","3.2.5","0","z","NA","NA","NA","NA","space","z","690","NA","NA","NA","NA","125906","690","2","legacy","1024","2","48000","-16","BA_m21","151","odd","FILL_NW","FROT","2069","269791","266624","268283","127989","NA","NA","NA","NA","268273","267122","NA","266125","NA","266118","268273","2083","269991","NA","NA","267283","2069","2069","267674","266118","2069","267283","269991","morph21_Oliver/Morris","33","24195","39","yes","1280","22"
"350","85","85","617.625","617.625","black","no","xpyriment","legacy","legacy","0","207","NA","uniform","70694","1000","0.0141454720344","1","undefined","1","0","39","39","39","0","39","39","39","NA","39","39","0","39","NA","39","39","0","39","NA","39","NA","39","0","0","39","39","0","39","39","40","/","11/12/18 16:11:50","The main experiment item","yes","FIN__BA__M21__7%3A10%3A17.osexp","C:\Users\ERP Testing Room\Desktop\Joanna\morph21","no","mono","no","18","no","white","no","yes","1080","legacy","39","39","C:/Users/ERP Testing Room/Desktop/Joanna/morph21/subject-151.csv","xpyriment","Kafkaesque Koffka","3.2.5","0","/","NA","NA","NA","NA","space","/","510","NA","NA","NA","NA","125906","510","2","legacy","1024","2","48000","-16","BA_m21","151","odd","FILL_W","LIFT","2069","272783","271100","268283","127989","NA","NA","NA","NA","272776","271597","NA","270600","NA","270592","272776","2083","273133","NA","NA","271783","2069","2069","272175","270592","2069","271783","273133","morph21_Oliver/Morris","34","24705","40","yes","1280","39"
"300","85.3658536585","85.3658536585","612.658536585","612.658536585","black","no","xpyriment","legacy","legacy","0","207","NA","uniform","78288","1000","0.0127733496832","1","undefined","1","0","40","40","40","0","40","40","40","NA","40","40","0","40","NA","40","40","0","40","NA","40","NA","40","0","0","40","40","0","40","40","41","/","11/12/18 16:11:50","The main experiment item","yes","FIN__BA__M21__7%3A10%3A17.osexp","C:\Users\ERP Testing Room\Desktop\Joanna\morph21","no","mono","no","18","no","white","no","yes","1080","legacy","40","40","C:/Users/ERP Testing Room/Desktop/Joanna/morph21/subject-151.csv","xpyriment","Kafkaesque Koffka","3.2.5","0","/","NA","NA","NA","NA","space","/","414","NA","NA","NA","NA","125906","414","2","legacy","1024","2","48000","-16","BA_m21","151","odd","FILL_W","SICK","2069","275983","274316","268283","127989","NA","NA","NA","NA","275975","274814","NA","273816","NA","273810","275975","2083","276283","NA","NA","274983","2069","2069","275375","273810","2069","274983","276283","morph21_Oliver/Morris","35","25119","41","yes","1280","36"
"200","85.7142857143","85.7142857143","612.928571429","612.928571429","black","no","xpyriment","legacy","legacy","0","207","NA","uniform","66211","1000","0.015103230581","1","undefined","1","0","41","41","41","0","41","41","41","NA","41","41","0","41","NA","41","41","0","41","NA","41","NA","41","0","0","41","41","0","41","41","42","/","11/12/18 16:11:50","The main experiment item","yes","FIN__BA__M21__7%3A10%3A17.osexp","C:\Users\ERP Testing Room\Desktop\Joanna\morph21","no","mono","no","18","no","white","no","yes","1080","legacy","41","41","C:/Users/ERP Testing Room/Desktop/Joanna/morph21/subject-151.csv","xpyriment","Kafkaesque Koffka","3.2.5","0","/","NA","NA","NA","NA","space","/","624","NA","NA","NA","NA","125906","624","2","legacy","1024","2","48000","-16","BA_m21","151","odd","FILL_W","WRECK","2069","280618","277451","279109","127989","NA","NA","NA","NA","279102","277948","NA","276951","NA","276943","279102","2083","280818","NA","NA","278109","2069","2069","278501","276942","2069","278109","280818","morph21_Oliver/Morris","36","25743","42","yes","1280","13"
"250","86.0465116279","86.0465116279","611.930232558","611.930232558","black","no","xpyriment","legacy","legacy","0","202","NA","uniform","66783","1000","0.0149738705958","1","undefined","1","0","42","42","42","0","42","42","42","NA","42","42","0","42","NA","42","42","0","42","NA","42","NA","42","0","0","42","42","0","42","42","43","/","11/12/18 16:11:50","The main experiment item","yes","FIN__BA__M21__7%3A10%3A17.osexp","C:\Users\ERP Testing Room\Desktop\Joanna\morph21","no","mono","no","18","no","white","no","yes","1080","legacy","42","42","C:/Users/ERP Testing Room/Desktop/Joanna/morph21/subject-151.csv","xpyriment","Kafkaesque Koffka","3.2.5","0","/","NA","NA","NA","NA","space","/","570","NA","NA","NA","NA","125906","570","2","legacy","1024","2","48000","-16","BA_m21","151","odd","CW_L","DANCER","2069","283634","281968","279109","127989","NA","NA","NA","NA","283630","282465","NA","281468","NA","281463","283630","2083","283885","NA","NA","282635","2069","2069","283034","281463","2069","282634","283885","morph21_Oliver/Morris","37","26313","43","yes","1280","11"
"300","86.3636363636","86.3636363636","612.704545455","612.704545455","black","no","xpyriment","legacy","legacy","0","203","NA","uniform","62435","1000","0.0160166573236","1","undefined","1","0","43","43","43","0","43","43","43","NA","43","43","0","43","NA","43","43","0","43","NA","43","NA","43","0","0","43","43","0","43","43","44","z","11/12/18 16:11:50","The main experiment item","yes","FIN__BA__M21__7%3A10%3A17.osexp","C:\Users\ERP Testing Room\Desktop\Joanna\morph21","no","mono","no","18","no","white","no","yes","1080","legacy","43","43","C:/Users/ERP Testing Room/Desktop/Joanna/morph21/subject-151.csv","xpyriment","Kafkaesque Koffka","3.2.5","0","z","NA","NA","NA","NA","space","z","646","NA","NA","NA","NA","125906","646","2","legacy","1024","2","48000","-16","BA_m21","151","odd","NW_S_COMP","FIGEL","2069","286735","285051","279109","127989","NA","NA","NA","NA","286731","285548","NA","284551","NA","284546","286731","2083","287035","NA","NA","285743","2069","2069","286135","284546","2069","285743","287035","morph21_Oliver/Morris","38","26959","44","yes","1280","4"
"200","86.6666666667","86.6666666667","610","610","black","no","xpyriment","legacy","legacy","0","202","NA","uniform","69472","1000","0.0143942883464","1","undefined","1","0","44","44","44","0","44","44","44","NA","44","44","0","44","NA","44","44","0","44","NA","44","NA","44","0","0","44","44","0","44","44","45","/","11/12/18 16:11:50","The main experiment item","yes","FIN__BA__M21__7%3A10%3A17.osexp","C:\Users\ERP Testing Room\Desktop\Joanna\morph21","no","mono","no","18","no","white","no","yes","1080","legacy","44","44","C:/Users/ERP Testing Room/Desktop/Joanna/morph21/subject-151.csv","xpyriment","Kafkaesque Koffka","3.2.5","0","/","NA","NA","NA","NA","space","/","491","NA","NA","NA","NA","125906","491","2","legacy","1024","2","48000","-16","BA_m21","151","odd","CW_L","BONELESS","2069","291335","288143","289826","127989","NA","NA","NA","NA","289816","288640","NA","287643","NA","287631","289816","2083","291535","NA","NA","288826","2069","2069","289218","287631","2069","288826","291535","morph21_Oliver/Morris","39","27450","45","yes","1280","34"
"350","86.9565217391","86.9565217391","606.543478261","606.543478261","black","no","xpyriment","legacy","legacy","0","207","NA","uniform","69632","1000","0.0143612132353","1","undefined","1","0","45","45","45","0","45","45","45","NA","45","45","0","45","NA","45","45","0","45","NA","45","NA","45","0","0","45","45","0","45","45","46","/","11/12/18 16:11:50","The main experiment item","yes","FIN__BA__M21__7%3A10%3A17.osexp","C:\Users\ERP Testing Room\Desktop\Joanna\morph21","no","mono","no","18","no","white","no","yes","1080","legacy","45","45","C:/Users/ERP Testing Room/Desktop/Joanna/morph21/subject-151.csv","xpyriment","Kafkaesque Koffka","3.2.5","0","/","NA","NA","NA","NA","space","/","451","NA","NA","NA","NA","125906","451","2","legacy","1024","2","48000","-16","BA_m21","151","odd","FILL_W","WEIRD","2069","294444","292793","289826","127989","NA","NA","NA","NA","294437","293290","NA","292293","NA","292284","294437","2083","294794","NA","NA","293443","2069","2069","293836","292284","2069","293443","294794","morph21_Oliver/Morris","40","27901","46","yes","1280","2"
"350","87.2340425532","87.2340425532","608","608","black","no","xpyriment","legacy","legacy","0","201","NA","uniform","61101","1000","0.0163663442497","1","undefined","1","0","46","46","46","0","46","46","46","NA","46","46","0","46","NA","46","46","0","46","NA","46","NA","46","0","0","46","46","0","46","46","47","/","11/12/18 16:11:50","The main experiment item","yes","FIN__BA__M21__7%3A10%3A17.osexp","C:\Users\ERP Testing Room\Desktop\Joanna\morph21","no","mono","no","18","no","white","no","yes","1080","legacy","46","46","C:/Users/ERP Testing Room/Desktop/Joanna/morph21/subject-151.csv","xpyriment","Kafkaesque Koffka","3.2.5","0","/","NA","NA","NA","NA","space","/","675","NA","NA","NA","NA","125906","675","2","legacy","1024","2","48000","-16","BA_m21","151","odd","CW_S","BEARDED","2069","297586","295911","289826","127989","NA","NA","NA","NA","297577","296408","NA","295411","NA","295404","297577","2083","297936","NA","NA","296586","2069","2069","296978","295403","2069","296586","297936","morph21_Oliver/Morris","41","28576","47","yes","1280","8"
"300","87.5","87.5","610.895833333","610.895833333","black","no","xpyriment","legacy","legacy","0","206","NA","uniform","60104","1000","0.0166378277652","1","undefined","1","0","47","47","47","0","47","47","47","NA","47","47","0","47","NA","47","47","0","47","NA","47","NA","47","0","0","47","47","0","47","47","48","z","11/12/18 16:11:50","The main experiment item","yes","FIN__BA__M21__7%3A10%3A17.osexp","C:\Users\ERP Testing Room\Desktop\Joanna\morph21","no","mono","no","18","no","white","no","yes","1080","legacy","47","47","C:/Users/ERP Testing Room/Desktop/Joanna/morph21/subject-151.csv","xpyriment","Kafkaesque Koffka","3.2.5","0","z","NA","NA","NA","NA","space","z","747","NA","NA","NA","NA","125906","747","2","legacy","1024","2","48000","-16","BA_m21","151","odd","NW_L_SIMP","BEGENCE","2069","302278","299086","300770","127989","NA","NA","NA","NA","300759","299583","NA","298586","NA","298582","300759","2083","302578","NA","NA","299770","2069","2069","300161","298582","2069","299770","302578","morph21_Oliver/Morris","42","29323","48","yes","1280","4"
"400","87.7551020408","87.7551020408","614.775510204","614.775510204","black","no","xpyriment","legacy","legacy","0","204","NA","uniform","53837","1000","0.0185745862511","1","undefined","1","0","48","48","48","0","48","48","48","NA","48","48","0","48","NA","48","48","0","48","NA","48","NA","48","0","0","48","48","0","48","48","49","z","11/12/18 16:11:50","The main experiment item","yes","FIN__BA__M21__7%3A10%3A17.osexp","C:\Users\ERP Testing Room\Desktop\Joanna\morph21","no","mono","no","18","no","white","no","yes","1080","legacy","48","48","C:/Users/ERP Testing Room/Desktop/Joanna/morph21/subject-151.csv","xpyriment","Kafkaesque Koffka","3.2.5","0","z","NA","NA","NA","NA","space","z","801","NA","NA","NA","NA","125906","801","2","legacy","1024","2","48000","-16","BA_m21","151","odd","NW_L_COMP","RIPENGE","2069","305420","303770","300770","127989","NA","NA","NA","NA","305412","304267","NA","303270","NA","303265","305412","2083","305820","NA","NA","304420","2069","2069","304811","303265","2069","304420","305820","morph21_Oliver/Morris","43","30124","49","yes","1280","4"
"400","88","88","616.56","616.56","black","no","xpyriment","legacy","legacy","0","205","NA","uniform","57640","1000","0.0173490631506","1","undefined","1","0","49","49","49","0","49","49","49","NA","49","49","0","49","NA","49","49","0","49","NA","49","NA","49","0","0","49","49","0","49","49","50","z","11/12/18 16:11:50","The main experiment item","yes","FIN__BA__M21__7%3A10%3A17.osexp","C:\Users\ERP Testing Room\Desktop\Joanna\morph21","no","mono","no","18","no","white","no","yes","1080","legacy","49","49","C:/Users/ERP Testing Room/Desktop/Joanna/morph21/subject-151.csv","xpyriment","Kafkaesque Koffka","3.2.5","0","z","NA","NA","NA","NA","space","z","704","NA","NA","NA","NA","125906","704","2","legacy","1024","2","48000","-16","BA_m21","151","odd","NW_S_SIMP","AIDIC","2069","308653","306978","300770","127989","NA","NA","NA","NA","308645","307475","NA","306478","NA","306470","308645","2083","309053","NA","NA","307653","2069","2069","308045","306470","2069","307653","309053","morph21_Oliver/Morris","44","30828","50","yes","1280","4"
"400","86.2745098039","86.2745098039","624","624","black","no","xpyriment","legacy","legacy","0","205","NA","uniform","51594","1000","0.0193820986936","0","undefined","0","0","50","50","50","0","50","50","50","NA","50","50","0","50","NA","50","50","0","50","NA","50","NA","50","0","0","50","50","0","50","50","51","z","11/12/18 16:11:50","The main experiment item","yes","FIN__BA__M21__7%3A10%3A17.osexp","C:\Users\ERP Testing Room\Desktop\Joanna\morph21","no","mono","no","18","no","white","no","yes","1080","legacy","50","50","C:/Users/ERP Testing Room/Desktop/Joanna/morph21/subject-151.csv","xpyriment","Kafkaesque Koffka","3.2.5","0","None","NA","NA","NA","NA","space","None","996","NA","NA","NA","NA","125906","996","2","legacy","1024","2","48000","-16","BA_m21","151","odd","NW_S_SIMP","SCHEMENESS","2069","313388","310187","311879","127989","NA","NA","NA","NA","308645","310684","NA","309687","NA","309681","311874","2083","313788","NA","NA","310878","2069","2069","311271","309681","2069","310878","313788","morph21_Oliver/Morris","44","31824","51","yes","1280","15"
"200","86.5384615385","86.5384615385","623.384615385","623.384615385","black","no","xpyriment","legacy","legacy","0","208","NA","uniform","67088","1000","0.0149057953732","1","undefined","1","0","51","51","51","0","51","51","51","NA","51","51","0","51","NA","51","51","0","51","NA","51","NA","51","0","0","51","51","0","51","51","52","z","11/12/18 16:11:50","The main experiment item","yes","FIN__BA__M21__7%3A10%3A17.osexp","C:\Users\ERP Testing Room\Desktop\Joanna\morph21","no","mono","no","18","no","white","no","yes","1080","legacy","51","51","C:/Users/ERP Testing Room/Desktop/Joanna/morph21/subject-151.csv","xpyriment","Kafkaesque Koffka","3.2.5","0","z","NA","NA","NA","NA","space","z","592","NA","NA","NA","NA","125906","592","2","legacy","1024","2","48000","-16","BA_m21","151","odd","FILL_NW","PUCTS","2069","316596","314930","311879","127989","NA","NA","NA","NA","316593","315427","NA","314430","NA","314421","316593","2083","316796","NA","NA","315605","2069","2069","315996","314421","2069","315605","316796","morph21_Oliver/Morris","45","32416","52","yes","1280","40"
"200","86.7924528302","86.7924528302","623.226415094","623.226415094","black","no","xpyriment","legacy","legacy","0","208","NA","uniform","68488","1000","0.0146010980026","1","undefined","1","0","52","52","52","0","52","52","52","NA","52","52","0","52","NA","52","52","0","52","NA","52","NA","52","0","0","52","52","0","52","52","53","z","11/12/18 16:11:50","The main experiment item","yes","FIN__BA__M21__7%3A10%3A17.osexp","C:\Users\ERP Testing Room\Desktop\Joanna\morph21","no","mono","no","18","no","white","no","yes","1080","legacy","52","52","C:/Users/ERP Testing Room/Desktop/Joanna/morph21/subject-151.csv","xpyriment","Kafkaesque Koffka","3.2.5","0","z","NA","NA","NA","NA","space","z","615","NA","NA","NA","NA","125906","615","2","legacy","1024","2","48000","-16","BA_m21","151","odd","FILL_NW","TUEER","2069","319638","317988","311879","127989","NA","NA","NA","NA","319635","318485","NA","317488","NA","317482","319635","2083","319838","NA","NA","318646","2069","2069","319038","317482","2069","318646","319838","morph21_Oliver/Morris","46","33031","53","yes","1280","44"
"350","87.037037037","87.037037037","619.259259259","619.259259259","black","no","xpyriment","legacy","legacy","0","201","NA","uniform","77343","1000","0.0129294183055","1","undefined","1","0","53","53","53","0","53","53","53","NA","53","53","0","53","NA","53","53","0","53","NA","53","NA","53","0","0","53","53","0","53","53","54","/","11/12/18 16:11:50","The main experiment item","yes","FIN__BA__M21__7%3A10%3A17.osexp","C:\Users\ERP Testing Room\Desktop\Joanna\morph21","no","mono","no","18","no","white","no","yes","1080","legacy","53","53","C:/Users/ERP Testing Room/Desktop/Joanna/morph21/subject-151.csv","xpyriment","Kafkaesque Koffka","3.2.5","0","/","NA","NA","NA","NA","space","/","409","NA","NA","NA","NA","125906","409","2","legacy","1024","2","48000","-16","BA_m21","151","odd","CW_S","TOASTER","2069","324088","320921","322580","127989","NA","NA","NA","NA","322572","321419","NA","320422","NA","320410","322572","2083","324438","NA","NA","321580","2069","2069","321971","320410","2069","321580","324438","morph21_Oliver/Morris","47","33440","54","yes","1280","10"
"400","87.2727272727","87.2727272727","620.745454545","620.745454545","black","no","xpyriment","legacy","legacy","0","204","NA","uniform","63610","1000","0.0157207986166","1","undefined","1","0","54","54","54","0","54","54","54","NA","54","54","0","54","NA","54","54","0","54","NA","54","NA","54","0","0","54","54","0","54","54","55","z","11/12/18 16:11:50","The main experiment item","yes","FIN__BA__M21__7%3A10%3A17.osexp","C:\Users\ERP Testing Room\Desktop\Joanna\morph21","no","mono","no","18","no","white","no","yes","1080","legacy","54","54","C:/Users/ERP Testing Room/Desktop/Joanna/morph21/subject-151.csv","xpyriment","Kafkaesque Koffka","3.2.5","0","z","NA","NA","NA","NA","space","z","701","NA","NA","NA","NA","125906","701","2","legacy","1024","2","48000","-16","BA_m21","151","odd","NW_L_COMP","COLDIDY","2069","327272","325622","322580","127989","NA","NA","NA","NA","327268","326119","NA","325122","NA","325116","327268","2083","327672","NA","NA","326272","2069","2069","326672","325116","2069","326272","327672","morph21_Oliver/Morris","48","34141","55","yes","1280","10"
"350","87.5","87.5","622.232142857","622.232142857","black","no","xpyriment","legacy","legacy","0","202","NA","uniform","60912","1000","0.0164171263462","1","undefined","1","0","55","55","55","0","55","55","55","NA","55","55","0","55","NA","55","55","0","55","NA","55","NA","55","0","0","55","55","0","55","55","56","/","11/12/18 16:11:50","The main experiment item","yes","FIN__BA__M21__7%3A10%3A17.osexp","C:\Users\ERP Testing Room\Desktop\Joanna\morph21","no","mono","no","18","no","white","no","yes","1080","legacy","55","55","C:/Users/ERP Testing Room/Desktop/Joanna/morph21/subject-151.csv","xpyriment","Kafkaesque Koffka","3.2.5","0","/","NA","NA","NA","NA","space","/","704","NA","NA","NA","NA","125906","704","2","legacy","1024","2","48000","-16","BA_m21","151","odd","CW_L","PUNCHER","2069","330564","328856","322580","127989","NA","NA","NA","NA","330560","329353","NA","328355","NA","328347","330560","2083","330915","NA","NA","329573","2069","2069","329964","328347","2069","329573","330915","morph21_Oliver/Morris","49","34845","56","yes","1280","1"
"200","87.7192982456","87.7192982456","619.473684211","619.473684211","black","no","xpyriment","legacy","legacy","0","207","NA","uniform","73039","1000","0.0136913155985","1","undefined","1","0","56","56","56","0","56","56","56","NA","56","56","0","56","NA","56","56","0","56","NA","56","NA","56","0","0","56","56","0","56","56","57","/","11/12/18 16:11:50","The main experiment item","yes","FIN__BA__M21__7%3A10%3A17.osexp","C:\Users\ERP Testing Room\Desktop\Joanna\morph21","no","mono","no","18","no","white","no","yes","1080","legacy","56","56","C:/Users/ERP Testing Room/Desktop/Joanna/morph21/subject-151.csv","xpyriment","Kafkaesque Koffka","3.2.5","0","/","NA","NA","NA","NA","space","/","465","NA","NA","NA","NA","125906","465","2","legacy","1024","2","48000","-16","BA_m21","151","odd","FILL_W","OLD","2069","335248","332065","333740","127989","NA","NA","NA","NA","333737","332562","NA","331565","NA","331558","333737","2083","335448","NA","NA","332748","2069","2069","333140","331558","2069","332748","335448","morph21_Oliver/Morris","50","35310","57","yes","1280","44"
"350","86.2068965517","86.2068965517","625.982758621","625.982758621","black","no","xpyriment","legacy","legacy","0","203","NA","uniform","54994","1000","0.0181838018693","0","undefined","0","0","57","57","57","0","57","57","57","NA","57","57","0","57","NA","57","57","0","57","NA","57","NA","57","0","0","57","57","0","57","57","58","z","11/12/18 16:11:50","The main experiment item","yes","FIN__BA__M21__7%3A10%3A17.osexp","C:\Users\ERP Testing Room\Desktop\Joanna\morph21","no","mono","no","18","no","white","no","yes","1080","legacy","57","57","C:/Users/ERP Testing Room/Desktop/Joanna/morph21/subject-151.csv","xpyriment","Kafkaesque Koffka","3.2.5","0","None","NA","NA","NA","NA","space","None","997","NA","NA","NA","NA","125906","997","2","legacy","1024","2","48000","-16","BA_m21","151","odd","NW_S_COMP","HEIGHTENGE","2069","338190","336540","333740","127989","NA","NA","NA","NA","333737","337037","NA","336032","NA","336023","338187","2083","338540","NA","NA","337190","2069","2069","337590","336023","2069","337190","338540","morph21_Oliver/Morris","50","36307","58","yes","1280","18"
"250","86.4406779661","86.4406779661","623.084745763","623.084745763","black","no","xpyriment","legacy","legacy","0","202","NA","uniform","74535","1000","0.0134165157309","1","undefined","1","0","58","58","58","0","58","58","58","NA","58","58","0","58","NA","58","58","0","58","NA","58","NA","58","0","0","58","58","0","58","58","59","/","11/12/18 16:11:50","The main experiment item","yes","FIN__BA__M21__7%3A10%3A17.osexp","C:\Users\ERP Testing Room\Desktop\Joanna\morph21","no","mono","no","18","no","white","no","yes","1080","legacy","58","58","C:/Users/ERP Testing Room/Desktop/Joanna/morph21/subject-151.csv","xpyriment","Kafkaesque Koffka","3.2.5","0","/","NA","NA","NA","NA","space","/","455","NA","NA","NA","NA","125906","455","2","legacy","1024","2","48000","-16","BA_m21","151","odd","CW_L","PUSHER","2069","341382","339715","333740","127989","NA","NA","NA","NA","341376","340212","NA","339207","NA","339200","341376","2083","341632","NA","NA","340382","2069","2069","340773","339200","2069","340382","341632","morph21_Oliver/Morris","51","36762","59","yes","1280","13"
"400","86.6666666667","86.6666666667","622.916666667","622.916666667","black","no","xpyriment","legacy","legacy","0","202","NA","uniform","66091","1000","0.0151306531903","1","undefined","1","0","59","59","59","0","59","59","59","NA","59","59","0","59","NA","59","59","0","59","NA","59","NA","59","0","0","59","59","0","59","59","60","/","11/12/18 16:11:50","The main experiment item","yes","FIN__BA__M21__7%3A10%3A17.osexp","C:\Users\ERP Testing Room\Desktop\Joanna\morph21","no","mono","no","18","no","white","no","yes","1080","legacy","59","59","C:/Users/ERP Testing Room/Desktop/Joanna/morph21/subject-151.csv","xpyriment","Kafkaesque Koffka","3.2.5","0","/","NA","NA","NA","NA","space","/","613","NA","NA","NA","NA","125906","613","2","legacy","1024","2","48000","-16","BA_m21","151","odd","CW_L","DRYNESS","2069","345957","342774","344448","127989","NA","NA","NA","NA","344444","343271","NA","342273","NA","342265","344444","2083","346357","NA","NA","343448","2069","2069","343848","342265","2069","343448","346357","morph21_Oliver/Morris","52","37375","60","yes","1280","42"
"350","86.8852459016","86.8852459016","625.885245902","625.885245902","black","no","xpyriment","legacy","legacy","0","205","NA","uniform","60124","1000","0.0166322932606","1","undefined","1","0","60","60","60","0","60","60","60","NA","60","60","0","60","NA","60","60","0","60","NA","60","NA","60","0","0","60","60","0","60","60","61","z","11/12/18 16:11:50","The main experiment item","yes","FIN__BA__M21__7%3A10%3A17.osexp","C:\Users\ERP Testing Room\Desktop\Joanna\morph21","no","mono","no","18","no","white","no","yes","1080","legacy","60","60","C:/Users/ERP Testing Room/Desktop/Joanna/morph21/subject-151.csv","xpyriment","Kafkaesque Koffka","3.2.5","0","z","NA","NA","NA","NA","space","z","804","NA","NA","NA","NA","125906","804","2","legacy","1024","2","48000","-16","BA_m21","151","odd","NW_S_SIMP","BASKORY","2069","349233","347541","344448","127989","NA","NA","NA","NA","349226","348038","NA","347041","NA","347030","349226","2083","349583","NA","NA","348233","2069","2069","348625","347030","2069","348233","349583","morph21_Oliver/Morris","53","38179","61","yes","1280","10"
"350","87.0967741935","87.0967741935","627.758064516","627.758064516","black","no","xpyriment","legacy","legacy","0","208","NA","uniform","59446","1000","0.0168219897049","1","undefined","1","0","61","61","61","0","61","61","61","NA","61","61","0","61","NA","61","61","0","61","NA","61","NA","61","0","0","61","61","0","61","61","62","z","11/12/18 16:11:50","The main experiment item","yes","FIN__BA__M21__7%3A10%3A17.osexp","C:\Users\ERP Testing Room\Desktop\Joanna\morph21","no","mono","no","18","no","white","no","yes","1080","legacy","61","61","C:/Users/ERP Testing Room/Desktop/Joanna/morph21/subject-151.csv","xpyriment","Kafkaesque Koffka","3.2.5","0","z","NA","NA","NA","NA","space","z","742","NA","NA","NA","NA","125906","742","2","legacy","1024","2","48000","-16","BA_m21","151","odd","FILL_NW","BLANTH","2069","352391","350700","344448","127989","NA","NA","NA","NA","352385","351197","NA","350191","NA","350184","352385","2083","352742","NA","NA","351391","2069","2069","351783","350184","2069","351391","352742","morph21_Oliver/Morris","54","38921","62","yes","1280","3"
"400","87.3015873016","87.3015873016","631.174603175","631.174603175","black","no","xpyriment","legacy","legacy","0","205","NA","uniform","60567","1000","0.0165106411082","1","undefined","1","0","62","62","62","0","62","62","62","NA","62","62","0","62","NA","62","62","0","62","NA","62","NA","62","0","0","62","62","0","62","62","63","z","11/12/18 16:11:50","The main experiment item","yes","FIN__BA__M21__7%3A10%3A17.osexp","C:\Users\ERP Testing Room\Desktop\Joanna\morph21","no","mono","no","18","no","white","no","yes","1080","legacy","62","62","C:/Users/ERP Testing Room/Desktop/Joanna/morph21/subject-151.csv","xpyriment","Kafkaesque Koffka","3.2.5","0","z","NA","NA","NA","NA","space","z","843","NA","NA","NA","NA","125906","843","2","legacy","1024","2","48000","-16","BA_m21","151","odd","NW_S_SIMP","RAMPIZE","2069","357167","353975","355658","127989","NA","NA","NA","NA","355648","354472","NA","353467","NA","353457","355648","2083","357567","NA","NA","354658","2069","2069","355050","353457","2069","354658","357567","morph21_Oliver/Morris","55","39764","63","yes","1280","6"
"200","85.9375","85.9375","635.15625","635.15625","black","no","xpyriment","legacy","legacy","0","208","NA","uniform","57915","1000","0.0172666839334","0","undefined","0","0","63","63","63","0","63","63","63","NA","63","63","0","63","NA","63","63","0","63","NA","63","NA","63","0","0","63","63","0","63","63","64","z","11/12/18 16:11:50","The main experiment item","yes","FIN__BA__M21__7%3A10%3A17.osexp","C:\Users\ERP Testing Room\Desktop\Joanna\morph21","no","mono","no","18","no","white","no","yes","1080","legacy","63","63","C:/Users/ERP Testing Room/Desktop/Joanna/morph21/subject-151.csv","xpyriment","Kafkaesque Koffka","3.2.5","0","/","NA","NA","NA","NA","space","/","886","NA","NA","NA","NA","125906","886","2","legacy","1024","2","48000","-16","BA_m21","151","odd","FILL_NW","FALONS","2069","360375","358708","355658","127989","NA","NA","NA","NA","355648","359206","NA","358208","NA","358197","360365","2083","360575","NA","NA","359375","2069","2069","359767","358197","2069","359375","360575","morph21_Oliver/Morris","55","40650","64","yes","1280","19"
"300","86.1538461538","86.1538461538","636.061538462","636.061538462","black","no","xpyriment","legacy","legacy","0","204","NA","uniform","66320","1000","0.0150784077201","1","undefined","1","0","64","64","64","0","64","64","64","NA","64","64","0","64","NA","64","64","0","64","NA","64","NA","64","0","0","64","64","0","64","64","65","z","11/12/18 16:11:50","The main experiment item","yes","FIN__BA__M21__7%3A10%3A17.osexp","C:\Users\ERP Testing Room\Desktop\Joanna\morph21","no","mono","no","18","no","white","no","yes","1080","legacy","64","64","C:/Users/ERP Testing Room/Desktop/Joanna/morph21/subject-151.csv","xpyriment","Kafkaesque Koffka","3.2.5","0","z","NA","NA","NA","NA","space","z","694","NA","NA","NA","NA","125906","694","2","legacy","1024","2","48000","-16","BA_m21","151","odd","NW_L_COMP","KINGILM","2069","363367","361709","355658","127989","NA","NA","NA","NA","363357","362206","NA","361209","NA","361197","363357","2083","363667","NA","NA","362367","2069","2069","362759","361197","2069","362367","363667","morph21_Oliver/Morris","56","41344","65","yes","1280","19"
"200","86.3636363636","86.3636363636","640.242424242","640.242424242","black","no","xpyriment","legacy","legacy","0","208","NA","uniform","57729","1000","0.0173223163401","1","undefined","1","0","65","65","65","0","65","65","65","NA","65","65","0","65","NA","65","65","0","65","NA","65","NA","65","0","0","65","65","0","65","65","66","z","11/12/18 16:11:50","The main experiment item","yes","FIN__BA__M21__7%3A10%3A17.osexp","C:\Users\ERP Testing Room\Desktop\Joanna\morph21","no","mono","no","18","no","white","no","yes","1080","legacy","65","65","C:/Users/ERP Testing Room/Desktop/Joanna/morph21/subject-151.csv","xpyriment","Kafkaesque Koffka","3.2.5","0","z","NA","NA","NA","NA","space","z","912","NA","NA","NA","NA","125906","912","2","legacy","1024","2","48000","-16","BA_m21","151","odd","FILL_NW","BROUPS","2069","368010","364851","366501","127989","NA","NA","NA","NA","366497","365349","NA","364351","NA","364339","366497","2083","368210","NA","NA","365501","2069","2069","365901","364339","2069","365501","368210","morph21_Oliver/Morris","57","42256","66","yes","1280","4"
"250","86.5671641791","86.5671641791","639.611940299","639.611940299","black","no","xpyriment","legacy","legacy","0","207","NA","uniform","69320","1000","0.0144258511252","1","undefined","1","0","66","66","66","0","66","66","66","NA","66","66","0","66","NA","66","66","0","66","NA","66","NA","66","0","0","66","66","0","66","66","67","/","11/12/18 16:11:50","The main experiment item","yes","FIN__BA__M21__7%3A10%3A17.osexp","C:\Users\ERP Testing Room\Desktop\Joanna\morph21","no","mono","no","18","no","white","no","yes","1080","legacy","66","66","C:/Users/ERP Testing Room/Desktop/Joanna/morph21/subject-151.csv","xpyriment","Kafkaesque Koffka","3.2.5","0","/","NA","NA","NA","NA","space","/","598","NA","NA","NA","NA","125906","598","2","legacy","1024","2","48000","-16","BA_m21","151","odd","FILL_W","SOUGHT","2069","371127","369435","366501","127989","NA","NA","NA","NA","371117","369932","NA","368927","NA","368922","371117","2083","371377","NA","NA","370127","2069","2069","370518","368922","2069","370127","371377","morph21_Oliver/Morris","58","42854","67","yes","1280","40"
"350","86.7647058824","86.7647058824","642.014705882","642.014705882","black","no","xpyriment","legacy","legacy","0","208","NA","uniform","59166","1000","0.0169015988913","1","undefined","1","0","67","67","67","0","67","67","67","NA","67","67","0","67","NA","67","67","0","67","NA","67","NA","67","0","0","67","67","0","67","67","68","z","11/12/18 16:11:50","The main experiment item","yes","FIN__BA__M21__7%3A10%3A17.osexp","C:\Users\ERP Testing Room\Desktop\Joanna\morph21","no","mono","no","18","no","white","no","yes","1080","legacy","67","67","C:/Users/ERP Testing Room/Desktop/Joanna/morph21/subject-151.csv","xpyriment","Kafkaesque Koffka","3.2.5","0","z","NA","NA","NA","NA","space","z","803","NA","NA","NA","NA","125906","803","2","legacy","1024","2","48000","-16","BA_m21","151","odd","FILL_NW","DARF","2069","374218","372535","366501","127989","NA","NA","NA","NA","374209","373032","NA","372035","NA","372030","374209","2083","374568","NA","NA","373218","2069","2069","373610","372030","2069","373218","374568","morph21_Oliver/Morris","59","43657","68","yes","1280","10"
"200","86.9565217391","86.9565217391","643.188405797","643.188405797","black","no","xpyriment","legacy","legacy","0","203","NA","uniform","60365","1000","0.0165658908308","1","undefined","1","0","68","68","68","0","68","68","68","NA","68","68","0","68","NA","68","68","0","68","NA","68","NA","68","0","0","68","68","0","68","68","69","z","11/12/18 16:11:50","The main experiment item","yes","FIN__BA__M21__7%3A10%3A17.osexp","C:\Users\ERP Testing Room\Desktop\Joanna\morph21","no","mono","no","18","no","white","no","yes","1080","legacy","68","68","C:/Users/ERP Testing Room/Desktop/Joanna/morph21/subject-151.csv","xpyriment","Kafkaesque Koffka","3.2.5","0","z","NA","NA","NA","NA","space","z","723","NA","NA","NA","NA","125906","723","2","legacy","1024","2","48000","-16","BA_m21","151","odd","NW_S_COMP","DUMBIDY","2069","378902","375727","377394","127989","NA","NA","NA","NA","377389","376224","NA","375227","NA","375215","377389","2083","379102","NA","NA","376394","2069","2069","376794","375215","2069","376394","379102","morph21_Oliver/Morris","60","44380","69","yes","1280","12"
"300","87.1428571429","87.1428571429","642.314285714","642.314285714","black","no","xpyriment","legacy","legacy","0","208","NA","uniform","70709","1000","0.0141424712554","1","undefined","1","0","69","69","69","0","69","69","69","NA","69","69","0","69","NA","69","69","0","69","NA","69","NA","69","0","0","69","69","0","69","69","70","z","11/12/18 16:11:50","The main experiment item","yes","FIN__BA__M21__7%3A10%3A17.osexp","C:\Users\ERP Testing Room\Desktop\Joanna\morph21","no","mono","no","18","no","white","no","yes","1080","legacy","69","69","C:/Users/ERP Testing Room/Desktop/Joanna/morph21/subject-151.csv","xpyriment","Kafkaesque Koffka","3.2.5","0","z","NA","NA","NA","NA","space","z","582","NA","NA","NA","NA","125906","582","2","legacy","1024","2","48000","-16","BA_m21","151","odd","FILL_NW","TREMP","2069","381945","380252","377394","127989","NA","NA","NA","NA","381938","380749","NA","379752","NA","379748","381938","2083","382245","NA","NA","380944","2069","2069","381336","379748","2069","380944","382245","morph21_Oliver/Morris","61","44962","70","yes","1280","20"
"300","87.323943662","87.323943662","641.732394366","641.732394366","black","no","xpyriment","legacy","legacy","0","202","NA","uniform","64988","1000","0.0153874561457","1","undefined","1","0","70","70","70","0","70","70","70","NA","70","70","0","70","NA","70","70","0","70","NA","70","NA","70","0","0","70","70","0","70","70","71","/","11/12/18 16:11:50","The main experiment item","yes","FIN__BA__M21__7%3A10%3A17.osexp","C:\Users\ERP Testing Room\Desktop\Joanna\morph21","no","mono","no","18","no","white","no","yes","1080","legacy","70","70","C:/Users/ERP Testing Room/Desktop/Joanna/morph21/subject-151.csv","xpyriment","Kafkaesque Koffka","3.2.5","0","/","NA","NA","NA","NA","space","/","601","NA","NA","NA","NA","125906","601","2","legacy","1024","2","48000","-16","BA_m21","151","odd","CW_L","COMPOSER","2069","385020","383362","377394","127989","NA","NA","NA","NA","385011","383859","NA","382862","NA","382852","385011","2083","385320","NA","NA","384020","2069","2069","384411","382852","2069","384020","385320","morph21_Oliver/Morris","62","45563","71","yes","1280","6"
"200","87.5","87.5","644.111111111","644.111111111","black","no","xpyriment","legacy","legacy","0","201","NA","uniform","62013","1000","0.0161256510732","1","undefined","1","0","71","71","71","0","71","71","71","NA","71","71","0","71","NA","71","71","0","71","NA","71","NA","71","0","0","71","71","0","71","71","72","/","11/12/18 16:11:50","The main experiment item","yes","FIN__BA__M21__7%3A10%3A17.osexp","C:\Users\ERP Testing Room\Desktop\Joanna\morph21","no","mono","no","18","no","white","no","yes","1080","legacy","71","71","C:/Users/ERP Testing Room/Desktop/Joanna/morph21/subject-151.csv","xpyriment","Kafkaesque Koffka","3.2.5","0","/","NA","NA","NA","NA","space","/","813","NA","NA","NA","NA","125906","813","2","legacy","1024","2","48000","-16","BA_m21","151","odd","CW_S","ANGELIC","2069","389628","386453","388120","127989","NA","NA","NA","NA","388113","386951","NA","385953","NA","385947","388113","2083","389829","NA","NA","387120","2069","2069","387512","385947","2069","387120","389829","morph21_Oliver/Morris","63","46376","72","yes","1280","25"
"400","87.6712328767","87.6712328767","645.945205479","645.945205479","black","no","xpyriment","legacy","legacy","0","207","NA","uniform","55430","1000","0.018040772145","1","undefined","1","0","72","72","72","0","72","72","72","NA","72","72","0","72","NA","72","72","0","72","NA","72","NA","72","0","0","72","72","0","72","72","73","/","11/12/18 16:11:50","The main experiment item","yes","FIN__BA__M21__7%3A10%3A17.osexp","C:\Users\ERP Testing Room\Desktop\Joanna\morph21","no","mono","no","18","no","white","no","yes","1080","legacy","72","72","C:/Users/ERP Testing Room/Desktop/Joanna/morph21/subject-151.csv","xpyriment","Kafkaesque Koffka","3.2.5","0","/","NA","NA","NA","NA","space","/","778","NA","NA","NA","NA","125906","778","2","legacy","1024","2","48000","-16","BA_m21","151","odd","FILL_W","QUIT","2069","392779","391087","388120","127989","NA","NA","NA","NA","392773","391584","NA","390587","NA","390575","392773","2083","393179","NA","NA","391779","2069","2069","392170","390575","2069","391779","393179","morph21_Oliver/Morris","64","47154","73","yes","1280","21"
"250","87.8378378378","87.8378378378","646.486486486","646.486486486","black","no","xpyriment","legacy","legacy","0","202","NA","uniform","64577","1000","0.015485389535","1","undefined","1","0","73","73","73","0","73","73","73","NA","73","73","0","73","NA","73","73","0","73","NA","73","NA","73","0","0","73","73","0","73","73","74","/","11/12/18 16:11:50","The main experiment item","yes","FIN__BA__M21__7%3A10%3A17.osexp","C:\Users\ERP Testing Room\Desktop\Joanna\morph21","no","mono","no","18","no","white","no","yes","1080","legacy","73","73","C:/Users/ERP Testing Room/Desktop/Joanna/morph21/subject-151.csv","xpyriment","Kafkaesque Koffka","3.2.5","0","/","NA","NA","NA","NA","space","/","686","NA","NA","NA","NA","125906","686","2","legacy","1024","2","48000","-16","BA_m21","151","odd","CW_L","CREAMY","2069","396087","394395","388120","127989","NA","NA","NA","NA","396082","394892","NA","393895","NA","393889","396082","2083","396337","NA","NA","395087","2069","2069","395487","393889","2069","395087","396337","morph21_Oliver/Morris","65","47840","74","yes","1280","49"
"300","88","88","644.88","644.88","black","no","xpyriment","legacy","legacy","0","202","NA","uniform","68967","1000","0.0144996882567","undefined","undefined","1","0","74","74","74","0","74","74","74","NA","74","74","0","74","NA","74","74","0","74","NA","74","NA","74","0","0","74","74","0","74","74","75","/","11/12/18 16:11:50","The main experiment item","yes","FIN__BA__M21__7%3A10%3A17.osexp","C:\Users\ERP Testing Room\Desktop\Joanna\morph21","no","mono","no","18","no","white","no","yes","1080","legacy","74","74","C:/Users/ERP Testing Room/Desktop/Joanna/morph21/subject-151.csv","xpyriment","Kafkaesque Koffka","3.2.5","0","space","space","NA","NA","NA","space","/","17843","17843","NA","NA","NA","125906","526","2","legacy","1024","2","48000","-16","BA_m21","151","odd","CW_L","HEATER","2069","400613","397454","399105","127989","400922","NA","NA","NA","399100","397951","NA","396946","NA","396936","399100","2083","418766","NA","NA","398112","2069","2069","398504","396936","2069","398112","400913","morph21_Oliver/Morris","66","48366","75","yes","1280","16"
"400","88.1578947368","88.1578947368","649","649","black","no","xpyriment","legacy","legacy","0","204","NA","uniform","56134","1000","0.017814515267","1","undefined","1","0","75","75","75","0","75","75","75","NA","75","75","0","75","NA","75","75","0","75","NA","75","NA","75","0","0","75","75","0","75","75","76","z","11/12/18 16:11:50","The main experiment item","yes","FIN__BA__M21__7%3A10%3A17.osexp","C:\Users\ERP Testing Room\Desktop\Joanna\morph21","no","mono","no","18","no","white","no","yes","1080","legacy","75","75","C:/Users/ERP Testing Room/Desktop/Joanna/morph21/subject-151.csv","xpyriment","Kafkaesque Koffka","3.2.5","0","z","space","NA","NA","NA","space","z","958","17843","NA","NA","NA","125906","958","2","legacy","1024","2","48000","-16","BA_m21","151","odd","NW_L_COMP","PASSMANT","2069","421623","419907","399105","127989","400922","NA","NA","NA","421618","420404","NA","419407","NA","419400","421618","2083","422024","NA","NA","420623","2069","2069","421015","419400","2069","420623","422024","morph21_Oliver/Morris","67","49324","76","yes","1280","14"
"200","88.3116883117","88.3116883117","650.272727273","650.272727273","black","no","xpyriment","legacy","legacy","0","208","NA","uniform","62375","1000","0.0160320641283","1","undefined","1","0","76","76","76","0","76","76","76","NA","76","76","0","76","NA","76","76","0","76","NA","76","NA","76","0","0","76","76","0","76","76","77","z","11/12/18 16:11:50","The main experiment item","yes","FIN__BA__M21__7%3A10%3A17.osexp","C:\Users\ERP Testing Room\Desktop\Joanna\morph21","no","mono","no","18","no","white","no","yes","1080","legacy","76","76","C:/Users/ERP Testing Room/Desktop/Joanna/morph21/subject-151.csv","xpyriment","Kafkaesque Koffka","3.2.5","0","z","space","NA","NA","NA","space","z","747","17843","NA","NA","NA","125906","747","2","legacy","1024","2","48000","-16","BA_m21","151","odd","FILL_NW","HESK","2069","424874","423149","399105","127989","400922","NA","NA","NA","424871","423646","NA","422649","NA","422641","424871","2083","425074","NA","NA","423882","2069","2069","424274","422641","2069","423882","425074","morph21_Oliver/Morris","68","50071","77","yes","1280","29"
"300","88.4615384615","88.4615384615","649.461538462","649.461538462","black","no","xpyriment","legacy","legacy","0","204","NA","uniform","66365","1000","0.0150681835305","1","undefined","1","0","77","77","77","0","77","77","77","NA","77","77","0","77","NA","77","77","0","77","NA","77","NA","77","0","0","77","77","0","77","77","78","z","11/12/18 16:11:50","The main experiment item","yes","FIN__BA__M21__7%3A10%3A17.osexp","C:\Users\ERP Testing Room\Desktop\Joanna\morph21","no","mono","no","18","no","white","no","yes","1080","legacy","77","77","C:/Users/ERP Testing Room/Desktop/Joanna/morph21/subject-151.csv","xpyriment","Kafkaesque Koffka","3.2.5","0","z","space","NA","NA","NA","space","z","587","17843","NA","NA","NA","125906","587","2","legacy","1024","2","48000","-16","BA_m21","151","odd","NW_L_COMP","IME","2069","429391","426174","427882","127989","400922","NA","NA","NA","427875","426671","NA","425674","NA","425665","427875","2083","429691","NA","NA","426882","2069","2069","427274","425664","2069","426882","429691","morph21_Oliver/Morris","69","50658","78","yes","1280","20"
"300","88.6075949367","88.6075949367","647.291139241","647.291139241","black","no","xpyriment","legacy","legacy","0","201","NA","uniform","73576","1000","0.0135913884962","1","undefined","1","0","78","78","78","0","78","78","78","NA","78","78","0","78","NA","78","78","0","78","NA","78","NA","78","0","0","78","78","0","78","78","79","/","11/12/18 16:11:50","The main experiment item","yes","FIN__BA__M21__7%3A10%3A17.osexp","C:\Users\ERP Testing Room\Desktop\Joanna\morph21","no","mono","no","18","no","white","no","yes","1080","legacy","78","78","C:/Users/ERP Testing Room/Desktop/Joanna/morph21/subject-151.csv","xpyriment","Kafkaesque Koffka","3.2.5","0","/","space","NA","NA","NA","space","/","478","17843","NA","NA","NA","125906","478","2","legacy","1024","2","48000","-16","BA_m21","151","odd","CW_S","GUILTY","2069","432599","430949","427882","127989","400922","NA","NA","NA","432595","431446","NA","430441","NA","430431","432595","2083","432899","NA","NA","431607","2069","2069","431999","430431","2069","431607","432899","morph21_Oliver/Morris","70","51136","79","yes","1280","34"
"300","88.75","88.75","645.3875","645.3875","black","no","xpyriment","legacy","legacy","0","208","NA","uniform","75085","1000","0.0133182393288","1","undefined","1","0","79","79","79","0","79","79","79","NA","79","79","0","79","NA","79","79","0","79","NA","79","NA","79","0","0","79","79","0","79","79","80","z","11/12/18 16:11:50","The main experiment item","yes","FIN__BA__M21__7%3A10%3A17.osexp","C:\Users\ERP Testing Room\Desktop\Joanna\morph21","no","mono","no","18","no","white","no","yes","1080","legacy","79","79","C:/Users/ERP Testing Room/Desktop/Joanna/morph21/subject-151.csv","xpyriment","Kafkaesque Koffka","3.2.5","0","z","space","NA","NA","NA","space","z","495","17843","NA","NA","NA","125906","495","2","legacy","1024","2","48000","-16","BA_m21","151","odd","FILL_NW","VOOFS","2069","435742","434058","427882","127989","400922","NA","NA","NA","435738","434555","NA","433557","NA","433547","435738","2083","436042","NA","NA","434750","2069","2069","435142","433547","2069","434750","436042","morph21_Oliver/Morris","71","51631","80","yes","1280","48"
"200","88.8888888889","88.8888888889","647.925925926","647.925925926","black","no","xpyriment","legacy","legacy","0","203","NA","uniform","55163","1000","0.0181280931059","1","undefined","1","0","80","80","80","0","80","80","80","NA","80","80","0","80","NA","80","80","0","80","NA","80","NA","80","0","0","80","80","0","80","80","81","z","11/12/18 16:11:50","The main experiment item","yes","FIN__BA__M21__7%3A10%3A17.osexp","C:\Users\ERP Testing Room\Desktop\Joanna\morph21","no","mono","no","18","no","white","no","yes","1080","legacy","80","80","C:/Users/ERP Testing Room/Desktop/Joanna/morph21/subject-151.csv","xpyriment","Kafkaesque Koffka","3.2.5","0","z","space","NA","NA","NA","space","z","851","17843","NA","NA","NA","125906","851","2","legacy","1024","2","48000","-16","BA_m21","151","odd","NW_S_COMP","ELMILT","2069","440350","437192","438842","127989","400922","NA","NA","NA","438839","437689","NA","436684","NA","436676","438839","2083","440550","NA","NA","437850","2069","2069","438242","436676","2069","437850","440550","morph21_Oliver/Morris","72","52482","81","yes","1280","10"
"400","89.0243902439","89.0243902439","648.731707317","648.731707317","black","no","xpyriment","legacy","legacy","0","205","NA","uniform","60267","1000","0.0165928285795","1","undefined","1","0","81","81","81","0","81","81","81","NA","81","81","0","81","NA","81","81","0","81","NA","81","NA","81","0","0","81","81","0","81","81","82","z","11/12/18 16:11:50","The main experiment item","yes","FIN__BA__M21__7%3A10%3A17.osexp","C:\Users\ERP Testing Room\Desktop\Joanna\morph21","no","mono","no","18","no","white","no","yes","1080","legacy","81","81","C:/Users/ERP Testing Room/Desktop/Joanna/morph21/subject-151.csv","xpyriment","Kafkaesque Koffka","3.2.5","0","z","space","NA","NA","NA","space","z","714","17843","NA","NA","NA","125906","714","2","legacy","1024","2","48000","-16","BA_m21","151","odd","NW_S_SIMP","MEDICALARY","2069","443459","441809","438842","127989","400922","NA","NA","NA","443455","442306","NA","441309","NA","441300","443455","2083","443859","NA","NA","442459","2069","2069","442859","441300","2069","442459","443859","morph21_Oliver/Morris","73","53196","82","yes","1280","18"
"400","89.156626506","89.156626506","648.060240964","648.060240964","black","no","xpyriment","legacy","legacy","0","208","NA","uniform","64627","1000","0.0154734089467","1","undefined","1","0","82","82","82","0","82","82","82","NA","82","82","0","82","NA","82","82","0","82","NA","82","NA","82","0","0","82","82","0","82","82","83","z","11/12/18 16:11:50","The main experiment item","yes","FIN__BA__M21__7%3A10%3A17.osexp","C:\Users\ERP Testing Room\Desktop\Joanna\morph21","no","mono","no","18","no","white","no","yes","1080","legacy","82","82","C:/Users/ERP Testing Room/Desktop/Joanna/morph21/subject-151.csv","xpyriment","Kafkaesque Koffka","3.2.5","0","z","space","NA","NA","NA","space","z","593","17843","NA","NA","NA","125906","593","2","legacy","1024","2","48000","-16","BA_m21","151","odd","FILL_NW","BALFS","2069","446676","444967","438842","127989","400922","NA","NA","NA","446672","445464","NA","444467","NA","444460","446672","2083","447076","NA","NA","445684","2069","2069","446076","444460","2069","445684","447076","morph21_Oliver/Morris","74","53789","83","yes","1280","2"
"400","89.2857142857","89.2857142857","644.904761905","644.904761905","black","no","xpyriment","legacy","legacy","0","202","NA","uniform","77894","1000","0.012837959278","1","undefined","1","0","83","83","83","0","83","83","83","NA","83","83","0","83","NA","83","83","0","83","NA","83","NA","83","0","0","83","83","0","83","83","84","/","11/12/18 16:11:50","The main experiment item","yes","FIN__BA__M21__7%3A10%3A17.osexp","C:\Users\ERP Testing Room\Desktop\Joanna\morph21","no","mono","no","18","no","white","no","yes","1080","legacy","83","83","C:/Users/ERP Testing Room/Desktop/Joanna/morph21/subject-151.csv","xpyriment","Kafkaesque Koffka","3.2.5","0","/","space","NA","NA","NA","space","/","383","17843","NA","NA","NA","125906","383","2","legacy","1024","2","48000","-16","BA_m21","151","odd","CW_L","QUIETLY","2069","451444","448267","449934","127989","400922","NA","NA","NA","449925","448764","NA","447767","NA","447760","449925","2083","451844","NA","NA","448934","2069","2069","449326","447760","2069","448934","451844","morph21_Oliver/Morris","75","54172","84","yes","1280","36"
"300","89.4117647059","89.4117647059","644.576470588","644.576470588","black","no","xpyriment","legacy","legacy","0","208","NA","uniform","60631","1000","0.0164932130428","1","undefined","1","0","84","84","84","0","84","84","84","NA","84","84","0","84","NA","84","84","0","84","NA","84","NA","84","0","0","84","84","0","84","84","85","z","11/12/18 16:11:50","The main experiment item","yes","FIN__BA__M21__7%3A10%3A17.osexp","C:\Users\ERP Testing Room\Desktop\Joanna\morph21","no","mono","no","18","no","white","no","yes","1080","legacy","84","84","C:/Users/ERP Testing Room/Desktop/Joanna/morph21/subject-151.csv","xpyriment","Kafkaesque Koffka","3.2.5","0","z","space","NA","NA","NA","space","z","617","17843","NA","NA","NA","125906","617","2","legacy","1024","2","48000","-16","BA_m21","151","odd","FILL_NW","DULKS","2069","454660","452969","449934","127989","400922","NA","NA","NA","454656","453466","NA","452469","NA","452462","454656","2083","454960","NA","NA","453660","2069","2069","454060","452462","2069","453660","454960","morph21_Oliver/Morris","76","54789","85","yes","1280","18"
"250","89.5348837209","89.5348837209","645.290697674","645.290697674","black","no","xpyriment","legacy","legacy","0","206","NA","uniform","57424","1000","0.017414321538","1","undefined","1","0","85","85","85","0","85","85","85","NA","85","85","0","85","NA","85","85","0","85","NA","85","NA","85","0","0","85","85","0","85","85","86","z","11/12/18 16:11:50","The main experiment item","yes","FIN__BA__M21__7%3A10%3A17.osexp","C:\Users\ERP Testing Room\Desktop\Joanna\morph21","no","mono","no","18","no","white","no","yes","1080","legacy","85","85","C:/Users/ERP Testing Room/Desktop/Joanna/morph21/subject-151.csv","xpyriment","Kafkaesque Koffka","3.2.5","0","z","space","NA","NA","NA","space","z","706","17843","NA","NA","NA","125906","706","2","legacy","1024","2","48000","-16","BA_m21","151","odd","NW_L_SIMP","SHOOTMENT","2069","457819","456127","449934","127989","400922","NA","NA","NA","457814","456624","NA","455627","NA","455622","457814","2083","458069","NA","NA","456819","2069","2069","457219","455622","2069","456819","458069","morph21_Oliver/Morris","77","55495","86","yes","1280","16"
"200","89.6551724138","89.6551724138","645.379310345","645.379310345","black","no","xpyriment","legacy","legacy","0","208","NA","uniform","62514","1000","0.0159964168026","1","undefined","1","0","86","86","86","0","86","86","86","NA","86","86","0","86","NA","86","86","0","86","NA","86","NA","86","0","0","86","86","0","86","86","87","z","11/12/18 16:11:50","The main experiment item","yes","FIN__BA__M21__7%3A10%3A17.osexp","C:\Users\ERP Testing Room\Desktop\Joanna\morph21","no","mono","no","18","no","white","no","yes","1080","legacy","86","86","C:/Users/ERP Testing Room/Desktop/Joanna/morph21/subject-151.csv","xpyriment","Kafkaesque Koffka","3.2.5","0","z","space","NA","NA","NA","space","z","653","17843","NA","NA","NA","125906","653","2","legacy","1024","2","48000","-16","BA_m21","151","odd","FILL_NW","HOITS","2069","462461","459269","460952","127989","400922","NA","NA","NA","460942","459766","NA","458760","NA","458749","460942","2083","462661","NA","NA","459952","2069","2069","460344","458749","2069","459952","462661","morph21_Oliver/Morris","78","56148","87","yes","1280","30"
"200","89.7727272727","89.7727272727","646.522727273","646.522727273","black","no","xpyriment","legacy","legacy","0","203","NA","uniform","65476","1000","0.0152727717026","1","undefined","1","0","87","87","87","0","87","87","87","NA","87","87","0","87","NA","87","87","0","87","NA","87","NA","87","0","0","87","87","0","87","87","88","z","11/12/18 16:11:50","The main experiment item","yes","FIN__BA__M21__7%3A10%3A17.osexp","C:\Users\ERP Testing Room\Desktop\Joanna\morph21","no","mono","no","18","no","white","no","yes","1080","legacy","87","87","C:/Users/ERP Testing Room/Desktop/Joanna/morph21/subject-151.csv","xpyriment","Kafkaesque Koffka","3.2.5","0","z","space","NA","NA","NA","space","z","746","17843","NA","NA","NA","125906","746","2","legacy","1024","2","48000","-16","BA_m21","151","odd","NW_S_COMP","YANKODY","2069","465419","463752","460952","127989","400922","NA","NA","NA","465412","464249","NA","463252","NA","463243","465412","2083","465619","NA","NA","464419","2069","2069","464811","463243","2069","464419","465619","morph21_Oliver/Morris","79","56894","88","yes","1280","23"
"400","88.7640449438","88.7640449438","650.404494382","650.404494382","black","no","xpyriment","legacy","legacy","0","208","NA","uniform","55329","1000","0.0180737045672","0","undefined","0","0","88","88","88","0","88","88","88","NA","88","88","0","88","NA","88","88","0","88","NA","88","NA","88","0","0","88","88","0","88","88","89","z","11/12/18 16:11:50","The main experiment item","yes","FIN__BA__M21__7%3A10%3A17.osexp","C:\Users\ERP Testing Room\Desktop\Joanna\morph21","no","mono","no","18","no","white","no","yes","1080","legacy","88","88","C:/Users/ERP Testing Room/Desktop/Joanna/morph21/subject-151.csv","xpyriment","Kafkaesque Koffka","3.2.5","0","None","space","NA","NA","NA","space","None","992","17843","NA","NA","NA","125906","992","2","legacy","1024","2","48000","-16","BA_m21","151","odd","FILL_NW","HEND","2069","468411","466761","460952","127989","400922","NA","NA","NA","465412","467258","NA","466261","NA","466255","468403","2083","468811","NA","NA","467411","2069","2069","467802","466255","2069","467411","468811","morph21_Oliver/Morris","79","57886","89","yes","1280","28"
"400","88.8888888889","88.8888888889","649.555555556","649.555555556","black","no","xpyriment","legacy","legacy","0","207","NA","uniform","66746","1000","0.0149821712163","1","undefined","1","0","89","89","89","0","89","89","89","NA","89","89","0","89","NA","89","89","0","89","NA","89","NA","89","0","0","89","89","0","89","89","90","/","11/12/18 16:11:50","The main experiment item","yes","FIN__BA__M21__7%3A10%3A17.osexp","C:\Users\ERP Testing Room\Desktop\Joanna\morph21","no","mono","no","18","no","white","no","yes","1080","legacy","89","89","C:/Users/ERP Testing Room/Desktop/Joanna/morph21/subject-151.csv","xpyriment","Kafkaesque Koffka","3.2.5","0","/","space","NA","NA","NA","space","/","574","17843","NA","NA","NA","125906","574","2","legacy","1024","2","48000","-16","BA_m21","151","odd","FILL_W","CEASE","2069","473220","470004","471712","127989","400922","NA","NA","NA","471703","470501","NA","469504","NA","469498","471703","2083","473621","NA","NA","470712","2069","2069","471104","469498","2069","470712","473621","morph21_Oliver/Morris","80","58460","90","yes","1280","18"
