"ITI","acc","accuracy","average_response_time","avg_rt","background","bidi","canvas_backend","clock_backend","color_backend","compensation","cond_trig","condtrigtime","coordinates","coroutines_cycles","coroutines_duration","coroutines_mean_cycle_duration","correct","correct_instructions_1","correct_new_keyboard_response_1","count_BA_m21","count_ITI","count_blank_screen","count_blink_screen","count_block1","count_break1","count_break2","count_break3_1","count_canvas","count_correct_trigger","count_def_chain","count_end_screen","count_fixation_1","count_getting_started","count_inc_counter","count_incorrect_trigger","count_instructions_1","count_logger","count_logscript","count_new_coroutines","count_new_inline_script","count_new_keyboard_response_1","count_reset_counter_prep","count_reset_counter_run","count_responsescreen","count_sequence","count_start_trigger","count_target_present","count_word_trigger","counter","cresp","datetime","description","disable_garbage_collection","experiment_file","experiment_path","font_bold","font_family","font_italic","font_size","font_underline","foreground","form_clicks","fullscreen","height","keyboard_backend","live_row","live_row_block1","logfile","mouse_backend","opensesame_codename","opensesame_version","repeat_cycle","response","response_break1","response_break2","response_break3_1","response_end_screen","response_instructions_1","response_new_keyboard_response_1","response_time","response_time_break1","response_time_break2","response_time_break3_1","response_time_end_screen","response_time_instructions_1","response_time_new_keyboard_response_1","round_decimals","sampler_backend","sound_buf_size","sound_channels","sound_freq","sound_sample_size","start","subject_nr","subject_parity","targ_type","target","time_BA_m21","time_ITI","time_blank_screen","time_blink_screen","time_block1","time_break1","time_break2","time_break3_1","time_canvas","time_correct_trigger","time_def_chain","time_end_screen","time_fixation_1","time_getting_started","time_inc_counter","time_incorrect_trigger","time_instructions_1","time_logger","time_logscript","time_new_inline_script","time_new_keyboard_response_1","time_reset_counter_prep","time_reset_counter_run","time_responsescreen","time_sequence","time_start_trigger","time_target_present","time_word_trigger","title","total_correct","total_response_time","total_responses","uniform_coordinates","width","word_trig"
"350","0","0","989","989","black","no","xpyriment","legacy","legacy","0","201","NA","uniform","57529","1000","0.0173825375028","0","undefined","0","0","0","0","0","0","0","0","0","NA","0","0","0","0","NA","0","0","0","0","NA","0","NA","0","0","0","0","0","0","0","0","1","/","10/04/18 17:05:15","The main experiment item","yes","FIN__BA__M21__7%3A10%3A17.osexp","C:\Users\ERP Testing Room\Desktop\Joanna\morph21","no","mono","no","18","no","white","no","yes","1080","legacy","0","0","C:/Users/ERP Testing Room/Desktop/Joanna/morph21/subject-138.csv","xpyriment","Jazzy James","3.1.4","0","None","NA","NA","NA","NA","space","None","989","NA","NA","NA","NA","160805","989","2","legacy","1024","2","48000","-16","BA_m21","138","even","CW_S","SINGER","2553","166265","164682","NA","163368","NA","NA","NA","NA","NA","165179","NA","164177","NA","164113","166263","2562","166616","NA","NA","165274","2553","2553","165665","164113","2553","165274","166616","morph21_Oliver/Morris","0","989","1","yes","1280","17"
"400","50","50","962.5","962.5","black","no","xpyriment","legacy","legacy","0","206","NA","uniform","54659","1000","0.0182952487239","1","undefined","1","0","1","1","1","0","1","1","1","NA","1","1","0","1","NA","1","1","0","1","NA","1","NA","1","0","0","1","1","0","1","1","2","z","10/04/18 17:05:15","The main experiment item","yes","FIN__BA__M21__7%3A10%3A17.osexp","C:\Users\ERP Testing Room\Desktop\Joanna\morph21","no","mono","no","18","no","white","no","yes","1080","legacy","1","1","C:/Users/ERP Testing Room/Desktop/Joanna/morph21/subject-138.csv","xpyriment","Jazzy James","3.1.4","0","z","NA","NA","NA","NA","space","z","936","NA","NA","NA","NA","160805","936","2","legacy","1024","2","48000","-16","BA_m21","138","even","NW_L_SIMP","CLASSOUS","2553","169607","167974","NA","163368","NA","NA","NA","NA","169599","168471","NA","167474","NA","167464","169599","2562","170007","NA","NA","168607","2553","2553","168999","167463","2553","168607","170007","morph21_Oliver/Morris","1","1925","2","yes","1280","18"
"350","66.6666666667","66.6666666667","892.666666667","892.666666667","black","no","xpyriment","legacy","legacy","0","204","NA","uniform","67812","1000","0.0147466525099","1","undefined","1","0","2","2","2","0","2","2","2","NA","2","2","0","2","NA","2","2","0","2","NA","2","NA","2","0","0","2","2","0","2","2","3","z","10/04/18 17:05:15","The main experiment item","yes","FIN__BA__M21__7%3A10%3A17.osexp","C:\Users\ERP Testing Room\Desktop\Joanna\morph21","no","mono","no","18","no","white","no","yes","1080","legacy","2","2","C:/Users/ERP Testing Room/Desktop/Joanna/morph21/subject-138.csv","xpyriment","Jazzy James","3.1.4","0","z","NA","NA","NA","NA","space","z","753","NA","NA","NA","NA","160805","753","2","legacy","1024","2","48000","-16","BA_m21","138","even","NW_L_COMP","AGREELA","2553","174491","171374","172982","163368","NA","NA","NA","NA","172976","171871","NA","170874","NA","170869","172976","2562","174841","NA","NA","171982","2553","2553","172374","170869","2553","171982","174841","morph21_Oliver/Morris","2","2678","3","yes","1280","24"
"400","75","75","784","784","black","no","xpyriment","legacy","legacy","0","201","NA","uniform","59606","1000","0.0167768345469","1","undefined","1","0","3","3","3","0","3","3","3","NA","3","3","0","3","NA","3","3","0","3","NA","3","NA","3","0","0","3","3","0","3","3","4","/","10/04/18 17:05:15","The main experiment item","yes","FIN__BA__M21__7%3A10%3A17.osexp","C:\Users\ERP Testing Room\Desktop\Joanna\morph21","no","mono","no","18","no","white","no","yes","1080","legacy","3","3","C:/Users/ERP Testing Room/Desktop/Joanna/morph21/subject-138.csv","xpyriment","Jazzy James","3.1.4","0","/","NA","NA","NA","NA","space","/","458","NA","NA","NA","NA","160805","458","2","legacy","1024","2","48000","-16","BA_m21","138","even","CW_S","DESIGN","2553","177717","176109","172982","163368","NA","NA","NA","NA","177708","176606","NA","175609","NA","175605","177708","2562","178117","NA","NA","176717","2553","2553","177109","175605","2553","176717","178117","morph21_Oliver/Morris","3","3136","4","yes","1280","19"
"200","80","80","752.2","752.2","black","no","xpyriment","legacy","legacy","0","203","NA","uniform","72542","1000","0.0137851175871","1","undefined","1","0","4","4","4","0","4","4","4","NA","4","4","0","4","NA","4","4","0","4","NA","4","NA","4","0","0","4","4","0","4","4","5","z","10/04/18 17:05:15","The main experiment item","yes","FIN__BA__M21__7%3A10%3A17.osexp","C:\Users\ERP Testing Room\Desktop\Joanna\morph21","no","mono","no","18","no","white","no","yes","1080","legacy","4","4","C:/Users/ERP Testing Room/Desktop/Joanna/morph21/subject-138.csv","xpyriment","Jazzy James","3.1.4","0","z","NA","NA","NA","NA","space","z","625","NA","NA","NA","NA","160805","625","2","legacy","1024","2","48000","-16","BA_m21","138","even","NW_S_COMP","ADOPTISH","2553","181117","179492","172982","163368","NA","NA","NA","NA","181114","179989","NA","178992","NA","178986","181114","2562","181317","NA","NA","180126","2553","2553","180517","178986","2553","180125","181317","morph21_Oliver/Morris","4","3761","5","yes","1280","19"
"350","83.3333333333","83.3333333333","709.5","709.5","black","no","xpyriment","legacy","legacy","0","202","NA","uniform","67454","1000","0.0148249177217","1","undefined","1","0","5","5","5","0","5","5","5","NA","5","5","0","5","NA","5","5","0","5","NA","5","NA","5","0","0","5","5","0","5","5","6","/","10/04/18 17:05:15","The main experiment item","yes","FIN__BA__M21__7%3A10%3A17.osexp","C:\Users\ERP Testing Room\Desktop\Joanna\morph21","no","mono","no","18","no","white","no","yes","1080","legacy","5","5","C:/Users/ERP Testing Room/Desktop/Joanna/morph21/subject-138.csv","xpyriment","Jazzy James","3.1.4","0","/","NA","NA","NA","NA","space","/","496","NA","NA","NA","NA","160805","496","2","legacy","1024","2","48000","-16","BA_m21","138","even","CW_L","BOMBER","2553","185667","182576","184159","163368","NA","NA","NA","NA","184154","183073","NA","182076","NA","182069","184154","2562","186018","NA","NA","183159","2553","2553","183559","182069","2553","183159","186018","morph21_Oliver/Morris","5","4257","6","yes","1280","7"
"300","85.7142857143","85.7142857143","683.714285714","683.714285714","black","no","xpyriment","legacy","legacy","0","201","NA","uniform","72837","1000","0.0137292859398","1","undefined","1","0","6","6","6","0","6","6","6","NA","6","6","0","6","NA","6","6","0","6","NA","6","NA","6","0","0","6","6","0","6","6","7","/","10/04/18 17:05:15","The main experiment item","yes","FIN__BA__M21__7%3A10%3A17.osexp","C:\Users\ERP Testing Room\Desktop\Joanna\morph21","no","mono","no","18","no","white","no","yes","1080","legacy","6","6","C:/Users/ERP Testing Room/Desktop/Joanna/morph21/subject-138.csv","xpyriment","Jazzy James","3.1.4","0","/","NA","NA","NA","NA","space","/","529","NA","NA","NA","NA","160805","529","2","legacy","1024","2","48000","-16","BA_m21","138","even","CW_S","RISKY","2553","188926","187326","184159","163368","NA","NA","NA","NA","188922","187823","NA","186817","NA","186809","188922","2562","189226","NA","NA","187926","2553","2553","188326","186809","2553","187926","189226","morph21_Oliver/Morris","6","4786","7","yes","1280","50"
"250","87.5","87.5","658.75","658.75","black","no","xpyriment","legacy","legacy","0","202","NA","uniform","74918","1000","0.0133479270669","1","undefined","1","0","7","7","7","0","7","7","7","NA","7","7","0","7","NA","7","7","0","7","NA","7","NA","7","0","0","7","7","0","7","7","8","/","10/04/18 17:05:15","The main experiment item","yes","FIN__BA__M21__7%3A10%3A17.osexp","C:\Users\ERP Testing Room\Desktop\Joanna\morph21","no","mono","no","18","no","white","no","yes","1080","legacy","7","7","C:/Users/ERP Testing Room/Desktop/Joanna/morph21/subject-138.csv","xpyriment","Jazzy James","3.1.4","0","/","NA","NA","NA","NA","space","/","484","NA","NA","NA","NA","160805","484","2","legacy","1024","2","48000","-16","BA_m21","138","even","CW_L","DREAMER","2553","192059","190476","184159","163368","NA","NA","NA","NA","192053","190973","NA","189976","NA","189969","192053","2562","192309","NA","NA","191059","2553","2553","191451","189969","2553","191059","192309","morph21_Oliver/Morris","7","5270","8","yes","1280","12"
"400","88.8888888889","88.8888888889","653","653","black","no","xpyriment","legacy","legacy","0","208","NA","uniform","71471","1000","0.0139916889368","1","undefined","1","0","8","8","8","0","8","8","8","NA","8","8","0","8","NA","8","8","0","8","NA","8","NA","8","0","0","8","8","0","8","8","9","z","10/04/18 17:05:15","The main experiment item","yes","FIN__BA__M21__7%3A10%3A17.osexp","C:\Users\ERP Testing Room\Desktop\Joanna\morph21","no","mono","no","18","no","white","no","yes","1080","legacy","8","8","C:/Users/ERP Testing Room/Desktop/Joanna/morph21/subject-138.csv","xpyriment","Jazzy James","3.1.4","0","z","NA","NA","NA","NA","space","z","607","NA","NA","NA","NA","160805","607","2","legacy","1024","2","48000","-16","BA_m21","138","even","FILL_NW","BALFS","2553","196669","193577","195160","163368","NA","NA","NA","NA","195150","194074","NA","193077","NA","193066","195150","2562","197069","NA","NA","194160","2553","2553","194552","193066","2553","194160","197069","morph21_Oliver/Morris","8","5877","9","yes","1280","2"
"400","80","80","686.7","686.7","black","no","xpyriment","legacy","legacy","0","206","NA","uniform","54458","1000","0.0183627749826","0","undefined","0","0","9","9","9","0","9","9","9","NA","9","9","0","9","NA","9","9","0","9","NA","9","NA","9","0","0","9","9","0","9","9","10","z","10/04/18 17:05:15","The main experiment item","yes","FIN__BA__M21__7%3A10%3A17.osexp","C:\Users\ERP Testing Room\Desktop\Joanna\morph21","no","mono","no","18","no","white","no","yes","1080","legacy","9","9","C:/Users/ERP Testing Room/Desktop/Joanna/morph21/subject-138.csv","xpyriment","Jazzy James","3.1.4","0","None","NA","NA","NA","NA","space","None","990","NA","NA","NA","NA","160805","990","2","legacy","1024","2","48000","-16","BA_m21","138","even","NW_L_SIMP","VALIDER","2553","199861","198261","195160","163368","NA","NA","NA","NA","195150","198758","NA","197761","NA","197755","199851","2562","200261","NA","NA","198861","2553","2553","199252","197755","2553","198861","200261","morph21_Oliver/Morris","8","6867","10","yes","1280","23"
"250","81.8181818182","81.8181818182","668.090909091","668.090909091","black","no","xpyriment","legacy","legacy","0","207","NA","uniform","79236","1000","0.0126205260235","1","undefined","1","0","10","10","10","0","10","10","10","NA","10","10","0","10","NA","10","10","0","10","NA","10","NA","10","0","0","10","10","0","10","10","11","/","10/04/18 17:05:15","The main experiment item","yes","FIN__BA__M21__7%3A10%3A17.osexp","C:\Users\ERP Testing Room\Desktop\Joanna\morph21","no","mono","no","18","no","white","no","yes","1080","legacy","10","10","C:/Users/ERP Testing Room/Desktop/Joanna/morph21/subject-138.csv","xpyriment","Jazzy James","3.1.4","0","/","NA","NA","NA","NA","space","/","482","NA","NA","NA","NA","160805","482","2","legacy","1024","2","48000","-16","BA_m21","138","even","FILL_W","TREAT","2553","203061","201461","195160","163368","NA","NA","NA","NA","203052","201958","NA","200961","NA","200952","203052","2562","203311","NA","NA","202061","2553","2553","202452","200952","2553","202061","203311","morph21_Oliver/Morris","9","7349","11","yes","1280","48"
"350","83.3333333333","83.3333333333","653.166666667","653.166666667","black","no","xpyriment","legacy","legacy","0","202","NA","uniform","80972","1000","0.0123499481302","1","undefined","1","0","11","11","11","0","11","11","11","NA","11","11","0","11","NA","11","11","0","11","NA","11","NA","11","0","0","11","11","0","11","11","12","/","10/04/18 17:05:15","The main experiment item","yes","FIN__BA__M21__7%3A10%3A17.osexp","C:\Users\ERP Testing Room\Desktop\Joanna\morph21","no","mono","no","18","no","white","no","yes","1080","legacy","11","11","C:/Users/ERP Testing Room/Desktop/Joanna/morph21/subject-138.csv","xpyriment","Jazzy James","3.1.4","0","/","NA","NA","NA","NA","space","/","489","NA","NA","NA","NA","160805","489","2","legacy","1024","2","48000","-16","BA_m21","138","even","CW_L","BARKER","2553","207586","204494","206078","163368","NA","NA","NA","NA","206075","204991","NA","203994","NA","203984","206075","2562","207936","NA","NA","205086","2553","2553","205478","203984","2553","205086","207936","morph21_Oliver/Morris","10","7838","12","yes","1280","2"
"200","84.6153846154","84.6153846154","664.384615385","664.384615385","black","no","xpyriment","legacy","legacy","0","208","NA","uniform","67738","1000","0.0147627624081","1","undefined","1","0","12","12","12","0","12","12","12","NA","12","12","0","12","NA","12","12","0","12","NA","12","NA","12","0","0","12","12","0","12","12","13","z","10/04/18 17:05:15","The main experiment item","yes","FIN__BA__M21__7%3A10%3A17.osexp","C:\Users\ERP Testing Room\Desktop\Joanna\morph21","no","mono","no","18","no","white","no","yes","1080","legacy","12","12","C:/Users/ERP Testing Room/Desktop/Joanna/morph21/subject-138.csv","xpyriment","Jazzy James","3.1.4","0","z","NA","NA","NA","NA","space","z","799","NA","NA","NA","NA","160805","799","2","legacy","1024","2","48000","-16","BA_m21","138","even","FILL_NW","FROT","2553","210754","209161","206078","163368","NA","NA","NA","NA","210747","209658","NA","208661","NA","208654","210747","2562","210954","NA","NA","209753","2553","2553","210145","208654","2553","209753","210954","morph21_Oliver/Morris","11","8637","13","yes","1280","22"
"200","85.7142857143","85.7142857143","659.285714286","659.285714286","black","no","xpyriment","legacy","legacy","0","207","NA","uniform","75205","1000","0.0132969882322","1","undefined","1","0","13","13","13","0","13","13","13","NA","13","13","0","13","NA","13","13","0","13","NA","13","NA","13","0","0","13","13","0","13","13","14","/","10/04/18 17:05:15","The main experiment item","yes","FIN__BA__M21__7%3A10%3A17.osexp","C:\Users\ERP Testing Room\Desktop\Joanna\morph21","no","mono","no","18","no","white","no","yes","1080","legacy","13","13","C:/Users/ERP Testing Room/Desktop/Joanna/morph21/subject-138.csv","xpyriment","Jazzy James","3.1.4","0","/","NA","NA","NA","NA","space","/","593","NA","NA","NA","NA","160805","593","2","legacy","1024","2","48000","-16","BA_m21","138","even","FILL_W","WRECK","2553","213846","212246","206078","163368","NA","NA","NA","NA","213836","212743","NA","211746","NA","211734","213836","2562","214046","NA","NA","212846","2553","2553","213237","211734","2553","212846","214046","morph21_Oliver/Morris","12","9230","14","yes","1280","13"
"250","80","80","654.8","654.8","black","no","xpyriment","legacy","legacy","0","201","NA","uniform","74088","1000","0.0134974624771","0","undefined","0","0","14","14","14","0","14","14","14","NA","14","14","0","14","NA","14","14","0","14","NA","14","NA","14","0","0","14","14","0","14","14","15","/","10/04/18 17:05:15","The main experiment item","yes","FIN__BA__M21__7%3A10%3A17.osexp","C:\Users\ERP Testing Room\Desktop\Joanna\morph21","no","mono","no","18","no","white","no","yes","1080","legacy","14","14","C:/Users/ERP Testing Room/Desktop/Joanna/morph21/subject-138.csv","xpyriment","Jazzy James","3.1.4","0","z","NA","NA","NA","NA","space","z","592","NA","NA","NA","NA","160805","592","2","legacy","1024","2","48000","-16","BA_m21","138","even","CW_S","HUGELY","2553","218379","215279","216871","163368","NA","NA","NA","NA","213836","215776","NA","214779","NA","214773","216865","2562","218629","NA","NA","215871","2553","2553","216262","214773","2553","215871","218629","morph21_Oliver/Morris","12","9822","15","yes","1280","35"
"350","81.25","81.25","647.375","647.375","black","no","xpyriment","legacy","legacy","0","201","NA","uniform","72647","1000","0.0137651933321","1","undefined","1","0","15","15","15","0","15","15","15","NA","15","15","0","15","NA","15","15","0","15","NA","15","NA","15","0","0","15","15","0","15","15","16","/","10/04/18 17:05:15","The main experiment item","yes","FIN__BA__M21__7%3A10%3A17.osexp","C:\Users\ERP Testing Room\Desktop\Joanna\morph21","no","mono","no","18","no","white","no","yes","1080","legacy","15","15","C:/Users/ERP Testing Room/Desktop/Joanna/morph21/subject-138.csv","xpyriment","Jazzy James","3.1.4","0","/","NA","NA","NA","NA","space","/","536","NA","NA","NA","NA","160805","536","2","legacy","1024","2","48000","-16","BA_m21","138","even","CW_S","RICHNESS","2553","221463","219871","216871","163368","NA","NA","NA","NA","221455","220368","NA","219363","NA","219356","221455","2562","221813","NA","NA","220463","2553","2553","220854","219356","2553","220463","221813","morph21_Oliver/Morris","13","10358","16","yes","1280","45"
"400","82.3529411765","82.3529411765","658.764705882","658.764705882","black","no","xpyriment","legacy","legacy","0","202","NA","uniform","64959","1000","0.0153943256516","1","undefined","1","0","16","16","16","0","16","16","16","NA","16","16","0","16","NA","16","16","0","16","NA","16","NA","16","0","0","16","16","0","16","16","17","/","10/04/18 17:05:15","The main experiment item","yes","FIN__BA__M21__7%3A10%3A17.osexp","C:\Users\ERP Testing Room\Desktop\Joanna\morph21","no","mono","no","18","no","white","no","yes","1080","legacy","16","16","C:/Users/ERP Testing Room/Desktop/Joanna/morph21/subject-138.csv","xpyriment","Jazzy James","3.1.4","0","/","NA","NA","NA","NA","space","/","841","NA","NA","NA","NA","160805","841","2","legacy","1024","2","48000","-16","BA_m21","138","even","CW_L","SHAPELY","2553","224654","223071","216871","163368","NA","NA","NA","NA","224648","223568","NA","222571","NA","222564","224648","2562","225055","NA","NA","223654","2553","2553","224046","222564","2553","223654","225055","morph21_Oliver/Morris","14","11199","17","yes","1280","35"
"300","77.7777777778","77.7777777778","666.444444444","666.444444444","black","no","xpyriment","legacy","legacy","0","201","NA","uniform","67835","1000","0.0147416525392","0","undefined","0","0","17","17","17","0","17","17","17","NA","17","17","0","17","NA","17","17","0","17","NA","17","NA","17","0","0","17","17","0","17","17","18","/","10/04/18 17:05:15","The main experiment item","yes","FIN__BA__M21__7%3A10%3A17.osexp","C:\Users\ERP Testing Room\Desktop\Joanna\morph21","no","mono","no","18","no","white","no","yes","1080","legacy","17","17","C:/Users/ERP Testing Room/Desktop/Joanna/morph21/subject-138.csv","xpyriment","Jazzy James","3.1.4","0","z","NA","NA","NA","NA","space","z","797","NA","NA","NA","NA","160805","797","2","legacy","1024","2","48000","-16","BA_m21","138","even","CW_S","DESTROYER","2553","229464","226355","227956","163368","NA","NA","NA","NA","224648","226852","NA","225854","NA","225849","227949","2562","229764","NA","NA","226955","2553","2553","227347","225849","2553","226955","229764","morph21_Oliver/Morris","14","11996","18","yes","1280","14"
"400","78.9473684211","78.9473684211","667.473684211","667.473684211","black","no","xpyriment","legacy","legacy","0","203","NA","uniform","68060","1000","0.0146929180135","1","undefined","1","0","18","18","18","0","18","18","18","NA","18","18","0","18","NA","18","18","0","18","NA","18","NA","18","0","0","18","18","0","18","18","19","z","10/04/18 17:05:15","The main experiment item","yes","FIN__BA__M21__7%3A10%3A17.osexp","C:\Users\ERP Testing Room\Desktop\Joanna\morph21","no","mono","no","18","no","white","no","yes","1080","legacy","18","18","C:/Users/ERP Testing Room/Desktop/Joanna/morph21/subject-138.csv","xpyriment","Jazzy James","3.1.4","0","z","NA","NA","NA","NA","space","z","686","NA","NA","NA","NA","160805","686","2","legacy","1024","2","48000","-16","BA_m21","138","even","NW_S_COMP","TRUENELS","2553","232697","231081","227956","163368","NA","NA","NA","NA","232687","231578","NA","230581","NA","230571","232687","2562","233098","NA","NA","231697","2553","2553","232089","230571","2553","231697","233098","morph21_Oliver/Morris","15","12682","19","yes","1280","15"
"400","80","80","681.15","681.15","black","no","xpyriment","legacy","legacy","0","202","NA","uniform","59957","1000","0.0166786196774","1","undefined","1","0","19","19","19","0","19","19","19","NA","19","19","0","19","NA","19","19","0","19","NA","19","NA","19","0","0","19","19","0","19","19","20","/","10/04/18 17:05:15","The main experiment item","yes","FIN__BA__M21__7%3A10%3A17.osexp","C:\Users\ERP Testing Room\Desktop\Joanna\morph21","no","mono","no","18","no","white","no","yes","1080","legacy","19","19","C:/Users/ERP Testing Room/Desktop/Joanna/morph21/subject-138.csv","xpyriment","Jazzy James","3.1.4","0","/","NA","NA","NA","NA","space","/","941","NA","NA","NA","NA","160805","941","2","legacy","1024","2","48000","-16","BA_m21","138","even","CW_L","CONDUCTOR","2553","235898","234314","227956","163368","NA","NA","NA","NA","235890","234811","NA","233814","NA","233810","235890","2562","236298","NA","NA","234898","2553","2553","235289","233810","2553","234898","236298","morph21_Oliver/Morris","16","13623","20","yes","1280","44"
"350","80.9523809524","80.9523809524","682.428571429","682.428571429","black","no","xpyriment","legacy","legacy","0","206","NA","uniform","73749","1000","0.0135595058916","1","undefined","1","0","20","20","20","0","20","20","20","NA","20","20","0","20","NA","20","20","0","20","NA","20","NA","20","0","0","20","20","0","20","20","21","z","10/04/18 17:05:15","The main experiment item","yes","FIN__BA__M21__7%3A10%3A17.osexp","C:\Users\ERP Testing Room\Desktop\Joanna\morph21","no","mono","no","18","no","white","no","yes","1080","legacy","20","20","C:/Users/ERP Testing Room/Desktop/Joanna/morph21/subject-138.csv","xpyriment","Jazzy James","3.1.4","0","z","NA","NA","NA","NA","space","z","708","NA","NA","NA","NA","160805","708","2","legacy","1024","2","48000","-16","BA_m21","138","even","NW_L_SIMP","HABITIC","2553","240631","237514","239123","163368","NA","NA","NA","NA","239116","238011","NA","237014","NA","237011","239116","2562","240981","NA","NA","238123","2553","2553","238514","237011","2553","238123","240981","morph21_Oliver/Morris","17","14331","21","yes","1280","7"
"300","81.8181818182","81.8181818182","673.818181818","673.818181818","black","no","xpyriment","legacy","legacy","0","201","NA","uniform","79648","1000","0.0125552430695","1","undefined","1","0","21","21","21","0","21","21","21","NA","21","21","0","21","NA","21","21","0","21","NA","21","NA","21","0","0","21","21","0","21","21","22","/","10/04/18 17:05:15","The main experiment item","yes","FIN__BA__M21__7%3A10%3A17.osexp","C:\Users\ERP Testing Room\Desktop\Joanna\morph21","no","mono","no","18","no","white","no","yes","1080","legacy","21","21","C:/Users/ERP Testing Room/Desktop/Joanna/morph21/subject-138.csv","xpyriment","Jazzy James","3.1.4","0","/","NA","NA","NA","NA","space","/","493","NA","NA","NA","NA","160805","493","2","legacy","1024","2","48000","-16","BA_m21","138","even","CW_S","GUILTY","2553","243890","242281","239123","163368","NA","NA","NA","NA","243885","242778","NA","241781","NA","241770","243885","2562","244190","NA","NA","242890","2553","2553","243290","241770","2553","242890","244190","morph21_Oliver/Morris","18","14824","22","yes","1280","34"
"200","82.6086956522","82.6086956522","665.52173913","665.52173913","black","no","xpyriment","legacy","legacy","0","204","NA","uniform","80110","1000","0.0124828361004","1","undefined","1","0","22","22","22","0","22","22","22","NA","22","22","0","22","NA","22","22","0","22","NA","22","NA","22","0","0","22","22","0","22","22","23","z","10/04/18 17:05:15","The main experiment item","yes","FIN__BA__M21__7%3A10%3A17.osexp","C:\Users\ERP Testing Room\Desktop\Joanna\morph21","no","mono","no","18","no","white","no","yes","1080","legacy","22","22","C:/Users/ERP Testing Room/Desktop/Joanna/morph21/subject-138.csv","xpyriment","Jazzy James","3.1.4","0","z","NA","NA","NA","NA","space","z","483","NA","NA","NA","NA","160805","483","2","legacy","1024","2","48000","-16","BA_m21","138","even","NW_L_COMP","FLIPODY","2553","246949","245366","239123","163368","NA","NA","NA","NA","246943","245863","NA","244866","NA","244862","246943","2562","247149","NA","NA","245949","2553","2553","246341","244861","2553","245949","247149","morph21_Oliver/Morris","19","15307","23","yes","1280","16"
"300","83.3333333333","83.3333333333","662.291666667","662.291666667","black","no","xpyriment","legacy","legacy","0","204","NA","uniform","75460","1000","0.0132520540684","1","undefined","1","0","23","23","23","0","23","23","23","NA","23","23","0","23","NA","23","23","0","23","NA","23","NA","23","0","0","23","23","0","23","23","24","z","10/04/18 17:05:15","The main experiment item","yes","FIN__BA__M21__7%3A10%3A17.osexp","C:\Users\ERP Testing Room\Desktop\Joanna\morph21","no","mono","no","18","no","white","no","yes","1080","legacy","23","23","C:/Users/ERP Testing Room/Desktop/Joanna/morph21/subject-138.csv","xpyriment","Jazzy James","3.1.4","0","z","NA","NA","NA","NA","space","z","588","NA","NA","NA","NA","160805","588","2","legacy","1024","2","48000","-16","BA_m21","138","even","NW_L_COMP","EMPLOYNELS","2553","251591","248499","250082","163368","NA","NA","NA","NA","250080","248996","NA","247999","NA","247993","250080","2562","251891","NA","NA","249091","2553","2553","249482","247992","2553","249091","251891","morph21_Oliver/Morris","20","15895","24","yes","1280","21"
"250","84","84","663.76","663.76","black","no","xpyriment","legacy","legacy","0","208","NA","uniform","70658","1000","0.0141526791022","1","undefined","1","0","24","24","24","0","24","24","24","NA","24","24","0","24","NA","24","24","0","24","NA","24","NA","24","0","0","24","24","0","24","24","25","z","10/04/18 17:05:15","The main experiment item","yes","FIN__BA__M21__7%3A10%3A17.osexp","C:\Users\ERP Testing Room\Desktop\Joanna\morph21","no","mono","no","18","no","white","no","yes","1080","legacy","24","24","C:/Users/ERP Testing Room/Desktop/Joanna/morph21/subject-138.csv","xpyriment","Jazzy James","3.1.4","0","z","NA","NA","NA","NA","space","z","699","NA","NA","NA","NA","160805","699","2","legacy","1024","2","48000","-16","BA_m21","138","even","FILL_NW","LOLDS","2553","254708","253099","250082","163368","NA","NA","NA","NA","254700","253596","NA","252599","NA","252590","254700","2562","254958","NA","NA","253708","2553","2553","254099","252590","2553","253708","254958","morph21_Oliver/Morris","21","16594","25","yes","1280","34"
"300","84.6153846154","84.6153846154","665.384615385","665.384615385","black","no","xpyriment","legacy","legacy","0","208","NA","uniform","68876","1000","0.0145188454614","1","undefined","1","0","25","25","25","0","25","25","25","NA","25","25","0","25","NA","25","25","0","25","NA","25","NA","25","0","0","25","25","0","25","25","26","z","10/04/18 17:05:15","The main experiment item","yes","FIN__BA__M21__7%3A10%3A17.osexp","C:\Users\ERP Testing Room\Desktop\Joanna\morph21","no","mono","no","18","no","white","no","yes","1080","legacy","25","25","C:/Users/ERP Testing Room/Desktop/Joanna/morph21/subject-138.csv","xpyriment","Jazzy James","3.1.4","0","z","NA","NA","NA","NA","space","z","706","NA","NA","NA","NA","160805","706","2","legacy","1024","2","48000","-16","BA_m21","138","even","FILL_NW","BAFED","2553","257733","256141","250082","163368","NA","NA","NA","NA","257725","256638","NA","255641","NA","255633","257725","2562","258033","NA","NA","256733","2553","2553","257125","255633","2553","256733","258033","morph21_Oliver/Morris","22","17300","26","yes","1280","1"
"350","81.4814814815","81.4814814815","663.185185185","663.185185185","black","no","xpyriment","legacy","legacy","0","202","NA","uniform","68710","1000","0.0145539222821","0","undefined","0","0","26","26","26","0","26","26","26","NA","26","26","0","26","NA","26","26","0","26","NA","26","NA","26","0","0","26","26","0","26","26","27","/","10/04/18 17:05:15","The main experiment item","yes","FIN__BA__M21__7%3A10%3A17.osexp","C:\Users\ERP Testing Room\Desktop\Joanna\morph21","no","mono","no","18","no","white","no","yes","1080","legacy","26","26","C:/Users/ERP Testing Room/Desktop/Joanna/morph21/subject-138.csv","xpyriment","Jazzy James","3.1.4","0","z","NA","NA","NA","NA","space","z","606","NA","NA","NA","NA","160805","606","2","legacy","1024","2","48000","-16","BA_m21","138","even","CW_L","GUILELESS","2553","262351","259225","260841","163368","NA","NA","NA","NA","257725","259722","NA","258725","NA","258721","260832","2562","262701","NA","NA","259841","2553","2553","260233","258721","2553","259841","262701","morph21_Oliver/Morris","22","17906","27","yes","1280","31"
"400","82.1428571429","82.1428571429","660.892857143","660.892857143","black","no","xpyriment","legacy","legacy","0","208","NA","uniform","77274","1000","0.0129409633253","1","undefined","1","0","27","27","27","0","27","27","27","NA","27","27","0","27","NA","27","27","0","27","NA","27","NA","27","0","0","27","27","0","27","27","28","z","10/04/18 17:05:15","The main experiment item","yes","FIN__BA__M21__7%3A10%3A17.osexp","C:\Users\ERP Testing Room\Desktop\Joanna\morph21","no","mono","no","18","no","white","no","yes","1080","legacy","27","27","C:/Users/ERP Testing Room/Desktop/Joanna/morph21/subject-138.csv","xpyriment","Jazzy James","3.1.4","0","z","NA","NA","NA","NA","space","z","599","NA","NA","NA","NA","160805","599","2","legacy","1024","2","48000","-16","BA_m21","138","even","FILL_NW","FROES","2553","265568","263984","260841","163368","NA","NA","NA","NA","265560","264481","NA","263484","NA","263477","265560","2562","265968","NA","NA","264568","2553","2553","264959","263477","2553","264568","265968","morph21_Oliver/Morris","23","18505","28","yes","1280","21"
"250","82.7586206897","82.7586206897","659.379310345","659.379310345","black","no","xpyriment","legacy","legacy","0","208","NA","uniform","70881","1000","0.0141081531017","1","undefined","1","0","28","28","28","0","28","28","28","NA","28","28","0","28","NA","28","28","0","28","NA","28","NA","28","0","0","28","28","0","28","28","29","z","10/04/18 17:05:15","The main experiment item","yes","FIN__BA__M21__7%3A10%3A17.osexp","C:\Users\ERP Testing Room\Desktop\Joanna\morph21","no","mono","no","18","no","white","no","yes","1080","legacy","28","28","C:/Users/ERP Testing Room/Desktop/Joanna/morph21/subject-138.csv","xpyriment","Jazzy James","3.1.4","0","z","NA","NA","NA","NA","space","z","617","NA","NA","NA","NA","160805","617","2","legacy","1024","2","48000","-16","BA_m21","138","even","FILL_NW","POLT","2553","268734","267126","260841","163368","NA","NA","NA","NA","268727","267623","NA","266626","NA","266617","268727","2562","268984","NA","NA","267734","2553","2553","268126","266617","2553","267734","268984","morph21_Oliver/Morris","24","19122","29","yes","1280","38"
"200","80","80","657.3","657.3","black","no","xpyriment","legacy","legacy","0","201","NA","uniform","75798","1000","0.0131929602364","0","undefined","0","0","29","29","29","0","29","29","29","NA","29","29","0","29","NA","29","29","0","29","NA","29","NA","29","0","0","29","29","0","29","29","30","/","10/04/18 17:05:15","The main experiment item","yes","FIN__BA__M21__7%3A10%3A17.osexp","C:\Users\ERP Testing Room\Desktop\Joanna\morph21","no","mono","no","18","no","white","no","yes","1080","legacy","29","29","C:/Users/ERP Testing Room/Desktop/Joanna/morph21/subject-138.csv","xpyriment","Jazzy James","3.1.4","0","z","NA","NA","NA","NA","space","z","597","NA","NA","NA","NA","160805","597","2","legacy","1024","2","48000","-16","BA_m21","138","even","CW_S","THRUSTER","2553","273335","270226","271826","163368","NA","NA","NA","NA","268727","270723","NA","269726","NA","269719","271820","2562","273535","NA","NA","270826","2553","2553","271218","269719","2553","270826","273535","morph21_Oliver/Morris","24","19719","30","yes","1280","24"
"350","80.6451612903","80.6451612903","658.774193548","658.774193548","black","no","xpyriment","legacy","legacy","0","208","NA","uniform","65873","1000","0.0151807265496","1","undefined","1","0","30","30","30","0","30","30","30","NA","30","30","0","30","NA","30","30","0","30","NA","30","NA","30","0","0","30","30","0","30","30","31","z","10/04/18 17:05:15","The main experiment item","yes","FIN__BA__M21__7%3A10%3A17.osexp","C:\Users\ERP Testing Room\Desktop\Joanna\morph21","no","mono","no","18","no","white","no","yes","1080","legacy","30","30","C:/Users/ERP Testing Room/Desktop/Joanna/morph21/subject-138.csv","xpyriment","Jazzy James","3.1.4","0","z","NA","NA","NA","NA","space","z","703","NA","NA","NA","NA","160805","703","2","legacy","1024","2","48000","-16","BA_m21","138","even","FILL_NW","DARF","2553","276376","274760","271826","163368","NA","NA","NA","NA","276372","275257","NA","274260","NA","274250","276372","2562","276726","NA","NA","275376","2553","2553","275776","274250","2553","275376","276726","morph21_Oliver/Morris","25","20422","31","yes","1280","10"
"300","81.25","81.25","668.6875","668.6875","black","no","xpyriment","legacy","legacy","0","201","NA","uniform","58169","1000","0.0171912874555","1","undefined","1","0","31","31","31","0","31","31","31","NA","31","31","0","31","NA","31","31","0","31","NA","31","NA","31","0","0","31","31","0","31","31","32","/","10/04/18 17:05:15","The main experiment item","yes","FIN__BA__M21__7%3A10%3A17.osexp","C:\Users\ERP Testing Room\Desktop\Joanna\morph21","no","mono","no","18","no","white","no","yes","1080","legacy","31","31","C:/Users/ERP Testing Room/Desktop/Joanna/morph21/subject-138.csv","xpyriment","Jazzy James","3.1.4","0","/","NA","NA","NA","NA","space","/","976","NA","NA","NA","NA","160805","976","2","legacy","1024","2","48000","-16","BA_m21","138","even","CW_S","ATTACKER","2553","279543","277960","271826","163368","NA","NA","NA","NA","279538","278457","NA","277460","NA","277456","279538","2562","279843","NA","NA","278543","2553","2553","278943","277456","2553","278543","279843","morph21_Oliver/Morris","26","21398","32","yes","1280","20"
"250","81.8181818182","81.8181818182","669.424242424","669.424242424","black","no","xpyriment","legacy","legacy","0","201","NA","uniform","71451","1000","0.0139956053799","1","undefined","1","0","32","32","32","0","32","32","32","NA","32","32","0","32","NA","32","32","0","32","NA","32","NA","32","0","0","32","32","0","32","32","33","/","10/04/18 17:05:15","The main experiment item","yes","FIN__BA__M21__7%3A10%3A17.osexp","C:\Users\ERP Testing Room\Desktop\Joanna\morph21","no","mono","no","18","no","white","no","yes","1080","legacy","32","32","C:/Users/ERP Testing Room/Desktop/Joanna/morph21/subject-138.csv","xpyriment","Jazzy James","3.1.4","0","/","NA","NA","NA","NA","space","/","693","NA","NA","NA","NA","160805","693","2","legacy","1024","2","48000","-16","BA_m21","138","even","CW_S","MILDNESS","2553","284111","281019","282603","163368","NA","NA","NA","NA","282600","281516","NA","280519","NA","280511","282600","2562","284361","NA","NA","281611","2553","2553","282003","280511","2553","281611","284361","morph21_Oliver/Morris","27","22091","33","yes","1280","42"
"350","79.4117647059","79.4117647059","669.470588235","669.470588235","black","no","xpyriment","legacy","legacy","0","201","NA","uniform","65335","1000","0.0153057319966","0","undefined","0","0","33","33","33","0","33","33","33","NA","33","33","0","33","NA","33","33","0","33","NA","33","NA","33","0","0","33","33","0","33","33","34","/","10/04/18 17:05:15","The main experiment item","yes","FIN__BA__M21__7%3A10%3A17.osexp","C:\Users\ERP Testing Room\Desktop\Joanna\morph21","no","mono","no","18","no","white","no","yes","1080","legacy","33","33","C:/Users/ERP Testing Room/Desktop/Joanna/morph21/subject-138.csv","xpyriment","Jazzy James","3.1.4","0","z","NA","NA","NA","NA","space","z","671","NA","NA","NA","NA","160805","671","2","legacy","1024","2","48000","-16","BA_m21","138","even","CW_S","AMAZEMENT","2553","287136","285553","282603","163368","NA","NA","NA","NA","282600","286050","NA","285053","NA","285046","287130","2562","287486","NA","NA","286136","2553","2553","286528","285046","2553","286136","287486","morph21_Oliver/Morris","27","22762","34","yes","1280","39"
"250","80","80","670.571428571","670.571428571","black","no","xpyriment","legacy","legacy","0","204","NA","uniform","69837","1000","0.0143190572333","1","undefined","1","0","34","34","34","0","34","34","34","NA","34","34","0","34","NA","34","34","0","34","NA","34","NA","34","0","0","34","34","0","34","34","35","z","10/04/18 17:05:15","The main experiment item","yes","FIN__BA__M21__7%3A10%3A17.osexp","C:\Users\ERP Testing Room\Desktop\Joanna\morph21","no","mono","no","18","no","white","no","yes","1080","legacy","34","34","C:/Users/ERP Testing Room/Desktop/Joanna/morph21/subject-138.csv","xpyriment","Jazzy James","3.1.4","0","z","NA","NA","NA","NA","space","z","708","NA","NA","NA","NA","160805","708","2","legacy","1024","2","48000","-16","BA_m21","138","even","NW_L_COMP","BREAKIDY","2553","290411","288803","282603","163368","NA","NA","NA","NA","290403","289300","NA","288303","NA","288293","290403","2562","290661","NA","NA","289411","2553","2553","289803","288293","2553","289411","290661","morph21_Oliver/Morris","28","23470","35","yes","1280","23"
"400","80.5555555556","80.5555555556","676.388888889","676.388888889","black","no","xpyriment","legacy","legacy","0","201","NA","uniform","61982","1000","0.0161337162402","1","undefined","1","0","35","35","35","0","35","35","35","NA","35","35","0","35","NA","35","35","0","35","NA","35","NA","35","0","0","35","35","0","35","35","36","/","10/04/18 17:05:15","The main experiment item","yes","FIN__BA__M21__7%3A10%3A17.osexp","C:\Users\ERP Testing Room\Desktop\Joanna\morph21","no","mono","no","18","no","white","no","yes","1080","legacy","35","35","C:/Users/ERP Testing Room/Desktop/Joanna/morph21/subject-138.csv","xpyriment","Jazzy James","3.1.4","0","/","NA","NA","NA","NA","space","/","880","NA","NA","NA","NA","160805","880","2","legacy","1024","2","48000","-16","BA_m21","138","even","CW_S","DIETARY","2553","295012","291895","293503","163368","NA","NA","NA","NA","293493","292392","NA","291395","NA","291387","293493","2562","295412","NA","NA","292503","2553","2553","292895","291387","2553","292503","295412","morph21_Oliver/Morris","29","24350","36","yes","1280","6"
"400","81.0810810811","81.0810810811","674.540540541","674.540540541","black","no","xpyriment","legacy","legacy","0","206","NA","uniform","65965","1000","0.0151595543091","1","undefined","1","0","36","36","36","0","36","36","36","NA","36","36","0","36","NA","36","36","0","36","NA","36","NA","36","0","0","36","36","0","36","36","37","z","10/04/18 17:05:15","The main experiment item","yes","FIN__BA__M21__7%3A10%3A17.osexp","C:\Users\ERP Testing Room\Desktop\Joanna\morph21","no","mono","no","18","no","white","no","yes","1080","legacy","36","36","C:/Users/ERP Testing Room/Desktop/Joanna/morph21/subject-138.csv","xpyriment","Jazzy James","3.1.4","0","z","NA","NA","NA","NA","space","z","608","NA","NA","NA","NA","160805","608","2","legacy","1024","2","48000","-16","BA_m21","138","even","NW_L_SIMP","BOGARY","2553","298296","296712","293503","163368","NA","NA","NA","NA","298291","297209","NA","296212","NA","296202","298291","2562","298696","NA","NA","297296","2553","2553","297696","296202","2553","297296","298696","morph21_Oliver/Morris","30","24958","37","yes","1280","2"
"200","81.5789473684","81.5789473684","670.315789474","670.315789474","black","no","xpyriment","legacy","legacy","0","201","NA","uniform","70472","1000","0.0141900329209","1","undefined","1","0","37","37","37","0","37","37","37","NA","37","37","0","37","NA","37","37","0","37","NA","37","NA","37","0","0","37","37","0","37","37","38","/","10/04/18 17:05:15","The main experiment item","yes","FIN__BA__M21__7%3A10%3A17.osexp","C:\Users\ERP Testing Room\Desktop\Joanna\morph21","no","mono","no","18","no","white","no","yes","1080","legacy","37","37","C:/Users/ERP Testing Room/Desktop/Joanna/morph21/subject-138.csv","xpyriment","Jazzy James","3.1.4","0","/","NA","NA","NA","NA","space","/","514","NA","NA","NA","NA","160805","514","2","legacy","1024","2","48000","-16","BA_m21","138","even","CW_S","LISTENER","2553","301629","300038","293503","163368","NA","NA","NA","NA","301624","300535","NA","299538","NA","299532","301624","2562","301830","NA","NA","300629","2553","2553","301021","299532","2553","300629","301830","morph21_Oliver/Morris","31","25472","38","yes","1280","18"
"250","82.0512820513","82.0512820513","669.230769231","669.230769231","black","no","xpyriment","legacy","legacy","0","203","NA","uniform","58038","1000","0.0172300906303","1","undefined","1","0","38","38","38","0","38","38","38","NA","38","38","0","38","NA","38","38","0","38","NA","38","NA","38","0","0","38","38","0","38","38","39","z","10/04/18 17:05:15","The main experiment item","yes","FIN__BA__M21__7%3A10%3A17.osexp","C:\Users\ERP Testing Room\Desktop\Joanna\morph21","no","mono","no","18","no","white","no","yes","1080","legacy","38","38","C:/Users/ERP Testing Room/Desktop/Joanna/morph21/subject-138.csv","xpyriment","Jazzy James","3.1.4","0","z","NA","NA","NA","NA","space","z","628","NA","NA","NA","NA","160805","628","2","legacy","1024","2","48000","-16","BA_m21","138","even","NW_S_COMP","LIDADY","2553","306280","303163","304771","163368","NA","NA","NA","NA","304765","303660","NA","302663","NA","302658","304765","2562","306530","NA","NA","303771","2553","2553","304163","302658","2553","303771","306530","morph21_Oliver/Morris","32","26100","39","yes","1280","3"
"200","82.5","82.5","666.75","666.75","black","no","xpyriment","legacy","legacy","0","204","NA","uniform","63261","1000","0.0158075275446","1","undefined","1","0","39","39","39","0","39","39","39","NA","39","39","0","39","NA","39","39","0","39","NA","39","NA","39","0","0","39","39","0","39","39","40","z","10/04/18 17:05:15","The main experiment item","yes","FIN__BA__M21__7%3A10%3A17.osexp","C:\Users\ERP Testing Room\Desktop\Joanna\morph21","no","mono","no","18","no","white","no","yes","1080","legacy","39","39","C:/Users/ERP Testing Room/Desktop/Joanna/morph21/subject-138.csv","xpyriment","Jazzy James","3.1.4","0","z","NA","NA","NA","NA","space","z","570","NA","NA","NA","NA","160805","570","2","legacy","1024","2","48000","-16","BA_m21","138","even","NW_L_COMP","PITCHODY","2553","309421","307830","304771","163368","NA","NA","NA","NA","309416","308327","NA","307330","NA","307319","309416","2562","309622","NA","NA","308421","2553","2553","308813","307319","2553","308421","309622","morph21_Oliver/Morris","33","26670","40","yes","1280","25"
"300","82.9268292683","82.9268292683","666.43902439","666.43902439","black","no","xpyriment","legacy","legacy","0","202","NA","uniform","64890","1000","0.0154106950223","1","undefined","1","0","40","40","40","0","40","40","40","NA","40","40","0","40","NA","40","40","0","40","NA","40","NA","40","0","0","40","40","0","40","40","41","/","10/04/18 17:05:15","The main experiment item","yes","FIN__BA__M21__7%3A10%3A17.osexp","C:\Users\ERP Testing Room\Desktop\Joanna\morph21","no","mono","no","18","no","white","no","yes","1080","legacy","40","40","C:/Users/ERP Testing Room/Desktop/Joanna/morph21/subject-138.csv","xpyriment","Jazzy James","3.1.4","0","/","NA","NA","NA","NA","space","/","654","NA","NA","NA","NA","160805","654","2","legacy","1024","2","48000","-16","BA_m21","138","even","CW_L","DOUBTFUL","2553","312513","310930","304771","163368","NA","NA","NA","NA","312508","311427","NA","310430","NA","310421","312508","2562","312813","NA","NA","311513","2553","2553","311913","310421","2553","311513","312813","morph21_Oliver/Morris","34","27324","41","yes","1280","21"
"250","83.3333333333","83.3333333333","666.285714286","666.285714286","black","no","xpyriment","legacy","legacy","0","204","NA","uniform","70146","1000","0.0142559803838","1","undefined","1","0","41","41","41","0","41","41","41","NA","41","41","0","41","NA","41","41","0","41","NA","41","NA","41","0","0","41","41","0","41","41","42","z","10/04/18 17:05:15","The main experiment item","yes","FIN__BA__M21__7%3A10%3A17.osexp","C:\Users\ERP Testing Room\Desktop\Joanna\morph21","no","mono","no","18","no","white","no","yes","1080","legacy","41","41","C:/Users/ERP Testing Room/Desktop/Joanna/morph21/subject-138.csv","xpyriment","Jazzy James","3.1.4","0","z","NA","NA","NA","NA","space","z","660","NA","NA","NA","NA","160805","660","2","legacy","1024","2","48000","-16","BA_m21","138","even","NW_L_COMP","TRIPADY","2553","317265","314130","315756","163368","NA","NA","NA","NA","315749","314627","NA","313630","NA","313619","315749","2562","317515","NA","NA","314756","2553","2553","315148","313619","2553","314756","317515","morph21_Oliver/Morris","35","27984","42","yes","1280","2"
"400","83.7209302326","83.7209302326","668.860465116","668.860465116","black","no","xpyriment","legacy","legacy","0","205","NA","uniform","64675","1000","0.0154619250097","1","undefined","1","0","42","42","42","0","42","42","42","NA","42","42","0","42","NA","42","42","0","42","NA","42","NA","42","0","0","42","42","0","42","42","43","z","10/04/18 17:05:15","The main experiment item","yes","FIN__BA__M21__7%3A10%3A17.osexp","C:\Users\ERP Testing Room\Desktop\Joanna\morph21","no","mono","no","18","no","white","no","yes","1080","legacy","42","42","C:/Users/ERP Testing Room/Desktop/Joanna/morph21/subject-138.csv","xpyriment","Jazzy James","3.1.4","0","z","NA","NA","NA","NA","space","z","777","NA","NA","NA","NA","160805","777","2","legacy","1024","2","48000","-16","BA_m21","138","even","NW_S_SIMP","URNIST","2553","320390","318765","315756","163368","NA","NA","NA","NA","320380","319262","NA","318265","NA","318258","320380","2562","320790","NA","NA","319390","2553","2553","319781","318257","2553","319390","320790","morph21_Oliver/Morris","36","28761","43","yes","1280","5"
"250","84.0909090909","84.0909090909","670.022727273","670.022727273","black","no","xpyriment","legacy","legacy","0","207","NA","uniform","69482","1000","0.0143922166892","1","undefined","1","0","43","43","43","0","43","43","43","NA","43","43","0","43","NA","43","43","0","43","NA","43","NA","43","0","0","43","43","0","43","43","44","/","10/04/18 17:05:15","The main experiment item","yes","FIN__BA__M21__7%3A10%3A17.osexp","C:\Users\ERP Testing Room\Desktop\Joanna\morph21","no","mono","no","18","no","white","no","yes","1080","legacy","43","43","C:/Users/ERP Testing Room/Desktop/Joanna/morph21/subject-138.csv","xpyriment","Jazzy James","3.1.4","0","/","NA","NA","NA","NA","space","/","720","NA","NA","NA","NA","160805","720","2","legacy","1024","2","48000","-16","BA_m21","138","even","FILL_W","SUIT","2553","323623","322040","315756","163368","NA","NA","NA","NA","323616","322537","NA","321540","NA","321530","323616","2562","323873","NA","NA","322623","2553","2553","323015","321530","2553","322623","323873","morph21_Oliver/Morris","37","29481","44","yes","1280","49"
"250","84.4444444444","84.4444444444","668.4","668.4","black","no","xpyriment","legacy","legacy","0","207","NA","uniform","75696","1000","0.0132107376876","1","undefined","1","0","44","44","44","0","44","44","44","NA","44","44","0","44","NA","44","44","0","44","NA","44","NA","44","0","0","44","44","0","44","44","45","/","10/04/18 17:05:15","The main experiment item","yes","FIN__BA__M21__7%3A10%3A17.osexp","C:\Users\ERP Testing Room\Desktop\Joanna\morph21","no","mono","no","18","no","white","no","yes","1080","legacy","44","44","C:/Users/ERP Testing Room/Desktop/Joanna/morph21/subject-138.csv","xpyriment","Jazzy James","3.1.4","0","/","NA","NA","NA","NA","space","/","597","NA","NA","NA","NA","160805","597","2","legacy","1024","2","48000","-16","BA_m21","138","even","FILL_W","SMOKE","2553","328207","325098","326698","163368","NA","NA","NA","NA","326691","325595","NA","324598","NA","324589","326691","2562","328457","NA","NA","325698","2553","2553","326090","324589","2553","325698","328457","morph21_Oliver/Morris","38","30078","45","yes","1280","50"
"350","84.7826086957","84.7826086957","669.173913043","669.173913043","black","no","xpyriment","legacy","legacy","0","201","NA","uniform","67345","1000","0.0148489123172","1","undefined","1","0","45","45","45","0","45","45","45","NA","45","45","0","45","NA","45","45","0","45","NA","45","NA","45","0","0","45","45","0","45","45","46","/","10/04/18 17:05:15","The main experiment item","yes","FIN__BA__M21__7%3A10%3A17.osexp","C:\Users\ERP Testing Room\Desktop\Joanna\morph21","no","mono","no","18","no","white","no","yes","1080","legacy","45","45","C:/Users/ERP Testing Room/Desktop/Joanna/morph21/subject-138.csv","xpyriment","Jazzy James","3.1.4","0","/","NA","NA","NA","NA","space","/","704","NA","NA","NA","NA","160805","704","2","legacy","1024","2","48000","-16","BA_m21","138","even","CW_S","CHILLY","2553","331423","329823","326698","163368","NA","NA","NA","NA","331420","330321","NA","329323","NA","329318","331420","2562","331773","NA","NA","330423","2553","2553","330823","329318","2553","330423","331773","morph21_Oliver/Morris","39","30782","46","yes","1280","48"
"250","85.1063829787","85.1063829787","666.063829787","666.063829787","black","no","xpyriment","legacy","legacy","0","202","NA","uniform","73205","1000","0.0136602691073","1","undefined","1","0","46","46","46","0","46","46","46","NA","46","46","0","46","NA","46","46","0","46","NA","46","NA","46","0","0","46","46","0","46","46","47","/","10/04/18 17:05:15","The main experiment item","yes","FIN__BA__M21__7%3A10%3A17.osexp","C:\Users\ERP Testing Room\Desktop\Joanna\morph21","no","mono","no","18","no","white","no","yes","1080","legacy","46","46","C:/Users/ERP Testing Room/Desktop/Joanna/morph21/subject-138.csv","xpyriment","Jazzy James","3.1.4","0","/","NA","NA","NA","NA","space","/","523","NA","NA","NA","NA","160805","523","2","legacy","1024","2","48000","-16","BA_m21","138","even","CW_L","DANCER","2553","334541","332958","326698","163368","NA","NA","NA","NA","334532","333455","NA","332450","NA","332438","334532","2562","334791","NA","NA","333541","2553","2553","333933","332438","2553","333541","334791","morph21_Oliver/Morris","40","31305","47","yes","1280","11"
"400","85.4166666667","85.4166666667","669.333333333","669.333333333","black","no","xpyriment","legacy","legacy","0","204","NA","uniform","63549","1000","0.0157358888417","1","undefined","1","0","47","47","47","0","47","47","47","NA","47","47","0","47","NA","47","47","0","47","NA","47","NA","47","0","0","47","47","0","47","47","48","z","10/04/18 17:05:15","The main experiment item","yes","FIN__BA__M21__7%3A10%3A17.osexp","C:\Users\ERP Testing Room\Desktop\Joanna\morph21","no","mono","no","18","no","white","no","yes","1080","legacy","47","47","C:/Users/ERP Testing Room/Desktop/Joanna/morph21/subject-138.csv","xpyriment","Jazzy James","3.1.4","0","z","NA","NA","NA","NA","space","z","823","NA","NA","NA","NA","160805","823","2","legacy","1024","2","48000","-16","BA_m21","138","even","NW_L_COMP","COLDIDY","2553","339116","335983","337608","163368","NA","NA","NA","NA","337597","336480","NA","335483","NA","335476","337597","2562","339517","NA","NA","336600","2553","2553","337000","335476","2553","336600","339517","morph21_Oliver/Morris","41","32128","48","yes","1280","10"
"250","85.7142857143","85.7142857143","665.346938776","665.346938776","black","no","xpyriment","legacy","legacy","0","201","NA","uniform","77661","1000","0.0128764759661","1","undefined","1","0","48","48","48","0","48","48","48","NA","48","48","0","48","NA","48","48","0","48","NA","48","NA","48","0","0","48","48","0","48","48","49","/","10/04/18 17:05:15","The main experiment item","yes","FIN__BA__M21__7%3A10%3A17.osexp","C:\Users\ERP Testing Room\Desktop\Joanna\morph21","no","mono","no","18","no","white","no","yes","1080","legacy","48","48","C:/Users/ERP Testing Room/Desktop/Joanna/morph21/subject-138.csv","xpyriment","Jazzy James","3.1.4","0","/","NA","NA","NA","NA","space","/","474","NA","NA","NA","NA","160805","474","2","legacy","1024","2","48000","-16","BA_m21","138","even","CW_S","MOSSY","2553","342333","340742","337608","163368","NA","NA","NA","NA","342325","341239","NA","340242","NA","340234","342325","2562","342583","NA","NA","341333","2553","2553","341725","340234","2553","341333","342583","morph21_Oliver/Morris","42","32602","49","yes","1280","47"
"400","86","86","668.26","668.26","black","no","xpyriment","legacy","legacy","0","201","NA","uniform","66129","1000","0.0151219585961","1","undefined","1","0","49","49","49","0","49","49","49","NA","49","49","0","49","NA","49","49","0","49","NA","49","NA","49","0","0","49","49","0","49","49","50","/","10/04/18 17:05:15","The main experiment item","yes","FIN__BA__M21__7%3A10%3A17.osexp","C:\Users\ERP Testing Room\Desktop\Joanna\morph21","no","mono","no","18","no","white","no","yes","1080","legacy","49","49","C:/Users/ERP Testing Room/Desktop/Joanna/morph21/subject-138.csv","xpyriment","Jazzy James","3.1.4","0","/","NA","NA","NA","NA","space","/","811","NA","NA","NA","NA","160805","811","2","legacy","1024","2","48000","-16","BA_m21","138","even","CW_S","WIDOWED","2553","345492","343875","337608","163368","NA","NA","NA","NA","345483","344372","NA","343375","NA","343364","345483","2562","345892","NA","NA","344492","2553","2553","344883","343364","2553","344492","345892","morph21_Oliver/Morris","43","33413","50","yes","1280","7"
"400","86.2745098039","86.2745098039","673.411764706","673.411764706","black","no","xpyriment","legacy","legacy","0","205","NA","uniform","65518","1000","0.0152629811655","1","undefined","1","0","50","50","50","0","50","50","50","NA","50","50","0","50","NA","50","50","0","50","NA","50","NA","50","0","0","50","50","0","50","50","51","z","10/04/18 17:05:15","The main experiment item","yes","FIN__BA__M21__7%3A10%3A17.osexp","C:\Users\ERP Testing Room\Desktop\Joanna\morph21","no","mono","no","18","no","white","no","yes","1080","legacy","50","50","C:/Users/ERP Testing Room/Desktop/Joanna/morph21/subject-138.csv","xpyriment","Jazzy James","3.1.4","0","z","NA","NA","NA","NA","space","z","931","NA","NA","NA","NA","160805","931","2","legacy","1024","2","48000","-16","BA_m21","138","even","NW_S_SIMP","RAMPIZE","2553","350201","347117","348692","163368","NA","NA","NA","NA","348688","347614","NA","346609","NA","346599","348688","2562","350601","NA","NA","347692","2553","2553","348092","346599","2553","347692","350601","morph21_Oliver/Morris","44","34344","51","yes","1280","6"
"200","86.5384615385","86.5384615385","671.230769231","671.230769231","black","no","xpyriment","legacy","legacy","0","207","NA","uniform","77011","1000","0.0129851579644","1","undefined","1","0","51","51","51","0","51","51","51","NA","51","51","0","51","NA","51","51","0","51","NA","51","NA","51","0","0","51","51","0","51","51","52","/","10/04/18 17:05:15","The main experiment item","yes","FIN__BA__M21__7%3A10%3A17.osexp","C:\Users\ERP Testing Room\Desktop\Joanna\morph21","no","mono","no","18","no","white","no","yes","1080","legacy","51","51","C:/Users/ERP Testing Room/Desktop/Joanna/morph21/subject-138.csv","xpyriment","Jazzy James","3.1.4","0","/","NA","NA","NA","NA","space","/","560","NA","NA","NA","NA","160805","560","2","legacy","1024","2","48000","-16","BA_m21","138","even","FILL_W","BLEAK","2553","353376","351785","348692","163368","NA","NA","NA","NA","353368","352282","NA","351285","NA","351279","353368","2562","353576","NA","NA","352376","2553","2553","352768","351279","2553","352376","353576","morph21_Oliver/Morris","45","34904","52","yes","1280","5"
"250","86.7924528302","86.7924528302","669.773584906","669.773584906","black","no","xpyriment","legacy","legacy","0","208","NA","uniform","71337","1000","0.0140179710389","1","undefined","1","0","52","52","52","0","52","52","52","NA","52","52","0","52","NA","52","52","0","52","NA","52","NA","52","0","0","52","52","0","52","52","53","z","10/04/18 17:05:15","The main experiment item","yes","FIN__BA__M21__7%3A10%3A17.osexp","C:\Users\ERP Testing Room\Desktop\Joanna\morph21","no","mono","no","18","no","white","no","yes","1080","legacy","52","52","C:/Users/ERP Testing Room/Desktop/Joanna/morph21/subject-138.csv","xpyriment","Jazzy James","3.1.4","0","z","NA","NA","NA","NA","space","z","594","NA","NA","NA","NA","160805","594","2","legacy","1024","2","48000","-16","BA_m21","138","even","FILL_NW","PIFTH","2553","356485","354877","348692","163368","NA","NA","NA","NA","356476","355374","NA","354377","NA","354372","356476","2562","356735","NA","NA","355485","2553","2553","355876","354372","2553","355485","356735","morph21_Oliver/Morris","46","35498","53","yes","1280","36"
"400","87.037037037","87.037037037","669.148148148","669.148148148","black","no","xpyriment","legacy","legacy","0","202","NA","uniform","74253","1000","0.0134674693278","1","undefined","1","0","53","53","53","0","53","53","53","NA","53","53","0","53","NA","53","53","0","53","NA","53","NA","53","0","0","53","53","0","53","53","54","/","10/04/18 17:05:15","The main experiment item","yes","FIN__BA__M21__7%3A10%3A17.osexp","C:\Users\ERP Testing Room\Desktop\Joanna\morph21","no","mono","no","18","no","white","no","yes","1080","legacy","53","53","C:/Users/ERP Testing Room/Desktop/Joanna/morph21/subject-138.csv","xpyriment","Jazzy James","3.1.4","0","/","NA","NA","NA","NA","space","/","636","NA","NA","NA","NA","160805","636","2","legacy","1024","2","48000","-16","BA_m21","138","even","CW_L","STYLISH","2553","361152","358060","359643","163368","NA","NA","NA","NA","359639","358557","NA","357560","NA","357552","359639","2562","361552","NA","NA","358643","2553","2553","359043","357552","2553","358643","361552","morph21_Oliver/Morris","47","36134","54","yes","1280","29"
"300","87.2727272727","87.2727272727","666.472727273","666.472727273","black","no","xpyriment","legacy","legacy","0","207","NA","uniform","72024","1000","0.013884260802","1","undefined","1","0","54","54","54","0","54","54","54","NA","54","54","0","54","NA","54","54","0","54","NA","54","NA","54","0","0","54","54","0","54","54","55","/","10/04/18 17:05:15","The main experiment item","yes","FIN__BA__M21__7%3A10%3A17.osexp","C:\Users\ERP Testing Room\Desktop\Joanna\morph21","no","mono","no","18","no","white","no","yes","1080","legacy","54","54","C:/Users/ERP Testing Room/Desktop/Joanna/morph21/subject-138.csv","xpyriment","Jazzy James","3.1.4","0","/","NA","NA","NA","NA","space","/","522","NA","NA","NA","NA","160805","522","2","legacy","1024","2","48000","-16","BA_m21","138","even","FILL_W","MOURN","2553","364477","362827","359643","163368","NA","NA","NA","NA","364474","363324","NA","362327","NA","362317","364474","2562","364777","NA","NA","363485","2553","2553","363877","362317","2553","363485","364777","morph21_Oliver/Morris","48","36656","55","yes","1280","26"
"300","87.5","87.5","667.910714286","667.910714286","black","no","xpyriment","legacy","legacy","0","201","NA","uniform","62761","1000","0.0159334618633","1","undefined","1","0","55","55","55","0","55","55","55","NA","55","55","0","55","NA","55","55","0","55","NA","55","NA","55","0","0","55","55","0","55","55","56","/","10/04/18 17:05:15","The main experiment item","yes","FIN__BA__M21__7%3A10%3A17.osexp","C:\Users\ERP Testing Room\Desktop\Joanna\morph21","no","mono","no","18","no","white","no","yes","1080","legacy","55","55","C:/Users/ERP Testing Room/Desktop/Joanna/morph21/subject-138.csv","xpyriment","Jazzy James","3.1.4","0","/","NA","NA","NA","NA","space","/","747","NA","NA","NA","NA","160805","747","2","legacy","1024","2","48000","-16","BA_m21","138","even","CW_S","INSISTENT","2553","367678","366069","359643","163368","NA","NA","NA","NA","367674","366566","NA","365569","NA","365560","367674","2562","367978","NA","NA","366677","2553","2553","367077","365560","2553","366677","367978","morph21_Oliver/Morris","49","37403","56","yes","1280","9"
"200","87.7192982456","87.7192982456","670.666666667","670.666666667","black","no","xpyriment","legacy","legacy","0","205","NA","uniform","66997","1000","0.0149260414645","1","undefined","1","0","56","56","56","0","56","56","56","NA","56","56","0","56","NA","56","56","0","56","NA","56","NA","56","0","0","56","56","0","56","56","57","z","10/04/18 17:05:15","The main experiment item","yes","FIN__BA__M21__7%3A10%3A17.osexp","C:\Users\ERP Testing Room\Desktop\Joanna\morph21","no","mono","no","18","no","white","no","yes","1080","legacy","56","56","C:/Users/ERP Testing Room/Desktop/Joanna/morph21/subject-138.csv","xpyriment","Jazzy James","3.1.4","0","z","NA","NA","NA","NA","space","z","825","NA","NA","NA","NA","160805","825","2","legacy","1024","2","48000","-16","BA_m21","138","even","NW_S_SIMP","THRILLANCE","2553","372412","369311","370903","163368","NA","NA","NA","NA","370897","369809","NA","368812","NA","368802","370897","2562","372612","NA","NA","369903","2553","2553","370295","368802","2553","369903","372612","morph21_Oliver/Morris","50","38228","57","yes","1280","22"
"200","86.2068965517","86.2068965517","673.396551724","673.396551724","black","no","xpyriment","legacy","legacy","0","201","NA","uniform","62025","1000","0.0161225312374","0","undefined","0","0","57","57","57","0","57","57","57","NA","57","57","0","57","NA","57","57","0","57","NA","57","NA","57","0","0","57","57","0","57","57","58","/","10/04/18 17:05:15","The main experiment item","yes","FIN__BA__M21__7%3A10%3A17.osexp","C:\Users\ERP Testing Room\Desktop\Joanna\morph21","no","mono","no","18","no","white","no","yes","1080","legacy","57","57","C:/Users/ERP Testing Room/Desktop/Joanna/morph21/subject-138.csv","xpyriment","Jazzy James","3.1.4","0","z","NA","NA","NA","NA","space","z","829","NA","NA","NA","NA","160805","829","2","legacy","1024","2","48000","-16","BA_m21","138","even","CW_S","CAMPAIGNER","2553","375362","373770","370903","163368","NA","NA","NA","NA","370897","374267","NA","373270","NA","373263","375354","2562","375562","NA","NA","374362","2553","2553","374753","373263","2553","374362","375562","morph21_Oliver/Morris","50","39057","58","yes","1280","15"
"350","86.4406779661","86.4406779661","671.423728814","671.423728814","black","no","xpyriment","legacy","legacy","0","207","NA","uniform","71899","1000","0.0139083992823","1","undefined","1","0","58","58","58","0","58","58","58","NA","58","58","0","58","NA","58","58","0","58","NA","58","NA","58","0","0","58","58","0","58","58","59","/","10/04/18 17:05:15","The main experiment item","yes","FIN__BA__M21__7%3A10%3A17.osexp","C:\Users\ERP Testing Room\Desktop\Joanna\morph21","no","mono","no","18","no","white","no","yes","1080","legacy","58","58","C:/Users/ERP Testing Room/Desktop/Joanna/morph21/subject-138.csv","xpyriment","Jazzy James","3.1.4","0","/","NA","NA","NA","NA","space","/","557","NA","NA","NA","NA","160805","557","2","legacy","1024","2","48000","-16","BA_m21","138","even","FILL_W","FOLLOW","2553","378345","376712","370903","163368","NA","NA","NA","NA","378342","377209","NA","376212","NA","376205","378342","2562","378695","NA","NA","377354","2553","2553","377745","376204","2553","377353","378695","morph21_Oliver/Morris","51","39614","59","yes","1280","17"
"300","85","85","676.733333333","676.733333333","black","no","xpyriment","legacy","legacy","0","206","NA","uniform","54011","1000","0.018514746996","0","undefined","0","0","59","59","59","0","59","59","59","NA","59","59","0","59","NA","59","59","0","59","NA","59","NA","59","0","0","59","59","0","59","59","60","z","10/04/18 17:05:15","The main experiment item","yes","FIN__BA__M21__7%3A10%3A17.osexp","C:\Users\ERP Testing Room\Desktop\Joanna\morph21","no","mono","no","18","no","white","no","yes","1080","legacy","59","59","C:/Users/ERP Testing Room/Desktop/Joanna/morph21/subject-138.csv","xpyriment","Jazzy James","3.1.4","0","None","NA","NA","NA","NA","space","None","990","NA","NA","NA","NA","160805","990","2","legacy","1024","2","48000","-16","BA_m21","138","even","NW_L_SIMP","EARIST","2553","383045","379929","381537","163368","NA","NA","NA","NA","378342","380426","NA","379429","NA","379422","381527","2562","383346","NA","NA","380537","2553","2553","380929","379422","2553","380537","383346","morph21_Oliver/Morris","51","40604","60","yes","1280","12"
"350","85.2459016393","85.2459016393","677.37704918","677.37704918","black","no","xpyriment","legacy","legacy","0","206","NA","uniform","73192","1000","0.0136626953765","1","undefined","1","0","60","60","60","0","60","60","60","NA","60","60","0","60","NA","60","60","0","60","NA","60","NA","60","0","0","60","60","0","60","60","61","z","10/04/18 17:05:15","The main experiment item","yes","FIN__BA__M21__7%3A10%3A17.osexp","C:\Users\ERP Testing Room\Desktop\Joanna\morph21","no","mono","no","18","no","white","no","yes","1080","legacy","60","60","C:/Users/ERP Testing Room/Desktop/Joanna/morph21/subject-138.csv","xpyriment","Jazzy James","3.1.4","0","z","NA","NA","NA","NA","space","z","716","NA","NA","NA","NA","160805","716","2","legacy","1024","2","48000","-16","BA_m21","138","even","NW_L_SIMP","NUTLY","2553","386180","384579","381537","163368","NA","NA","NA","NA","386172","385076","NA","384079","NA","384071","386172","2562","386530","NA","NA","385180","2553","2553","385571","384071","2553","385180","386530","morph21_Oliver/Morris","52","41320","61","yes","1280","14"
"250","85.4838709677","85.4838709677","681.435483871","681.435483871","black","no","xpyriment","legacy","legacy","0","206","NA","uniform","53883","1000","0.0185587290982","1","undefined","1","0","61","61","61","0","61","61","61","NA","61","61","0","61","NA","61","61","0","61","NA","61","NA","61","0","0","61","61","0","61","61","62","z","10/04/18 17:05:15","The main experiment item","yes","FIN__BA__M21__7%3A10%3A17.osexp","C:\Users\ERP Testing Room\Desktop\Joanna\morph21","no","mono","no","18","no","white","no","yes","1080","legacy","61","61","C:/Users/ERP Testing Room/Desktop/Joanna/morph21/subject-138.csv","xpyriment","Jazzy James","3.1.4","0","z","NA","NA","NA","NA","space","z","929","NA","NA","NA","NA","160805","929","2","legacy","1024","2","48000","-16","BA_m21","138","even","NW_L_SIMP","BEARIST","2553","389430","387830","381537","163368","NA","NA","NA","NA","389420","388327","NA","387330","NA","387325","389420","2562","389680","NA","NA","388430","2553","2553","388822","387325","2553","388430","389680","morph21_Oliver/Morris","53","42249","62","yes","1280","25"
"200","85.7142857143","85.7142857143","684.936507937","684.936507937","black","no","xpyriment","legacy","legacy","0","203","NA","uniform","58721","1000","0.017029682737","1","undefined","1","0","62","62","62","0","62","62","62","NA","62","62","0","62","NA","62","62","0","62","NA","62","NA","62","0","0","62","62","0","62","62","63","z","10/04/18 17:05:15","The main experiment item","yes","FIN__BA__M21__7%3A10%3A17.osexp","C:\Users\ERP Testing Room\Desktop\Joanna\morph21","no","mono","no","18","no","white","no","yes","1080","legacy","62","62","C:/Users/ERP Testing Room/Desktop/Joanna/morph21/subject-138.csv","xpyriment","Jazzy James","3.1.4","0","z","NA","NA","NA","NA","space","z","902","NA","NA","NA","NA","160805","902","2","legacy","1024","2","48000","-16","BA_m21","138","even","NW_S_COMP","HAPPENANGE","2553","394014","390897","392505","163368","NA","NA","NA","NA","392496","391394","NA","390397","NA","390388","392496","2562","394214","NA","NA","391505","2553","2553","391897","390388","2553","391505","394214","morph21_Oliver/Morris","54","43151","63","yes","1280","2"
"300","85.9375","85.9375","686.984375","686.984375","black","no","xpyriment","legacy","legacy","0","208","NA","uniform","62661","1000","0.0159588898996","1","undefined","1","0","63","63","63","0","63","63","63","NA","63","63","0","63","NA","63","63","0","63","NA","63","NA","63","0","0","63","63","0","63","63","64","z","10/04/18 17:05:15","The main experiment item","yes","FIN__BA__M21__7%3A10%3A17.osexp","C:\Users\ERP Testing Room\Desktop\Joanna\morph21","no","mono","no","18","no","white","no","yes","1080","legacy","63","63","C:/Users/ERP Testing Room/Desktop/Joanna/morph21/subject-138.csv","xpyriment","Jazzy James","3.1.4","0","z","NA","NA","NA","NA","space","z","816","NA","NA","NA","NA","160805","816","2","legacy","1024","2","48000","-16","BA_m21","138","even","FILL_NW","DASK","2553","397055","395472","392505","163368","NA","NA","NA","NA","397049","395969","NA","394972","NA","394965","397049","2562","397355","NA","NA","396055","2553","2553","396447","394964","2553","396055","397355","morph21_Oliver/Morris","55","43967","64","yes","1280","12"
"350","86.1538461538","86.1538461538","685.492307692","685.492307692","black","no","xpyriment","legacy","legacy","0","202","NA","uniform","68377","1000","0.0146248007371","1","undefined","1","0","64","64","64","0","64","64","64","NA","64","64","0","64","NA","64","64","0","64","NA","64","NA","64","0","0","64","64","0","64","64","65","/","10/04/18 17:05:15","The main experiment item","yes","FIN__BA__M21__7%3A10%3A17.osexp","C:\Users\ERP Testing Room\Desktop\Joanna\morph21","no","mono","no","18","no","white","no","yes","1080","legacy","64","64","C:/Users/ERP Testing Room/Desktop/Joanna/morph21/subject-138.csv","xpyriment","Jazzy James","3.1.4","0","/","NA","NA","NA","NA","space","/","590","NA","NA","NA","NA","160805","590","2","legacy","1024","2","48000","-16","BA_m21","138","even","CW_L","EDITOR","2553","400289","398689","392505","163368","NA","NA","NA","NA","400279","399186","NA","398189","NA","398183","400279","2562","400639","NA","NA","399289","2553","2553","399681","398183","2553","399289","400639","morph21_Oliver/Morris","56","44557","65","yes","1280","45"
"350","86.3636363636","86.3636363636","683.03030303","683.03030303","black","no","xpyriment","legacy","legacy","0","202","NA","uniform","77553","1000","0.0128944076954","1","undefined","1","0","65","65","65","0","65","65","65","NA","65","65","0","65","NA","65","65","0","65","NA","65","NA","65","0","0","65","65","0","65","65","66","/","10/04/18 17:05:15","The main experiment item","yes","FIN__BA__M21__7%3A10%3A17.osexp","C:\Users\ERP Testing Room\Desktop\Joanna\morph21","no","mono","no","18","no","white","no","yes","1080","legacy","65","65","C:/Users/ERP Testing Room/Desktop/Joanna/morph21/subject-138.csv","xpyriment","Jazzy James","3.1.4","0","/","NA","NA","NA","NA","space","/","523","NA","NA","NA","NA","160805","523","2","legacy","1024","2","48000","-16","BA_m21","138","even","CW_L","JUMPING","2553","405073","401964","403565","163368","NA","NA","NA","NA","403561","402461","NA","401464","NA","401460","403561","2562","405424","NA","NA","402573","2553","2553","402965","401460","2553","402573","405424","morph21_Oliver/Morris","57","45080","66","yes","1280","30"
"350","86.5671641791","86.5671641791","686.940298507","686.940298507","black","no","xpyriment","legacy","legacy","0","208","NA","uniform","63178","1000","0.0158282946595","1","undefined","1","0","66","66","66","0","66","66","66","NA","66","66","0","66","NA","66","66","0","66","NA","66","NA","66","0","0","66","66","0","66","66","67","z","10/04/18 17:05:15","The main experiment item","yes","FIN__BA__M21__7%3A10%3A17.osexp","C:\Users\ERP Testing Room\Desktop\Joanna\morph21","no","mono","no","18","no","white","no","yes","1080","legacy","66","66","C:/Users/ERP Testing Room/Desktop/Joanna/morph21/subject-138.csv","xpyriment","Jazzy James","3.1.4","0","z","NA","NA","NA","NA","space","z","945","NA","NA","NA","NA","160805","945","2","legacy","1024","2","48000","-16","BA_m21","138","even","FILL_NW","JADS","2553","408190","406607","403565","163368","NA","NA","NA","NA","408183","407104","NA","406107","NA","406103","408183","2562","408540","NA","NA","407190","2553","2553","407582","406103","2553","407190","408540","morph21_Oliver/Morris","58","46025","67","yes","1280","31"
"400","86.7647058824","86.7647058824","685.029411765","685.029411765","black","no","xpyriment","legacy","legacy","0","207","NA","uniform","74995","1000","0.0133342222815","1","undefined","1","0","67","67","67","0","67","67","67","NA","67","67","0","67","NA","67","67","0","67","NA","67","NA","67","0","0","67","67","0","67","67","68","/","10/04/18 17:05:15","The main experiment item","yes","FIN__BA__M21__7%3A10%3A17.osexp","C:\Users\ERP Testing Room\Desktop\Joanna\morph21","no","mono","no","18","no","white","no","yes","1080","legacy","67","67","C:/Users/ERP Testing Room/Desktop/Joanna/morph21/subject-138.csv","xpyriment","Jazzy James","3.1.4","0","/","NA","NA","NA","NA","space","/","557","NA","NA","NA","NA","160805","557","2","legacy","1024","2","48000","-16","BA_m21","138","even","FILL_W","CRUNCH","2553","411490","409865","403565","163368","NA","NA","NA","NA","411480","410362","NA","409365","NA","409354","411480","2562","411890","NA","NA","410490","2553","2553","410882","409354","2553","410490","411890","morph21_Oliver/Morris","59","46582","68","yes","1280","20"
"250","86.9565217391","86.9565217391","685.579710145","685.579710145","black","no","xpyriment","legacy","legacy","0","208","NA","uniform","63537","1000","0.0157388608213","1","undefined","1","0","68","68","68","0","68","68","68","NA","68","68","0","68","NA","68","68","0","68","NA","68","NA","68","0","0","68","68","0","68","68","69","z","10/04/18 17:05:15","The main experiment item","yes","FIN__BA__M21__7%3A10%3A17.osexp","C:\Users\ERP Testing Room\Desktop\Joanna\morph21","no","mono","no","18","no","white","no","yes","1080","legacy","68","68","C:/Users/ERP Testing Room/Desktop/Joanna/morph21/subject-138.csv","xpyriment","Jazzy James","3.1.4","0","z","NA","NA","NA","NA","space","z","723","NA","NA","NA","NA","160805","723","2","legacy","1024","2","48000","-16","BA_m21","138","even","FILL_NW","PHEEKS","2553","416232","413107","414724","163368","NA","NA","NA","NA","414720","413604","NA","412607","NA","412602","414720","2562","416482","NA","NA","413732","2553","2553","414124","412602","2553","413732","416482","morph21_Oliver/Morris","60","47305","69","yes","1280","35"
"350","87.1428571429","87.1428571429","682.742857143","682.742857143","black","no","xpyriment","legacy","legacy","0","207","NA","uniform","78259","1000","0.012778083032","1","undefined","1","0","69","69","69","0","69","69","69","NA","69","69","0","69","NA","69","69","0","69","NA","69","NA","69","0","0","69","69","0","69","69","70","/","10/04/18 17:05:15","The main experiment item","yes","FIN__BA__M21__7%3A10%3A17.osexp","C:\Users\ERP Testing Room\Desktop\Joanna\morph21","no","mono","no","18","no","white","no","yes","1080","legacy","69","69","C:/Users/ERP Testing Room/Desktop/Joanna/morph21/subject-138.csv","xpyriment","Jazzy James","3.1.4","0","/","NA","NA","NA","NA","space","/","487","NA","NA","NA","NA","160805","487","2","legacy","1024","2","48000","-16","BA_m21","138","even","FILL_W","GLOOM","2553","419224","417649","414724","163368","NA","NA","NA","NA","419221","418146","NA","417149","NA","417143","419221","2562","419574","NA","NA","418224","2553","2553","418624","417143","2553","418224","419574","morph21_Oliver/Morris","61","47792","70","yes","1280","14"
"300","87.323943662","87.323943662","682.169014085","682.169014085","black","no","xpyriment","legacy","legacy","0","203","NA","uniform","68005","1000","0.0147048011176","1","undefined","1","0","70","70","70","0","70","70","70","NA","70","70","0","70","NA","70","70","0","70","NA","70","NA","70","0","0","70","70","0","70","70","71","z","10/04/18 17:05:15","The main experiment item","yes","FIN__BA__M21__7%3A10%3A17.osexp","C:\Users\ERP Testing Room\Desktop\Joanna\morph21","no","mono","no","18","no","white","no","yes","1080","legacy","70","70","C:/Users/ERP Testing Room/Desktop/Joanna/morph21/subject-138.csv","xpyriment","Jazzy James","3.1.4","0","z","NA","NA","NA","NA","space","z","642","NA","NA","NA","NA","160805","642","2","legacy","1024","2","48000","-16","BA_m21","138","even","NW_S_COMP","FIGEL","2553","422358","420767","414724","163368","NA","NA","NA","NA","422352","421264","NA","420267","NA","420259","422352","2562","422659","NA","NA","421358","2553","2553","421750","420259","2553","421358","422659","morph21_Oliver/Morris","62","48434","71","yes","1280","4"
"250","87.5","87.5","682.583333333","682.583333333","black","no","xpyriment","legacy","legacy","0","207","NA","uniform","66387","1000","0.0150631900824","1","undefined","1","0","71","71","71","0","71","71","71","NA","71","71","0","71","NA","71","71","0","71","NA","71","NA","71","0","0","71","71","0","71","71","72","/","10/04/18 17:05:15","The main experiment item","yes","FIN__BA__M21__7%3A10%3A17.osexp","C:\Users\ERP Testing Room\Desktop\Joanna\morph21","no","mono","no","18","no","white","no","yes","1080","legacy","71","71","C:/Users/ERP Testing Room/Desktop/Joanna/morph21/subject-138.csv","xpyriment","Jazzy James","3.1.4","0","/","NA","NA","NA","NA","space","/","712","NA","NA","NA","NA","160805","712","2","legacy","1024","2","48000","-16","BA_m21","138","even","FILL_W","SOUGHT","2553","427092","424000","425584","163368","NA","NA","NA","NA","425574","424497","NA","423500","NA","423491","425574","2562","427342","NA","NA","424584","2553","2553","424975","423491","2553","424584","427342","morph21_Oliver/Morris","63","49146","72","yes","1280","40"
"250","87.6712328767","87.6712328767","682.02739726","682.02739726","black","no","xpyriment","legacy","legacy","0","201","NA","uniform","75137","1000","0.0133090221861","1","undefined","1","0","72","72","72","0","72","72","72","NA","72","72","0","72","NA","72","72","0","72","NA","72","NA","72","0","0","72","72","0","72","72","73","/","10/04/18 17:05:15","The main experiment item","yes","FIN__BA__M21__7%3A10%3A17.osexp","C:\Users\ERP Testing Room\Desktop\Joanna\morph21","no","mono","no","18","no","white","no","yes","1080","legacy","72","72","C:/Users/ERP Testing Room/Desktop/Joanna/morph21/subject-138.csv","xpyriment","Jazzy James","3.1.4","0","/","NA","NA","NA","NA","space","/","642","NA","NA","NA","NA","160805","642","2","legacy","1024","2","48000","-16","BA_m21","138","even","CW_S","COSTLY","2553","430125","428517","425584","163368","NA","NA","NA","NA","430115","429014","NA","428017","NA","428009","430115","2562","430375","NA","NA","429125","2553","2553","429517","428009","2553","429125","430375","morph21_Oliver/Morris","64","49788","73","yes","1280","36"
"300","87.8378378378","87.8378378378","682.891891892","682.891891892","black","no","xpyriment","legacy","legacy","0","206","NA","uniform","69765","1000","0.0143338350176","1","undefined","1","0","73","73","73","0","73","73","73","NA","73","73","0","73","NA","73","73","0","73","NA","73","NA","73","0","0","73","73","0","73","73","74","z","10/04/18 17:05:15","The main experiment item","yes","FIN__BA__M21__7%3A10%3A17.osexp","C:\Users\ERP Testing Room\Desktop\Joanna\morph21","no","mono","no","18","no","white","no","yes","1080","legacy","73","73","C:/Users/ERP Testing Room/Desktop/Joanna/morph21/subject-138.csv","xpyriment","Jazzy James","3.1.4","0","z","NA","NA","NA","NA","space","z","746","NA","NA","NA","NA","160805","746","2","legacy","1024","2","48000","-16","BA_m21","138","even","NW_L_SIMP","ELBOWISM","2553","433117","431517","425584","163368","NA","NA","NA","NA","433112","432014","NA","431017","NA","431010","433112","2562","433417","NA","NA","432117","2553","2553","432517","431010","2553","432117","433417","morph21_Oliver/Morris","65","50534","74","yes","1280","10"
"300","88","88","683.8","683.8","black","no","xpyriment","legacy","legacy","0","206","NA","uniform","71835","1000","0.0139207907009","undefined","undefined","1","0","74","74","74","0","74","74","74","NA","74","74","0","74","NA","74","74","0","74","NA","74","NA","74","0","0","74","74","0","74","74","75","z","10/04/18 17:05:15","The main experiment item","yes","FIN__BA__M21__7%3A10%3A17.osexp","C:\Users\ERP Testing Room\Desktop\Joanna\morph21","no","mono","no","18","no","white","no","yes","1080","legacy","74","74","C:/Users/ERP Testing Room/Desktop/Joanna/morph21/subject-138.csv","xpyriment","Jazzy James","3.1.4","0","space","space","NA","NA","NA","space","z","13861","13861","NA","NA","NA","160805","751","2","legacy","1024","2","48000","-16","BA_m21","138","even","NW_L_SIMP","PRAYANCE","2553","437685","434592","436176","163368","437994","NA","NA","NA","436168","435089","NA","434092","NA","434081","436168","2562","451856","NA","NA","435176","2553","2553","435567","434081","2553","435176","437985","morph21_Oliver/Morris","66","51285","75","yes","1280","1"
"300","86.8421052632","86.8421052632","683.184210526","683.184210526","black","no","xpyriment","legacy","legacy","0","204","NA","uniform","67059","1000","0.014912241459","0","undefined","0","0","75","75","75","0","75","75","75","NA","75","75","0","75","NA","75","75","0","75","NA","75","NA","75","0","0","75","75","0","75","75","76","z","10/04/18 17:05:15","The main experiment item","yes","FIN__BA__M21__7%3A10%3A17.osexp","C:\Users\ERP Testing Room\Desktop\Joanna\morph21","no","mono","no","18","no","white","no","yes","1080","legacy","75","75","C:/Users/ERP Testing Room/Desktop/Joanna/morph21/subject-138.csv","xpyriment","Jazzy James","3.1.4","0","/","space","NA","NA","NA","space","/","637","13861","NA","NA","NA","160805","637","2","legacy","1024","2","48000","-16","BA_m21","138","even","NW_L_COMP","BINDIG","2553","454570","452994","436176","163368","437994","NA","NA","NA","436168","453491","NA","452494","NA","452483","454566","2562","454870","NA","NA","453578","2553","2553","453969","452483","2553","453577","454870","morph21_Oliver/Morris","66","51922","76","yes","1280","22"
"250","87.012987013","87.012987013","683.519480519","683.519480519","black","no","xpyriment","legacy","legacy","0","206","NA","uniform","65088","1000","0.0153638151426","1","undefined","1","0","76","76","76","0","76","76","76","NA","76","76","0","76","NA","76","76","0","76","NA","76","NA","76","0","0","76","76","0","76","76","77","z","10/04/18 17:05:15","The main experiment item","yes","FIN__BA__M21__7%3A10%3A17.osexp","C:\Users\ERP Testing Room\Desktop\Joanna\morph21","no","mono","no","18","no","white","no","yes","1080","legacy","76","76","C:/Users/ERP Testing Room/Desktop/Joanna/morph21/subject-138.csv","xpyriment","Jazzy James","3.1.4","0","z","space","NA","NA","NA","space","z","709","13861","NA","NA","NA","160805","709","2","legacy","1024","2","48000","-16","BA_m21","138","even","NW_L_SIMP","SMOOTHFUL","2553","457787","456179","436176","163368","437994","NA","NA","NA","457779","456676","NA","455679","NA","455674","457779","2562","458037","NA","NA","456787","2553","2553","457179","455673","2553","456787","458037","morph21_Oliver/Morris","67","52631","77","yes","1280","19"
"300","87.1794871795","87.1794871795","683.230769231","683.230769231","black","no","xpyriment","legacy","legacy","0","208","NA","uniform","71425","1000","0.014000700035","1","undefined","1","0","77","77","77","0","77","77","77","NA","77","77","0","77","NA","77","77","0","77","NA","77","NA","77","0","0","77","77","0","77","77","78","z","10/04/18 17:05:15","The main experiment item","yes","FIN__BA__M21__7%3A10%3A17.osexp","C:\Users\ERP Testing Room\Desktop\Joanna\morph21","no","mono","no","18","no","white","no","yes","1080","legacy","77","77","C:/Users/ERP Testing Room/Desktop/Joanna/morph21/subject-138.csv","xpyriment","Jazzy James","3.1.4","0","z","space","NA","NA","NA","space","z","661","13861","NA","NA","NA","160805","661","2","legacy","1024","2","48000","-16","BA_m21","138","even","FILL_NW","VOOFS","2553","462471","459329","460962","163368","437994","NA","NA","NA","460959","459826","NA","458829","NA","458820","460959","2562","462771","NA","NA","459962","2553","2553","460362","458820","2553","459962","462771","morph21_Oliver/Morris","68","53292","78","yes","1280","48"
"200","87.3417721519","87.3417721519","681.974683544","681.974683544","black","no","xpyriment","legacy","legacy","0","207","NA","uniform","72264","1000","0.0138381490092","1","undefined","1","0","78","78","78","0","78","78","78","NA","78","78","0","78","NA","78","78","0","78","NA","78","NA","78","0","0","78","78","0","78","78","79","/","10/04/18 17:05:15","The main experiment item","yes","FIN__BA__M21__7%3A10%3A17.osexp","C:\Users\ERP Testing Room\Desktop\Joanna\morph21","no","mono","no","18","no","white","no","yes","1080","legacy","78","78","C:/Users/ERP Testing Room/Desktop/Joanna/morph21/subject-138.csv","xpyriment","Jazzy James","3.1.4","0","/","space","NA","NA","NA","space","/","584","13861","NA","NA","NA","160805","584","2","legacy","1024","2","48000","-16","BA_m21","138","even","FILL_W","BRASS","2553","465671","464087","460962","163368","437994","NA","NA","NA","465662","464584","NA","463587","NA","463583","465662","2562","465871","NA","NA","464671","2553","2553","465062","463583","2553","464671","465871","morph21_Oliver/Morris","69","53876","79","yes","1280","10"
"300","87.5","87.5","679.525","679.525","black","no","xpyriment","legacy","legacy","0","207","NA","uniform","70681","1000","0.0141480737398","1","undefined","1","0","79","79","79","0","79","79","79","NA","79","79","0","79","NA","79","79","0","79","NA","79","NA","79","0","0","79","79","0","79","79","80","/","10/04/18 17:05:15","The main experiment item","yes","FIN__BA__M21__7%3A10%3A17.osexp","C:\Users\ERP Testing Room\Desktop\Joanna\morph21","no","mono","no","18","no","white","no","yes","1080","legacy","79","79","C:/Users/ERP Testing Room/Desktop/Joanna/morph21/subject-138.csv","xpyriment","Jazzy James","3.1.4","0","/","space","NA","NA","NA","space","/","486","13861","NA","NA","NA","160805","486","2","legacy","1024","2","48000","-16","BA_m21","138","even","FILL_W","BOX","2553","468737","467146","460962","163368","437994","NA","NA","NA","468728","467643","NA","466646","NA","466635","468728","2562","469038","NA","NA","467737","2553","2553","468129","466635","2553","467737","469038","morph21_Oliver/Morris","70","54362","80","yes","1280","42"
"400","87.6543209877","87.6543209877","679.481481481","679.481481481","black","no","xpyriment","legacy","legacy","0","205","NA","uniform","69810","1000","0.0143245953302","1","undefined","1","0","80","80","80","0","80","80","80","NA","80","80","0","80","NA","80","80","0","80","NA","80","NA","80","0","0","80","80","0","80","80","81","z","10/04/18 17:05:15","The main experiment item","yes","FIN__BA__M21__7%3A10%3A17.osexp","C:\Users\ERP Testing Room\Desktop\Joanna\morph21","no","mono","no","18","no","white","no","yes","1080","legacy","80","80","C:/Users/ERP Testing Room/Desktop/Joanna/morph21/subject-138.csv","xpyriment","Jazzy James","3.1.4","0","z","space","NA","NA","NA","space","z","676","13861","NA","NA","NA","160805","676","2","legacy","1024","2","48000","-16","BA_m21","138","even","NW_S_SIMP","SCHEMENESS","2553","473489","470379","471979","163368","437994","NA","NA","NA","471973","470876","NA","469879","NA","469875","471973","2562","473889","NA","NA","470979","2553","2553","471371","469875","2553","470979","473889","morph21_Oliver/Morris","71","55038","81","yes","1280","15"
"300","87.8048780488","87.8048780488","679.670731707","679.670731707","black","no","xpyriment","legacy","legacy","0","208","NA","uniform","63549","1000","0.0157358888417","1","undefined","1","0","81","81","81","0","81","81","81","NA","81","81","0","81","NA","81","81","0","81","NA","81","NA","81","0","0","81","81","0","81","81","82","z","10/04/18 17:05:15","The main experiment item","yes","FIN__BA__M21__7%3A10%3A17.osexp","C:\Users\ERP Testing Room\Desktop\Joanna\morph21","no","mono","no","18","no","white","no","yes","1080","legacy","81","81","C:/Users/ERP Testing Room/Desktop/Joanna/morph21/subject-138.csv","xpyriment","Jazzy James","3.1.4","0","z","space","NA","NA","NA","space","z","695","13861","NA","NA","NA","160805","695","2","legacy","1024","2","48000","-16","BA_m21","138","even","FILL_NW","DULKS","2553","476705","475105","471979","163368","437994","NA","NA","NA","476696","475603","NA","474605","NA","474595","476696","2562","477006","NA","NA","475705","2553","2553","476097","474595","2553","475705","477006","morph21_Oliver/Morris","72","55733","82","yes","1280","18"
"300","87.9518072289","87.9518072289","680.036144578","680.036144578","black","no","xpyriment","legacy","legacy","0","206","NA","uniform","64214","1000","0.0155729280219","1","undefined","1","0","82","82","82","0","82","82","82","NA","82","82","0","82","NA","82","82","0","82","NA","82","NA","82","0","0","82","82","0","82","82","83","z","10/04/18 17:05:15","The main experiment item","yes","FIN__BA__M21__7%3A10%3A17.osexp","C:\Users\ERP Testing Room\Desktop\Joanna\morph21","no","mono","no","18","no","white","no","yes","1080","legacy","82","82","C:/Users/ERP Testing Room/Desktop/Joanna/morph21/subject-138.csv","xpyriment","Jazzy James","3.1.4","0","z","space","NA","NA","NA","space","z","710","13861","NA","NA","NA","160805","710","2","legacy","1024","2","48000","-16","BA_m21","138","even","NW_L_SIMP","BEGENCE","2553","479897","478289","471979","163368","437994","NA","NA","NA","479888","478786","NA","477789","NA","477778","479888","2562","480197","NA","NA","478897","2553","2553","479289","477778","2553","478897","480197","morph21_Oliver/Morris","73","56443","83","yes","1280","4"
"400","88.0952380952","88.0952380952","680.071428571","680.071428571","black","no","xpyriment","legacy","legacy","0","202","NA","uniform","63864","1000","0.0156582738319","1","undefined","1","0","83","83","83","0","83","83","83","NA","83","83","0","83","NA","83","83","0","83","NA","83","NA","83","0","0","83","83","0","83","83","84","/","10/04/18 17:05:15","The main experiment item","yes","FIN__BA__M21__7%3A10%3A17.osexp","C:\Users\ERP Testing Room\Desktop\Joanna\morph21","no","mono","no","18","no","white","no","yes","1080","legacy","83","83","C:/Users/ERP Testing Room/Desktop/Joanna/morph21/subject-138.csv","xpyriment","Jazzy James","3.1.4","0","/","space","NA","NA","NA","space","/","683","13861","NA","NA","NA","160805","683","2","legacy","1024","2","48000","-16","BA_m21","138","even","CW_L","CLOUDLESS","2553","484673","481531","483164","163368","437994","NA","NA","NA","483155","482028","NA","481031","NA","481020","483155","2562","485073","NA","NA","482164","2553","2553","482556","481020","2553","482164","485073","morph21_Oliver/Morris","74","57126","84","yes","1280","33"
"200","87.0588235294","87.0588235294","683.752941176","683.752941176","black","no","xpyriment","legacy","legacy","0","205","NA","uniform","52340","1000","0.019105846389","0","undefined","0","0","84","84","84","0","84","84","84","NA","84","84","0","84","NA","84","84","0","84","NA","84","NA","84","0","0","84","84","0","84","84","85","z","10/04/18 17:05:15","The main experiment item","yes","FIN__BA__M21__7%3A10%3A17.osexp","C:\Users\ERP Testing Room\Desktop\Joanna\morph21","no","mono","no","18","no","white","no","yes","1080","legacy","84","84","C:/Users/ERP Testing Room/Desktop/Joanna/morph21/subject-138.csv","xpyriment","Jazzy James","3.1.4","0","None","space","NA","NA","NA","space","None","993","13861","NA","NA","NA","160805","993","2","legacy","1024","2","48000","-16","BA_m21","138","even","NW_S_SIMP","OPPOSEMENT","2553","487906","486323","483164","163368","437994","NA","NA","NA","483155","486820","NA","485823","NA","485820","487900","2562","488106","NA","NA","486906","2553","2553","487298","485820","2553","486906","488106","morph21_Oliver/Morris","74","58119","85","yes","1280","8"
"300","87.2093023256","87.2093023256","683.279069767","683.279069767","black","no","xpyriment","legacy","legacy","0","208","NA","uniform","67850","1000","0.0147383935151","1","undefined","1","0","85","85","85","0","85","85","85","NA","85","85","0","85","NA","85","85","0","85","NA","85","NA","85","0","0","85","85","0","85","85","86","z","10/04/18 17:05:15","The main experiment item","yes","FIN__BA__M21__7%3A10%3A17.osexp","C:\Users\ERP Testing Room\Desktop\Joanna\morph21","no","mono","no","18","no","white","no","yes","1080","legacy","85","85","C:/Users/ERP Testing Room/Desktop/Joanna/morph21/subject-138.csv","xpyriment","Jazzy James","3.1.4","0","z","space","NA","NA","NA","space","z","643","13861","NA","NA","NA","160805","643","2","legacy","1024","2","48000","-16","BA_m21","138","even","FILL_NW","HEEM","2553","490965","489356","483164","163368","437994","NA","NA","NA","490956","489853","NA","488856","NA","488845","490956","2562","491265","NA","NA","489965","2553","2553","490357","488845","2553","489965","491265","morph21_Oliver/Morris","75","58762","86","yes","1280","27"
"250","87.3563218391","87.3563218391","683.540229885","683.540229885","black","no","xpyriment","legacy","legacy","0","207","NA","uniform","63118","1000","0.0158433410438","1","undefined","1","0","86","86","86","0","86","86","86","NA","86","86","0","86","NA","86","86","0","86","NA","86","NA","86","0","0","86","86","0","86","86","87","/","10/04/18 17:05:15","The main experiment item","yes","FIN__BA__M21__7%3A10%3A17.osexp","C:\Users\ERP Testing Room\Desktop\Joanna\morph21","no","mono","no","18","no","white","no","yes","1080","legacy","86","86","C:/Users/ERP Testing Room/Desktop/Joanna/morph21/subject-138.csv","xpyriment","Jazzy James","3.1.4","0","/","space","NA","NA","NA","space","/","706","13861","NA","NA","NA","160805","706","2","legacy","1024","2","48000","-16","BA_m21","138","even","FILL_W","FIERCE","2553","495674","492574","494166","163368","437994","NA","NA","NA","494157","493071","NA","492066","NA","492053","494157","2562","495924","NA","NA","493166","2553","2553","493557","492053","2553","493166","495924","morph21_Oliver/Morris","76","59468","87","yes","1280","24"
"350","87.5","87.5","682.352272727","682.352272727","black","no","xpyriment","legacy","legacy","0","208","NA","uniform","71811","1000","0.0139254431772","1","undefined","1","0","87","87","87","0","87","87","87","NA","87","87","0","87","NA","87","87","0","87","NA","87","NA","87","0","0","87","87","0","87","87","88","z","10/04/18 17:05:15","The main experiment item","yes","FIN__BA__M21__7%3A10%3A17.osexp","C:\Users\ERP Testing Room\Desktop\Joanna\morph21","no","mono","no","18","no","white","no","yes","1080","legacy","87","87","C:/Users/ERP Testing Room/Desktop/Joanna/morph21/subject-138.csv","xpyriment","Jazzy James","3.1.4","0","z","space","NA","NA","NA","space","z","579","13861","NA","NA","NA","160805","579","2","legacy","1024","2","48000","-16","BA_m21","138","even","FILL_NW","DOADS","2553","498724","497141","494166","163368","437994","NA","NA","NA","498720","497638","NA","496641","NA","496631","498720","2562","499074","NA","NA","497724","2553","2553","498124","496630","2553","497724","499074","morph21_Oliver/Morris","77","60047","88","yes","1280","15"
"200","87.6404494382","87.6404494382","680.04494382","680.04494382","black","no","xpyriment","legacy","legacy","0","207","NA","uniform","81070","1000","0.0123350191193","1","undefined","1","0","88","88","88","0","88","88","88","NA","88","88","0","88","NA","88","88","0","88","NA","88","NA","88","0","0","88","88","0","88","88","89","/","10/04/18 17:05:15","The main experiment item","yes","FIN__BA__M21__7%3A10%3A17.osexp","C:\Users\ERP Testing Room\Desktop\Joanna\morph21","no","mono","no","18","no","white","no","yes","1080","legacy","88","88","C:/Users/ERP Testing Room/Desktop/Joanna/morph21/subject-138.csv","xpyriment","Jazzy James","3.1.4","0","/","space","NA","NA","NA","space","/","477","13861","NA","NA","NA","160805","477","2","legacy","1024","2","48000","-16","BA_m21","138","even","FILL_W","TAX","2553","501858","500266","494166","163368","437994","NA","NA","NA","501853","500763","NA","499766","NA","499758","501853","2562","502058","NA","NA","500858","2553","2553","501258","499758","2553","500858","502058","morph21_Oliver/Morris","78","60524","89","yes","1280","45"
"350","87.7777777778","87.7777777778","680.766666667","680.766666667","black","no","xpyriment","legacy","legacy","0","203","NA","uniform","71297","1000","0.0140258355892","1","undefined","1","0","89","89","89","0","89","89","89","NA","89","89","0","89","NA","89","89","0","89","NA","89","NA","89","0","0","89","89","0","89","89","90","z","10/04/18 17:05:15","The main experiment item","yes","FIN__BA__M21__7%3A10%3A17.osexp","C:\Users\ERP Testing Room\Desktop\Joanna\morph21","no","mono","no","18","no","white","no","yes","1080","legacy","89","89","C:/Users/ERP Testing Room/Desktop/Joanna/morph21/subject-138.csv","xpyriment","Jazzy James","3.1.4","0","z","space","NA","NA","NA","space","z","745","13861","NA","NA","NA","160805","745","2","legacy","1024","2","48000","-16","BA_m21","138","even","NW_S_COMP","FIENDILM","2553","506474","503341","504966","163368","437994","NA","NA","NA","504962","503838","NA","502841","NA","502835","504962","2562","506825","NA","NA","503974","2553","2553","504366","502835","2553","503974","506825","morph21_Oliver/Morris","79","61269","90","yes","1280","24"
"400","87.9120879121","87.9120879121","682.21978022","682.21978022","black","no","xpyriment","legacy","legacy","0","204","NA","uniform","62339","1000","0.0160413224466","1","undefined","1","0","90","90","90","0","90","90","90","NA","90","90","0","90","NA","90","90","0","90","NA","90","NA","90","0","0","90","90","0","90","90","91","z","10/04/18 17:05:15","The main experiment item","yes","FIN__BA__M21__7%3A10%3A17.osexp","C:\Users\ERP Testing Room\Desktop\Joanna\morph21","no","mono","no","18","no","white","no","yes","1080","legacy","90","90","C:/Users/ERP Testing Room/Desktop/Joanna/morph21/subject-138.csv","xpyriment","Jazzy James","3.1.4","0","z","space","NA","NA","NA","space","z","813","13861","NA","NA","NA","160805","813","2","legacy","1024","2","48000","-16","BA_m21","138","even","NW_L_COMP","PASSMANT","2553","509659","508051","504966","163368","437994","NA","NA","NA","509650","508548","NA","507551","NA","507545","509650","2562","510059","NA","NA","508659","2553","2553","509051","507544","2553","508659","510059","morph21_Oliver/Morris","80","62082","91","yes","1280","14"
