"ITI","acc","accuracy","average_response_time","avg_rt","background","bidi","canvas_backend","clock_backend","color_backend","compensation","cond_trig","condtrigtime","coordinates","coroutines_cycles","coroutines_duration","coroutines_mean_cycle_duration","correct","correct_instructions_1","correct_new_keyboard_response_1","count_BA_m21","count_ITI","count_blank_screen","count_blink_screen","count_block1","count_break1","count_break2","count_break3_1","count_canvas","count_correct_trigger","count_def_chain","count_end_screen","count_fixation_1","count_getting_started","count_inc_counter","count_incorrect_trigger","count_instructions_1","count_logger","count_logscript","count_new_coroutines","count_new_inline_script","count_new_keyboard_response_1","count_reset_counter_prep","count_reset_counter_run","count_responsescreen","count_sequence","count_start_trigger","count_target_present","count_word_trigger","counter","cresp","datetime","description","disable_garbage_collection","experiment_file","experiment_path","font_bold","font_family","font_italic","font_size","font_underline","foreground","form_clicks","fullscreen","height","keyboard_backend","live_row","live_row_block1","logfile","mouse_backend","opensesame_codename","opensesame_version","repeat_cycle","response","response_break1","response_break2","response_break3_1","response_end_screen","response_instructions_1","response_new_keyboard_response_1","response_time","response_time_break1","response_time_break2","response_time_break3_1","response_time_end_screen","response_time_instructions_1","response_time_new_keyboard_response_1","round_decimals","sampler_backend","sound_buf_size","sound_channels","sound_freq","sound_sample_size","start","subject_nr","subject_parity","targ_type","target","time_BA_m21","time_ITI","time_blank_screen","time_blink_screen","time_block1","time_break1","time_break2","time_break3_1","time_canvas","time_correct_trigger","time_def_chain","time_end_screen","time_fixation_1","time_getting_started","time_inc_counter","time_incorrect_trigger","time_instructions_1","time_logger","time_logscript","time_new_inline_script","time_new_keyboard_response_1","time_reset_counter_prep","time_reset_counter_run","time_responsescreen","time_sequence","time_start_trigger","time_target_present","time_word_trigger","title","total_correct","total_response_time","total_responses","uniform_coordinates","width","word_trig"
"350","0","0","995","995","black","no","xpyriment","legacy","legacy","0","208","NA","uniform","58131","1000","0.0172025253307","0","undefined","0","0","0","0","0","0","0","0","0","NA","0","0","0","0","NA","0","0","0","0","NA","0","NA","0","0","0","0","0","0","0","0","1","z","04/10/18 17:31:23","The main experiment item","yes","FIN__BA__M21__7%3A10%3A17.osexp","C:\Users\ERP Testing Room\Desktop\Joanna\morph21","no","mono","no","18","no","white","no","yes","1080","legacy","0","0","C:/Users/ERP Testing Room/Desktop/Joanna/morph21/subject-127.csv","xpyriment","Jazzy James","3.1.4","0","None","NA","NA","NA","NA","space","None","995","NA","NA","NA","NA","290667","995","2","legacy","1024","2","48000","-16","BA_m21","127","odd","FILL_NW","KRAISE","1358","294863","293278","NA","292035","NA","NA","NA","NA","NA","293776","NA","292773","NA","292702","294858","1367","295213","NA","NA","293863","1358","1358","294263","292702","1358","293863","295213","morph21_Oliver/Morris","0","995","1","yes","1280","33"
"350","50","50","861","861","black","no","xpyriment","legacy","legacy","0","208","NA","uniform","64653","1000","0.0154671863641","1","undefined","1","0","1","1","1","0","1","1","1","NA","1","1","0","1","NA","1","1","0","1","NA","1","NA","1","0","0","1","1","0","1","1","2","z","04/10/18 17:31:23","The main experiment item","yes","FIN__BA__M21__7%3A10%3A17.osexp","C:\Users\ERP Testing Room\Desktop\Joanna\morph21","no","mono","no","18","no","white","no","yes","1080","legacy","1","1","C:/Users/ERP Testing Room/Desktop/Joanna/morph21/subject-127.csv","xpyriment","Jazzy James","3.1.4","0","z","NA","NA","NA","NA","space","z","727","NA","NA","NA","NA","290667","727","2","legacy","1024","2","48000","-16","BA_m21","127","odd","FILL_NW","JADS","1358","297996","296405","NA","292035","NA","NA","NA","NA","297992","296902","NA","295904","NA","295902","297992","1367","298346","NA","NA","296996","1358","1358","297396","295902","1358","296996","298346","morph21_Oliver/Morris","1","1722","2","yes","1280","31"
"400","33.3333333333","33.3333333333","738.333333333","738.333333333","black","no","xpyriment","legacy","legacy","0","204","NA","uniform","82689","1000","0.0120935069961","0","undefined","0","0","2","2","2","0","2","2","2","NA","2","2","0","2","NA","2","2","0","2","NA","2","NA","2","0","0","2","2","0","2","2","3","z","04/10/18 17:31:23","The main experiment item","yes","FIN__BA__M21__7%3A10%3A17.osexp","C:\Users\ERP Testing Room\Desktop\Joanna\morph21","no","mono","no","18","no","white","no","yes","1080","legacy","2","2","C:/Users/ERP Testing Room/Desktop/Joanna/morph21/subject-127.csv","xpyriment","Jazzy James","3.1.4","0","/","NA","NA","NA","NA","space","/","493","NA","NA","NA","NA","290667","493","2","legacy","1024","2","48000","-16","BA_m21","127","odd","NW_L_COMP","COLDIDY","1358","302747","299638","301238","292035","NA","NA","NA","NA","297992","300135","NA","299138","NA","299133","301231","1367","303147","NA","NA","300238","1358","1358","300630","299133","1358","300238","303147","morph21_Oliver/Morris","1","2215","3","yes","1280","10"
"250","50","50","745.75","745.75","black","no","xpyriment","legacy","legacy","0","208","NA","uniform","63388","1000","0.015775856629","1","undefined","1","0","3","3","3","0","3","3","3","NA","3","3","0","3","NA","3","3","0","3","NA","3","NA","3","0","0","3","3","0","3","3","4","z","04/10/18 17:31:23","The main experiment item","yes","FIN__BA__M21__7%3A10%3A17.osexp","C:\Users\ERP Testing Room\Desktop\Joanna\morph21","no","mono","no","18","no","white","no","yes","1080","legacy","3","3","C:/Users/ERP Testing Room/Desktop/Joanna/morph21/subject-127.csv","xpyriment","Jazzy James","3.1.4","0","z","NA","NA","NA","NA","space","z","768","NA","NA","NA","NA","290667","768","2","legacy","1024","2","48000","-16","BA_m21","127","odd","FILL_NW","BUWL","1358","305955","304372","301238","292035","NA","NA","NA","NA","305947","304869","NA","303872","NA","303861","305947","1367","306205","NA","NA","304955","1358","1358","305347","303861","1358","304955","306205","morph21_Oliver/Morris","2","2983","4","yes","1280","9"
"350","60","60","695.6","695.6","black","no","xpyriment","legacy","legacy","0","207","NA","uniform","69763","1000","0.014334245947","1","undefined","1","0","4","4","4","0","4","4","4","NA","4","4","0","4","NA","4","4","0","4","NA","4","NA","4","0","0","4","4","0","4","4","5","/","04/10/18 17:31:23","The main experiment item","yes","FIN__BA__M21__7%3A10%3A17.osexp","C:\Users\ERP Testing Room\Desktop\Joanna\morph21","no","mono","no","18","no","white","no","yes","1080","legacy","4","4","C:/Users/ERP Testing Room/Desktop/Joanna/morph21/subject-127.csv","xpyriment","Jazzy James","3.1.4","0","/","NA","NA","NA","NA","space","/","495","NA","NA","NA","NA","290667","495","2","legacy","1024","2","48000","-16","BA_m21","127","odd","FILL_W","FAINT","1358","308980","307397","301238","292035","NA","NA","NA","NA","308975","307894","NA","306897","NA","306887","308975","1367","309330","NA","NA","307980","1358","1358","308380","306887","1358","307980","309330","morph21_Oliver/Morris","3","3478","5","yes","1280","31"
"250","66.6666666667","66.6666666667","677.166666667","677.166666667","black","no","xpyriment","legacy","legacy","0","208","NA","uniform","67379","1000","0.0148414194334","1","undefined","1","0","5","5","5","0","5","5","5","NA","5","5","0","5","NA","5","5","0","5","NA","5","NA","5","0","0","5","5","0","5","5","6","z","04/10/18 17:31:23","The main experiment item","yes","FIN__BA__M21__7%3A10%3A17.osexp","C:\Users\ERP Testing Room\Desktop\Joanna\morph21","no","mono","no","18","no","white","no","yes","1080","legacy","5","5","C:/Users/ERP Testing Room/Desktop/Joanna/morph21/subject-127.csv","xpyriment","Jazzy James","3.1.4","0","z","NA","NA","NA","NA","space","z","585","NA","NA","NA","NA","290667","585","2","legacy","1024","2","48000","-16","BA_m21","127","odd","FILL_NW","PIFTH","1358","313623","310530","312115","292035","NA","NA","NA","NA","312106","311027","NA","310030","NA","310027","312106","1367","313873","NA","NA","311114","1358","1358","311506","310027","1358","311114","313873","morph21_Oliver/Morris","4","4063","6","yes","1280","36"
"300","71.4285714286","71.4285714286","646.857142857","646.857142857","black","no","xpyriment","legacy","legacy","0","207","NA","uniform","67320","1000","0.0148544266191","1","undefined","1","0","6","6","6","0","6","6","6","NA","6","6","0","6","NA","6","6","0","6","NA","6","NA","6","0","0","6","6","0","6","6","7","/","04/10/18 17:31:23","The main experiment item","yes","FIN__BA__M21__7%3A10%3A17.osexp","C:\Users\ERP Testing Room\Desktop\Joanna\morph21","no","mono","no","18","no","white","no","yes","1080","legacy","6","6","C:/Users/ERP Testing Room/Desktop/Joanna/morph21/subject-127.csv","xpyriment","Jazzy James","3.1.4","0","/","NA","NA","NA","NA","space","/","465","NA","NA","NA","NA","290667","465","2","legacy","1024","2","48000","-16","BA_m21","127","odd","FILL_W","SICK","1358","316681","315081","312115","292035","NA","NA","NA","NA","316678","315578","NA","314581","NA","314571","316678","1367","316981","NA","NA","315690","1358","1358","316081","314571","1358","315690","316981","morph21_Oliver/Morris","5","4528","7","yes","1280","36"
"400","62.5","62.5","633.875","633.875","black","no","xpyriment","legacy","legacy","0","208","NA","uniform","66932","1000","0.0149405366641","0","undefined","0","0","7","7","7","0","7","7","7","NA","7","7","0","7","NA","7","7","0","7","NA","7","NA","7","0","0","7","7","0","7","7","8","z","04/10/18 17:31:23","The main experiment item","yes","FIN__BA__M21__7%3A10%3A17.osexp","C:\Users\ERP Testing Room\Desktop\Joanna\morph21","no","mono","no","18","no","white","no","yes","1080","legacy","7","7","C:/Users/ERP Testing Room/Desktop/Joanna/morph21/subject-127.csv","xpyriment","Jazzy James","3.1.4","0","/","NA","NA","NA","NA","space","/","543","NA","NA","NA","NA","290667","543","2","legacy","1024","2","48000","-16","BA_m21","127","odd","FILL_NW","VELT","1358","319932","318340","312115","292035","NA","NA","NA","NA","316678","318837","NA","317832","NA","317821","319923","1367","320332","NA","NA","318932","1358","1358","319323","317821","1358","318931","320332","morph21_Oliver/Morris","5","5071","8","yes","1280","46"
"350","55.5555555556","55.5555555556","648.111111111","648.111111111","black","no","xpyriment","legacy","legacy","0","206","NA","uniform","72765","1000","0.0137428708857","0","undefined","0","0","8","8","8","0","8","8","8","NA","8","8","0","8","NA","8","8","0","8","NA","8","NA","8","0","0","8","8","0","8","8","9","z","04/10/18 17:31:23","The main experiment item","yes","FIN__BA__M21__7%3A10%3A17.osexp","C:\Users\ERP Testing Room\Desktop\Joanna\morph21","no","mono","no","18","no","white","no","yes","1080","legacy","8","8","C:/Users/ERP Testing Room/Desktop/Joanna/morph21/subject-127.csv","xpyriment","Jazzy James","3.1.4","0","/","NA","NA","NA","NA","space","/","762","NA","NA","NA","NA","290667","762","2","legacy","1024","2","48000","-16","BA_m21","127","odd","NW_L_SIMP","NUTLY","1358","324765","321640","323257","292035","NA","NA","NA","NA","316678","322137","NA","321140","NA","321132","323251","1367","325115","NA","NA","322257","1358","1358","322648","321132","1358","322257","325115","morph21_Oliver/Morris","5","5833","9","yes","1280","14"
"200","60","60","634.7","634.7","black","no","xpyriment","legacy","legacy","0","207","NA","uniform","78017","1000","0.012817719215","1","undefined","1","0","9","9","9","0","9","9","9","NA","9","9","0","9","NA","9","9","0","9","NA","9","NA","9","0","0","9","9","0","9","9","10","/","04/10/18 17:31:23","The main experiment item","yes","FIN__BA__M21__7%3A10%3A17.osexp","C:\Users\ERP Testing Room\Desktop\Joanna\morph21","no","mono","no","18","no","white","no","yes","1080","legacy","9","9","C:/Users/ERP Testing Room/Desktop/Joanna/morph21/subject-127.csv","xpyriment","Jazzy James","3.1.4","0","/","NA","NA","NA","NA","space","/","514","NA","NA","NA","NA","290667","514","2","legacy","1024","2","48000","-16","BA_m21","127","odd","FILL_W","LEGAL","1358","328032","326407","323257","292035","NA","NA","NA","NA","328024","326904","NA","325907","NA","325896","328024","1367","328232","NA","NA","327032","1358","1358","327424","325896","1358","327032","328232","morph21_Oliver/Morris","6","6347","10","yes","1280","35"
"300","63.6363636364","63.6363636364","625.818181818","625.818181818","black","no","xpyriment","legacy","legacy","0","205","NA","uniform","80648","1000","0.0123995635354","1","undefined","1","0","10","10","10","0","10","10","10","NA","10","10","0","10","NA","10","10","0","10","NA","10","NA","10","0","0","10","10","0","10","10","11","z","04/10/18 17:31:23","The main experiment item","yes","FIN__BA__M21__7%3A10%3A17.osexp","C:\Users\ERP Testing Room\Desktop\Joanna\morph21","no","mono","no","18","no","white","no","yes","1080","legacy","10","10","C:/Users/ERP Testing Room/Desktop/Joanna/morph21/subject-127.csv","xpyriment","Jazzy James","3.1.4","0","z","NA","NA","NA","NA","space","z","537","NA","NA","NA","NA","290667","537","2","legacy","1024","2","48000","-16","BA_m21","127","odd","NW_S_SIMP","YIELDIST","1358","331058","329475","323257","292035","NA","NA","NA","NA","331055","329972","NA","328975","NA","328969","331055","1367","331358","NA","NA","330058","1358","1358","330458","328969","1358","330058","331358","morph21_Oliver/Morris","7","6884","11","yes","1280","20"
"350","66.6666666667","66.6666666667","646.833333333","646.833333333","black","no","xpyriment","legacy","legacy","0","203","NA","uniform","65204","1000","0.0153364824244","1","undefined","1","0","11","11","11","0","11","11","11","NA","11","11","0","11","NA","11","11","0","11","NA","11","NA","11","0","0","11","11","0","11","11","12","z","04/10/18 17:31:23","The main experiment item","yes","FIN__BA__M21__7%3A10%3A17.osexp","C:\Users\ERP Testing Room\Desktop\Joanna\morph21","no","mono","no","18","no","white","no","yes","1080","legacy","11","11","C:/Users/ERP Testing Room/Desktop/Joanna/morph21/subject-127.csv","xpyriment","Jazzy James","3.1.4","0","z","NA","NA","NA","NA","space","z","878","NA","NA","NA","NA","290667","878","2","legacy","1024","2","48000","-16","BA_m21","127","odd","NW_S_COMP","HEIGHTENGE","1358","335633","332508","334125","292035","NA","NA","NA","NA","334120","333005","NA","332008","NA","331996","334120","1367","335983","NA","NA","333125","1358","1358","333525","331996","1358","333125","335983","morph21_Oliver/Morris","8","7762","12","yes","1280","18"
"400","69.2307692308","69.2307692308","634.846153846","634.846153846","black","no","xpyriment","legacy","legacy","0","201","NA","uniform","70436","1000","0.014197285479","1","undefined","1","0","12","12","12","0","12","12","12","NA","12","12","0","12","NA","12","12","0","12","NA","12","NA","12","0","0","12","12","0","12","12","13","/","04/10/18 17:31:23","The main experiment item","yes","FIN__BA__M21__7%3A10%3A17.osexp","C:\Users\ERP Testing Room\Desktop\Joanna\morph21","no","mono","no","18","no","white","no","yes","1080","legacy","12","12","C:/Users/ERP Testing Room/Desktop/Joanna/morph21/subject-127.csv","xpyriment","Jazzy James","3.1.4","0","/","NA","NA","NA","NA","space","/","491","NA","NA","NA","NA","290667","491","2","legacy","1024","2","48000","-16","BA_m21","127","odd","CW_S","DESIGN","1358","338792","337167","334125","292035","NA","NA","NA","NA","338785","337664","NA","336667","NA","336663","338785","1367","339192","NA","NA","337792","1358","1358","338183","336663","1358","337792","339192","morph21_Oliver/Morris","9","8253","13","yes","1280","19"
"250","71.4285714286","71.4285714286","649.214285714","649.214285714","black","no","xpyriment","legacy","legacy","0","203","NA","uniform","66824","1000","0.0149646833473","1","undefined","1","0","13","13","13","0","13","13","13","NA","13","13","0","13","NA","13","13","0","13","NA","13","NA","13","0","0","13","13","0","13","13","14","z","04/10/18 17:31:23","The main experiment item","yes","FIN__BA__M21__7%3A10%3A17.osexp","C:\Users\ERP Testing Room\Desktop\Joanna\morph21","no","mono","no","18","no","white","no","yes","1080","legacy","13","13","C:/Users/ERP Testing Room/Desktop/Joanna/morph21/subject-127.csv","xpyriment","Jazzy James","3.1.4","0","z","NA","NA","NA","NA","space","z","836","NA","NA","NA","NA","290667","836","2","legacy","1024","2","48000","-16","BA_m21","127","odd","NW_S_COMP","BRANCHEL","1358","342142","340517","334125","292035","NA","NA","NA","NA","342132","341014","NA","340017","NA","340008","342132","1367","342392","NA","NA","341142","1358","1358","341533","340008","1358","341142","342392","morph21_Oliver/Morris","10","9089","14","yes","1280","16"
"400","73.3333333333","73.3333333333","639.466666667","639.466666667","black","no","xpyriment","legacy","legacy","0","207","NA","uniform","80343","1000","0.0124466350522","1","undefined","1","0","14","14","14","0","14","14","14","NA","14","14","0","14","NA","14","14","0","14","NA","14","NA","14","0","0","14","14","0","14","14","15","/","04/10/18 17:31:23","The main experiment item","yes","FIN__BA__M21__7%3A10%3A17.osexp","C:\Users\ERP Testing Room\Desktop\Joanna\morph21","no","mono","no","18","no","white","no","yes","1080","legacy","14","14","C:/Users/ERP Testing Room/Desktop/Joanna/morph21/subject-127.csv","xpyriment","Jazzy James","3.1.4","0","/","NA","NA","NA","NA","space","/","503","NA","NA","NA","NA","290667","503","2","legacy","1024","2","48000","-16","BA_m21","127","odd","FILL_W","EAT","1358","346785","343667","345275","292035","NA","NA","NA","NA","345267","344164","NA","343167","NA","343161","345267","1367","347185","NA","NA","344275","1358","1358","344667","343161","1358","344275","347185","morph21_Oliver/Morris","11","9592","15","yes","1280","25"
"300","75","75","637.8125","637.8125","black","no","xpyriment","legacy","legacy","0","205","NA","uniform","73194","1000","0.0136623220483","1","undefined","1","0","15","15","15","0","15","15","15","NA","15","15","0","15","NA","15","15","0","15","NA","15","NA","15","0","0","15","15","0","15","15","16","z","04/10/18 17:31:23","The main experiment item","yes","FIN__BA__M21__7%3A10%3A17.osexp","C:\Users\ERP Testing Room\Desktop\Joanna\morph21","no","mono","no","18","no","white","no","yes","1080","legacy","15","15","C:/Users/ERP Testing Room/Desktop/Joanna/morph21/subject-127.csv","xpyriment","Jazzy James","3.1.4","0","z","NA","NA","NA","NA","space","z","613","NA","NA","NA","NA","290667","613","2","legacy","1024","2","48000","-16","BA_m21","127","odd","NW_S_SIMP","WARNORY","1358","350118","348493","345275","292035","NA","NA","NA","NA","350114","348990","NA","347993","NA","347988","350114","1367","350418","NA","NA","349118","1358","1358","349518","347988","1358","349118","350418","morph21_Oliver/Morris","12","10205","16","yes","1280","12"
"350","76.4705882353","76.4705882353","638.176470588","638.176470588","black","no","xpyriment","legacy","legacy","0","203","NA","uniform","76326","1000","0.0131016953594","1","undefined","1","0","16","16","16","0","16","16","16","NA","16","16","0","16","NA","16","16","0","16","NA","16","NA","16","0","0","16","16","0","16","16","17","z","04/10/18 17:31:23","The main experiment item","yes","FIN__BA__M21__7%3A10%3A17.osexp","C:\Users\ERP Testing Room\Desktop\Joanna\morph21","no","mono","no","18","no","white","no","yes","1080","legacy","16","16","C:/Users/ERP Testing Room/Desktop/Joanna/morph21/subject-127.csv","xpyriment","Jazzy James","3.1.4","0","z","NA","NA","NA","NA","space","z","644","NA","NA","NA","NA","290667","644","2","legacy","1024","2","48000","-16","BA_m21","127","odd","NW_S_COMP","EJECTENGE","1358","353143","351560","345275","292035","NA","NA","NA","NA","353137","352057","NA","351060","NA","351053","353137","1367","353493","NA","NA","352143","1358","1358","352535","351052","1358","352143","353493","morph21_Oliver/Morris","13","10849","17","yes","1280","20"
"400","72.2222222222","72.2222222222","643.555555556","643.555555556","black","no","xpyriment","legacy","legacy","0","206","NA","uniform","61717","1000","0.0162029910722","0","undefined","0","0","17","17","17","0","17","17","17","NA","17","17","0","17","NA","17","17","0","17","NA","17","NA","17","0","0","17","17","0","17","17","18","z","04/10/18 17:31:23","The main experiment item","yes","FIN__BA__M21__7%3A10%3A17.osexp","C:\Users\ERP Testing Room\Desktop\Joanna\morph21","no","mono","no","18","no","white","no","yes","1080","legacy","17","17","C:/Users/ERP Testing Room/Desktop/Joanna/morph21/subject-127.csv","xpyriment","Jazzy James","3.1.4","0","/","NA","NA","NA","NA","space","/","735","NA","NA","NA","NA","290667","735","2","legacy","1024","2","48000","-16","BA_m21","127","odd","NW_L_SIMP","VALIDER","1358","357769","354668","356260","292035","NA","NA","NA","NA","353137","355166","NA","354168","NA","354165","356253","1367","358169","NA","NA","355260","1358","1358","355652","354165","1358","355260","358169","morph21_Oliver/Morris","13","11584","18","yes","1280","23"
"350","73.6842105263","73.6842105263","647.947368421","647.947368421","black","no","xpyriment","legacy","legacy","0","205","NA","uniform","73316","1000","0.0136395875389","1","undefined","1","0","18","18","18","0","18","18","18","NA","18","18","0","18","NA","18","18","0","18","NA","18","NA","18","0","0","18","18","0","18","18","19","z","04/10/18 17:31:23","The main experiment item","yes","FIN__BA__M21__7%3A10%3A17.osexp","C:\Users\ERP Testing Room\Desktop\Joanna\morph21","no","mono","no","18","no","white","no","yes","1080","legacy","18","18","C:/Users/ERP Testing Room/Desktop/Joanna/morph21/subject-127.csv","xpyriment","Jazzy James","3.1.4","0","z","NA","NA","NA","NA","space","z","727","NA","NA","NA","NA","290667","727","2","legacy","1024","2","48000","-16","BA_m21","127","odd","NW_S_SIMP","ACREMENT","1358","361027","359435","356260","292035","NA","NA","NA","NA","361021","359932","NA","358935","NA","358926","361021","1367","361377","NA","NA","360027","1358","1358","360419","358926","1358","360027","361377","morph21_Oliver/Morris","14","12311","19","yes","1280","16"
"400","75","75","644.05","644.05","black","no","xpyriment","legacy","legacy","0","201","NA","uniform","74003","1000","0.0135129656906","1","undefined","1","0","19","19","19","0","19","19","19","NA","19","19","0","19","NA","19","19","0","19","NA","19","NA","19","0","0","19","19","0","19","19","20","/","04/10/18 17:31:23","The main experiment item","yes","FIN__BA__M21__7%3A10%3A17.osexp","C:\Users\ERP Testing Room\Desktop\Joanna\morph21","no","mono","no","18","no","white","no","yes","1080","legacy","19","19","C:/Users/ERP Testing Room/Desktop/Joanna/morph21/subject-127.csv","xpyriment","Jazzy James","3.1.4","0","/","NA","NA","NA","NA","space","/","570","NA","NA","NA","NA","290667","570","2","legacy","1024","2","48000","-16","BA_m21","127","odd","CW_S","DIETARY","1358","364362","362769","356260","292035","NA","NA","NA","NA","364352","363266","NA","362269","NA","362257","364352","1367","364762","NA","NA","363361","1358","1358","363753","362257","1358","363360","364762","morph21_Oliver/Morris","15","12881","20","yes","1280","6"
"350","76.1904761905","76.1904761905","643.238095238","643.238095238","black","no","xpyriment","legacy","legacy","0","205","NA","uniform","72995","1000","0.0136995684636","1","undefined","1","0","20","20","20","0","20","20","20","NA","20","20","0","20","NA","20","20","0","20","NA","20","NA","20","0","0","20","20","0","20","20","21","z","04/10/18 17:31:23","The main experiment item","yes","FIN__BA__M21__7%3A10%3A17.osexp","C:\Users\ERP Testing Room\Desktop\Joanna\morph21","no","mono","no","18","no","white","no","yes","1080","legacy","20","20","C:/Users/ERP Testing Room/Desktop/Joanna/morph21/subject-127.csv","xpyriment","Jazzy James","3.1.4","0","z","NA","NA","NA","NA","space","z","627","NA","NA","NA","NA","290667","627","2","legacy","1024","2","48000","-16","BA_m21","127","odd","NW_S_SIMP","BASKORY","1358","369028","365912","367520","292035","NA","NA","NA","NA","367515","366409","NA","365412","NA","365404","367515","1367","369379","NA","NA","366520","1358","1358","366920","365404","1358","366520","369379","morph21_Oliver/Morris","16","13508","21","yes","1280","10"
"300","72.7272727273","72.7272727273","644.863636364","644.863636364","black","no","xpyriment","legacy","legacy","0","206","NA","uniform","68855","1000","0.0145232735459","0","undefined","0","0","21","21","21","0","21","21","21","NA","21","21","0","21","NA","21","21","0","21","NA","21","NA","21","0","0","21","21","0","21","21","22","z","04/10/18 17:31:23","The main experiment item","yes","FIN__BA__M21__7%3A10%3A17.osexp","C:\Users\ERP Testing Room\Desktop\Joanna\morph21","no","mono","no","18","no","white","no","yes","1080","legacy","21","21","C:/Users/ERP Testing Room/Desktop/Joanna/morph21/subject-127.csv","xpyriment","Jazzy James","3.1.4","0","/","NA","NA","NA","NA","space","/","679","NA","NA","NA","NA","290667","679","2","legacy","1024","2","48000","-16","BA_m21","127","odd","NW_L_SIMP","BANDARY","1358","372220","370637","367520","292035","NA","NA","NA","NA","367515","371134","NA","370137","NA","370128","372215","1367","372520","NA","NA","371220","1358","1358","371620","370128","1358","371220","372520","morph21_Oliver/Morris","16","14187","22","yes","1280","3"
"300","73.9130434783","73.9130434783","648.565217391","648.565217391","black","no","xpyriment","legacy","legacy","0","204","NA","uniform","63254","1000","0.0158092768837","1","undefined","1","0","22","22","22","0","22","22","22","NA","22","22","0","22","NA","22","22","0","22","NA","22","NA","22","0","0","22","22","0","22","22","23","z","04/10/18 17:31:23","The main experiment item","yes","FIN__BA__M21__7%3A10%3A17.osexp","C:\Users\ERP Testing Room\Desktop\Joanna\morph21","no","mono","no","18","no","white","no","yes","1080","legacy","22","22","C:/Users/ERP Testing Room/Desktop/Joanna/morph21/subject-127.csv","xpyriment","Jazzy James","3.1.4","0","z","NA","NA","NA","NA","space","z","730","NA","NA","NA","NA","290667","730","2","legacy","1024","2","48000","-16","BA_m21","127","odd","NW_L_COMP","FELLOWOES","1358","375345","373762","367520","292035","NA","NA","NA","NA","375337","374259","NA","373262","NA","373250","375337","1367","375645","NA","NA","374345","1358","1358","374737","373250","1358","374345","375645","morph21_Oliver/Morris","17","14917","23","yes","1280","17"
"250","75","75","643.083333333","643.083333333","black","no","xpyriment","legacy","legacy","0","201","NA","uniform","76705","1000","0.013036959781","1","undefined","1","0","23","23","23","0","23","23","23","NA","23","23","0","23","NA","23","23","0","23","NA","23","NA","23","0","0","23","23","0","23","23","24","/","04/10/18 17:31:23","The main experiment item","yes","FIN__BA__M21__7%3A10%3A17.osexp","C:\Users\ERP Testing Room\Desktop\Joanna\morph21","no","mono","no","18","no","white","no","yes","1080","legacy","23","23","C:/Users/ERP Testing Room/Desktop/Joanna/morph21/subject-127.csv","xpyriment","Jazzy James","3.1.4","0","/","NA","NA","NA","NA","space","/","517","NA","NA","NA","NA","290667","517","2","legacy","1024","2","48000","-16","BA_m21","127","odd","CW_S","TOSSING","1358","379946","376854","378437","292035","NA","NA","NA","NA","378428","377351","NA","376345","NA","376341","378428","1367","380196","NA","NA","377437","1358","1358","377829","376341","1358","377437","380196","morph21_Oliver/Morris","18","15434","24","yes","1280","26"
"200","76","76","638.96","638.96","black","no","xpyriment","legacy","legacy","0","201","NA","uniform","80127","1000","0.012480187702","1","undefined","1","0","24","24","24","0","24","24","24","NA","24","24","0","24","NA","24","24","0","24","NA","24","NA","24","0","0","24","24","0","24","24","25","/","04/10/18 17:31:23","The main experiment item","yes","FIN__BA__M21__7%3A10%3A17.osexp","C:\Users\ERP Testing Room\Desktop\Joanna\morph21","no","mono","no","18","no","white","no","yes","1080","legacy","24","24","C:/Users/ERP Testing Room/Desktop/Joanna/morph21/subject-127.csv","xpyriment","Jazzy James","3.1.4","0","/","NA","NA","NA","NA","space","/","540","NA","NA","NA","NA","290667","540","2","legacy","1024","2","48000","-16","BA_m21","127","odd","CW_S","BOLDNESS","1358","383055","381472","378437","292035","NA","NA","NA","NA","383047","381969","NA","380971","NA","380960","383047","1367","383255","NA","NA","382055","1358","1358","382447","380960","1358","382055","383255","morph21_Oliver/Morris","19","15974","25","yes","1280","41"
"250","76.9230769231","76.9230769231","633.307692308","633.307692308","black","no","xpyriment","legacy","legacy","0","207","NA","uniform","80343","1000","0.0124466350522","1","undefined","1","0","25","25","25","0","25","25","25","NA","25","25","0","25","NA","25","25","0","25","NA","25","NA","25","0","0","25","25","0","25","25","26","/","04/10/18 17:31:23","The main experiment item","yes","FIN__BA__M21__7%3A10%3A17.osexp","C:\Users\ERP Testing Room\Desktop\Joanna\morph21","no","mono","no","18","no","white","no","yes","1080","legacy","25","25","C:/Users/ERP Testing Room/Desktop/Joanna/morph21/subject-127.csv","xpyriment","Jazzy James","3.1.4","0","/","NA","NA","NA","NA","space","/","492","NA","NA","NA","NA","290667","492","2","legacy","1024","2","48000","-16","BA_m21","127","odd","FILL_W","TASTE","1358","386263","384672","378437","292035","NA","NA","NA","NA","386253","385169","NA","384172","NA","384161","386253","1367","386514","NA","NA","385263","1358","1358","385655","384161","1358","385263","386514","morph21_Oliver/Morris","20","16466","26","yes","1280","34"
"200","77.7777777778","77.7777777778","632.740740741","632.740740741","black","no","xpyriment","legacy","legacy","0","203","NA","uniform","68099","1000","0.0146845034435","1","undefined","1","0","26","26","26","0","26","26","26","NA","26","26","0","26","NA","26","26","0","26","NA","26","NA","26","0","0","26","26","0","26","26","27","z","04/10/18 17:31:23","The main experiment item","yes","FIN__BA__M21__7%3A10%3A17.osexp","C:\Users\ERP Testing Room\Desktop\Joanna\morph21","no","mono","no","18","no","white","no","yes","1080","legacy","26","26","C:/Users/ERP Testing Room/Desktop/Joanna/morph21/subject-127.csv","xpyriment","Jazzy James","3.1.4","0","z","NA","NA","NA","NA","space","z","618","NA","NA","NA","NA","290667","618","2","legacy","1024","2","48000","-16","BA_m21","127","odd","NW_S_COMP","HAPPENANGE","1358","390814","387722","389305","292035","NA","NA","NA","NA","389298","388219","NA","387222","NA","387212","389298","1367","391014","NA","NA","388305","1358","1358","388697","387212","1358","388305","391014","morph21_Oliver/Morris","21","17084","27","yes","1280","2"
"250","78.5714285714","78.5714285714","629.535714286","629.535714286","black","no","xpyriment","legacy","legacy","0","202","NA","uniform","80122","1000","0.012480966526","1","undefined","1","0","27","27","27","0","27","27","27","NA","27","27","0","27","NA","27","27","0","27","NA","27","NA","27","0","0","27","27","0","27","27","28","/","04/10/18 17:31:23","The main experiment item","yes","FIN__BA__M21__7%3A10%3A17.osexp","C:\Users\ERP Testing Room\Desktop\Joanna\morph21","no","mono","no","18","no","white","no","yes","1080","legacy","27","27","C:/Users/ERP Testing Room/Desktop/Joanna/morph21/subject-127.csv","xpyriment","Jazzy James","3.1.4","0","/","NA","NA","NA","NA","space","/","543","NA","NA","NA","NA","290667","543","2","legacy","1024","2","48000","-16","BA_m21","127","odd","CW_L","DANCER","1358","393772","392189","389305","292035","NA","NA","NA","NA","393764","392686","NA","391689","NA","391680","393764","1367","394022","NA","NA","392772","1358","1358","393164","391680","1358","392772","394022","morph21_Oliver/Morris","22","17627","28","yes","1280","11"
"300","75.8620689655","75.8620689655","632.827586207","632.827586207","black","no","xpyriment","legacy","legacy","0","203","NA","uniform","73488","1000","0.0136076638363","0","undefined","0","0","28","28","28","0","28","28","28","NA","28","28","0","28","NA","28","28","0","28","NA","28","NA","28","0","0","28","28","0","28","28","29","z","04/10/18 17:31:23","The main experiment item","yes","FIN__BA__M21__7%3A10%3A17.osexp","C:\Users\ERP Testing Room\Desktop\Joanna\morph21","no","mono","no","18","no","white","no","yes","1080","legacy","28","28","C:/Users/ERP Testing Room/Desktop/Joanna/morph21/subject-127.csv","xpyriment","Jazzy James","3.1.4","0","/","NA","NA","NA","NA","space","/","725","NA","NA","NA","NA","290667","725","2","legacy","1024","2","48000","-16","BA_m21","127","odd","NW_S_COMP","CURTIDY","1358","396797","395214","389305","292035","NA","NA","NA","NA","393764","395711","NA","394714","NA","394704","396789","1367","397097","NA","NA","395797","1358","1358","396189","394704","1358","395797","397097","morph21_Oliver/Morris","22","18352","29","yes","1280","11"
"400","76.6666666667","76.6666666667","635.3","635.3","black","no","xpyriment","legacy","legacy","0","204","NA","uniform","65769","1000","0.0152047317125","1","undefined","1","0","29","29","29","0","29","29","29","NA","29","29","0","29","NA","29","29","0","29","NA","29","NA","29","0","0","29","29","0","29","29","30","z","04/10/18 17:31:23","The main experiment item","yes","FIN__BA__M21__7%3A10%3A17.osexp","C:\Users\ERP Testing Room\Desktop\Joanna\morph21","no","mono","no","18","no","white","no","yes","1080","legacy","29","29","C:/Users/ERP Testing Room/Desktop/Joanna/morph21/subject-127.csv","xpyriment","Jazzy James","3.1.4","0","z","NA","NA","NA","NA","space","z","707","NA","NA","NA","NA","290667","707","2","legacy","1024","2","48000","-16","BA_m21","127","odd","NW_L_COMP","RIPENGE","1358","401340","398247","399832","292035","NA","NA","NA","NA","399823","398744","NA","397747","NA","397739","399823","1367","401740","NA","NA","398832","1358","1358","399223","397739","1358","398832","401740","morph21_Oliver/Morris","23","19059","30","yes","1280","4"
"400","77.4193548387","77.4193548387","636.451612903","636.451612903","black","no","xpyriment","legacy","legacy","0","206","NA","uniform","71675","1000","0.0139518660621","1","undefined","1","0","30","30","30","0","30","30","30","NA","30","30","0","30","NA","30","30","0","30","NA","30","NA","30","0","0","30","30","0","30","30","31","z","04/10/18 17:31:23","The main experiment item","yes","FIN__BA__M21__7%3A10%3A17.osexp","C:\Users\ERP Testing Room\Desktop\Joanna\morph21","no","mono","no","18","no","white","no","yes","1080","legacy","30","30","C:/Users/ERP Testing Room/Desktop/Joanna/morph21/subject-127.csv","xpyriment","Jazzy James","3.1.4","0","z","NA","NA","NA","NA","space","z","671","NA","NA","NA","NA","290667","671","2","legacy","1024","2","48000","-16","BA_m21","127","odd","NW_L_SIMP","CLASSOUS","1358","404532","402940","399832","292035","NA","NA","NA","NA","404523","403437","NA","402440","NA","402431","404523","1367","404932","NA","NA","403532","1358","1358","403924","402431","1358","403532","404932","morph21_Oliver/Morris","24","19730","31","yes","1280","18"
"200","75","75","645.53125","645.53125","black","no","xpyriment","legacy","legacy","0","203","NA","uniform","61913","1000","0.0161516967357","0","undefined","0","0","31","31","31","0","31","31","31","NA","31","31","0","31","NA","31","31","0","31","NA","31","NA","31","0","0","31","31","0","31","31","32","z","04/10/18 17:31:23","The main experiment item","yes","FIN__BA__M21__7%3A10%3A17.osexp","C:\Users\ERP Testing Room\Desktop\Joanna\morph21","no","mono","no","18","no","white","no","yes","1080","legacy","31","31","C:/Users/ERP Testing Room/Desktop/Joanna/morph21/subject-127.csv","xpyriment","Jazzy James","3.1.4","0","/","NA","NA","NA","NA","space","/","927","NA","NA","NA","NA","290667","927","2","legacy","1024","2","48000","-16","BA_m21","127","odd","NW_S_COMP","YANKODY","1358","407740","406157","399832","292035","NA","NA","NA","NA","404523","406654","NA","405657","NA","405651","407735","1367","407940","NA","NA","406740","1358","1358","407132","405651","1358","406740","407940","morph21_Oliver/Morris","24","20657","32","yes","1280","23"
"200","75.7575757576","75.7575757576","641.878787879","641.878787879","black","no","xpyriment","legacy","legacy","0","202","NA","uniform","72987","1000","0.0137010700536","1","undefined","1","0","32","32","32","0","32","32","32","NA","32","32","0","32","NA","32","32","0","32","NA","32","NA","32","0","0","32","32","0","32","32","33","/","04/10/18 17:31:23","The main experiment item","yes","FIN__BA__M21__7%3A10%3A17.osexp","C:\Users\ERP Testing Room\Desktop\Joanna\morph21","no","mono","no","18","no","white","no","yes","1080","legacy","32","32","C:/Users/ERP Testing Room/Desktop/Joanna/morph21/subject-127.csv","xpyriment","Jazzy James","3.1.4","0","/","NA","NA","NA","NA","space","/","525","NA","NA","NA","NA","290667","525","2","legacy","1024","2","48000","-16","BA_m21","127","odd","CW_L","COLLECTOR","1358","412291","409190","410782","292035","NA","NA","NA","NA","410774","409688","NA","408691","NA","408679","410774","1367","412491","NA","NA","409782","1358","1358","410174","408678","1358","409782","412491","morph21_Oliver/Morris","25","21182","33","yes","1280","46"
"200","76.4705882353","76.4705882353","637.764705882","637.764705882","black","no","xpyriment","legacy","legacy","0","207","NA","uniform","82179","1000","0.0121685588776","1","undefined","1","0","33","33","33","0","33","33","33","NA","33","33","0","33","NA","33","33","0","33","NA","33","NA","33","0","0","33","33","0","33","33","34","/","04/10/18 17:31:23","The main experiment item","yes","FIN__BA__M21__7%3A10%3A17.osexp","C:\Users\ERP Testing Room\Desktop\Joanna\morph21","no","mono","no","18","no","white","no","yes","1080","legacy","33","33","C:/Users/ERP Testing Room/Desktop/Joanna/morph21/subject-127.csv","xpyriment","Jazzy James","3.1.4","0","/","NA","NA","NA","NA","space","/","502","NA","NA","NA","NA","290667","502","2","legacy","1024","2","48000","-16","BA_m21","127","odd","FILL_W","STALK","1358","415316","413732","410782","292035","NA","NA","NA","NA","415309","414229","NA","413232","NA","413227","415309","1367","415516","NA","NA","414316","1358","1358","414707","413227","1358","414316","415516","morph21_Oliver/Morris","26","21684","34","yes","1280","27"
"250","77.1428571429","77.1428571429","634.342857143","634.342857143","black","no","xpyriment","legacy","legacy","0","202","NA","uniform","65604","1000","0.0152429729895","1","undefined","1","0","34","34","34","0","34","34","34","NA","34","34","0","34","NA","34","34","0","34","NA","34","NA","34","0","0","34","34","0","34","34","35","/","04/10/18 17:31:23","The main experiment item","yes","FIN__BA__M21__7%3A10%3A17.osexp","C:\Users\ERP Testing Room\Desktop\Joanna\morph21","no","mono","no","18","no","white","no","yes","1080","legacy","34","34","C:/Users/ERP Testing Room/Desktop/Joanna/morph21/subject-127.csv","xpyriment","Jazzy James","3.1.4","0","/","NA","NA","NA","NA","space","/","518","NA","NA","NA","NA","290667","518","2","legacy","1024","2","48000","-16","BA_m21","127","odd","CW_L","LAUGHING","1358","418300","416717","410782","292035","NA","NA","NA","NA","418297","417214","NA","416217","NA","416211","418297","1367","418550","NA","NA","417309","1358","1358","417700","416211","1358","417308","418550","morph21_Oliver/Morris","27","22202","35","yes","1280","27"
"300","77.7777777778","77.7777777778","630","630","black","no","xpyriment","legacy","legacy","0","207","NA","uniform","70423","1000","0.0141999062806","1","undefined","1","0","35","35","35","0","35","35","35","NA","35","35","0","35","NA","35","35","0","35","NA","35","NA","35","0","0","35","35","0","35","35","36","/","04/10/18 17:31:23","The main experiment item","yes","FIN__BA__M21__7%3A10%3A17.osexp","C:\Users\ERP Testing Room\Desktop\Joanna\morph21","no","mono","no","18","no","white","no","yes","1080","legacy","35","35","C:/Users/ERP Testing Room/Desktop/Joanna/morph21/subject-127.csv","xpyriment","Jazzy James","3.1.4","0","/","NA","NA","NA","NA","space","/","478","NA","NA","NA","NA","290667","478","2","legacy","1024","2","48000","-16","BA_m21","127","odd","FILL_W","BLUNT","1358","422817","419725","421309","292035","NA","NA","NA","NA","421300","420222","NA","419225","NA","419221","421300","1367","423117","NA","NA","420309","1358","1358","420700","419221","1358","420309","423117","morph21_Oliver/Morris","28","22680","36","yes","1280","4"
"350","78.3783783784","78.3783783784","631.243243243","631.243243243","black","no","xpyriment","legacy","legacy","0","203","NA","uniform","62301","1000","0.0160511067238","1","undefined","1","0","36","36","36","0","36","36","36","NA","36","36","0","36","NA","36","36","0","36","NA","36","NA","36","0","0","36","36","0","36","36","37","z","04/10/18 17:31:23","The main experiment item","yes","FIN__BA__M21__7%3A10%3A17.osexp","C:\Users\ERP Testing Room\Desktop\Joanna\morph21","no","mono","no","18","no","white","no","yes","1080","legacy","36","36","C:/Users/ERP Testing Room/Desktop/Joanna/morph21/subject-127.csv","xpyriment","Jazzy James","3.1.4","0","z","NA","NA","NA","NA","space","z","676","NA","NA","NA","NA","290667","676","2","legacy","1024","2","48000","-16","BA_m21","127","odd","NW_S_COMP","DEBTITH","1358","425950","424359","421309","292035","NA","NA","NA","NA","425943","424856","NA","423850","NA","423844","425943","1367","426301","NA","NA","424951","1358","1358","425342","423844","1358","424951","426301","morph21_Oliver/Morris","29","23356","37","yes","1280","22"
"400","78.9473684211","78.9473684211","634.842105263","634.842105263","black","no","xpyriment","legacy","legacy","0","201","NA","uniform","68625","1000","0.0145719489982","1","undefined","1","0","37","37","37","0","37","37","37","NA","37","37","0","37","NA","37","37","0","37","NA","37","NA","37","0","0","37","37","0","37","37","38","/","04/10/18 17:31:23","The main experiment item","yes","FIN__BA__M21__7%3A10%3A17.osexp","C:\Users\ERP Testing Room\Desktop\Joanna\morph21","no","mono","no","18","no","white","no","yes","1080","legacy","37","37","C:/Users/ERP Testing Room/Desktop/Joanna/morph21/subject-127.csv","xpyriment","Jazzy James","3.1.4","0","/","NA","NA","NA","NA","space","/","768","NA","NA","NA","NA","290667","768","2","legacy","1024","2","48000","-16","BA_m21","127","odd","CW_S","AVOIDABLE","1358","429067","427476","421309","292035","NA","NA","NA","NA","429062","427973","NA","426976","NA","426965","429062","1367","429468","NA","NA","428067","1358","1358","428467","426965","1358","428067","429468","morph21_Oliver/Morris","30","24124","38","yes","1280","2"
"400","79.4871794872","79.4871794872","631.948717949","631.948717949","black","no","xpyriment","legacy","legacy","0","207","NA","uniform","77309","1000","0.0129351045803","1","undefined","1","0","38","38","38","0","38","38","38","NA","38","38","0","38","NA","38","38","0","38","NA","38","NA","38","0","0","38","38","0","38","38","39","/","04/10/18 17:31:23","The main experiment item","yes","FIN__BA__M21__7%3A10%3A17.osexp","C:\Users\ERP Testing Room\Desktop\Joanna\morph21","no","mono","no","18","no","white","no","yes","1080","legacy","38","38","C:/Users/ERP Testing Room/Desktop/Joanna/morph21/subject-127.csv","xpyriment","Jazzy James","3.1.4","0","/","NA","NA","NA","NA","space","/","522","NA","NA","NA","NA","290667","522","2","legacy","1024","2","48000","-16","BA_m21","127","odd","FILL_W","STEEP","1358","433885","430776","432376","292035","NA","NA","NA","NA","432369","431273","NA","430276","NA","430270","432369","1367","434285","NA","NA","431376","1358","1358","431767","430270","1358","431376","434285","morph21_Oliver/Morris","31","24646","39","yes","1280","16"
"300","80","80","630.275","630.275","black","no","xpyriment","legacy","legacy","0","201","NA","uniform","73493","1000","0.0136067380567","1","undefined","1","0","39","39","39","0","39","39","39","NA","39","39","0","39","NA","39","39","0","39","NA","39","NA","39","0","0","39","39","0","39","39","40","/","04/10/18 17:31:23","The main experiment item","yes","FIN__BA__M21__7%3A10%3A17.osexp","C:\Users\ERP Testing Room\Desktop\Joanna\morph21","no","mono","no","18","no","white","no","yes","1080","legacy","39","39","C:/Users/ERP Testing Room/Desktop/Joanna/morph21/subject-127.csv","xpyriment","Jazzy James","3.1.4","0","/","NA","NA","NA","NA","space","/","565","NA","NA","NA","NA","290667","565","2","legacy","1024","2","48000","-16","BA_m21","127","odd","CW_S","INSISTENT","1358","437110","435527","432376","292035","NA","NA","NA","NA","437105","436024","NA","435027","NA","435022","437105","1367","437410","NA","NA","436110","1358","1358","436510","435022","1358","436110","437410","morph21_Oliver/Morris","32","25211","40","yes","1280","9"
"250","80.487804878","80.487804878","630.390243902","630.390243902","black","no","xpyriment","legacy","legacy","0","208","NA","uniform","68869","1000","0.0145203211895","1","undefined","1","0","40","40","40","0","40","40","40","NA","40","40","0","40","NA","40","40","0","40","NA","40","NA","40","0","0","40","40","0","40","40","41","z","04/10/18 17:31:23","The main experiment item","yes","FIN__BA__M21__7%3A10%3A17.osexp","C:\Users\ERP Testing Room\Desktop\Joanna\morph21","no","mono","no","18","no","white","no","yes","1080","legacy","40","40","C:/Users/ERP Testing Room/Desktop/Joanna/morph21/subject-127.csv","xpyriment","Jazzy James","3.1.4","0","z","NA","NA","NA","NA","space","z","635","NA","NA","NA","NA","290667","635","2","legacy","1024","2","48000","-16","BA_m21","127","odd","FILL_NW","PHEEKS","1358","440144","438544","432376","292035","NA","NA","NA","NA","440135","439041","NA","438044","NA","438037","440135","1367","440394","NA","NA","439144","1358","1358","439535","438037","1358","439144","440394","morph21_Oliver/Morris","33","25846","41","yes","1280","35"
"250","80.9523809524","80.9523809524","629.119047619","629.119047619","black","no","xpyriment","legacy","legacy","0","201","NA","uniform","73449","1000","0.0136148892429","1","undefined","1","0","41","41","41","0","41","41","41","NA","41","41","0","41","NA","41","41","0","41","NA","41","NA","41","0","0","41","41","0","41","41","42","/","04/10/18 17:31:23","The main experiment item","yes","FIN__BA__M21__7%3A10%3A17.osexp","C:\Users\ERP Testing Room\Desktop\Joanna\morph21","no","mono","no","18","no","white","no","yes","1080","legacy","41","41","C:/Users/ERP Testing Room/Desktop/Joanna/morph21/subject-127.csv","xpyriment","Jazzy James","3.1.4","0","/","NA","NA","NA","NA","space","/","577","NA","NA","NA","NA","290667","577","2","legacy","1024","2","48000","-16","BA_m21","127","odd","CW_S","MOSSY","1358","444694","441561","443186","292035","NA","NA","NA","NA","443176","442058","NA","441061","NA","441053","443176","1367","444944","NA","NA","442186","1358","1358","442577","441053","1358","442186","444944","morph21_Oliver/Morris","34","26423","42","yes","1280","47"
"250","79.0697674419","79.0697674419","632.76744186","632.76744186","black","no","xpyriment","legacy","legacy","0","205","NA","uniform","64150","1000","0.0155884645362","0","undefined","0","0","42","42","42","0","42","42","42","NA","42","42","0","42","NA","42","42","0","42","NA","42","NA","42","0","0","42","42","0","42","42","43","z","04/10/18 17:31:23","The main experiment item","yes","FIN__BA__M21__7%3A10%3A17.osexp","C:\Users\ERP Testing Room\Desktop\Joanna\morph21","no","mono","no","18","no","white","no","yes","1080","legacy","42","42","C:/Users/ERP Testing Room/Desktop/Joanna/morph21/subject-127.csv","xpyriment","Jazzy James","3.1.4","0","/","NA","NA","NA","NA","space","/","786","NA","NA","NA","NA","290667","786","2","legacy","1024","2","48000","-16","BA_m21","127","odd","NW_S_SIMP","DIGORY","1358","447761","446144","443186","292035","NA","NA","NA","NA","443176","446641","NA","445644","NA","445641","447754","1367","448011","NA","NA","446761","1358","1358","447152","445641","1358","446761","448011","morph21_Oliver/Morris","34","27209","43","yes","1280","11"
"350","79.5454545455","79.5454545455","631.5","631.5","black","no","xpyriment","legacy","legacy","0","202","NA","uniform","71706","1000","0.0139458343793","1","undefined","1","0","43","43","43","0","43","43","43","NA","43","43","0","43","NA","43","43","0","43","NA","43","NA","43","0","0","43","43","0","43","43","44","/","04/10/18 17:31:23","The main experiment item","yes","FIN__BA__M21__7%3A10%3A17.osexp","C:\Users\ERP Testing Room\Desktop\Joanna\morph21","no","mono","no","18","no","white","no","yes","1080","legacy","43","43","C:/Users/ERP Testing Room/Desktop/Joanna/morph21/subject-127.csv","xpyriment","Jazzy James","3.1.4","0","/","NA","NA","NA","NA","space","/","577","NA","NA","NA","NA","290667","577","2","legacy","1024","2","48000","-16","BA_m21","127","odd","CW_L","FEEDER","1358","450761","449169","443186","292035","NA","NA","NA","NA","450752","449666","NA","448669","NA","448665","450752","1367","451111","NA","NA","449761","1358","1358","450153","448665","1358","449761","451111","morph21_Oliver/Morris","35","27786","44","yes","1280","14"
"250","80","80","634.355555556","634.355555556","black","no","xpyriment","legacy","legacy","0","202","NA","uniform","60332","1000","0.0165749519326","1","undefined","1","0","44","44","44","0","44","44","44","NA","44","44","0","44","NA","44","44","0","44","NA","44","NA","44","0","0","44","44","0","44","44","45","/","04/10/18 17:31:23","The main experiment item","yes","FIN__BA__M21__7%3A10%3A17.osexp","C:\Users\ERP Testing Room\Desktop\Joanna\morph21","no","mono","no","18","no","white","no","yes","1080","legacy","44","44","C:/Users/ERP Testing Room/Desktop/Joanna/morph21/subject-127.csv","xpyriment","Jazzy James","3.1.4","0","/","NA","NA","NA","NA","space","/","760","NA","NA","NA","NA","290667","760","2","legacy","1024","2","48000","-16","BA_m21","127","odd","CW_L","DEAFNESS","1358","455496","452404","453987","292035","NA","NA","NA","NA","453981","452901","NA","451904","NA","451893","453981","1367","455746","NA","NA","452987","1358","1358","453379","451893","1358","452987","455746","morph21_Oliver/Morris","36","28546","45","yes","1280","39"
"350","80.4347826087","80.4347826087","634.173913043","634.173913043","black","no","xpyriment","legacy","legacy","0","206","NA","uniform","67992","1000","0.0147076126603","1","undefined","1","0","45","45","45","0","45","45","45","NA","45","45","0","45","NA","45","45","0","45","NA","45","NA","45","0","0","45","45","0","45","45","46","z","04/10/18 17:31:23","The main experiment item","yes","FIN__BA__M21__7%3A10%3A17.osexp","C:\Users\ERP Testing Room\Desktop\Joanna\morph21","no","mono","no","18","no","white","no","yes","1080","legacy","45","45","C:/Users/ERP Testing Room/Desktop/Joanna/morph21/subject-127.csv","xpyriment","Jazzy James","3.1.4","0","z","NA","NA","NA","NA","space","z","626","NA","NA","NA","NA","290667","626","2","legacy","1024","2","48000","-16","BA_m21","127","odd","NW_L_SIMP","WIGISH","1358","458529","456937","453987","292035","NA","NA","NA","NA","458522","457434","NA","456437","NA","456432","458522","1367","458879","NA","NA","457529","1358","1358","457921","456432","1358","457529","458879","morph21_Oliver/Morris","37","29172","46","yes","1280","9"
"200","80.8510638298","80.8510638298","630.489361702","630.489361702","black","no","xpyriment","legacy","legacy","0","207","NA","uniform","72710","1000","0.0137532664008","1","undefined","1","0","46","46","46","0","46","46","46","NA","46","46","0","46","NA","46","46","0","46","NA","46","NA","46","0","0","46","46","0","46","46","47","/","04/10/18 17:31:23","The main experiment item","yes","FIN__BA__M21__7%3A10%3A17.osexp","C:\Users\ERP Testing Room\Desktop\Joanna\morph21","no","mono","no","18","no","white","no","yes","1080","legacy","46","46","C:/Users/ERP Testing Room/Desktop/Joanna/morph21/subject-127.csv","xpyriment","Jazzy James","3.1.4","0","/","NA","NA","NA","NA","space","/","461","NA","NA","NA","NA","290667","461","2","legacy","1024","2","48000","-16","BA_m21","127","odd","FILL_W","TEST","1358","461662","460079","453987","292035","NA","NA","NA","NA","461654","460576","NA","459579","NA","459572","461654","1367","461862","NA","NA","460662","1358","1358","461054","459572","1358","460662","461862","morph21_Oliver/Morris","38","29633","47","yes","1280","47"
"350","81.25","81.25","632.604166667","632.604166667","black","no","xpyriment","legacy","legacy","0","208","NA","uniform","66036","1000","0.0151432551941","1","undefined","1","0","47","47","47","0","47","47","47","NA","47","47","0","47","NA","47","47","0","47","NA","47","NA","47","0","0","47","47","0","47","47","48","z","04/10/18 17:31:23","The main experiment item","yes","FIN__BA__M21__7%3A10%3A17.osexp","C:\Users\ERP Testing Room\Desktop\Joanna\morph21","no","mono","no","18","no","white","no","yes","1080","legacy","47","47","C:/Users/ERP Testing Room/Desktop/Joanna/morph21/subject-127.csv","xpyriment","Jazzy James","3.1.4","0","z","NA","NA","NA","NA","space","z","732","NA","NA","NA","NA","290667","732","2","legacy","1024","2","48000","-16","BA_m21","127","odd","FILL_NW","DOADS","1358","466188","463096","464679","292035","NA","NA","NA","NA","464675","463593","NA","462596","NA","462585","464675","1367","466538","NA","NA","463679","1358","1358","464079","462585","1358","463679","466538","morph21_Oliver/Morris","39","30365","48","yes","1280","15"
"400","81.6326530612","81.6326530612","629.387755102","629.387755102","black","no","xpyriment","legacy","legacy","0","207","NA","uniform","72197","1000","0.0138509910384","1","undefined","1","0","48","48","48","0","48","48","48","NA","48","48","0","48","NA","48","48","0","48","NA","48","NA","48","0","0","48","48","0","48","48","49","/","04/10/18 17:31:23","The main experiment item","yes","FIN__BA__M21__7%3A10%3A17.osexp","C:\Users\ERP Testing Room\Desktop\Joanna\morph21","no","mono","no","18","no","white","no","yes","1080","legacy","48","48","C:/Users/ERP Testing Room/Desktop/Joanna/morph21/subject-127.csv","xpyriment","Jazzy James","3.1.4","0","/","NA","NA","NA","NA","space","/","475","NA","NA","NA","NA","290667","475","2","legacy","1024","2","48000","-16","BA_m21","127","odd","FILL_W","CEASE","1358","469305","467721","464679","292035","NA","NA","NA","NA","469296","468218","NA","467221","NA","467215","469296","1367","469705","NA","NA","468304","1358","1358","468697","467215","1358","468304","469705","morph21_Oliver/Morris","40","30840","49","yes","1280","18"
"300","82","82","628.5","628.5","black","no","xpyriment","legacy","legacy","0","205","NA","uniform","66655","1000","0.0150026254595","1","undefined","1","0","49","49","49","0","49","49","49","NA","49","49","0","49","NA","49","49","0","49","NA","49","NA","49","0","0","49","49","0","49","49","50","z","04/10/18 17:31:23","The main experiment item","yes","FIN__BA__M21__7%3A10%3A17.osexp","C:\Users\ERP Testing Room\Desktop\Joanna\morph21","no","mono","no","18","no","white","no","yes","1080","legacy","49","49","C:/Users/ERP Testing Room/Desktop/Joanna/morph21/subject-127.csv","xpyriment","Jazzy James","3.1.4","0","z","NA","NA","NA","NA","space","z","585","NA","NA","NA","NA","290667","585","2","legacy","1024","2","48000","-16","BA_m21","127","odd","NW_S_SIMP","FEVERIZE","1358","472514","470930","464679","292035","NA","NA","NA","NA","472507","471428","NA","470430","NA","470428","472507","1367","472814","NA","NA","471514","1358","1358","471906","470428","1358","471514","472814","morph21_Oliver/Morris","41","31425","50","yes","1280","24"
"400","80.3921568627","80.3921568627","631.745098039","631.745098039","black","no","xpyriment","legacy","legacy","0","205","NA","uniform","60121","1000","0.0166331232015","0","undefined","0","0","50","50","50","0","50","50","50","NA","50","50","0","50","NA","50","50","0","50","NA","50","NA","50","0","0","50","50","0","50","50","51","z","04/10/18 17:31:23","The main experiment item","yes","FIN__BA__M21__7%3A10%3A17.osexp","C:\Users\ERP Testing Room\Desktop\Joanna\morph21","no","mono","no","18","no","white","no","yes","1080","legacy","50","50","C:/Users/ERP Testing Room/Desktop/Joanna/morph21/subject-127.csv","xpyriment","Jazzy James","3.1.4","0","/","NA","NA","NA","NA","space","/","794","NA","NA","NA","NA","290667","794","2","legacy","1024","2","48000","-16","BA_m21","127","odd","NW_S_SIMP","ADVERTISELY","1358","477189","474072","475681","292035","NA","NA","NA","NA","472507","474569","NA","473572","NA","473561","475674","1367","477589","NA","NA","474681","1358","1358","475072","473561","1358","474681","477589","morph21_Oliver/Morris","41","32219","51","yes","1280","25"
"250","78.8461538462","78.8461538462","633.384615385","633.384615385","black","no","xpyriment","legacy","legacy","0","208","NA","uniform","67488","1000","0.014817449028","0","undefined","0","0","51","51","51","0","51","51","51","NA","51","51","0","51","NA","51","51","0","51","NA","51","NA","51","0","0","51","51","0","51","51","52","z","04/10/18 17:31:23","The main experiment item","yes","FIN__BA__M21__7%3A10%3A17.osexp","C:\Users\ERP Testing Room\Desktop\Joanna\morph21","no","mono","no","18","no","white","no","yes","1080","legacy","51","51","C:/Users/ERP Testing Room/Desktop/Joanna/morph21/subject-127.csv","xpyriment","Jazzy James","3.1.4","0","/","NA","NA","NA","NA","space","/","717","NA","NA","NA","NA","290667","717","2","legacy","1024","2","48000","-16","BA_m21","127","odd","FILL_NW","DOWED","1358","480414","478789","475681","292035","NA","NA","NA","NA","472507","479286","NA","478289","NA","478280","480406","1367","480664","NA","NA","479414","1358","1358","479806","478280","1358","479414","480664","morph21_Oliver/Morris","41","32936","52","yes","1280","16"
"400","79.2452830189","79.2452830189","631.264150943","631.264150943","black","no","xpyriment","legacy","legacy","0","202","NA","uniform","69878","1000","0.0143106557142","1","undefined","1","0","52","52","52","0","52","52","52","NA","52","52","0","52","NA","52","52","0","52","NA","52","NA","52","0","0","52","52","0","52","52","53","/","04/10/18 17:31:23","The main experiment item","yes","FIN__BA__M21__7%3A10%3A17.osexp","C:\Users\ERP Testing Room\Desktop\Joanna\morph21","no","mono","no","18","no","white","no","yes","1080","legacy","52","52","C:/Users/ERP Testing Room/Desktop/Joanna/morph21/subject-127.csv","xpyriment","Jazzy James","3.1.4","0","/","NA","NA","NA","NA","space","/","521","NA","NA","NA","NA","290667","521","2","legacy","1024","2","48000","-16","BA_m21","127","odd","CW_L","LOCKER","1358","483473","481881","475681","292035","NA","NA","NA","NA","483470","482378","NA","481381","NA","481370","483470","1367","483873","NA","NA","482481","1358","1358","482873","481370","1358","482481","483873","morph21_Oliver/Morris","42","33457","53","yes","1280","8"
"350","79.6296296296","79.6296296296","631.851851852","631.851851852","black","no","xpyriment","legacy","legacy","0","204","NA","uniform","60828","1000","0.0164397974617","1","undefined","1","0","53","53","53","0","53","53","53","NA","53","53","0","53","NA","53","53","0","53","NA","53","NA","53","0","0","53","53","0","53","53","54","z","04/10/18 17:31:23","The main experiment item","yes","FIN__BA__M21__7%3A10%3A17.osexp","C:\Users\ERP Testing Room\Desktop\Joanna\morph21","no","mono","no","18","no","white","no","yes","1080","legacy","53","53","C:/Users/ERP Testing Room/Desktop/Joanna/morph21/subject-127.csv","xpyriment","Jazzy James","3.1.4","0","z","NA","NA","NA","NA","space","z","663","NA","NA","NA","NA","290667","663","2","legacy","1024","2","48000","-16","BA_m21","127","odd","NW_L_COMP","AGREELA","1358","488257","485139","486749","292035","NA","NA","NA","NA","486740","485637","NA","484639","NA","484629","486740","1367","488607","NA","NA","485748","1358","1358","486140","484629","1358","485748","488607","morph21_Oliver/Morris","43","34120","54","yes","1280","24"
"300","80","80","627.836363636","627.836363636","black","no","xpyriment","legacy","legacy","0","207","NA","uniform","80448","1000","0.012430389817","1","undefined","1","0","54","54","54","0","54","54","54","NA","54","54","0","54","NA","54","54","0","54","NA","54","NA","54","0","0","54","54","0","54","54","55","/","04/10/18 17:31:23","The main experiment item","yes","FIN__BA__M21__7%3A10%3A17.osexp","C:\Users\ERP Testing Room\Desktop\Joanna\morph21","no","mono","no","18","no","white","no","yes","1080","legacy","54","54","C:/Users/ERP Testing Room/Desktop/Joanna/morph21/subject-127.csv","xpyriment","Jazzy James","3.1.4","0","/","NA","NA","NA","NA","space","/","411","NA","NA","NA","NA","290667","411","2","legacy","1024","2","48000","-16","BA_m21","127","odd","FILL_W","BOX","1358","491416","489832","486749","292035","NA","NA","NA","NA","491407","490329","NA","489332","NA","489323","491407","1367","491716","NA","NA","490416","1358","1358","490807","489323","1358","490416","491716","morph21_Oliver/Morris","44","34531","55","yes","1280","42"
"250","80.3571428571","80.3571428571","626.910714286","626.910714286","black","no","xpyriment","legacy","legacy","0","203","NA","uniform","78821","1000","0.0126869742835","1","undefined","1","0","55","55","55","0","55","55","55","NA","55","55","0","55","NA","55","55","0","55","NA","55","NA","55","0","0","55","55","0","55","55","56","z","04/10/18 17:31:23","The main experiment item","yes","FIN__BA__M21__7%3A10%3A17.osexp","C:\Users\ERP Testing Room\Desktop\Joanna\morph21","no","mono","no","18","no","white","no","yes","1080","legacy","55","55","C:/Users/ERP Testing Room/Desktop/Joanna/morph21/subject-127.csv","xpyriment","Jazzy James","3.1.4","0","z","NA","NA","NA","NA","space","z","576","NA","NA","NA","NA","290667","576","2","legacy","1024","2","48000","-16","BA_m21","127","odd","NW_S_COMP","BEEREL","1358","494508","492924","486749","292035","NA","NA","NA","NA","494498","493421","NA","492424","NA","492415","494498","1367","494758","NA","NA","493507","1358","1358","493899","492415","1358","493507","494758","morph21_Oliver/Morris","45","35107","56","yes","1280","5"
"400","78.9473684211","78.9473684211","626.719298246","626.719298246","black","no","xpyriment","legacy","legacy","0","204","NA","uniform","72669","1000","0.0137610260221","0","undefined","0","0","56","56","56","0","56","56","56","NA","56","56","0","56","NA","56","56","0","56","NA","56","NA","56","0","0","56","56","0","56","56","57","z","04/10/18 17:31:23","The main experiment item","yes","FIN__BA__M21__7%3A10%3A17.osexp","C:\Users\ERP Testing Room\Desktop\Joanna\morph21","no","mono","no","18","no","white","no","yes","1080","legacy","56","56","C:/Users/ERP Testing Room/Desktop/Joanna/morph21/subject-127.csv","xpyriment","Jazzy James","3.1.4","0","/","NA","NA","NA","NA","space","/","616","NA","NA","NA","NA","290667","616","2","legacy","1024","2","48000","-16","BA_m21","127","odd","NW_L_COMP","BOIL","1358","498999","495891","497491","292035","NA","NA","NA","NA","494498","496388","NA","495391","NA","495386","497482","1367","499400","NA","NA","496491","1358","1358","496883","495386","1358","496491","499400","morph21_Oliver/Morris","45","35723","57","yes","1280","18"
"200","79.3103448276","79.3103448276","624.344827586","624.344827586","black","no","xpyriment","legacy","legacy","0","207","NA","uniform","72229","1000","0.0138448545598","1","undefined","1","0","57","57","57","0","57","57","57","NA","57","57","0","57","NA","57","57","0","57","NA","57","NA","57","0","0","57","57","0","57","57","58","/","04/10/18 17:31:23","The main experiment item","yes","FIN__BA__M21__7%3A10%3A17.osexp","C:\Users\ERP Testing Room\Desktop\Joanna\morph21","no","mono","no","18","no","white","no","yes","1080","legacy","57","57","C:/Users/ERP Testing Room/Desktop/Joanna/morph21/subject-127.csv","xpyriment","Jazzy James","3.1.4","0","/","NA","NA","NA","NA","space","/","489","NA","NA","NA","NA","290667","489","2","legacy","1024","2","48000","-16","BA_m21","127","odd","FILL_W","OLD","1358","502225","500624","497491","292035","NA","NA","NA","NA","502217","501122","NA","500124","NA","500121","502217","1367","502425","NA","NA","501225","1358","1358","501616","500121","1358","501224","502425","morph21_Oliver/Morris","46","36212","58","yes","1280","44"
"350","79.6610169492","79.6610169492","623.423728814","623.423728814","black","no","xpyriment","legacy","legacy","0","201","NA","uniform","79141","1000","0.0126356755664","1","undefined","1","0","58","58","58","0","58","58","58","NA","58","58","0","58","NA","58","58","0","58","NA","58","NA","58","0","0","58","58","0","58","58","59","/","04/10/18 17:31:23","The main experiment item","yes","FIN__BA__M21__7%3A10%3A17.osexp","C:\Users\ERP Testing Room\Desktop\Joanna\morph21","no","mono","no","18","no","white","no","yes","1080","legacy","58","58","C:/Users/ERP Testing Room/Desktop/Joanna/morph21/subject-127.csv","xpyriment","Jazzy James","3.1.4","0","/","NA","NA","NA","NA","space","/","570","NA","NA","NA","NA","290667","570","2","legacy","1024","2","48000","-16","BA_m21","127","odd","CW_S","LENDER","1358","505217","503617","497491","292035","NA","NA","NA","NA","505208","504114","NA","503116","NA","503106","505208","1367","505567","NA","NA","504217","1358","1358","504609","503106","1358","504217","505567","morph21_Oliver/Morris","47","36782","59","yes","1280","11"
"250","80","80","622.2","622.2","black","no","xpyriment","legacy","legacy","0","207","NA","uniform","80357","1000","0.0124444665679","1","undefined","1","0","59","59","59","0","59","59","59","NA","59","59","0","59","NA","59","59","0","59","NA","59","NA","59","0","0","59","59","0","59","59","60","/","04/10/18 17:31:23","The main experiment item","yes","FIN__BA__M21__7%3A10%3A17.osexp","C:\Users\ERP Testing Room\Desktop\Joanna\morph21","no","mono","no","18","no","white","no","yes","1080","legacy","59","59","C:/Users/ERP Testing Room/Desktop/Joanna/morph21/subject-127.csv","xpyriment","Jazzy James","3.1.4","0","/","NA","NA","NA","NA","space","/","550","NA","NA","NA","NA","290667","550","2","legacy","1024","2","48000","-16","BA_m21","127","odd","FILL_W","PREACH","1358","509826","506734","508317","292035","NA","NA","NA","NA","508312","507231","NA","506234","NA","506227","508312","1367","510076","NA","NA","507317","1358","1358","507709","506227","1358","507317","510076","morph21_Oliver/Morris","48","37332","60","yes","1280","7"
"250","80.3278688525","80.3278688525","621.213114754","621.213114754","black","no","xpyriment","legacy","legacy","0","202","NA","uniform","77968","1000","0.0128257746768","1","undefined","1","0","60","60","60","0","60","60","60","NA","60","60","0","60","NA","60","60","0","60","NA","60","NA","60","0","0","60","60","0","60","60","61","/","04/10/18 17:31:23","The main experiment item","yes","FIN__BA__M21__7%3A10%3A17.osexp","C:\Users\ERP Testing Room\Desktop\Joanna\morph21","no","mono","no","18","no","white","no","yes","1080","legacy","60","60","C:/Users/ERP Testing Room/Desktop/Joanna/morph21/subject-127.csv","xpyriment","Jazzy James","3.1.4","0","/","NA","NA","NA","NA","space","/","562","NA","NA","NA","NA","290667","562","2","legacy","1024","2","48000","-16","BA_m21","127","odd","CW_L","STRIKER","1358","512984","511368","508317","292035","NA","NA","NA","NA","512981","511865","NA","510868","NA","510858","512981","1367","513234","NA","NA","511993","1358","1358","512384","510858","1358","511993","513234","morph21_Oliver/Morris","49","37894","61","yes","1280","17"
"300","80.6451612903","80.6451612903","619.564516129","619.564516129","black","no","xpyriment","legacy","legacy","0","202","NA","uniform","80678","1000","0.0123949527752","1","undefined","1","0","61","61","61","0","61","61","61","NA","61","61","0","61","NA","61","61","0","61","NA","61","NA","61","0","0","61","61","0","61","61","62","/","04/10/18 17:31:23","The main experiment item","yes","FIN__BA__M21__7%3A10%3A17.osexp","C:\Users\ERP Testing Room\Desktop\Joanna\morph21","no","mono","no","18","no","white","no","yes","1080","legacy","61","61","C:/Users/ERP Testing Room/Desktop/Joanna/morph21/subject-127.csv","xpyriment","Jazzy James","3.1.4","0","/","NA","NA","NA","NA","space","/","519","NA","NA","NA","NA","290667","519","2","legacy","1024","2","48000","-16","BA_m21","127","odd","CW_L","PROFESSOR","1358","516084","514468","508317","292035","NA","NA","NA","NA","516077","514965","NA","513968","NA","513964","516077","1367","516385","NA","NA","515084","1358","1358","515476","513964","1358","515084","516385","morph21_Oliver/Morris","50","38413","62","yes","1280","47"
"200","79.3650793651","79.3650793651","621.952380952","621.952380952","black","no","xpyriment","legacy","legacy","0","208","NA","uniform","69418","1000","0.0144054856089","0","undefined","0","0","62","62","62","0","62","62","62","NA","62","62","0","62","NA","62","62","0","62","NA","62","NA","62","0","0","62","62","0","62","62","63","z","04/10/18 17:31:23","The main experiment item","yes","FIN__BA__M21__7%3A10%3A17.osexp","C:\Users\ERP Testing Room\Desktop\Joanna\morph21","no","mono","no","18","no","white","no","yes","1080","legacy","62","62","C:/Users/ERP Testing Room/Desktop/Joanna/morph21/subject-127.csv","xpyriment","Jazzy James","3.1.4","0","/","NA","NA","NA","NA","space","/","770","NA","NA","NA","NA","290667","770","2","legacy","1024","2","48000","-16","BA_m21","127","odd","FILL_NW","PUCTS","1358","520710","517593","519201","292035","NA","NA","NA","NA","516077","518090","NA","517093","NA","517087","519191","1367","520910","NA","NA","518201","1358","1358","518593","517086","1358","518201","520910","morph21_Oliver/Morris","50","39183","63","yes","1280","40"
"400","79.6875","79.6875","621.609375","621.609375","black","no","xpyriment","legacy","legacy","0","202","NA","uniform","67988","1000","0.0147084779667","1","undefined","1","0","63","63","63","0","63","63","63","NA","63","63","0","63","NA","63","63","0","63","NA","63","NA","63","0","0","63","63","0","63","63","64","/","04/10/18 17:31:23","The main experiment item","yes","FIN__BA__M21__7%3A10%3A17.osexp","C:\Users\ERP Testing Room\Desktop\Joanna\morph21","no","mono","no","18","no","white","no","yes","1080","legacy","63","63","C:/Users/ERP Testing Room/Desktop/Joanna/morph21/subject-127.csv","xpyriment","Jazzy James","3.1.4","0","/","NA","NA","NA","NA","space","/","600","NA","NA","NA","NA","290667","600","2","legacy","1024","2","48000","-16","BA_m21","127","odd","CW_L","CONDUCTOR","1358","523811","522211","519201","292035","NA","NA","NA","NA","523808","522708","NA","521711","NA","521701","523808","1367","524211","NA","NA","522819","1358","1358","523211","521701","1358","522819","524211","morph21_Oliver/Morris","51","39783","64","yes","1280","44"
"200","80","80","619.707692308","619.707692308","black","no","xpyriment","legacy","legacy","0","207","NA","uniform","81571","1000","0.0122592588052","1","undefined","1","0","64","64","64","0","64","64","64","NA","64","64","0","64","NA","64","64","0","64","NA","64","NA","64","0","0","64","64","0","64","64","65","/","04/10/18 17:31:23","The main experiment item","yes","FIN__BA__M21__7%3A10%3A17.osexp","C:\Users\ERP Testing Room\Desktop\Joanna\morph21","no","mono","no","18","no","white","no","yes","1080","legacy","64","64","C:/Users/ERP Testing Room/Desktop/Joanna/morph21/subject-127.csv","xpyriment","Jazzy James","3.1.4","0","/","NA","NA","NA","NA","space","/","498","NA","NA","NA","NA","290667","498","2","legacy","1024","2","48000","-16","BA_m21","127","odd","FILL_W","SAVE","1358","527169","525578","519201","292035","NA","NA","NA","NA","527162","526075","NA","525078","NA","525068","527162","1367","527369","NA","NA","526169","1358","1358","526561","525068","1358","526169","527369","morph21_Oliver/Morris","52","40281","65","yes","1280","46"
"300","80.303030303","80.303030303","619.409090909","619.409090909","black","no","xpyriment","legacy","legacy","0","204","NA","uniform","71263","1000","0.0140325273985","1","undefined","1","0","65","65","65","0","65","65","65","NA","65","65","0","65","NA","65","65","0","65","NA","65","NA","65","0","0","65","65","0","65","65","66","z","04/10/18 17:31:23","The main experiment item","yes","FIN__BA__M21__7%3A10%3A17.osexp","C:\Users\ERP Testing Room\Desktop\Joanna\morph21","no","mono","no","18","no","white","no","yes","1080","legacy","65","65","C:/Users/ERP Testing Room/Desktop/Joanna/morph21/subject-127.csv","xpyriment","Jazzy James","3.1.4","0","z","NA","NA","NA","NA","space","z","600","NA","NA","NA","NA","290667","600","2","legacy","1024","2","48000","-16","BA_m21","127","odd","NW_L_COMP","SHEETEL","1358","531711","528611","530203","292035","NA","NA","NA","NA","530193","529108","NA","528111","NA","528100","530193","1367","532011","NA","NA","529203","1358","1358","529594","528100","1358","529203","532011","morph21_Oliver/Morris","53","40881","66","yes","1280","5"
"400","80.5970149254","80.5970149254","618.850746269","618.850746269","black","no","xpyriment","legacy","legacy","0","205","NA","uniform","69225","1000","0.0144456482485","1","undefined","1","0","66","66","66","0","66","66","66","NA","66","66","0","66","NA","66","66","0","66","NA","66","NA","66","0","0","66","66","0","66","66","67","z","04/10/18 17:31:23","The main experiment item","yes","FIN__BA__M21__7%3A10%3A17.osexp","C:\Users\ERP Testing Room\Desktop\Joanna\morph21","no","mono","no","18","no","white","no","yes","1080","legacy","66","66","C:/Users/ERP Testing Room/Desktop/Joanna/morph21/subject-127.csv","xpyriment","Jazzy James","3.1.4","0","z","NA","NA","NA","NA","space","z","582","NA","NA","NA","NA","290667","582","2","legacy","1024","2","48000","-16","BA_m21","127","odd","NW_S_SIMP","SCHEMENESS","1358","534861","533236","530203","292035","NA","NA","NA","NA","534851","533733","NA","532736","NA","532733","534851","1367","535261","NA","NA","533861","1358","1358","534253","532733","1358","533861","535261","morph21_Oliver/Morris","54","41463","67","yes","1280","15"
"250","80.8823529412","80.8823529412","617.073529412","617.073529412","black","no","xpyriment","legacy","legacy","0","207","NA","uniform","78540","1000","0.0127323656735","1","undefined","1","0","67","67","67","0","67","67","67","NA","67","67","0","67","NA","67","67","0","67","NA","67","NA","67","0","0","67","67","0","67","67","68","/","04/10/18 17:31:23","The main experiment item","yes","FIN__BA__M21__7%3A10%3A17.osexp","C:\Users\ERP Testing Room\Desktop\Joanna\morph21","no","mono","no","18","no","white","no","yes","1080","legacy","67","67","C:/Users/ERP Testing Room/Desktop/Joanna/morph21/subject-127.csv","xpyriment","Jazzy James","3.1.4","0","/","NA","NA","NA","NA","space","/","498","NA","NA","NA","NA","290667","498","2","legacy","1024","2","48000","-16","BA_m21","127","odd","FILL_W","SOUGHT","1358","538128","536545","530203","292035","NA","NA","NA","NA","538120","537042","NA","536045","NA","536037","538120","1367","538378","NA","NA","537128","1358","1358","537520","536037","1358","537128","538378","morph21_Oliver/Morris","55","41961","68","yes","1280","40"
"250","81.1594202899","81.1594202899","617.695652174","617.695652174","black","no","xpyriment","legacy","legacy","0","208","NA","uniform","70118","1000","0.0142616731795","1","undefined","1","0","68","68","68","0","68","68","68","NA","68","68","0","68","NA","68","68","0","68","NA","68","NA","68","0","0","68","68","0","68","68","69","z","04/10/18 17:31:23","The main experiment item","yes","FIN__BA__M21__7%3A10%3A17.osexp","C:\Users\ERP Testing Room\Desktop\Joanna\morph21","no","mono","no","18","no","white","no","yes","1080","legacy","68","68","C:/Users/ERP Testing Room/Desktop/Joanna/morph21/subject-127.csv","xpyriment","Jazzy James","3.1.4","0","z","NA","NA","NA","NA","space","z","660","NA","NA","NA","NA","290667","660","2","legacy","1024","2","48000","-16","BA_m21","127","odd","FILL_NW","POLT","1358","542771","539646","541262","292035","NA","NA","NA","NA","541258","540143","NA","539146","NA","539141","541258","1367","543021","NA","NA","540271","1358","1358","540663","539141","1358","540271","543021","morph21_Oliver/Morris","56","42621","69","yes","1280","38"
"350","80","80","623.071428571","623.071428571","black","no","xpyriment","legacy","legacy","0","202","NA","uniform","64392","1000","0.0155298794881","0","undefined","0","0","69","69","69","0","69","69","69","NA","69","69","0","69","NA","69","69","0","69","NA","69","NA","69","0","0","69","69","0","69","69","70","/","04/10/18 17:31:23","The main experiment item","yes","FIN__BA__M21__7%3A10%3A17.osexp","C:\Users\ERP Testing Room\Desktop\Joanna\morph21","no","mono","no","18","no","white","no","yes","1080","legacy","69","69","C:/Users/ERP Testing Room/Desktop/Joanna/morph21/subject-127.csv","xpyriment","Jazzy James","3.1.4","0","None","NA","NA","NA","NA","space","None","994","NA","NA","NA","NA","290667","994","2","legacy","1024","2","48000","-16","BA_m21","127","odd","CW_L","PAINTER","1358","545829","544238","541262","292035","NA","NA","NA","NA","541258","544735","NA","543738","NA","543727","545823","1367","546179","NA","NA","544829","1358","1358","545221","543727","1358","544829","546179","morph21_Oliver/Morris","56","43615","70","yes","1280","18"
"200","80.2816901408","80.2816901408","620.816901408","620.816901408","black","no","xpyriment","legacy","legacy","0","202","NA","uniform","78371","1000","0.0127598218729","1","undefined","1","0","70","70","70","0","70","70","70","NA","70","70","0","70","NA","70","70","0","70","NA","70","NA","70","0","0","70","70","0","70","70","71","/","04/10/18 17:31:23","The main experiment item","yes","FIN__BA__M21__7%3A10%3A17.osexp","C:\Users\ERP Testing Room\Desktop\Joanna\morph21","no","mono","no","18","no","white","no","yes","1080","legacy","70","70","C:/Users/ERP Testing Room/Desktop/Joanna/morph21/subject-127.csv","xpyriment","Jazzy James","3.1.4","0","/","NA","NA","NA","NA","space","/","463","NA","NA","NA","NA","290667","463","2","legacy","1024","2","48000","-16","BA_m21","127","odd","CW_L","SAILOR","1358","548996","547396","541262","292035","NA","NA","NA","NA","548993","547893","NA","546896","NA","546888","548993","1367","549196","NA","NA","548004","1358","1358","548396","546888","1358","548004","549196","morph21_Oliver/Morris","57","44078","71","yes","1280","43"
"350","80.5555555556","80.5555555556","620.430555556","620.430555556","black","no","xpyriment","legacy","legacy","0","202","NA","uniform","74581","1000","0.0134082407047","1","undefined","1","0","71","71","71","0","71","71","71","NA","71","71","0","71","NA","71","71","0","71","NA","71","NA","71","0","0","71","71","0","71","71","72","/","04/10/18 17:31:23","The main experiment item","yes","FIN__BA__M21__7%3A10%3A17.osexp","C:\Users\ERP Testing Room\Desktop\Joanna\morph21","no","mono","no","18","no","white","no","yes","1080","legacy","71","71","C:/Users/ERP Testing Room/Desktop/Joanna/morph21/subject-127.csv","xpyriment","Jazzy James","3.1.4","0","/","NA","NA","NA","NA","space","/","593","NA","NA","NA","NA","290667","593","2","legacy","1024","2","48000","-16","BA_m21","127","odd","CW_L","BARKER","1358","553438","550338","551930","292035","NA","NA","NA","NA","551921","550835","NA","549838","NA","549828","551921","1367","553788","NA","NA","550930","1358","1358","551321","549828","1358","550930","553788","morph21_Oliver/Morris","58","44671","72","yes","1280","2"
"300","80.8219178082","80.8219178082","620.328767123","620.328767123","black","no","xpyriment","legacy","legacy","0","205","NA","uniform","77499","1000","0.0129033923018","1","undefined","1","0","72","72","72","0","72","72","72","NA","72","72","0","72","NA","72","72","0","72","NA","72","NA","72","0","0","72","72","0","72","72","73","z","04/10/18 17:31:23","The main experiment item","yes","FIN__BA__M21__7%3A10%3A17.osexp","C:\Users\ERP Testing Room\Desktop\Joanna\morph21","no","mono","no","18","no","white","no","yes","1080","legacy","72","72","C:/Users/ERP Testing Room/Desktop/Joanna/morph21/subject-127.csv","xpyriment","Jazzy James","3.1.4","0","z","NA","NA","NA","NA","space","z","613","NA","NA","NA","NA","290667","613","2","legacy","1024","2","48000","-16","BA_m21","127","odd","NW_S_SIMP","HELMETOUS","1358","556631","555038","551930","292035","NA","NA","NA","NA","556622","555535","NA","554538","NA","554533","556622","1367","556931","NA","NA","555630","1358","1358","556023","554533","1358","555630","556931","morph21_Oliver/Morris","59","45284","73","yes","1280","14"
"350","81.0810810811","81.0810810811","622.189189189","622.189189189","black","no","xpyriment","legacy","legacy","0","203","NA","uniform","68020","1000","0.0147015583652","1","undefined","1","0","73","73","73","0","73","73","73","NA","73","73","0","73","NA","73","73","0","73","NA","73","NA","73","0","0","73","73","0","73","73","74","z","04/10/18 17:31:23","The main experiment item","yes","FIN__BA__M21__7%3A10%3A17.osexp","C:\Users\ERP Testing Room\Desktop\Joanna\morph21","no","mono","no","18","no","white","no","yes","1080","legacy","73","73","C:/Users/ERP Testing Room/Desktop/Joanna/morph21/subject-127.csv","xpyriment","Jazzy James","3.1.4","0","z","NA","NA","NA","NA","space","z","758","NA","NA","NA","NA","290667","758","2","legacy","1024","2","48000","-16","BA_m21","127","odd","NW_S_COMP","HUMIDOES","1358","559781","558189","551930","292035","NA","NA","NA","NA","559773","558686","NA","557689","NA","557682","559773","1367","560131","NA","NA","558781","1358","1358","559173","557682","1358","558781","560131","morph21_Oliver/Morris","60","46042","74","yes","1280","25"
"300","81.3333333333","81.3333333333","623.626666667","623.626666667","black","no","xpyriment","legacy","legacy","0","202","NA","uniform","73197","1000","0.0136617620941","undefined","undefined","1","0","74","74","74","0","74","74","74","NA","74","74","0","74","NA","74","74","0","74","NA","74","NA","74","0","0","74","74","0","74","74","75","/","04/10/18 17:31:23","The main experiment item","yes","FIN__BA__M21__7%3A10%3A17.osexp","C:\Users\ERP Testing Room\Desktop\Joanna\morph21","no","mono","no","18","no","white","no","yes","1080","legacy","74","74","C:/Users/ERP Testing Room/Desktop/Joanna/morph21/subject-127.csv","xpyriment","Jazzy James","3.1.4","0","space","space","NA","NA","NA","space","/","26937","26937","NA","NA","NA","290667","730","2","legacy","1024","2","48000","-16","BA_m21","127","odd","CW_L","COMPOSER","1358","564381","561281","562873","292035","564690","NA","NA","NA","562864","561778","NA","560781","NA","560776","562864","1367","591629","NA","NA","561873","1358","1358","562264","560776","1358","561873","564681","morph21_Oliver/Morris","61","46772","75","yes","1280","6"
"300","81.5789473684","81.5789473684","622.302631579","622.302631579","black","no","xpyriment","legacy","legacy","0","201","NA","uniform","79499","1000","0.0125787745758","1","undefined","1","0","75","75","75","0","75","75","75","NA","75","75","0","75","NA","75","75","0","75","NA","75","NA","75","0","0","75","75","0","75","75","76","/","04/10/18 17:31:23","The main experiment item","yes","FIN__BA__M21__7%3A10%3A17.osexp","C:\Users\ERP Testing Room\Desktop\Joanna\morph21","no","mono","no","18","no","white","no","yes","1080","legacy","75","75","C:/Users/ERP Testing Room/Desktop/Joanna/morph21/subject-127.csv","xpyriment","Jazzy James","3.1.4","0","/","space","NA","NA","NA","space","/","523","26937","NA","NA","NA","290667","523","2","legacy","1024","2","48000","-16","BA_m21","127","odd","CW_S","MAGICAL","1358","594385","592801","562873","292035","564690","NA","NA","NA","594377","593298","NA","592301","NA","592289","594377","1367","594685","NA","NA","593384","1358","1358","593776","592289","1358","593384","594685","morph21_Oliver/Morris","62","47295","76","yes","1280","4"
"200","81.8181818182","81.8181818182","620.558441558","620.558441558","black","no","xpyriment","legacy","legacy","0","208","NA","uniform","80689","1000","0.0123932630222","1","undefined","1","0","76","76","76","0","76","76","76","NA","76","76","0","76","NA","76","76","0","76","NA","76","NA","76","0","0","76","76","0","76","76","77","z","04/10/18 17:31:23","The main experiment item","yes","FIN__BA__M21__7%3A10%3A17.osexp","C:\Users\ERP Testing Room\Desktop\Joanna\morph21","no","mono","no","18","no","white","no","yes","1080","legacy","76","76","C:/Users/ERP Testing Room/Desktop/Joanna/morph21/subject-127.csv","xpyriment","Jazzy James","3.1.4","0","z","space","NA","NA","NA","space","z","488","26937","NA","NA","NA","290667","488","2","legacy","1024","2","48000","-16","BA_m21","127","odd","FILL_NW","VUNKS","1358","597435","595851","562873","292035","564690","NA","NA","NA","597427","596348","NA","595351","NA","595341","597427","1367","597635","NA","NA","596435","1358","1358","596826","595341","1358","596435","597635","morph21_Oliver/Morris","63","47783","77","yes","1280","49"
"350","82.0512820513","82.0512820513","617.205128205","617.205128205","black","no","xpyriment","legacy","legacy","0","201","NA","uniform","78895","1000","0.0126750744661","1","undefined","1","0","77","77","77","0","77","77","77","NA","77","77","0","77","NA","77","77","0","77","NA","77","NA","77","0","0","77","77","0","77","77","78","/","04/10/18 17:31:23","The main experiment item","yes","FIN__BA__M21__7%3A10%3A17.osexp","C:\Users\ERP Testing Room\Desktop\Joanna\morph21","no","mono","no","18","no","white","no","yes","1080","legacy","77","77","C:/Users/ERP Testing Room/Desktop/Joanna/morph21/subject-127.csv","xpyriment","Jazzy James","3.1.4","0","/","space","NA","NA","NA","space","/","359","26937","NA","NA","NA","290667","359","2","legacy","1024","2","48000","-16","BA_m21","127","odd","CW_S","TEACHER","1358","601968","598868","600460","292035","564690","NA","NA","NA","600453","599365","NA","598368","NA","598360","600453","1367","602318","NA","NA","599460","1358","1358","599851","598360","1358","599460","602318","morph21_Oliver/Morris","64","48142","78","yes","1280","23"
"350","82.2784810127","82.2784810127","617.316455696","617.316455696","black","no","xpyriment","legacy","legacy","0","203","NA","uniform","70750","1000","0.0141342756184","1","undefined","1","0","78","78","78","0","78","78","78","NA","78","78","0","78","NA","78","78","0","78","NA","78","NA","78","0","0","78","78","0","78","78","79","z","04/10/18 17:31:23","The main experiment item","yes","FIN__BA__M21__7%3A10%3A17.osexp","C:\Users\ERP Testing Room\Desktop\Joanna\morph21","no","mono","no","18","no","white","no","yes","1080","legacy","78","78","C:/Users/ERP Testing Room/Desktop/Joanna/morph21/subject-127.csv","xpyriment","Jazzy James","3.1.4","0","z","space","NA","NA","NA","space","z","626","26937","NA","NA","NA","290667","626","2","legacy","1024","2","48000","-16","BA_m21","127","odd","NW_S_COMP","PRINCEMANT","1358","605185","603560","600460","292035","564690","NA","NA","NA","605177","604057","NA","603060","NA","603049","605177","1367","605535","NA","NA","604185","1358","1358","604577","603049","1358","604185","605535","morph21_Oliver/Morris","65","48768","79","yes","1280","17"
"200","81.25","81.25","615.15","615.15","black","no","xpyriment","legacy","legacy","0","205","NA","uniform","75858","1000","0.0131825252445","0","undefined","0","0","79","79","79","0","79","79","79","NA","79","79","0","79","NA","79","79","0","79","NA","79","NA","79","0","0","79","79","0","79","79","80","z","04/10/18 17:31:23","The main experiment item","yes","FIN__BA__M21__7%3A10%3A17.osexp","C:\Users\ERP Testing Room\Desktop\Joanna\morph21","no","mono","no","18","no","white","no","yes","1080","legacy","79","79","C:/Users/ERP Testing Room/Desktop/Joanna/morph21/subject-127.csv","xpyriment","Jazzy James","3.1.4","0","/","space","NA","NA","NA","space","/","444","26937","NA","NA","NA","290667","444","2","legacy","1024","2","48000","-16","BA_m21","127","odd","NW_S_SIMP","NULLISH","1358","608318","606727","600460","292035","564690","NA","NA","NA","605177","607224","NA","606227","NA","606222","608312","1367","608518","NA","NA","607318","1358","1358","607710","606222","1358","607318","608518","morph21_Oliver/Morris","65","49212","80","yes","1280","23"
"400","81.4814814815","81.4814814815","613.111111111","613.111111111","black","no","xpyriment","legacy","legacy","0","202","NA","uniform","75852","1000","0.0131835680008","1","undefined","1","0","80","80","80","0","80","80","80","NA","80","80","0","80","NA","80","80","0","80","NA","80","NA","80","0","0","80","80","0","80","80","81","/","04/10/18 17:31:23","The main experiment item","yes","FIN__BA__M21__7%3A10%3A17.osexp","C:\Users\ERP Testing Room\Desktop\Joanna\morph21","no","mono","no","18","no","white","no","yes","1080","legacy","80","80","C:/Users/ERP Testing Room/Desktop/Joanna/morph21/subject-127.csv","xpyriment","Jazzy James","3.1.4","0","/","space","NA","NA","NA","space","/","450","26937","NA","NA","NA","290667","450","2","legacy","1024","2","48000","-16","BA_m21","127","odd","CW_L","BLINDNESS","1358","612861","609753","611353","292035","564690","NA","NA","NA","611344","610250","NA","609253","NA","609248","611344","1367","613262","NA","NA","610353","1358","1358","610745","609248","1358","610353","613262","morph21_Oliver/Morris","66","49662","81","yes","1280","40"
"350","80.487804878","80.487804878","615.37804878","615.37804878","black","no","xpyriment","legacy","legacy","0","201","NA","uniform","60855","1000","0.0164325034919","0","undefined","0","0","81","81","81","0","81","81","81","NA","81","81","0","81","NA","81","81","0","81","NA","81","NA","81","0","0","81","81","0","81","81","82","/","04/10/18 17:31:23","The main experiment item","yes","FIN__BA__M21__7%3A10%3A17.osexp","C:\Users\ERP Testing Room\Desktop\Joanna\morph21","no","mono","no","18","no","white","no","yes","1080","legacy","81","81","C:/Users/ERP Testing Room/Desktop/Joanna/morph21/subject-127.csv","xpyriment","Jazzy James","3.1.4","0","z","space","NA","NA","NA","space","z","799","26937","NA","NA","NA","290667","799","2","legacy","1024","2","48000","-16","BA_m21","127","odd","CW_S","DULLNESS","1358","616028","614436","611353","292035","564690","NA","NA","NA","611344","614934","NA","613936","NA","613927","616022","1367","616378","NA","NA","615028","1358","1358","615420","613927","1358","615028","616378","morph21_Oliver/Morris","66","50461","82","yes","1280","43"
"400","80.7228915663","80.7228915663","613.469879518","613.469879518","black","no","xpyriment","legacy","legacy","0","202","NA","uniform","71153","1000","0.0140542211853","1","undefined","1","0","82","82","82","0","82","82","82","NA","82","82","0","82","NA","82","82","0","82","NA","82","NA","82","0","0","82","82","0","82","82","83","/","04/10/18 17:31:23","The main experiment item","yes","FIN__BA__M21__7%3A10%3A17.osexp","C:\Users\ERP Testing Room\Desktop\Joanna\morph21","no","mono","no","18","no","white","no","yes","1080","legacy","82","82","C:/Users/ERP Testing Room/Desktop/Joanna/morph21/subject-127.csv","xpyriment","Jazzy James","3.1.4","0","/","space","NA","NA","NA","space","/","457","26937","NA","NA","NA","290667","457","2","legacy","1024","2","48000","-16","BA_m21","127","odd","CW_L","DRYNESS","1358","619178","617553","611353","292035","564690","NA","NA","NA","619172","618050","NA","617053","NA","617045","619172","1367","619578","NA","NA","618178","1358","1358","618570","617045","1358","618178","619578","morph21_Oliver/Morris","67","50918","83","yes","1280","42"
"350","80.9523809524","80.9523809524","611.321428571","611.321428571","black","no","xpyriment","legacy","legacy","0","201","NA","uniform","78204","1000","0.0127870697151","1","undefined","1","0","83","83","83","0","83","83","83","NA","83","83","0","83","NA","83","83","0","83","NA","83","NA","83","0","0","83","83","0","83","83","84","/","04/10/18 17:31:23","The main experiment item","yes","FIN__BA__M21__7%3A10%3A17.osexp","C:\Users\ERP Testing Room\Desktop\Joanna\morph21","no","mono","no","18","no","white","no","yes","1080","legacy","83","83","C:/Users/ERP Testing Room/Desktop/Joanna/morph21/subject-127.csv","xpyriment","Jazzy James","3.1.4","0","/","space","NA","NA","NA","space","/","433","26937","NA","NA","NA","290667","433","2","legacy","1024","2","48000","-16","BA_m21","127","odd","CW_S","RICHNESS","1358","623887","620753","622378","292035","564690","NA","NA","NA","622368","621250","NA","620253","NA","620249","622368","1367","624237","NA","NA","621378","1358","1358","621770","620249","1358","621378","624237","morph21_Oliver/Morris","68","51351","84","yes","1280","45"
"200","81.1764705882","81.1764705882","611.364705882","611.364705882","black","no","xpyriment","legacy","legacy","0","208","NA","uniform","74843","1000","0.0133613029943","1","undefined","1","0","84","84","84","0","84","84","84","NA","84","84","0","84","NA","84","84","0","84","NA","84","NA","84","0","0","84","84","0","84","84","85","z","04/10/18 17:31:23","The main experiment item","yes","FIN__BA__M21__7%3A10%3A17.osexp","C:\Users\ERP Testing Room\Desktop\Joanna\morph21","no","mono","no","18","no","white","no","yes","1080","legacy","84","84","C:/Users/ERP Testing Room/Desktop/Joanna/morph21/subject-127.csv","xpyriment","Jazzy James","3.1.4","0","z","space","NA","NA","NA","space","z","615","26937","NA","NA","NA","290667","615","2","legacy","1024","2","48000","-16","BA_m21","127","odd","FILL_NW","FALONS","1358","626996","625412","622378","292035","564690","NA","NA","NA","626990","625909","NA","624912","NA","624902","626990","1367","627196","NA","NA","625996","1358","1358","626388","624902","1358","625996","627196","morph21_Oliver/Morris","69","51966","85","yes","1280","19"
"350","81.3953488372","81.3953488372","609.162790698","609.162790698","black","no","xpyriment","legacy","legacy","0","202","NA","uniform","74262","1000","0.0134658371711","1","undefined","1","0","85","85","85","0","85","85","85","NA","85","85","0","85","NA","85","85","0","85","NA","85","NA","85","0","0","85","85","0","85","85","86","/","04/10/18 17:31:23","The main experiment item","yes","FIN__BA__M21__7%3A10%3A17.osexp","C:\Users\ERP Testing Room\Desktop\Joanna\morph21","no","mono","no","18","no","white","no","yes","1080","legacy","85","85","C:/Users/ERP Testing Room/Desktop/Joanna/morph21/subject-127.csv","xpyriment","Jazzy James","3.1.4","0","/","space","NA","NA","NA","space","/","422","26937","NA","NA","NA","290667","422","2","legacy","1024","2","48000","-16","BA_m21","127","odd","CW_L","SWIMMER","1358","630005","628388","622378","292035","564690","NA","NA","NA","629998","628885","NA","627888","NA","627884","629998","1367","630355","NA","NA","629005","1358","1358","629396","627884","1358","629005","630355","morph21_Oliver/Morris","70","52388","86","yes","1280","5"
"400","81.6091954023","81.6091954023","608.057471264","608.057471264","black","no","xpyriment","legacy","legacy","0","208","NA","uniform","75939","1000","0.013168464162","1","undefined","1","0","86","86","86","0","86","86","86","NA","86","86","0","86","NA","86","86","0","86","NA","86","NA","86","0","0","86","86","0","86","86","87","z","04/10/18 17:31:23","The main experiment item","yes","FIN__BA__M21__7%3A10%3A17.osexp","C:\Users\ERP Testing Room\Desktop\Joanna\morph21","no","mono","no","18","no","white","no","yes","1080","legacy","86","86","C:/Users/ERP Testing Room/Desktop/Joanna/morph21/subject-127.csv","xpyriment","Jazzy James","3.1.4","0","z","space","NA","NA","NA","space","z","513","26937","NA","NA","NA","290667","513","2","legacy","1024","2","48000","-16","BA_m21","127","odd","FILL_NW","ULNS","1358","634655","631563","633147","292035","564690","NA","NA","NA","633140","632060","NA","631063","NA","631054","633140","1367","635055","NA","NA","632146","1358","1358","632538","631054","1358","632146","635055","morph21_Oliver/Morris","71","52901","87","yes","1280","45"
"300","81.8181818182","81.8181818182","606.056818182","606.056818182","black","no","xpyriment","legacy","legacy","0","207","NA","uniform","84615","1000","0.0118182355374","1","undefined","1","0","87","87","87","0","87","87","87","NA","87","87","0","87","NA","87","87","0","87","NA","87","NA","87","0","0","87","87","0","87","87","88","/","04/10/18 17:31:23","The main experiment item","yes","FIN__BA__M21__7%3A10%3A17.osexp","C:\Users\ERP Testing Room\Desktop\Joanna\morph21","no","mono","no","18","no","white","no","yes","1080","legacy","87","87","C:/Users/ERP Testing Room/Desktop/Joanna/morph21/subject-127.csv","xpyriment","Jazzy James","3.1.4","0","/","space","NA","NA","NA","space","/","432","26937","NA","NA","NA","290667","432","2","legacy","1024","2","48000","-16","BA_m21","127","odd","FILL_W","BALD","1358","637947","636363","633147","292035","564690","NA","NA","NA","637940","636860","NA","635863","NA","635857","637940","1367","638247","NA","NA","636947","1358","1358","637338","635857","1358","636947","638247","morph21_Oliver/Morris","72","53333","88","yes","1280","3"
"300","82.0224719101","82.0224719101","609.449438202","609.449438202","black","no","xpyriment","legacy","legacy","0","205","NA","uniform","67548","1000","0.0148042873216","1","undefined","1","0","88","88","88","0","88","88","88","NA","88","88","0","88","NA","88","88","0","88","NA","88","NA","88","0","0","88","88","0","88","88","89","z","04/10/18 17:31:23","The main experiment item","yes","FIN__BA__M21__7%3A10%3A17.osexp","C:\Users\ERP Testing Room\Desktop\Joanna\morph21","no","mono","no","18","no","white","no","yes","1080","legacy","88","88","C:/Users/ERP Testing Room/Desktop/Joanna/morph21/subject-127.csv","xpyriment","Jazzy James","3.1.4","0","z","space","NA","NA","NA","space","z","908","26937","NA","NA","NA","290667","908","2","legacy","1024","2","48000","-16","BA_m21","127","odd","NW_S_SIMP","HEIRIC","1358","641064","639480","633147","292035","564690","NA","NA","NA","641057","639977","NA","638980","NA","638974","641057","1367","641364","NA","NA","640063","1358","1358","640455","638974","1358","640063","641364","morph21_Oliver/Morris","73","54241","89","yes","1280","3"
"200","82.2222222222","82.2222222222","611.233333333","611.233333333","black","no","xpyriment","legacy","legacy","0","204","NA","uniform","64830","1000","0.0154249575814","1","undefined","1","0","89","89","89","0","89","89","89","NA","89","89","0","89","NA","89","89","0","89","NA","89","NA","89","0","0","89","89","0","89","89","90","z","04/10/18 17:31:23","The main experiment item","yes","FIN__BA__M21__7%3A10%3A17.osexp","C:\Users\ERP Testing Room\Desktop\Joanna\morph21","no","mono","no","18","no","white","no","yes","1080","legacy","89","89","C:/Users/ERP Testing Room/Desktop/Joanna/morph21/subject-127.csv","xpyriment","Jazzy James","3.1.4","0","z","space","NA","NA","NA","space","z","770","26937","NA","NA","NA","290667","770","2","legacy","1024","2","48000","-16","BA_m21","127","odd","NW_L_COMP","PITCHODY","1358","645615","642514","644106","292035","564690","NA","NA","NA","644100","643011","NA","642014","NA","642005","644100","1367","645815","NA","NA","643105","1358","1358","643498","642005","1358","643105","645815","morph21_Oliver/Morris","74","55011","90","yes","1280","25"
"350","82.4175824176","82.4175824176","610.285714286","610.285714286","black","no","xpyriment","legacy","legacy","0","201","NA","uniform","70681","1000","0.0141480737398","1","undefined","1","0","90","90","90","0","90","90","90","NA","90","90","0","90","NA","90","90","0","90","NA","90","NA","90","0","0","90","90","0","90","90","91","/","04/10/18 17:31:23","The main experiment item","yes","FIN__BA__M21__7%3A10%3A17.osexp","C:\Users\ERP Testing Room\Desktop\Joanna\morph21","no","mono","no","18","no","white","no","yes","1080","legacy","90","90","C:/Users/ERP Testing Room/Desktop/Joanna/morph21/subject-127.csv","xpyriment","Jazzy James","3.1.4","0","/","space","NA","NA","NA","space","/","525","26937","NA","NA","NA","290667","525","2","legacy","1024","2","48000","-16","BA_m21","127","odd","CW_S","STRANGENESS","1358","648606","647015","644106","292035","564690","NA","NA","NA","648602","647512","NA","646515","NA","646506","648602","1367","648957","NA","NA","647606","1358","1358","648007","646506","1358","647606","648957","morph21_Oliver/Morris","75","55536","91","yes","1280","46"
