"ITI","acc","accuracy","average_response_time","avg_rt","background","bidi","canvas_backend","clock_backend","color_backend","compensation","cond_trig","condtrigtime","coordinates","coroutines_cycles","coroutines_duration","coroutines_mean_cycle_duration","correct","correct_instructions_1","correct_new_keyboard_response_1","count_BA_m21","count_ITI","count_blank_screen","count_blink_screen","count_block1","count_break1","count_break2","count_break3_1","count_canvas","count_correct_trigger","count_def_chain","count_end_screen","count_fixation_1","count_getting_started","count_inc_counter","count_incorrect_trigger","count_instructions_1","count_logger","count_logscript","count_new_coroutines","count_new_inline_script","count_new_keyboard_response_1","count_reset_counter_prep","count_reset_counter_run","count_responsescreen","count_sequence","count_start_trigger","count_target_present","count_word_trigger","counter","cresp","datetime","description","disable_garbage_collection","experiment_file","experiment_path","font_bold","font_family","font_italic","font_size","font_underline","foreground","form_clicks","fullscreen","height","keyboard_backend","live_row","live_row_block1","logfile","mouse_backend","opensesame_codename","opensesame_version","repeat_cycle","response","response_break1","response_break2","response_break3_1","response_end_screen","response_instructions_1","response_new_keyboard_response_1","response_time","response_time_break1","response_time_break2","response_time_break3_1","response_time_end_screen","response_time_instructions_1","response_time_new_keyboard_response_1","round_decimals","sampler_backend","sound_buf_size","sound_channels","sound_freq","sound_sample_size","start","subject_nr","subject_parity","targ_type","target","time_BA_m21","time_ITI","time_blank_screen","time_blink_screen","time_block1","time_break1","time_break2","time_break3_1","time_canvas","time_correct_trigger","time_def_chain","time_end_screen","time_fixation_1","time_getting_started","time_inc_counter","time_incorrect_trigger","time_instructions_1","time_logger","time_logscript","time_new_inline_script","time_new_keyboard_response_1","time_reset_counter_prep","time_reset_counter_run","time_responsescreen","time_sequence","time_start_trigger","time_target_present","time_word_trigger","title","total_correct","total_response_time","total_responses","uniform_coordinates","width","word_trig"
"250","100","100","910","910","black","no","xpyriment","legacy","legacy","0","207","NA","uniform","60844","1000","0.0164354743278","1","undefined","1","0","0","0","0","0","0","0","0","NA","0","0","0","0","NA","0","0","0","0","NA","0","NA","0","0","0","0","0","0","0","0","1","/","02/15/18 13:46:25","The main experiment item","yes","FIN__BA__M21__7%3A10%3A17.osexp","C:\Users\ERP Testing Room\Desktop\Joanna\morph21","no","mono","no","18","no","white","no","yes","1080","legacy","0","0","C:/Users/ERP Testing Room/Desktop/Joanna/morph21/subject-125.csv","xpyriment","Jazzy James","3.1.4","0","/","NA","NA","NA","NA","space","/","910","NA","NA","NA","NA","239015","910","2","legacy","1024","2","48000","-16","BA_m21","125","odd","FILL_W","PREACH","1358","243310","241710","NA","240381","NA","NA","NA","NA","243303","242207","NA","241205","NA","241139","243303","1366","243560","NA","NA","242310","1358","1358","242702","241138","1358","242310","243560","morph21_Oliver/Morris","1","910","1","yes","1280","7"
"250","100","100","904.5","904.5","black","no","xpyriment","legacy","legacy","0","203","NA","uniform","54890","1000","0.0182182546912","1","undefined","1","0","1","1","1","0","1","1","1","NA","1","1","0","1","NA","1","1","0","1","NA","1","NA","1","0","0","1","1","0","1","1","2","z","02/15/18 13:46:25","The main experiment item","yes","FIN__BA__M21__7%3A10%3A17.osexp","C:\Users\ERP Testing Room\Desktop\Joanna\morph21","no","mono","no","18","no","white","no","yes","1080","legacy","1","1","C:/Users/ERP Testing Room/Desktop/Joanna/morph21/subject-125.csv","xpyriment","Jazzy James","3.1.4","0","z","NA","NA","NA","NA","space","z","899","NA","NA","NA","NA","239015","899","2","legacy","1024","2","48000","-16","BA_m21","125","odd","NW_S_COMP","BRANCHEL","1358","246577","244936","NA","240381","NA","NA","NA","NA","246567","245433","NA","244435","NA","244428","246567","1366","246827","NA","NA","245577","1358","1358","245969","244428","1358","245577","246827","morph21_Oliver/Morris","2","1809","2","yes","1280","16"
"200","66.6666666667","66.6666666667","790","790","black","no","xpyriment","legacy","legacy","0","205","NA","uniform","79664","1000","0.01255272143","0","undefined","0","0","2","2","2","0","2","2","2","NA","2","2","0","2","NA","2","2","0","2","NA","2","NA","2","0","0","2","2","0","2","2","3","z","02/15/18 13:46:25","The main experiment item","yes","FIN__BA__M21__7%3A10%3A17.osexp","C:\Users\ERP Testing Room\Desktop\Joanna\morph21","no","mono","no","18","no","white","no","yes","1080","legacy","2","2","C:/Users/ERP Testing Room/Desktop/Joanna/morph21/subject-125.csv","xpyriment","Jazzy James","3.1.4","0","/","NA","NA","NA","NA","space","/","561","NA","NA","NA","NA","239015","561","2","legacy","1024","2","48000","-16","BA_m21","125","odd","NW_S_SIMP","THRILLANCE","1358","251320","248202","249812","240381","NA","NA","NA","NA","246567","248699","NA","247702","NA","247697","249805","1366","251520","NA","NA","248812","1358","1358","249203","247697","1358","248812","251520","morph21_Oliver/Morris","2","2370","3","yes","1280","22"
"250","75","75","801.5","801.5","black","no","xpyriment","legacy","legacy","0","208","NA","uniform","60468","1000","0.0165376728187","1","undefined","1","0","3","3","3","0","3","3","3","NA","3","3","0","3","NA","3","3","0","3","NA","3","NA","3","0","0","3","3","0","3","3","4","z","02/15/18 13:46:25","The main experiment item","yes","FIN__BA__M21__7%3A10%3A17.osexp","C:\Users\ERP Testing Room\Desktop\Joanna\morph21","no","mono","no","18","no","white","no","yes","1080","legacy","3","3","C:/Users/ERP Testing Room/Desktop/Joanna/morph21/subject-125.csv","xpyriment","Jazzy James","3.1.4","0","z","NA","NA","NA","NA","space","z","836","NA","NA","NA","NA","239015","836","2","legacy","1024","2","48000","-16","BA_m21","125","odd","FILL_NW","LOLDS","1358","254320","252745","249812","240381","NA","NA","NA","NA","254318","253242","NA","252245","NA","252240","254318","1366","254570","NA","NA","253329","1358","1358","253720","252240","1358","253328","254570","morph21_Oliver/Morris","3","3206","4","yes","1280","34"
"250","80","80","759.8","759.8","black","no","xpyriment","legacy","legacy","0","201","NA","uniform","73578","1000","0.0135910190546","1","undefined","1","0","4","4","4","0","4","4","4","NA","4","4","0","4","NA","4","4","0","4","NA","4","NA","4","0","0","4","4","0","4","4","5","/","02/15/18 13:46:25","The main experiment item","yes","FIN__BA__M21__7%3A10%3A17.osexp","C:\Users\ERP Testing Room\Desktop\Joanna\morph21","no","mono","no","18","no","white","no","yes","1080","legacy","4","4","C:/Users/ERP Testing Room/Desktop/Joanna/morph21/subject-125.csv","xpyriment","Jazzy James","3.1.4","0","/","NA","NA","NA","NA","space","/","593","NA","NA","NA","NA","239015","593","2","legacy","1024","2","48000","-16","BA_m21","125","odd","CW_S","PEAKING","1358","257420","255795","249812","240381","NA","NA","NA","NA","257416","256292","NA","255295","NA","255288","257416","1366","257670","NA","NA","256420","1358","1358","256820","255288","1358","256420","257670","morph21_Oliver/Morris","4","3799","5","yes","1280","28"
"200","83.3333333333","83.3333333333","748.833333333","748.833333333","black","no","xpyriment","legacy","legacy","0","203","NA","uniform","66315","1000","0.0150795445978","1","undefined","1","0","5","5","5","0","5","5","5","NA","5","5","0","5","NA","5","5","0","5","NA","5","NA","5","0","0","5","5","0","5","5","6","z","02/15/18 13:46:25","The main experiment item","yes","FIN__BA__M21__7%3A10%3A17.osexp","C:\Users\ERP Testing Room\Desktop\Joanna\morph21","no","mono","no","18","no","white","no","yes","1080","legacy","5","5","C:/Users/ERP Testing Room/Desktop/Joanna/morph21/subject-125.csv","xpyriment","Jazzy James","3.1.4","0","z","NA","NA","NA","NA","space","z","694","NA","NA","NA","NA","239015","694","2","legacy","1024","2","48000","-16","BA_m21","125","odd","NW_S_COMP","YANKODY","1358","262004","258904","260496","240381","NA","NA","NA","NA","260490","259401","NA","258404","NA","258399","260490","1366","262204","NA","NA","259495","1358","1358","259887","258399","1358","259495","262204","morph21_Oliver/Morris","5","4493","6","yes","1280","23"
"250","85.7142857143","85.7142857143","713.285714286","713.285714286","black","no","xpyriment","legacy","legacy","0","202","NA","uniform","72425","1000","0.013807386952","1","undefined","1","0","6","6","6","0","6","6","6","NA","6","6","0","6","NA","6","6","0","6","NA","6","NA","6","0","0","6","6","0","6","6","7","/","02/15/18 13:46:25","The main experiment item","yes","FIN__BA__M21__7%3A10%3A17.osexp","C:\Users\ERP Testing Room\Desktop\Joanna\morph21","no","mono","no","18","no","white","no","yes","1080","legacy","6","6","C:/Users/ERP Testing Room/Desktop/Joanna/morph21/subject-125.csv","xpyriment","Jazzy James","3.1.4","0","/","NA","NA","NA","NA","space","/","500","NA","NA","NA","NA","239015","500","2","legacy","1024","2","48000","-16","BA_m21","125","odd","CW_L","LAUGHING","1358","265112","263496","260496","240381","NA","NA","NA","NA","265103","263993","NA","262996","NA","262984","265103","1366","265362","NA","NA","264112","1358","1358","264504","262984","1358","264112","265362","morph21_Oliver/Morris","6","4993","7","yes","1280","27"
"400","75","75","748.5","748.5","black","no","xpyriment","legacy","legacy","0","208","NA","uniform","58421","1000","0.017117132538","0","undefined","0","0","7","7","7","0","7","7","7","NA","7","7","0","7","NA","7","7","0","7","NA","7","NA","7","0","0","7","7","0","7","7","8","z","02/15/18 13:46:25","The main experiment item","yes","FIN__BA__M21__7%3A10%3A17.osexp","C:\Users\ERP Testing Room\Desktop\Joanna\morph21","no","mono","no","18","no","white","no","yes","1080","legacy","7","7","C:/Users/ERP Testing Room/Desktop/Joanna/morph21/subject-125.csv","xpyriment","Jazzy James","3.1.4","0","None","NA","NA","NA","NA","space","None","995","NA","NA","NA","NA","239015","995","2","legacy","1024","2","48000","-16","BA_m21","125","odd","FILL_NW","VELT","1358","268230","266622","260496","240381","NA","NA","NA","NA","265103","267119","NA","266122","NA","266118","268225","1366","268630","NA","NA","267230","1358","1358","267630","266118","1358","267230","268630","morph21_Oliver/Morris","6","5988","8","yes","1280","46"
"400","77.7777777778","77.7777777778","734.888888889","734.888888889","black","no","xpyriment","legacy","legacy","0","202","NA","uniform","72998","1000","0.0136990054522","1","undefined","1","0","8","8","8","0","8","8","8","NA","8","8","0","8","NA","8","8","0","8","NA","8","NA","8","0","0","8","8","0","8","8","9","/","02/15/18 13:46:25","The main experiment item","yes","FIN__BA__M21__7%3A10%3A17.osexp","C:\Users\ERP Testing Room\Desktop\Joanna\morph21","no","mono","no","18","no","white","no","yes","1080","legacy","8","8","C:/Users/ERP Testing Room/Desktop/Joanna/morph21/subject-125.csv","xpyriment","Jazzy James","3.1.4","0","/","NA","NA","NA","NA","space","/","626","NA","NA","NA","NA","239015","626","2","legacy","1024","2","48000","-16","BA_m21","125","odd","CW_L","LOCKER","1358","273055","269922","271547","240381","NA","NA","NA","NA","271543","270419","NA","269422","NA","269418","271543","1366","273456","NA","NA","270547","1358","1358","270947","269418","1358","270547","273456","morph21_Oliver/Morris","7","6614","9","yes","1280","8"
"250","80","80","715.4","715.4","black","no","xpyriment","legacy","legacy","0","202","NA","uniform","74446","1000","0.0134325551406","1","undefined","1","0","9","9","9","0","9","9","9","NA","9","9","0","9","NA","9","9","0","9","NA","9","NA","9","0","0","9","9","0","9","9","10","/","02/15/18 13:46:25","The main experiment item","yes","FIN__BA__M21__7%3A10%3A17.osexp","C:\Users\ERP Testing Room\Desktop\Joanna\morph21","no","mono","no","18","no","white","no","yes","1080","legacy","9","9","C:/Users/ERP Testing Room/Desktop/Joanna/morph21/subject-125.csv","xpyriment","Jazzy James","3.1.4","0","/","NA","NA","NA","NA","space","/","540","NA","NA","NA","NA","239015","540","2","legacy","1024","2","48000","-16","BA_m21","125","odd","CW_L","STRIKER","1358","276297","274689","271547","240381","NA","NA","NA","NA","276288","275186","NA","274189","NA","274184","276288","1366","276547","NA","NA","275297","1358","1358","275689","274184","1358","275297","276547","morph21_Oliver/Morris","8","7154","10","yes","1280","17"
"250","81.8181818182","81.8181818182","697.363636364","697.363636364","black","no","xpyriment","legacy","legacy","0","201","NA","uniform","73040","1000","0.013691128149","1","undefined","1","0","10","10","10","0","10","10","10","NA","10","10","0","10","NA","10","10","0","10","NA","10","NA","10","0","0","10","10","0","10","10","11","/","02/15/18 13:46:25","The main experiment item","yes","FIN__BA__M21__7%3A10%3A17.osexp","C:\Users\ERP Testing Room\Desktop\Joanna\morph21","no","mono","no","18","no","white","no","yes","1080","legacy","10","10","C:/Users/ERP Testing Room/Desktop/Joanna/morph21/subject-125.csv","xpyriment","Jazzy James","3.1.4","0","/","NA","NA","NA","NA","space","/","517","NA","NA","NA","NA","239015","517","2","legacy","1024","2","48000","-16","BA_m21","125","odd","CW_S","JAILER","1358","279456","277847","271547","240381","NA","NA","NA","NA","279445","278344","NA","277347","NA","277341","279445","1366","279706","NA","NA","278456","1358","1358","278847","277341","1358","278456","279706","morph21_Oliver/Morris","9","7671","11","yes","1280","13"
"350","83.3333333333","83.3333333333","688.5","688.5","black","no","xpyriment","legacy","legacy","0","202","NA","uniform","68853","1000","0.0145236954091","1","undefined","1","0","11","11","11","0","11","11","11","NA","11","11","0","11","NA","11","11","0","11","NA","11","NA","11","0","0","11","11","0","11","11","12","/","02/15/18 13:46:25","The main experiment item","yes","FIN__BA__M21__7%3A10%3A17.osexp","C:\Users\ERP Testing Room\Desktop\Joanna\morph21","no","mono","no","18","no","white","no","yes","1080","legacy","11","11","C:/Users/ERP Testing Room/Desktop/Joanna/morph21/subject-125.csv","xpyriment","Jazzy James","3.1.4","0","/","NA","NA","NA","NA","space","/","591","NA","NA","NA","NA","239015","591","2","legacy","1024","2","48000","-16","BA_m21","125","odd","CW_L","FEEDER","1358","284090","280972","282581","240381","NA","NA","NA","NA","282574","281470","NA","280472","NA","280467","282574","1366","284440","NA","NA","281581","1358","1358","281972","280467","1358","281581","284440","morph21_Oliver/Morris","10","8262","12","yes","1280","14"
"350","84.6153846154","84.6153846154","688","688","black","no","xpyriment","legacy","legacy","0","205","NA","uniform","67112","1000","0.0149004648945","1","undefined","1","0","12","12","12","0","12","12","12","NA","12","12","0","12","NA","12","12","0","12","NA","12","NA","12","0","0","12","12","0","12","12","13","z","02/15/18 13:46:25","The main experiment item","yes","FIN__BA__M21__7%3A10%3A17.osexp","C:\Users\ERP Testing Room\Desktop\Joanna\morph21","no","mono","no","18","no","white","no","yes","1080","legacy","12","12","C:/Users/ERP Testing Room/Desktop/Joanna/morph21/subject-125.csv","xpyriment","Jazzy James","3.1.4","0","z","NA","NA","NA","NA","space","z","682","NA","NA","NA","NA","239015","682","2","legacy","1024","2","48000","-16","BA_m21","125","odd","NW_S_SIMP","BASKORY","1358","287315","285707","282581","240381","NA","NA","NA","NA","287306","286204","NA","285207","NA","285196","287306","1366","287666","NA","NA","286315","1358","1358","286707","285196","1358","286315","287666","morph21_Oliver/Morris","11","8944","13","yes","1280","10"
"200","85.7142857143","85.7142857143","675.071428571","675.071428571","black","no","xpyriment","legacy","legacy","0","202","NA","uniform","77394","1000","0.0129208982608","1","undefined","1","0","13","13","13","0","13","13","13","NA","13","13","0","13","NA","13","13","0","13","NA","13","NA","13","0","0","13","13","0","13","13","14","/","02/15/18 13:46:25","The main experiment item","yes","FIN__BA__M21__7%3A10%3A17.osexp","C:\Users\ERP Testing Room\Desktop\Joanna\morph21","no","mono","no","18","no","white","no","yes","1080","legacy","13","13","C:/Users/ERP Testing Room/Desktop/Joanna/morph21/subject-125.csv","xpyriment","Jazzy James","3.1.4","0","/","NA","NA","NA","NA","space","/","507","NA","NA","NA","NA","239015","507","2","legacy","1024","2","48000","-16","BA_m21","125","odd","CW_L","COLLECTOR","1358","290474","288890","282581","240381","NA","NA","NA","NA","290469","289388","NA","288390","NA","288383","290469","1366","290674","NA","NA","289474","1358","1358","289874","288383","1358","289474","290674","morph21_Oliver/Morris","12","9451","14","yes","1280","46"
"200","86.6666666667","86.6666666667","664.066666667","664.066666667","black","no","xpyriment","legacy","legacy","0","207","NA","uniform","79360","1000","0.0126008064516","1","undefined","1","0","14","14","14","0","14","14","14","NA","14","14","0","14","NA","14","14","0","14","NA","14","NA","14","0","0","14","14","0","14","14","15","/","02/15/18 13:46:25","The main experiment item","yes","FIN__BA__M21__7%3A10%3A17.osexp","C:\Users\ERP Testing Room\Desktop\Joanna\morph21","no","mono","no","18","no","white","no","yes","1080","legacy","14","14","C:/Users/ERP Testing Room/Desktop/Joanna/morph21/subject-125.csv","xpyriment","Jazzy James","3.1.4","0","/","NA","NA","NA","NA","space","/","510","NA","NA","NA","NA","239015","510","2","legacy","1024","2","48000","-16","BA_m21","125","odd","FILL_W","LEGAL","1358","295099","292007","293591","240381","NA","NA","NA","NA","293586","292504","NA","291507","NA","291497","293586","1366","295299","NA","NA","292591","1358","1358","292991","291497","1358","292591","295299","morph21_Oliver/Morris","13","9961","15","yes","1280","35"
"300","87.5","87.5","656.625","656.625","black","no","xpyriment","legacy","legacy","0","207","NA","uniform","77738","1000","0.012863721732","1","undefined","1","0","15","15","15","0","15","15","15","NA","15","15","0","15","NA","15","15","0","15","NA","15","NA","15","0","0","15","15","0","15","15","16","/","02/15/18 13:46:25","The main experiment item","yes","FIN__BA__M21__7%3A10%3A17.osexp","C:\Users\ERP Testing Room\Desktop\Joanna\morph21","no","mono","no","18","no","white","no","yes","1080","legacy","15","15","C:/Users/ERP Testing Room/Desktop/Joanna/morph21/subject-125.csv","xpyriment","Jazzy James","3.1.4","0","/","NA","NA","NA","NA","space","/","545","NA","NA","NA","NA","239015","545","2","legacy","1024","2","48000","-16","BA_m21","125","odd","FILL_W","MOURN","1358","298107","296499","293591","240381","NA","NA","NA","NA","298102","296996","NA","295999","NA","295996","298102","1366","298408","NA","NA","297107","1358","1358","297499","295996","1358","297107","298408","morph21_Oliver/Morris","14","10506","16","yes","1280","26"
"400","88.2352941176","88.2352941176","661.176470588","661.176470588","black","no","xpyriment","legacy","legacy","0","206","NA","uniform","69820","1000","0.0143225436838","1","undefined","1","0","16","16","16","0","16","16","16","NA","16","16","0","16","NA","16","16","0","16","NA","16","NA","16","0","0","16","16","0","16","16","17","z","02/15/18 13:46:25","The main experiment item","yes","FIN__BA__M21__7%3A10%3A17.osexp","C:\Users\ERP Testing Room\Desktop\Joanna\morph21","no","mono","no","18","no","white","no","yes","1080","legacy","16","16","C:/Users/ERP Testing Room/Desktop/Joanna/morph21/subject-125.csv","xpyriment","Jazzy James","3.1.4","0","z","NA","NA","NA","NA","space","z","734","NA","NA","NA","NA","239015","734","2","legacy","1024","2","48000","-16","BA_m21","125","odd","NW_L_SIMP","POORITY","1358","301184","299599","293591","240381","NA","NA","NA","NA","301180","300096","NA","299099","NA","299094","301180","1366","301584","NA","NA","300191","1358","1358","300583","299094","1358","300191","301584","morph21_Oliver/Morris","15","11240","17","yes","1280","13"
"200","88.8888888889","88.8888888889","658.722222222","658.722222222","black","no","xpyriment","legacy","legacy","0","207","NA","uniform","77895","1000","0.0128377944669","1","undefined","1","0","17","17","17","0","17","17","17","NA","17","17","0","17","NA","17","17","0","17","NA","17","NA","17","0","0","17","17","0","17","17","18","/","02/15/18 13:46:25","The main experiment item","yes","FIN__BA__M21__7%3A10%3A17.osexp","C:\Users\ERP Testing Room\Desktop\Joanna\morph21","no","mono","no","18","no","white","no","yes","1080","legacy","17","17","C:/Users/ERP Testing Room/Desktop/Joanna/morph21/subject-125.csv","xpyriment","Jazzy James","3.1.4","0","/","NA","NA","NA","NA","space","/","617","NA","NA","NA","NA","239015","617","2","legacy","1024","2","48000","-16","BA_m21","125","odd","FILL_W","BLEAK","1358","306009","302892","304500","240381","NA","NA","NA","NA","304495","303389","NA","302392","NA","302385","304495","1366","306209","NA","NA","303500","1358","1358","303892","302385","1358","303500","306209","morph21_Oliver/Morris","16","11857","18","yes","1280","5"
"250","89.4736842105","89.4736842105","653.947368421","653.947368421","black","no","xpyriment","legacy","legacy","0","202","NA","uniform","68559","1000","0.0145859770417","1","undefined","1","0","18","18","18","0","18","18","18","NA","18","18","0","18","NA","18","18","0","18","NA","18","NA","18","0","0","18","18","0","18","18","19","/","02/15/18 13:46:25","The main experiment item","yes","FIN__BA__M21__7%3A10%3A17.osexp","C:\Users\ERP Testing Room\Desktop\Joanna\morph21","no","mono","no","18","no","white","no","yes","1080","legacy","18","18","C:/Users/ERP Testing Room/Desktop/Joanna/morph21/subject-125.csv","xpyriment","Jazzy James","3.1.4","0","/","NA","NA","NA","NA","space","/","568","NA","NA","NA","NA","239015","568","2","legacy","1024","2","48000","-16","BA_m21","125","odd","CW_L","DEAFNESS","1358","309109","307517","304500","240381","NA","NA","NA","NA","309103","308014","NA","307017","NA","307011","309103","1366","309359","NA","NA","308109","1358","1358","308501","307011","1358","308109","309359","morph21_Oliver/Morris","17","12425","19","yes","1280","39"
"350","85","85","659.9","659.9","black","no","xpyriment","legacy","legacy","0","202","NA","uniform","71663","1000","0.013954202308","0","undefined","0","0","19","19","19","0","19","19","19","NA","19","19","0","19","NA","19","19","0","19","NA","19","NA","19","0","0","19","19","0","19","19","20","/","02/15/18 13:46:25","The main experiment item","yes","FIN__BA__M21__7%3A10%3A17.osexp","C:\Users\ERP Testing Room\Desktop\Joanna\morph21","no","mono","no","18","no","white","no","yes","1080","legacy","19","19","C:/Users/ERP Testing Room/Desktop/Joanna/morph21/subject-125.csv","xpyriment","Jazzy James","3.1.4","0","z","NA","NA","NA","NA","space","z","773","NA","NA","NA","NA","239015","773","2","legacy","1024","2","48000","-16","BA_m21","125","odd","CW_L","GUILELESS","1358","312176","310567","304500","240381","NA","NA","NA","NA","309103","311065","NA","310067","NA","310058","312171","1366","312526","NA","NA","311176","1358","1358","311576","310058","1358","311176","312526","morph21_Oliver/Morris","17","13198","20","yes","1280","31"
"400","85.7142857143","85.7142857143","652.428571429","652.428571429","black","no","xpyriment","legacy","legacy","0","202","NA","uniform","77560","1000","0.0128932439402","1","undefined","1","0","20","20","20","0","20","20","20","NA","20","20","0","20","NA","20","20","0","20","NA","20","NA","20","0","0","20","20","0","20","20","21","/","02/15/18 13:46:25","The main experiment item","yes","FIN__BA__M21__7%3A10%3A17.osexp","C:\Users\ERP Testing Room\Desktop\Joanna\morph21","no","mono","no","18","no","white","no","yes","1080","legacy","20","20","C:/Users/ERP Testing Room/Desktop/Joanna/morph21/subject-125.csv","xpyriment","Jazzy James","3.1.4","0","/","NA","NA","NA","NA","space","/","503","NA","NA","NA","NA","239015","503","2","legacy","1024","2","48000","-16","BA_m21","125","odd","CW_L","DRYNESS","1358","316801","313701","315293","240381","NA","NA","NA","NA","315287","314198","NA","313201","NA","313197","315287","1366","317201","NA","NA","314293","1358","1358","314684","313197","1358","314293","317201","morph21_Oliver/Morris","18","13701","21","yes","1280","42"
"350","86.3636363636","86.3636363636","649.772727273","649.772727273","black","no","xpyriment","legacy","legacy","0","202","NA","uniform","73807","1000","0.01354885038","1","undefined","1","0","21","21","21","0","21","21","21","NA","21","21","0","21","NA","21","21","0","21","NA","21","NA","21","0","0","21","21","0","21","21","22","/","02/15/18 13:46:25","The main experiment item","yes","FIN__BA__M21__7%3A10%3A17.osexp","C:\Users\ERP Testing Room\Desktop\Joanna\morph21","no","mono","no","18","no","white","no","yes","1080","legacy","21","21","C:/Users/ERP Testing Room/Desktop/Joanna/morph21/subject-125.csv","xpyriment","Jazzy James","3.1.4","0","/","NA","NA","NA","NA","space","/","594","NA","NA","NA","NA","239015","594","2","legacy","1024","2","48000","-16","BA_m21","125","odd","CW_L","KICKING","1358","320035","318427","315293","240381","NA","NA","NA","NA","320027","318924","NA","317926","NA","317915","320027","1366","320386","NA","NA","319035","1358","1358","319427","317915","1358","319035","320386","morph21_Oliver/Morris","19","14295","22","yes","1280","23"
"400","86.9565217391","86.9565217391","649.826086957","649.826086957","black","no","xpyriment","legacy","legacy","0","207","NA","uniform","76073","1000","0.0131452683607","1","undefined","1","0","22","22","22","0","22","22","22","NA","22","22","0","22","NA","22","22","0","22","NA","22","NA","22","0","0","22","22","0","22","22","23","/","02/15/18 13:46:25","The main experiment item","yes","FIN__BA__M21__7%3A10%3A17.osexp","C:\Users\ERP Testing Room\Desktop\Joanna\morph21","no","mono","no","18","no","white","no","yes","1080","legacy","22","22","C:/Users/ERP Testing Room/Desktop/Joanna/morph21/subject-125.csv","xpyriment","Jazzy James","3.1.4","0","/","NA","NA","NA","NA","space","/","651","NA","NA","NA","NA","239015","651","2","legacy","1024","2","48000","-16","BA_m21","125","odd","FILL_W","CRUNCH","1358","323186","321552","315293","240381","NA","NA","NA","NA","323178","322049","NA","321052","NA","321044","323178","1366","323586","NA","NA","322186","1358","1358","322577","321044","1358","322186","323586","morph21_Oliver/Morris","20","14946","23","yes","1280","20"
"400","87.5","87.5","648.416666667","648.416666667","black","no","xpyriment","legacy","legacy","0","201","NA","uniform","67018","1000","0.0149213644096","1","undefined","1","0","23","23","23","0","23","23","23","NA","23","23","0","23","NA","23","23","0","23","NA","23","NA","23","0","0","23","23","0","23","23","24","/","02/15/18 13:46:25","The main experiment item","yes","FIN__BA__M21__7%3A10%3A17.osexp","C:\Users\ERP Testing Room\Desktop\Joanna\morph21","no","mono","no","18","no","white","no","yes","1080","legacy","23","23","C:/Users/ERP Testing Room/Desktop/Joanna/morph21/subject-125.csv","xpyriment","Jazzy James","3.1.4","0","/","NA","NA","NA","NA","space","/","616","NA","NA","NA","NA","239015","616","2","legacy","1024","2","48000","-16","BA_m21","125","odd","CW_S","DIETARY","1358","327969","324861","326461","240381","NA","NA","NA","NA","326457","325358","NA","324361","NA","324352","326457","1366","328369","NA","NA","325461","1358","1358","325861","324352","1358","325461","328369","morph21_Oliver/Morris","21","15562","24","yes","1280","6"
"350","88","88","648.12","648.12","black","no","xpyriment","legacy","legacy","0","208","NA","uniform","67915","1000","0.0147242877126","1","undefined","1","0","24","24","24","0","24","24","24","NA","24","24","0","24","NA","24","24","0","24","NA","24","NA","24","0","0","24","24","0","24","24","25","z","02/15/18 13:46:25","The main experiment item","yes","FIN__BA__M21__7%3A10%3A17.osexp","C:\Users\ERP Testing Room\Desktop\Joanna\morph21","no","mono","no","18","no","white","no","yes","1080","legacy","24","24","C:/Users/ERP Testing Room/Desktop/Joanna/morph21/subject-125.csv","xpyriment","Jazzy James","3.1.4","0","z","NA","NA","NA","NA","space","z","641","NA","NA","NA","NA","239015","641","2","legacy","1024","2","48000","-16","BA_m21","125","odd","FILL_NW","DOADS","1358","331236","329603","326461","240381","NA","NA","NA","NA","331229","330100","NA","329103","NA","329097","331229","1366","331586","NA","NA","330236","1358","1358","330628","329097","1358","330236","331586","morph21_Oliver/Morris","22","16203","25","yes","1280","15"
"250","88.4615384615","88.4615384615","650","650","black","no","xpyriment","legacy","legacy","0","204","NA","uniform","68354","1000","0.0146297217427","1","undefined","1","0","25","25","25","0","25","25","25","NA","25","25","0","25","NA","25","25","0","25","NA","25","NA","25","0","0","25","25","0","25","25","26","z","02/15/18 13:46:25","The main experiment item","yes","FIN__BA__M21__7%3A10%3A17.osexp","C:\Users\ERP Testing Room\Desktop\Joanna\morph21","no","mono","no","18","no","white","no","yes","1080","legacy","25","25","C:/Users/ERP Testing Room/Desktop/Joanna/morph21/subject-125.csv","xpyriment","Jazzy James","3.1.4","0","z","NA","NA","NA","NA","space","z","697","NA","NA","NA","NA","239015","697","2","legacy","1024","2","48000","-16","BA_m21","125","odd","NW_L_COMP","FREENELS","1358","334411","332786","326461","240381","NA","NA","NA","NA","334402","333283","NA","332286","NA","332283","334402","1366","334661","NA","NA","333411","1358","1358","333803","332283","1358","333411","334661","morph21_Oliver/Morris","23","16900","26","yes","1280","15"
"400","85.1851851852","85.1851851852","645.259259259","645.259259259","black","no","xpyriment","legacy","legacy","0","204","NA","uniform","72969","1000","0.0137044498349","0","undefined","0","0","26","26","26","0","26","26","26","NA","26","26","0","26","NA","26","26","0","26","NA","26","NA","26","0","0","26","26","0","26","26","27","z","02/15/18 13:46:25","The main experiment item","yes","FIN__BA__M21__7%3A10%3A17.osexp","C:\Users\ERP Testing Room\Desktop\Joanna\morph21","no","mono","no","18","no","white","no","yes","1080","legacy","26","26","C:/Users/ERP Testing Room/Desktop/Joanna/morph21/subject-125.csv","xpyriment","Jazzy James","3.1.4","0","/","NA","NA","NA","NA","space","/","522","NA","NA","NA","NA","239015","522","2","legacy","1024","2","48000","-16","BA_m21","125","odd","NW_L_COMP","BOIL","1358","339087","335987","337579","240381","NA","NA","NA","NA","334402","336484","NA","335486","NA","335478","337572","1366","339488","NA","NA","336579","1358","1358","336971","335478","1358","336579","339488","morph21_Oliver/Morris","23","17422","27","yes","1280","18"
"400","85.7142857143","85.7142857143","648.214285714","648.214285714","black","no","xpyriment","legacy","legacy","0","206","NA","uniform","72784","1000","0.013739283359","1","undefined","1","0","27","27","27","0","27","27","27","NA","27","27","0","27","NA","27","27","0","27","NA","27","NA","27","0","0","27","27","0","27","27","28","z","02/15/18 13:46:25","The main experiment item","yes","FIN__BA__M21__7%3A10%3A17.osexp","C:\Users\ERP Testing Room\Desktop\Joanna\morph21","no","mono","no","18","no","white","no","yes","1080","legacy","27","27","C:/Users/ERP Testing Room/Desktop/Joanna/morph21/subject-125.csv","xpyriment","Jazzy James","3.1.4","0","z","NA","NA","NA","NA","space","z","728","NA","NA","NA","NA","239015","728","2","legacy","1024","2","48000","-16","BA_m21","125","odd","NW_L_SIMP","BLOODER","1358","342429","340821","337579","240381","NA","NA","NA","NA","342423","341318","NA","340321","NA","340315","342423","1366","342829","NA","NA","341429","1358","1358","341821","340315","1358","341429","342829","morph21_Oliver/Morris","24","18150","28","yes","1280","24"
"400","86.2068965517","86.2068965517","652.172413793","652.172413793","black","no","xpyriment","legacy","legacy","0","208","NA","uniform","63530","1000","0.0157405949945","1","undefined","1","0","28","28","28","0","28","28","28","NA","28","28","0","28","NA","28","28","0","28","NA","28","NA","28","0","0","28","28","0","28","28","29","z","02/15/18 13:46:25","The main experiment item","yes","FIN__BA__M21__7%3A10%3A17.osexp","C:\Users\ERP Testing Room\Desktop\Joanna\morph21","no","mono","no","18","no","white","no","yes","1080","legacy","28","28","C:/Users/ERP Testing Room/Desktop/Joanna/morph21/subject-125.csv","xpyriment","Jazzy James","3.1.4","0","z","NA","NA","NA","NA","space","z","763","NA","NA","NA","NA","239015","763","2","legacy","1024","2","48000","-16","BA_m21","125","odd","FILL_NW","BUTE","1358","345754","344146","337579","240381","NA","NA","NA","NA","345744","344643","NA","343646","NA","343639","345744","1366","346154","NA","NA","344754","1358","1358","345146","343639","1358","344754","346154","morph21_Oliver/Morris","25","18913","29","yes","1280","5"
"350","86.6666666667","86.6666666667","646.733333333","646.733333333","black","no","xpyriment","legacy","legacy","0","207","NA","uniform","74996","1000","0.0133340444824","1","undefined","1","0","29","29","29","0","29","29","29","NA","29","29","0","29","NA","29","29","0","29","NA","29","NA","29","0","0","29","29","0","29","29","30","/","02/15/18 13:46:25","The main experiment item","yes","FIN__BA__M21__7%3A10%3A17.osexp","C:\Users\ERP Testing Room\Desktop\Joanna\morph21","no","mono","no","18","no","white","no","yes","1080","legacy","29","29","C:/Users/ERP Testing Room/Desktop/Joanna/morph21/subject-125.csv","xpyriment","Jazzy James","3.1.4","0","/","NA","NA","NA","NA","space","/","489","NA","NA","NA","NA","239015","489","2","legacy","1024","2","48000","-16","BA_m21","125","odd","FILL_W","FAINT","1358","350496","347388","348988","240381","NA","NA","NA","NA","348985","347885","NA","346888","NA","346876","348985","1366","350846","NA","NA","347996","1358","1358","348388","346876","1358","347996","350846","morph21_Oliver/Morris","26","19402","30","yes","1280","31"
"200","87.0967741935","87.0967741935","644.709677419","644.709677419","black","no","xpyriment","legacy","legacy","0","204","NA","uniform","68909","1000","0.0145118924959","1","undefined","1","0","30","30","30","0","30","30","30","NA","30","30","0","30","NA","30","30","0","30","NA","30","NA","30","0","0","30","30","0","30","30","31","z","02/15/18 13:46:25","The main experiment item","yes","FIN__BA__M21__7%3A10%3A17.osexp","C:\Users\ERP Testing Room\Desktop\Joanna\morph21","no","mono","no","18","no","white","no","yes","1080","legacy","30","30","C:/Users/ERP Testing Room/Desktop/Joanna/morph21/subject-125.csv","xpyriment","Jazzy James","3.1.4","0","z","NA","NA","NA","NA","space","z","584","NA","NA","NA","NA","239015","584","2","legacy","1024","2","48000","-16","BA_m21","125","odd","NW_L_COMP","GASFIL","1358","353606","352021","348988","240381","NA","NA","NA","NA","353598","352518","NA","351521","NA","351514","353598","1366","353806","NA","NA","352605","1358","1358","352996","351514","1358","352605","353806","morph21_Oliver/Morris","27","19986","31","yes","1280","6"
"200","87.5","87.5","642.71875","642.71875","black","no","xpyriment","legacy","legacy","0","203","NA","uniform","71965","1000","0.0138956437157","1","undefined","1","0","31","31","31","0","31","31","31","NA","31","31","0","31","NA","31","31","0","31","NA","31","NA","31","0","0","31","31","0","31","31","32","z","02/15/18 13:46:25","The main experiment item","yes","FIN__BA__M21__7%3A10%3A17.osexp","C:\Users\ERP Testing Room\Desktop\Joanna\morph21","no","mono","no","18","no","white","no","yes","1080","legacy","31","31","C:/Users/ERP Testing Room/Desktop/Joanna/morph21/subject-125.csv","xpyriment","Jazzy James","3.1.4","0","z","NA","NA","NA","NA","space","z","581","NA","NA","NA","NA","239015","581","2","legacy","1024","2","48000","-16","BA_m21","125","odd","NW_S_COMP","ELMILT","1358","356656","355031","348988","240381","NA","NA","NA","NA","356650","355528","NA","354531","NA","354527","356650","1366","356856","NA","NA","355656","1358","1358","356047","354527","1358","355656","356856","morph21_Oliver/Morris","28","20567","32","yes","1280","10"
"250","87.8787878788","87.8787878788","641.515151515","641.515151515","black","no","xpyriment","legacy","legacy","0","207","NA","uniform","70734","1000","0.0141374727854","1","undefined","1","0","32","32","32","0","32","32","32","NA","32","32","0","32","NA","32","32","0","32","NA","32","NA","32","0","0","32","32","0","32","32","33","/","02/15/18 13:46:25","The main experiment item","yes","FIN__BA__M21__7%3A10%3A17.osexp","C:\Users\ERP Testing Room\Desktop\Joanna\morph21","no","mono","no","18","no","white","no","yes","1080","legacy","32","32","C:/Users/ERP Testing Room/Desktop/Joanna/morph21/subject-125.csv","xpyriment","Jazzy James","3.1.4","0","/","NA","NA","NA","NA","space","/","603","NA","NA","NA","NA","239015","603","2","legacy","1024","2","48000","-16","BA_m21","125","odd","FILL_W","TASTE","1358","361214","358089","359706","240381","NA","NA","NA","NA","359700","358586","NA","357589","NA","357582","359700","1366","361464","NA","NA","358706","1358","1358","359097","357582","1358","358706","361464","morph21_Oliver/Morris","29","21170","33","yes","1280","34"
"400","88.2352941176","88.2352941176","647.647058824","647.647058824","black","no","xpyriment","legacy","legacy","0","205","NA","uniform","54837","1000","0.0182358626475","1","undefined","1","0","33","33","33","0","33","33","33","NA","33","33","0","33","NA","33","33","0","33","NA","33","NA","33","0","0","33","33","0","33","33","34","z","02/15/18 13:46:25","The main experiment item","yes","FIN__BA__M21__7%3A10%3A17.osexp","C:\Users\ERP Testing Room\Desktop\Joanna\morph21","no","mono","no","18","no","white","no","yes","1080","legacy","33","33","C:/Users/ERP Testing Room/Desktop/Joanna/morph21/subject-125.csv","xpyriment","Jazzy James","3.1.4","0","z","NA","NA","NA","NA","space","z","850","NA","NA","NA","NA","239015","850","2","legacy","1024","2","48000","-16","BA_m21","125","odd","NW_S_SIMP","MEDICALARY","1358","364323","362714","359706","240381","NA","NA","NA","NA","364316","363212","NA","362214","NA","362210","364316","1366","364723","NA","NA","363323","1358","1358","363714","362210","1358","363323","364723","morph21_Oliver/Morris","30","22020","34","yes","1280","18"
"300","88.5714285714","88.5714285714","647.828571429","647.828571429","black","no","xpyriment","legacy","legacy","0","202","NA","uniform","72881","1000","0.0137209972421","1","undefined","1","0","34","34","34","0","34","34","34","NA","34","34","0","34","NA","34","34","0","34","NA","34","NA","34","0","0","34","34","0","34","34","35","/","02/15/18 13:46:25","The main experiment item","yes","FIN__BA__M21__7%3A10%3A17.osexp","C:\Users\ERP Testing Room\Desktop\Joanna\morph21","no","mono","no","18","no","white","no","yes","1080","legacy","34","34","C:/Users/ERP Testing Room/Desktop/Joanna/morph21/subject-125.csv","xpyriment","Jazzy James","3.1.4","0","/","NA","NA","NA","NA","space","/","654","NA","NA","NA","NA","239015","654","2","legacy","1024","2","48000","-16","BA_m21","125","odd","CW_L","WEEDY","1358","367590","365981","359706","240381","NA","NA","NA","NA","367583","366478","NA","365481","NA","365475","367583","1366","367890","NA","NA","366590","1358","1358","366981","365475","1358","366590","367890","morph21_Oliver/Morris","31","22674","35","yes","1280","48"
"250","88.8888888889","88.8888888889","646.472222222","646.472222222","black","no","xpyriment","legacy","legacy","0","207","NA","uniform","67984","1000","0.0147093433749","1","undefined","1","0","35","35","35","0","35","35","35","NA","35","35","0","35","NA","35","35","0","35","NA","35","NA","35","0","0","35","35","0","35","35","36","/","02/15/18 13:46:25","The main experiment item","yes","FIN__BA__M21__7%3A10%3A17.osexp","C:\Users\ERP Testing Room\Desktop\Joanna\morph21","no","mono","no","18","no","white","no","yes","1080","legacy","35","35","C:/Users/ERP Testing Room/Desktop/Joanna/morph21/subject-125.csv","xpyriment","Jazzy James","3.1.4","0","/","NA","NA","NA","NA","space","/","599","NA","NA","NA","NA","239015","599","2","legacy","1024","2","48000","-16","BA_m21","125","odd","FILL_W","SOUGHT","1358","372282","369181","370774","240381","NA","NA","NA","NA","370771","369678","NA","368681","NA","368677","370771","1366","372533","NA","NA","369781","1358","1358","370173","368677","1358","369781","372533","morph21_Oliver/Morris","32","23273","36","yes","1280","40"
"350","89.1891891892","89.1891891892","643.675675676","643.675675676","black","no","xpyriment","legacy","legacy","0","201","NA","uniform","73607","1000","0.0135856644069","1","undefined","1","0","36","36","36","0","36","36","36","NA","36","36","0","36","NA","36","36","0","36","NA","36","NA","36","0","0","36","36","0","36","36","37","/","02/15/18 13:46:25","The main experiment item","yes","FIN__BA__M21__7%3A10%3A17.osexp","C:\Users\ERP Testing Room\Desktop\Joanna\morph21","no","mono","no","18","no","white","no","yes","1080","legacy","36","36","C:/Users/ERP Testing Room/Desktop/Joanna/morph21/subject-125.csv","xpyriment","Jazzy James","3.1.4","0","/","NA","NA","NA","NA","space","/","543","NA","NA","NA","NA","239015","543","2","legacy","1024","2","48000","-16","BA_m21","125","odd","CW_S","STRANGENESS","1358","375358","373758","370774","240381","NA","NA","NA","NA","375355","374255","NA","373258","NA","373249","375355","1366","375708","NA","NA","374366","1358","1358","374758","373249","1358","374366","375708","morph21_Oliver/Morris","33","23816","37","yes","1280","46"
"400","89.4736842105","89.4736842105","644.763157895","644.763157895","black","no","xpyriment","legacy","legacy","0","208","NA","uniform","70210","1000","0.0142429853297","1","undefined","1","0","37","37","37","0","37","37","37","NA","37","37","0","37","NA","37","37","0","37","NA","37","NA","37","0","0","37","37","0","37","37","38","z","02/15/18 13:46:25","The main experiment item","yes","FIN__BA__M21__7%3A10%3A17.osexp","C:\Users\ERP Testing Room\Desktop\Joanna\morph21","no","mono","no","18","no","white","no","yes","1080","legacy","37","37","C:/Users/ERP Testing Room/Desktop/Joanna/morph21/subject-125.csv","xpyriment","Jazzy James","3.1.4","0","z","NA","NA","NA","NA","space","z","685","NA","NA","NA","NA","239015","685","2","legacy","1024","2","48000","-16","BA_m21","125","odd","FILL_NW","GIKE","1358","378608","376991","370774","240381","NA","NA","NA","NA","378605","377488","NA","376491","NA","376481","378605","1366","379008","NA","NA","377616","1358","1358","378008","376481","1358","377616","379008","morph21_Oliver/Morris","34","24501","38","yes","1280","24"
"250","89.7435897436","89.7435897436","642.076923077","642.076923077","black","no","xpyriment","legacy","legacy","0","207","NA","uniform","73785","1000","0.0135528901538","1","undefined","1","0","38","38","38","0","38","38","38","NA","38","38","0","38","NA","38","38","0","38","NA","38","NA","38","0","0","38","38","0","38","38","39","/","02/15/18 13:46:25","The main experiment item","yes","FIN__BA__M21__7%3A10%3A17.osexp","C:\Users\ERP Testing Room\Desktop\Joanna\morph21","no","mono","no","18","no","white","no","yes","1080","legacy","38","38","C:/Users/ERP Testing Room/Desktop/Joanna/morph21/subject-125.csv","xpyriment","Jazzy James","3.1.4","0","/","NA","NA","NA","NA","space","/","540","NA","NA","NA","NA","239015","540","2","legacy","1024","2","48000","-16","BA_m21","125","odd","FILL_W","SUIT","1358","383341","380224","381833","240381","NA","NA","NA","NA","381830","380722","NA","379725","NA","379718","381830","1366","383591","NA","NA","380841","1358","1358","381233","379718","1358","380841","383591","morph21_Oliver/Morris","35","25041","39","yes","1280","49"
"250","90","90","643.625","643.625","black","no","xpyriment","legacy","legacy","0","208","NA","uniform","64070","1000","0.0156079288278","1","undefined","1","0","39","39","39","0","39","39","39","NA","39","39","0","39","NA","39","39","0","39","NA","39","NA","39","0","0","39","39","0","39","39","40","z","02/15/18 13:46:25","The main experiment item","yes","FIN__BA__M21__7%3A10%3A17.osexp","C:\Users\ERP Testing Room\Desktop\Joanna\morph21","no","mono","no","18","no","white","no","yes","1080","legacy","39","39","C:/Users/ERP Testing Room/Desktop/Joanna/morph21/subject-125.csv","xpyriment","Jazzy James","3.1.4","0","z","NA","NA","NA","NA","space","z","704","NA","NA","NA","NA","239015","704","2","legacy","1024","2","48000","-16","BA_m21","125","odd","FILL_NW","BUWL","1358","386516","384900","381833","240381","NA","NA","NA","NA","386506","385397","NA","384400","NA","384394","386506","1366","386766","NA","NA","385516","1358","1358","385908","384394","1358","385516","386766","morph21_Oliver/Morris","36","25745","40","yes","1280","9"
"200","90.243902439","90.243902439","646.926829268","646.926829268","black","no","xpyriment","legacy","legacy","0","208","NA","uniform","63159","1000","0.0158330562548","1","undefined","1","0","40","40","40","0","40","40","40","NA","40","40","0","40","NA","40","40","0","40","NA","40","NA","40","0","0","40","40","0","40","40","41","z","02/15/18 13:46:25","The main experiment item","yes","FIN__BA__M21__7%3A10%3A17.osexp","C:\Users\ERP Testing Room\Desktop\Joanna\morph21","no","mono","no","18","no","white","no","yes","1080","legacy","40","40","C:/Users/ERP Testing Room/Desktop/Joanna/morph21/subject-125.csv","xpyriment","Jazzy James","3.1.4","0","z","NA","NA","NA","NA","space","z","779","NA","NA","NA","NA","239015","779","2","legacy","1024","2","48000","-16","BA_m21","125","odd","FILL_NW","FALONS","1358","389634","388008","381833","240381","NA","NA","NA","NA","389628","388505","NA","387508","NA","387501","389628","1366","389834","NA","NA","388634","1358","1358","389026","387501","1358","388634","389834","morph21_Oliver/Morris","37","26524","41","yes","1280","19"
"400","90.4761904762","90.4761904762","643.166666667","643.166666667","black","no","xpyriment","legacy","legacy","0","201","NA","uniform","77143","1000","0.0129629389575","1","undefined","1","0","41","41","41","0","41","41","41","NA","41","41","0","41","NA","41","41","0","41","NA","41","NA","41","0","0","41","41","0","41","41","42","/","02/15/18 13:46:25","The main experiment item","yes","FIN__BA__M21__7%3A10%3A17.osexp","C:\Users\ERP Testing Room\Desktop\Joanna\morph21","no","mono","no","18","no","white","no","yes","1080","legacy","41","41","C:/Users/ERP Testing Room/Desktop/Joanna/morph21/subject-125.csv","xpyriment","Jazzy James","3.1.4","0","/","NA","NA","NA","NA","space","/","489","NA","NA","NA","NA","239015","489","2","legacy","1024","2","48000","-16","BA_m21","125","odd","CW_S","AVOIDABLE","1358","394368","391259","392859","240381","NA","NA","NA","NA","392856","391756","NA","390759","NA","390751","392856","1366","394768","NA","NA","391868","1358","1358","392259","390751","1358","391868","394768","morph21_Oliver/Morris","38","27013","42","yes","1280","2"
"350","90.6976744186","90.6976744186","641.395348837","641.395348837","black","no","xpyriment","legacy","legacy","0","202","NA","uniform","75097","1000","0.0133161111629","1","undefined","1","0","42","42","42","0","42","42","42","NA","42","42","0","42","NA","42","42","0","42","NA","42","NA","42","0","0","42","42","0","42","42","43","/","02/15/18 13:46:25","The main experiment item","yes","FIN__BA__M21__7%3A10%3A17.osexp","C:\Users\ERP Testing Room\Desktop\Joanna\morph21","no","mono","no","18","no","white","no","yes","1080","legacy","42","42","C:/Users/ERP Testing Room/Desktop/Joanna/morph21/subject-125.csv","xpyriment","Jazzy James","3.1.4","0","/","NA","NA","NA","NA","space","/","567","NA","NA","NA","NA","239015","567","2","legacy","1024","2","48000","-16","BA_m21","125","odd","CW_L","BOMBER","1358","397718","396110","392859","240381","NA","NA","NA","NA","397714","396607","NA","395610","NA","395602","397714","1366","398068","NA","NA","396718","1358","1358","397118","395602","1358","396718","398068","morph21_Oliver/Morris","39","27580","43","yes","1280","7"
"300","90.9090909091","90.9090909091","642.636363636","642.636363636","black","no","xpyriment","legacy","legacy","0","204","NA","uniform","70736","1000","0.0141370730604","1","undefined","1","0","43","43","43","0","43","43","43","NA","43","43","0","43","NA","43","43","0","43","NA","43","NA","43","0","0","43","43","0","43","43","44","z","02/15/18 13:46:25","The main experiment item","yes","FIN__BA__M21__7%3A10%3A17.osexp","C:\Users\ERP Testing Room\Desktop\Joanna\morph21","no","mono","no","18","no","white","no","yes","1080","legacy","43","43","C:/Users/ERP Testing Room/Desktop/Joanna/morph21/subject-125.csv","xpyriment","Jazzy James","3.1.4","0","z","NA","NA","NA","NA","space","z","696","NA","NA","NA","NA","239015","696","2","legacy","1024","2","48000","-16","BA_m21","125","odd","NW_L_COMP","KINGILM","1358","400885","399285","392859","240381","NA","NA","NA","NA","400879","399782","NA","398785","NA","398776","400879","1366","401185","NA","NA","399885","1358","1358","400276","398776","1358","399885","401185","morph21_Oliver/Morris","40","28276","44","yes","1280","19"
"200","91.1111111111","91.1111111111","641.533333333","641.533333333","black","no","xpyriment","legacy","legacy","0","207","NA","uniform","66511","1000","0.0150351069748","1","undefined","1","0","44","44","44","0","44","44","44","NA","44","44","0","44","NA","44","44","0","44","NA","44","NA","44","0","0","44","44","0","44","44","45","/","02/15/18 13:46:25","The main experiment item","yes","FIN__BA__M21__7%3A10%3A17.osexp","C:\Users\ERP Testing Room\Desktop\Joanna\morph21","no","mono","no","18","no","white","no","yes","1080","legacy","44","44","C:/Users/ERP Testing Room/Desktop/Joanna/morph21/subject-125.csv","xpyriment","Jazzy James","3.1.4","0","/","NA","NA","NA","NA","space","/","593","NA","NA","NA","NA","239015","593","2","legacy","1024","2","48000","-16","BA_m21","125","odd","FILL_W","GOLF","1358","405560","402435","404051","240381","NA","NA","NA","NA","404046","402932","NA","401935","NA","401924","404046","1366","405760","NA","NA","403051","1358","1358","403443","401924","1358","403051","405760","morph21_Oliver/Morris","41","28869","45","yes","1280","28"
"250","91.3043478261","91.3043478261","642.739130435","642.739130435","black","no","xpyriment","legacy","legacy","0","204","NA","uniform","65069","1000","0.0153683013417","1","undefined","1","0","45","45","45","0","45","45","45","NA","45","45","0","45","NA","45","45","0","45","NA","45","NA","45","0","0","45","45","0","45","45","46","z","02/15/18 13:46:25","The main experiment item","yes","FIN__BA__M21__7%3A10%3A17.osexp","C:\Users\ERP Testing Room\Desktop\Joanna\morph21","no","mono","no","18","no","white","no","yes","1080","legacy","45","45","C:/Users/ERP Testing Room/Desktop/Joanna/morph21/subject-125.csv","xpyriment","Jazzy James","3.1.4","0","z","NA","NA","NA","NA","space","z","697","NA","NA","NA","NA","239015","697","2","legacy","1024","2","48000","-16","BA_m21","125","odd","NW_L_COMP","TRIPADY","1358","408636","407036","404051","240381","NA","NA","NA","NA","408629","407533","NA","406536","NA","406528","408629","1366","408886","NA","NA","407636","1358","1358","408028","406528","1358","407636","408886","morph21_Oliver/Morris","42","29566","46","yes","1280","2"
"350","89.3617021277","89.3617021277","640.063829787","640.063829787","black","no","xpyriment","legacy","legacy","0","203","NA","uniform","73633","1000","0.0135808672742","0","undefined","0","0","46","46","46","0","46","46","46","NA","46","46","0","46","NA","46","46","0","46","NA","46","NA","46","0","0","46","46","0","46","46","47","z","02/15/18 13:46:25","The main experiment item","yes","FIN__BA__M21__7%3A10%3A17.osexp","C:\Users\ERP Testing Room\Desktop\Joanna\morph21","no","mono","no","18","no","white","no","yes","1080","legacy","46","46","C:/Users/ERP Testing Room/Desktop/Joanna/morph21/subject-125.csv","xpyriment","Jazzy James","3.1.4","0","/","NA","NA","NA","NA","space","/","517","NA","NA","NA","NA","239015","517","2","legacy","1024","2","48000","-16","BA_m21","125","odd","NW_S_COMP","PRINCEMANT","1358","411744","410144","404051","240381","NA","NA","NA","NA","408629","410642","NA","409645","NA","409637","411737","1366","412095","NA","NA","410744","1358","1358","411136","409637","1358","410744","412095","morph21_Oliver/Morris","42","30083","47","yes","1280","17"
"300","89.5833333333","89.5833333333","637.291666667","637.291666667","black","no","xpyriment","legacy","legacy","0","202","NA","uniform","78725","1000","0.0127024452207","1","undefined","1","0","47","47","47","0","47","47","47","NA","47","47","0","47","NA","47","47","0","47","NA","47","NA","47","0","0","47","47","0","47","47","48","/","02/15/18 13:46:25","The main experiment item","yes","FIN__BA__M21__7%3A10%3A17.osexp","C:\Users\ERP Testing Room\Desktop\Joanna\morph21","no","mono","no","18","no","white","no","yes","1080","legacy","47","47","C:/Users/ERP Testing Room/Desktop/Joanna/morph21/subject-125.csv","xpyriment","Jazzy James","3.1.4","0","/","NA","NA","NA","NA","space","/","507","NA","NA","NA","NA","239015","507","2","legacy","1024","2","48000","-16","BA_m21","125","odd","CW_L","DOUBTFUL","1358","416486","413395","414978","240381","NA","NA","NA","NA","414969","413892","NA","412895","NA","412884","414969","1366","416787","NA","NA","413978","1358","1358","414370","412884","1358","413978","416787","morph21_Oliver/Morris","43","30590","48","yes","1280","21"
"200","89.7959183673","89.7959183673","634.204081633","634.204081633","black","no","xpyriment","legacy","legacy","0","207","NA","uniform","71297","1000","0.0140258355892","1","undefined","1","0","48","48","48","0","48","48","48","NA","48","48","0","48","NA","48","48","0","48","NA","48","NA","48","0","0","48","48","0","48","48","49","/","02/15/18 13:46:25","The main experiment item","yes","FIN__BA__M21__7%3A10%3A17.osexp","C:\Users\ERP Testing Room\Desktop\Joanna\morph21","no","mono","no","18","no","white","no","yes","1080","legacy","48","48","C:/Users/ERP Testing Room/Desktop/Joanna/morph21/subject-125.csv","xpyriment","Jazzy James","3.1.4","0","/","NA","NA","NA","NA","space","/","486","NA","NA","NA","NA","239015","486","2","legacy","1024","2","48000","-16","BA_m21","125","odd","FILL_W","TAX","1358","419695","418078","414978","240381","NA","NA","NA","NA","419685","418575","NA","417578","NA","417569","419685","1366","419895","NA","NA","418695","1358","1358","419086","417569","1358","418695","419895","morph21_Oliver/Morris","44","31076","49","yes","1280","45"
"250","90","90","631.22","631.22","black","no","xpyriment","legacy","legacy","0","207","NA","uniform","75399","1000","0.0132627753684","1","undefined","1","0","49","49","49","0","49","49","49","NA","49","49","0","49","NA","49","49","0","49","NA","49","NA","49","0","0","49","49","0","49","49","50","/","02/15/18 13:46:25","The main experiment item","yes","FIN__BA__M21__7%3A10%3A17.osexp","C:\Users\ERP Testing Room\Desktop\Joanna\morph21","no","mono","no","18","no","white","no","yes","1080","legacy","49","49","C:/Users/ERP Testing Room/Desktop/Joanna/morph21/subject-125.csv","xpyriment","Jazzy James","3.1.4","0","/","NA","NA","NA","NA","space","/","485","NA","NA","NA","NA","239015","485","2","legacy","1024","2","48000","-16","BA_m21","125","odd","FILL_W","WEAVE","1358","422678","421103","414978","240381","NA","NA","NA","NA","422676","421600","NA","420603","NA","420594","422676","1366","422928","NA","NA","421687","1358","1358","422078","420594","1358","421687","422928","morph21_Oliver/Morris","45","31561","50","yes","1280","12"
"200","90.1960784314","90.1960784314","628.588235294","628.588235294","black","no","xpyriment","legacy","legacy","0","201","NA","uniform","81360","1000","0.0122910521141","1","undefined","1","0","50","50","50","0","50","50","50","NA","50","50","0","50","NA","50","50","0","50","NA","50","NA","50","0","0","50","50","0","50","50","51","/","02/15/18 13:46:25","The main experiment item","yes","FIN__BA__M21__7%3A10%3A17.osexp","C:\Users\ERP Testing Room\Desktop\Joanna\morph21","no","mono","no","18","no","white","no","yes","1080","legacy","50","50","C:/Users/ERP Testing Room/Desktop/Joanna/morph21/subject-125.csv","xpyriment","Jazzy James","3.1.4","0","/","NA","NA","NA","NA","space","/","497","NA","NA","NA","NA","239015","497","2","legacy","1024","2","48000","-16","BA_m21","125","odd","CW_S","LOCALLY","1358","427296","424196","425788","240381","NA","NA","NA","NA","425778","424693","NA","423696","NA","423687","425778","1366","427496","NA","NA","424788","1358","1358","425179","423687","1358","424788","427496","morph21_Oliver/Morris","46","32058","51","yes","1280","37"
"250","88.4615384615","88.4615384615","627.634615385","627.634615385","black","no","xpyriment","legacy","legacy","0","204","NA","uniform","72242","1000","0.0138423631682","0","undefined","0","0","51","51","51","0","51","51","51","NA","51","51","0","51","NA","51","51","0","51","NA","51","NA","51","0","0","51","51","0","51","51","52","z","02/15/18 13:46:25","The main experiment item","yes","FIN__BA__M21__7%3A10%3A17.osexp","C:\Users\ERP Testing Room\Desktop\Joanna\morph21","no","mono","no","18","no","white","no","yes","1080","legacy","51","51","C:/Users/ERP Testing Room/Desktop/Joanna/morph21/subject-125.csv","xpyriment","Jazzy James","3.1.4","0","/","NA","NA","NA","NA","space","/","579","NA","NA","NA","NA","239015","579","2","legacy","1024","2","48000","-16","BA_m21","125","odd","NW_L_COMP","STIRANGE","1358","430330","428730","425788","240381","NA","NA","NA","NA","425778","429227","NA","428230","NA","428218","430325","1366","430580","NA","NA","429330","1358","1358","429730","428218","1358","429330","430580","morph21_Oliver/Morris","46","32637","52","yes","1280","1"
"400","86.7924528302","86.7924528302","628.037735849","628.037735849","black","no","xpyriment","legacy","legacy","0","206","NA","uniform","70993","1000","0.0140858957925","0","undefined","0","0","52","52","52","0","52","52","52","NA","52","52","0","52","NA","52","52","0","52","NA","52","NA","52","0","0","52","52","0","52","52","53","z","02/15/18 13:46:25","The main experiment item","yes","FIN__BA__M21__7%3A10%3A17.osexp","C:\Users\ERP Testing Room\Desktop\Joanna\morph21","no","mono","no","18","no","white","no","yes","1080","legacy","52","52","C:/Users/ERP Testing Room/Desktop/Joanna/morph21/subject-125.csv","xpyriment","Jazzy James","3.1.4","0","/","NA","NA","NA","NA","space","/","649","NA","NA","NA","NA","239015","649","2","legacy","1024","2","48000","-16","BA_m21","125","odd","NW_L_SIMP","VALIDER","1358","433388","431796","425788","240381","NA","NA","NA","NA","425778","432294","NA","431296","NA","431291","433383","1366","433788","NA","NA","432388","1358","1358","432780","431291","1358","432388","433788","morph21_Oliver/Morris","46","33286","53","yes","1280","23"
"250","87.037037037","87.037037037","626.425925926","626.425925926","black","no","xpyriment","legacy","legacy","0","201","NA","uniform","73696","1000","0.0135692574902","1","undefined","1","0","53","53","53","0","53","53","53","NA","53","53","0","53","NA","53","53","0","53","NA","53","NA","53","0","0","53","53","0","53","53","54","/","02/15/18 13:46:25","The main experiment item","yes","FIN__BA__M21__7%3A10%3A17.osexp","C:\Users\ERP Testing Room\Desktop\Joanna\morph21","no","mono","no","18","no","white","no","yes","1080","legacy","53","53","C:/Users/ERP Testing Room/Desktop/Joanna/morph21/subject-125.csv","xpyriment","Jazzy James","3.1.4","0","/","NA","NA","NA","NA","space","/","541","NA","NA","NA","NA","239015","541","2","legacy","1024","2","48000","-16","BA_m21","125","odd","CW_S","HUGELY","1358","438180","435063","436672","240381","NA","NA","NA","NA","436663","435560","NA","434563","NA","434555","436663","1366","438430","NA","NA","435672","1358","1358","436063","434555","1358","435672","438430","morph21_Oliver/Morris","47","33827","54","yes","1280","35"
"200","87.2727272727","87.2727272727","629.963636364","629.963636364","black","no","xpyriment","legacy","legacy","0","208","NA","uniform","69843","1000","0.0143178271266","1","undefined","1","0","54","54","54","0","54","54","54","NA","54","54","0","54","NA","54","54","0","54","NA","54","NA","54","0","0","54","54","0","54","54","55","z","02/15/18 13:46:25","The main experiment item","yes","FIN__BA__M21__7%3A10%3A17.osexp","C:\Users\ERP Testing Room\Desktop\Joanna\morph21","no","mono","no","18","no","white","no","yes","1080","legacy","54","54","C:/Users/ERP Testing Room/Desktop/Joanna/morph21/subject-125.csv","xpyriment","Jazzy James","3.1.4","0","z","NA","NA","NA","NA","space","z","821","NA","NA","NA","NA","239015","821","2","legacy","1024","2","48000","-16","BA_m21","125","odd","FILL_NW","BLAYS","1358","441264","439672","436672","240381","NA","NA","NA","NA","441258","440169","NA","439172","NA","439162","441258","1366","441464","NA","NA","440264","1358","1358","440656","439162","1358","440263","441464","morph21_Oliver/Morris","48","34648","55","yes","1280","8"
"200","87.5","87.5","630.642857143","630.642857143","black","no","xpyriment","legacy","legacy","0","208","NA","uniform","69731","1000","0.0143408240237","1","undefined","1","0","55","55","55","0","55","55","55","NA","55","55","0","55","NA","55","55","0","55","NA","55","NA","55","0","0","55","55","0","55","55","56","z","02/15/18 13:46:25","The main experiment item","yes","FIN__BA__M21__7%3A10%3A17.osexp","C:\Users\ERP Testing Room\Desktop\Joanna\morph21","no","mono","no","18","no","white","no","yes","1080","legacy","55","55","C:/Users/ERP Testing Room/Desktop/Joanna/morph21/subject-125.csv","xpyriment","Jazzy James","3.1.4","0","z","NA","NA","NA","NA","space","z","668","NA","NA","NA","NA","239015","668","2","legacy","1024","2","48000","-16","BA_m21","125","odd","FILL_NW","BROUPS","1358","444281","442673","436672","240381","NA","NA","NA","NA","444278","443170","NA","442173","NA","442167","444278","1366","444481","NA","NA","443281","1358","1358","443681","442167","1358","443281","444481","morph21_Oliver/Morris","49","35316","56","yes","1280","4"
"350","87.7192982456","87.7192982456","631.561403509","631.561403509","black","no","xpyriment","legacy","legacy","0","203","NA","uniform","74678","1000","0.013390824607","1","undefined","1","0","56","56","56","0","56","56","56","NA","56","56","0","56","NA","56","56","0","56","NA","56","NA","56","0","0","56","56","0","56","56","57","z","02/15/18 13:46:25","The main experiment item","yes","FIN__BA__M21__7%3A10%3A17.osexp","C:\Users\ERP Testing Room\Desktop\Joanna\morph21","no","mono","no","18","no","white","no","yes","1080","legacy","56","56","C:/Users/ERP Testing Room/Desktop/Joanna/morph21/subject-125.csv","xpyriment","Jazzy James","3.1.4","0","z","NA","NA","NA","NA","space","z","683","NA","NA","NA","NA","239015","683","2","legacy","1024","2","48000","-16","BA_m21","125","odd","NW_S_COMP","EJECTENGE","1358","448815","445706","447306","240381","NA","NA","NA","NA","447302","446204","NA","445206","NA","445201","447302","1366","449165","NA","NA","446306","1358","1358","446706","445201","1358","446306","449165","morph21_Oliver/Morris","50","35999","57","yes","1280","20"
"300","87.9310344828","87.9310344828","631.086206897","631.086206897","black","no","xpyriment","legacy","legacy","0","208","NA","uniform","77147","1000","0.0129622668412","1","undefined","1","0","57","57","57","0","57","57","57","NA","57","57","0","57","NA","57","57","0","57","NA","57","NA","57","0","0","57","57","0","57","57","58","z","02/15/18 13:46:25","The main experiment item","yes","FIN__BA__M21__7%3A10%3A17.osexp","C:\Users\ERP Testing Room\Desktop\Joanna\morph21","no","mono","no","18","no","white","no","yes","1080","legacy","57","57","C:/Users/ERP Testing Room/Desktop/Joanna/morph21/subject-125.csv","xpyriment","Jazzy James","3.1.4","0","z","NA","NA","NA","NA","space","z","604","NA","NA","NA","NA","239015","604","2","legacy","1024","2","48000","-16","BA_m21","125","odd","FILL_NW","VOGS","1358","452065","450482","447306","240381","NA","NA","NA","NA","452061","450979","NA","449982","NA","449978","452061","1366","452365","NA","NA","451073","1358","1358","451465","449978","1358","451073","452365","morph21_Oliver/Morris","51","36603","58","yes","1280","47"
"350","88.1355932203","88.1355932203","631.152542373","631.152542373","black","no","xpyriment","legacy","legacy","0","206","NA","uniform","73447","1000","0.0136152599834","1","undefined","1","0","58","58","58","0","58","58","58","NA","58","58","0","58","NA","58","58","0","58","NA","58","NA","58","0","0","58","58","0","58","58","59","z","02/15/18 13:46:25","The main experiment item","yes","FIN__BA__M21__7%3A10%3A17.osexp","C:\Users\ERP Testing Room\Desktop\Joanna\morph21","no","mono","no","18","no","white","no","yes","1080","legacy","58","58","C:/Users/ERP Testing Room/Desktop/Joanna/morph21/subject-125.csv","xpyriment","Jazzy James","3.1.4","0","z","NA","NA","NA","NA","space","z","635","NA","NA","NA","NA","239015","635","2","legacy","1024","2","48000","-16","BA_m21","125","odd","NW_L_SIMP","WIGISH","1358","455282","453682","447306","240381","NA","NA","NA","NA","455279","454179","NA","453182","NA","453177","455279","1366","455632","NA","NA","454290","1358","1358","454682","453177","1358","454290","455632","morph21_Oliver/Morris","52","37238","59","yes","1280","9"
"250","88.3333333333","88.3333333333","629.633333333","629.633333333","black","no","xpyriment","legacy","legacy","0","202","NA","uniform","80188","1000","0.0124706938694","1","undefined","1","0","59","59","59","0","59","59","59","NA","59","59","0","59","NA","59","59","0","59","NA","59","NA","59","0","0","59","59","0","59","59","60","/","02/15/18 13:46:25","The main experiment item","yes","FIN__BA__M21__7%3A10%3A17.osexp","C:\Users\ERP Testing Room\Desktop\Joanna\morph21","no","mono","no","18","no","white","no","yes","1080","legacy","59","59","C:/Users/ERP Testing Room/Desktop/Joanna/morph21/subject-125.csv","xpyriment","Jazzy James","3.1.4","0","/","NA","NA","NA","NA","space","/","540","NA","NA","NA","NA","239015","540","2","legacy","1024","2","48000","-16","BA_m21","125","odd","CW_L","FLEXIBLE","1358","459950","456832","458441","240381","NA","NA","NA","NA","458434","457329","NA","456332","NA","456327","458434","1366","460200","NA","NA","457440","1358","1358","457832","456327","1358","457440","460200","morph21_Oliver/Morris","53","37778","60","yes","1280","22"
"200","88.5245901639","88.5245901639","629.262295082","629.262295082","black","no","xpyriment","legacy","legacy","0","208","NA","uniform","67236","1000","0.0148729847106","1","undefined","1","0","60","60","60","0","60","60","60","NA","60","60","0","60","NA","60","60","0","60","NA","60","NA","60","0","0","60","60","0","60","60","61","z","02/15/18 13:46:25","The main experiment item","yes","FIN__BA__M21__7%3A10%3A17.osexp","C:\Users\ERP Testing Room\Desktop\Joanna\morph21","no","mono","no","18","no","white","no","yes","1080","legacy","60","60","C:/Users/ERP Testing Room/Desktop/Joanna/morph21/subject-125.csv","xpyriment","Jazzy James","3.1.4","0","z","NA","NA","NA","NA","space","z","607","NA","NA","NA","NA","239015","607","2","legacy","1024","2","48000","-16","BA_m21","125","odd","FILL_NW","PUCTS","1358","463133","461533","458441","240381","NA","NA","NA","NA","463129","462030","NA","461033","NA","461027","463129","1366","463333","NA","NA","462142","1358","1358","462533","461027","1358","462141","463333","morph21_Oliver/Morris","54","38385","61","yes","1280","40"
"200","88.7096774194","88.7096774194","627.419354839","627.419354839","black","no","xpyriment","legacy","legacy","0","208","NA","uniform","71498","1000","0.0139864052141","1","undefined","1","0","61","61","61","0","61","61","61","NA","61","61","0","61","NA","61","61","0","61","NA","61","NA","61","0","0","61","61","0","61","61","62","z","02/15/18 13:46:25","The main experiment item","yes","FIN__BA__M21__7%3A10%3A17.osexp","C:\Users\ERP Testing Room\Desktop\Joanna\morph21","no","mono","no","18","no","white","no","yes","1080","legacy","61","61","C:/Users/ERP Testing Room/Desktop/Joanna/morph21/subject-125.csv","xpyriment","Jazzy James","3.1.4","0","z","NA","NA","NA","NA","space","z","515","NA","NA","NA","NA","239015","515","2","legacy","1024","2","48000","-16","BA_m21","125","odd","FILL_NW","HESK","1358","466242","464641","458441","240381","NA","NA","NA","NA","466234","465139","NA","464142","NA","464132","466234","1366","466442","NA","NA","465242","1358","1358","465633","464132","1358","465242","466442","morph21_Oliver/Morris","55","38900","62","yes","1280","29"
"350","88.8888888889","88.8888888889","629.031746032","629.031746032","black","no","xpyriment","legacy","legacy","0","203","NA","uniform","70304","1000","0.0142239417387","1","undefined","1","0","62","62","62","0","62","62","62","NA","62","62","0","62","NA","62","62","0","62","NA","62","NA","62","0","0","62","62","0","62","62","63","z","02/15/18 13:46:25","The main experiment item","yes","FIN__BA__M21__7%3A10%3A17.osexp","C:\Users\ERP Testing Room\Desktop\Joanna\morph21","no","mono","no","18","no","white","no","yes","1080","legacy","62","62","C:/Users/ERP Testing Room/Desktop/Joanna/morph21/subject-125.csv","xpyriment","Jazzy James","3.1.4","0","z","NA","NA","NA","NA","space","z","729","NA","NA","NA","NA","239015","729","2","legacy","1024","2","48000","-16","BA_m21","125","odd","NW_S_COMP","FIENDILM","1358","470800","467683","469292","240381","NA","NA","NA","NA","469285","468180","NA","467183","NA","467172","469285","1366","471150","NA","NA","468292","1358","1358","468683","467172","1358","468292","471150","morph21_Oliver/Morris","56","39629","63","yes","1280","24"
"200","89.0625","89.0625","628.640625","628.640625","black","no","xpyriment","legacy","legacy","0","202","NA","uniform","77287","1000","0.0129387866006","1","undefined","1","0","63","63","63","0","63","63","63","NA","63","63","0","63","NA","63","63","0","63","NA","63","NA","63","0","0","63","63","0","63","63","64","/","02/15/18 13:46:25","The main experiment item","yes","FIN__BA__M21__7%3A10%3A17.osexp","C:\Users\ERP Testing Room\Desktop\Joanna\morph21","no","mono","no","18","no","white","no","yes","1080","legacy","63","63","C:/Users/ERP Testing Room/Desktop/Joanna/morph21/subject-125.csv","xpyriment","Jazzy James","3.1.4","0","/","NA","NA","NA","NA","space","/","604","NA","NA","NA","NA","239015","604","2","legacy","1024","2","48000","-16","BA_m21","125","odd","CW_L","VERBAL","1358","474009","472409","469292","240381","NA","NA","NA","NA","474003","472906","NA","471909","NA","471903","474003","1366","474209","NA","NA","473009","1358","1358","473400","471903","1358","473009","474209","morph21_Oliver/Morris","57","40233","64","yes","1280","50"
"350","89.2307692308","89.2307692308","628.261538462","628.261538462","black","no","xpyriment","legacy","legacy","0","203","NA","uniform","68706","1000","0.014554769598","1","undefined","1","0","64","64","64","0","64","64","64","NA","64","64","0","64","NA","64","64","0","64","NA","64","NA","64","0","0","64","64","0","64","64","65","z","02/15/18 13:46:25","The main experiment item","yes","FIN__BA__M21__7%3A10%3A17.osexp","C:\Users\ERP Testing Room\Desktop\Joanna\morph21","no","mono","no","18","no","white","no","yes","1080","legacy","64","64","C:/Users/ERP Testing Room/Desktop/Joanna/morph21/subject-125.csv","xpyriment","Jazzy James","3.1.4","0","z","NA","NA","NA","NA","space","z","604","NA","NA","NA","NA","239015","604","2","legacy","1024","2","48000","-16","BA_m21","125","odd","NW_S_COMP","WELDIG","1358","477001","475384","469292","240381","NA","NA","NA","NA","476993","475881","NA","474884","NA","474873","476993","1366","477351","NA","NA","476001","1358","1358","476393","474873","1358","476001","477351","morph21_Oliver/Morris","58","40837","65","yes","1280","21"
"250","89.3939393939","89.3939393939","627.424242424","627.424242424","black","no","xpyriment","legacy","legacy","0","202","NA","uniform","78348","1000","0.0127635676724","1","undefined","1","0","65","65","65","0","65","65","65","NA","65","65","0","65","NA","65","65","0","65","NA","65","NA","65","0","0","65","65","0","65","65","66","/","02/15/18 13:46:25","The main experiment item","yes","FIN__BA__M21__7%3A10%3A17.osexp","C:\Users\ERP Testing Room\Desktop\Joanna\morph21","no","mono","no","18","no","white","no","yes","1080","legacy","65","65","C:/Users/ERP Testing Room/Desktop/Joanna/morph21/subject-125.csv","xpyriment","Jazzy James","3.1.4","0","/","NA","NA","NA","NA","space","/","573","NA","NA","NA","NA","239015","573","2","legacy","1024","2","48000","-16","BA_m21","125","odd","CW_L","PUSHER","1358","481668","478543","480160","240381","NA","NA","NA","NA","480150","479040","NA","478043","NA","478032","480150","1366","481919","NA","NA","479160","1358","1358","479551","478032","1358","479160","481919","morph21_Oliver/Morris","59","41410","66","yes","1280","13"
"400","89.552238806","89.552238806","627.089552239","627.089552239","black","no","xpyriment","legacy","legacy","0","202","NA","uniform","76282","1000","0.0131092525104","1","undefined","1","0","66","66","66","0","66","66","66","NA","66","66","0","66","NA","66","66","0","66","NA","66","NA","66","0","0","66","66","0","66","66","67","/","02/15/18 13:46:25","The main experiment item","yes","FIN__BA__M21__7%3A10%3A17.osexp","C:\Users\ERP Testing Room\Desktop\Joanna\morph21","no","mono","no","18","no","white","no","yes","1080","legacy","66","66","C:/Users/ERP Testing Room/Desktop/Joanna/morph21/subject-125.csv","xpyriment","Jazzy James","3.1.4","0","/","NA","NA","NA","NA","space","/","605","NA","NA","NA","NA","239015","605","2","legacy","1024","2","48000","-16","BA_m21","125","odd","CW_L","CONDUCTOR","1358","484768","483185","480160","240381","NA","NA","NA","NA","484762","483682","NA","482685","NA","482674","484762","1366","485168","NA","NA","483768","1358","1358","484160","482674","1358","483768","485168","morph21_Oliver/Morris","60","42015","67","yes","1280","44"
"250","89.7058823529","89.7058823529","626.25","626.25","black","no","xpyriment","legacy","legacy","0","208","NA","uniform","67458","1000","0.0148240386611","1","undefined","1","0","67","67","67","0","67","67","67","NA","67","67","0","67","NA","67","67","0","67","NA","67","NA","67","0","0","67","67","0","67","67","68","z","02/15/18 13:46:25","The main experiment item","yes","FIN__BA__M21__7%3A10%3A17.osexp","C:\Users\ERP Testing Room\Desktop\Joanna\morph21","no","mono","no","18","no","white","no","yes","1080","legacy","67","67","C:/Users/ERP Testing Room/Desktop/Joanna/morph21/subject-125.csv","xpyriment","Jazzy James","3.1.4","0","z","NA","NA","NA","NA","space","z","570","NA","NA","NA","NA","239015","570","2","legacy","1024","2","48000","-16","BA_m21","125","odd","FILL_NW","PHEEKS","1358","488019","486410","480160","240381","NA","NA","NA","NA","488016","486907","NA","485910","NA","485905","488016","1366","488269","NA","NA","487027","1358","1358","487419","485905","1358","487027","488269","morph21_Oliver/Morris","61","42585","68","yes","1280","35"
"200","89.8550724638","89.8550724638","625.463768116","625.463768116","black","no","xpyriment","legacy","legacy","0","201","NA","uniform","78831","1000","0.0126853648945","1","undefined","1","0","68","68","68","0","68","68","68","NA","68","68","0","68","NA","68","68","0","68","NA","68","NA","68","0","0","68","68","0","68","68","69","/","02/15/18 13:46:25","The main experiment item","yes","FIN__BA__M21__7%3A10%3A17.osexp","C:\Users\ERP Testing Room\Desktop\Joanna\morph21","no","mono","no","18","no","white","no","yes","1080","legacy","68","68","C:/Users/ERP Testing Room/Desktop/Joanna/morph21/subject-125.csv","xpyriment","Jazzy James","3.1.4","0","/","NA","NA","NA","NA","space","/","572","NA","NA","NA","NA","239015","572","2","legacy","1024","2","48000","-16","BA_m21","125","odd","CW_S","BOLDNESS","1358","492694","489577","491185","240381","NA","NA","NA","NA","491178","490074","NA","489077","NA","489070","491178","1366","492894","NA","NA","490185","1358","1358","490577","489070","1358","490185","492894","morph21_Oliver/Morris","62","43157","69","yes","1280","41"
"350","90","90","629.728571429","629.728571429","black","no","xpyriment","legacy","legacy","0","202","NA","uniform","63513","1000","0.0157448081495","1","undefined","1","0","69","69","69","0","69","69","69","NA","69","69","0","69","NA","69","69","0","69","NA","69","NA","69","0","0","69","69","0","69","69","70","/","02/15/18 13:46:25","The main experiment item","yes","FIN__BA__M21__7%3A10%3A17.osexp","C:\Users\ERP Testing Room\Desktop\Joanna\morph21","no","mono","no","18","no","white","no","yes","1080","legacy","69","69","C:/Users/ERP Testing Room/Desktop/Joanna/morph21/subject-125.csv","xpyriment","Jazzy James","3.1.4","0","/","NA","NA","NA","NA","space","/","924","NA","NA","NA","NA","239015","924","2","legacy","1024","2","48000","-16","BA_m21","125","odd","CW_L","BARKER","1358","495745","494136","491185","240381","NA","NA","NA","NA","495738","494634","NA","493637","NA","493630","495738","1366","496095","NA","NA","494745","1358","1358","495137","493630","1358","494745","496095","morph21_Oliver/Morris","63","44081","70","yes","1280","2"
"400","90.1408450704","90.1408450704","629.394366197","629.394366197","black","no","xpyriment","legacy","legacy","0","202","NA","uniform","74807","1000","0.0133677329662","1","undefined","1","0","70","70","70","0","70","70","70","NA","70","70","0","70","NA","70","70","0","70","NA","70","NA","70","0","0","70","70","0","70","70","71","/","02/15/18 13:46:25","The main experiment item","yes","FIN__BA__M21__7%3A10%3A17.osexp","C:\Users\ERP Testing Room\Desktop\Joanna\morph21","no","mono","no","18","no","white","no","yes","1080","legacy","70","70","C:/Users/ERP Testing Room/Desktop/Joanna/morph21/subject-125.csv","xpyriment","Jazzy James","3.1.4","0","/","NA","NA","NA","NA","space","/","606","NA","NA","NA","NA","239015","606","2","legacy","1024","2","48000","-16","BA_m21","125","odd","CW_L","CLEANER","1358","498887","497303","491185","240381","NA","NA","NA","NA","498878","497800","NA","496803","NA","496795","498878","1366","499287","NA","NA","497887","1358","1358","498278","496795","1358","497887","499287","morph21_Oliver/Morris","64","44687","71","yes","1280","15"
"250","90.2777777778","90.2777777778","629.625","629.625","black","no","xpyriment","legacy","legacy","0","205","NA","uniform","73270","1000","0.0136481506756","1","undefined","1","0","71","71","71","0","71","71","71","NA","71","71","0","71","NA","71","71","0","71","NA","71","NA","71","0","0","71","71","0","71","71","72","z","02/15/18 13:46:25","The main experiment item","yes","FIN__BA__M21__7%3A10%3A17.osexp","C:\Users\ERP Testing Room\Desktop\Joanna\morph21","no","mono","no","18","no","white","no","yes","1080","legacy","71","71","C:/Users/ERP Testing Room/Desktop/Joanna/morph21/subject-125.csv","xpyriment","Jazzy James","3.1.4","0","z","NA","NA","NA","NA","space","z","646","NA","NA","NA","NA","239015","646","2","legacy","1024","2","48000","-16","BA_m21","125","odd","NW_S_SIMP","DIGORY","1358","503612","500520","502104","240381","NA","NA","NA","NA","502094","501017","NA","500020","NA","500013","502094","1366","503862","NA","NA","501103","1358","1358","501495","500013","1358","501103","503862","morph21_Oliver/Morris","65","45333","72","yes","1280","11"
"350","90.4109589041","90.4109589041","632.438356164","632.438356164","black","no","xpyriment","legacy","legacy","0","208","NA","uniform","63755","1000","0.0156850443103","1","undefined","1","0","72","72","72","0","72","72","72","NA","72","72","0","72","NA","72","72","0","72","NA","72","NA","72","0","0","72","72","0","72","72","73","z","02/15/18 13:46:25","The main experiment item","yes","FIN__BA__M21__7%3A10%3A17.osexp","C:\Users\ERP Testing Room\Desktop\Joanna\morph21","no","mono","no","18","no","white","no","yes","1080","legacy","72","72","C:/Users/ERP Testing Room/Desktop/Joanna/morph21/subject-125.csv","xpyriment","Jazzy James","3.1.4","0","z","NA","NA","NA","NA","space","z","835","NA","NA","NA","NA","239015","835","2","legacy","1024","2","48000","-16","BA_m21","125","odd","FILL_NW","JADS","1358","506754","505187","502104","240381","NA","NA","NA","NA","506751","505684","NA","504687","NA","504678","506751","1366","507104","NA","NA","505762","1358","1358","506154","504678","1358","505762","507104","morph21_Oliver/Morris","66","46168","73","yes","1280","31"
"400","90.5405405405","90.5405405405","631.837837838","631.837837838","black","no","xpyriment","legacy","legacy","0","207","NA","uniform","77231","1000","0.0129481684816","1","undefined","1","0","73","73","73","0","73","73","73","NA","73","73","0","73","NA","73","73","0","73","NA","73","NA","73","0","0","73","73","0","73","73","74","/","02/15/18 13:46:25","The main experiment item","yes","FIN__BA__M21__7%3A10%3A17.osexp","C:\Users\ERP Testing Room\Desktop\Joanna\morph21","no","mono","no","18","no","white","no","yes","1080","legacy","73","73","C:/Users/ERP Testing Room/Desktop/Joanna/morph21/subject-125.csv","xpyriment","Jazzy James","3.1.4","0","/","NA","NA","NA","NA","space","/","588","NA","NA","NA","NA","239015","588","2","legacy","1024","2","48000","-16","BA_m21","125","odd","FILL_W","STEEP","1358","509895","508312","502104","240381","NA","NA","NA","NA","509887","508809","NA","507812","NA","507804","509887","1366","510296","NA","NA","508896","1358","1358","509287","507803","1358","508896","510296","morph21_Oliver/Morris","67","46756","74","yes","1280","16"
"300","90.6666666667","90.6666666667","631.106666667","631.106666667","black","no","xpyriment","legacy","legacy","0","201","NA","uniform","69804","1000","0.0143258266002","undefined","undefined","1","0","74","74","74","0","74","74","74","NA","74","74","0","74","NA","74","74","0","74","NA","74","NA","74","0","0","74","74","0","74","74","75","/","02/15/18 13:46:25","The main experiment item","yes","FIN__BA__M21__7%3A10%3A17.osexp","C:\Users\ERP Testing Room\Desktop\Joanna\morph21","no","mono","no","18","no","white","no","yes","1080","legacy","74","74","C:/Users/ERP Testing Room/Desktop/Joanna/morph21/subject-125.csv","xpyriment","Jazzy James","3.1.4","0","space","space","NA","NA","NA","space","/","59936","59936","NA","NA","NA","239015","577","2","legacy","1024","2","48000","-16","BA_m21","125","odd","CW_S","GUILTY","1358","514688","511580","513180","240381","514997","NA","NA","NA","513170","512077","NA","511080","NA","511072","513170","1366","574934","NA","NA","512180","1358","1358","512572","511072","1358","512180","514989","morph21_Oliver/Morris","68","47333","75","yes","1280","34"
"350","90.7894736842","90.7894736842","630.065789474","630.065789474","black","no","xpyriment","legacy","legacy","0","202","NA","uniform","74223","1000","0.013472912709","1","undefined","1","0","75","75","75","0","75","75","75","NA","75","75","0","75","NA","75","75","0","75","NA","75","NA","75","0","0","75","75","0","75","75","76","/","02/15/18 13:46:25","The main experiment item","yes","FIN__BA__M21__7%3A10%3A17.osexp","C:\Users\ERP Testing Room\Desktop\Joanna\morph21","no","mono","no","18","no","white","no","yes","1080","legacy","75","75","C:/Users/ERP Testing Room/Desktop/Joanna/morph21/subject-125.csv","xpyriment","Jazzy James","3.1.4","0","/","space","NA","NA","NA","space","/","552","59936","NA","NA","NA","239015","552","2","legacy","1024","2","48000","-16","BA_m21","125","odd","CW_L","PAINTER","1358","577669","576086","513180","240381","514997","NA","NA","NA","577660","576583","NA","575586","NA","575577","577660","1366","578019","NA","NA","576669","1358","1358","577061","575577","1358","576669","578019","morph21_Oliver/Morris","69","47885","76","yes","1280","18"
"300","90.9090909091","90.9090909091","631.87012987","631.87012987","black","no","xpyriment","legacy","legacy","0","205","NA","uniform","68862","1000","0.0145217972176","1","undefined","1","0","76","76","76","0","76","76","76","NA","76","76","0","76","NA","76","76","0","76","NA","76","NA","76","0","0","76","76","0","76","76","77","z","02/15/18 13:46:25","The main experiment item","yes","FIN__BA__M21__7%3A10%3A17.osexp","C:\Users\ERP Testing Room\Desktop\Joanna\morph21","no","mono","no","18","no","white","no","yes","1080","legacy","76","76","C:/Users/ERP Testing Room/Desktop/Joanna/morph21/subject-125.csv","xpyriment","Jazzy James","3.1.4","0","z","space","NA","NA","NA","space","z","769","59936","NA","NA","NA","239015","769","2","legacy","1024","2","48000","-16","BA_m21","125","odd","NW_S_SIMP","TILTARY","1358","580829","579219","513180","240381","514997","NA","NA","NA","580820","579716","NA","578719","NA","578715","580820","1366","581129","NA","NA","579828","1358","1358","580219","578715","1358","579828","581129","morph21_Oliver/Morris","70","48654","77","yes","1280","17"
"300","89.7435897436","89.7435897436","630.141025641","630.141025641","black","no","xpyriment","legacy","legacy","0","206","NA","uniform","78480","1000","0.0127420998981","0","undefined","0","0","77","77","77","0","77","77","77","NA","77","77","0","77","NA","77","77","0","77","NA","77","NA","77","0","0","77","77","0","77","77","78","z","02/15/18 13:46:25","The main experiment item","yes","FIN__BA__M21__7%3A10%3A17.osexp","C:\Users\ERP Testing Room\Desktop\Joanna\morph21","no","mono","no","18","no","white","no","yes","1080","legacy","77","77","C:/Users/ERP Testing Room/Desktop/Joanna/morph21/subject-125.csv","xpyriment","Jazzy James","3.1.4","0","/","space","NA","NA","NA","space","/","497","59936","NA","NA","NA","239015","497","2","legacy","1024","2","48000","-16","BA_m21","125","odd","NW_L_SIMP","TAXFUL","1358","585504","582395","583995","240381","514997","NA","NA","NA","580820","582893","NA","581895","NA","581888","583993","1366","585804","NA","NA","583004","1358","1358","583395","581888","1358","583004","585804","morph21_Oliver/Morris","70","49151","78","yes","1280","6"
"350","89.8734177215","89.8734177215","630.556962025","630.556962025","black","no","xpyriment","legacy","legacy","0","203","NA","uniform","59658","1000","0.0167622112709","1","undefined","1","0","78","78","78","0","78","78","78","NA","78","78","0","78","NA","78","78","0","78","NA","78","NA","78","0","0","78","78","0","78","78","79","z","02/15/18 13:46:25","The main experiment item","yes","FIN__BA__M21__7%3A10%3A17.osexp","C:\Users\ERP Testing Room\Desktop\Joanna\morph21","no","mono","no","18","no","white","no","yes","1080","legacy","78","78","C:/Users/ERP Testing Room/Desktop/Joanna/morph21/subject-125.csv","xpyriment","Jazzy James","3.1.4","0","z","space","NA","NA","NA","space","z","663","59936","NA","NA","NA","239015","663","2","legacy","1024","2","48000","-16","BA_m21","125","odd","NW_S_COMP","DEBTITH","1358","588646","587062","583995","240381","514997","NA","NA","NA","588639","587559","NA","586562","NA","586555","588639","1366","588996","NA","NA","587646","1358","1358","588037","586555","1358","587646","588996","morph21_Oliver/Morris","71","49814","79","yes","1280","22"
"400","88.75","88.75","632.4625","632.4625","black","no","xpyriment","legacy","legacy","0","202","NA","uniform","64061","1000","0.0156101216028","0","undefined","0","0","79","79","79","0","79","79","79","NA","79","79","0","79","NA","79","79","0","79","NA","79","NA","79","0","0","79","79","0","79","79","80","/","02/15/18 13:46:25","The main experiment item","yes","FIN__BA__M21__7%3A10%3A17.osexp","C:\Users\ERP Testing Room\Desktop\Joanna\morph21","no","mono","no","18","no","white","no","yes","1080","legacy","79","79","C:/Users/ERP Testing Room/Desktop/Joanna/morph21/subject-125.csv","xpyriment","Jazzy James","3.1.4","0","z","space","NA","NA","NA","space","z","783","59936","NA","NA","NA","239015","783","2","legacy","1024","2","48000","-16","BA_m21","125","odd","CW_L","WRONGLY","1358","591862","590254","583995","240381","514997","NA","NA","NA","588639","590751","NA","589754","NA","589743","591854","1366","592263","NA","NA","590862","1358","1358","591254","589743","1358","590862","592263","morph21_Oliver/Morris","71","50597","80","yes","1280","37"
"200","88.8888888889","88.8888888889","632.135802469","632.135802469","black","no","xpyriment","legacy","legacy","0","208","NA","uniform","73814","1000","0.0135475655025","1","undefined","1","0","80","80","80","0","80","80","80","NA","80","80","0","80","NA","80","80","0","80","NA","80","NA","80","0","0","80","80","0","80","80","81","z","02/15/18 13:46:25","The main experiment item","yes","FIN__BA__M21__7%3A10%3A17.osexp","C:\Users\ERP Testing Room\Desktop\Joanna\morph21","no","mono","no","18","no","white","no","yes","1080","legacy","80","80","C:/Users/ERP Testing Room/Desktop/Joanna/morph21/subject-125.csv","xpyriment","Jazzy James","3.1.4","0","z","space","NA","NA","NA","space","z","606","59936","NA","NA","NA","239015","606","2","legacy","1024","2","48000","-16","BA_m21","125","odd","FILL_NW","CINDS","1358","596571","593479","595063","240381","514997","NA","NA","NA","595058","593976","NA","592979","NA","592970","595058","1366","596771","NA","NA","594063","1358","1358","594463","592970","1358","594063","596771","morph21_Oliver/Morris","72","51203","81","yes","1280","6"
"300","89.0243902439","89.0243902439","634.93902439","634.93902439","black","no","xpyriment","legacy","legacy","0","202","NA","uniform","66582","1000","0.0150190742243","1","undefined","1","0","81","81","81","0","81","81","81","NA","81","81","0","81","NA","81","81","0","81","NA","81","NA","81","0","0","81","81","0","81","81","82","/","02/15/18 13:46:25","The main experiment item","yes","FIN__BA__M21__7%3A10%3A17.osexp","C:\Users\ERP Testing Room\Desktop\Joanna\morph21","no","mono","no","18","no","white","no","yes","1080","legacy","81","81","C:/Users/ERP Testing Room/Desktop/Joanna/morph21/subject-125.csv","xpyriment","Jazzy James","3.1.4","0","/","space","NA","NA","NA","space","/","862","59936","NA","NA","NA","239015","862","2","legacy","1024","2","48000","-16","BA_m21","125","odd","CW_L","DAMPISH","1358","599630","598047","595063","240381","514997","NA","NA","NA","599622","598544","NA","597546","NA","597537","599622","1366","599930","NA","NA","598631","1358","1358","599022","597537","1358","598630","599930","morph21_Oliver/Morris","73","52065","82","yes","1280","28"
"400","89.156626506","89.156626506","633.373493976","633.373493976","black","no","xpyriment","legacy","legacy","0","208","NA","uniform","77052","1000","0.0129782484556","1","undefined","1","0","82","82","82","0","82","82","82","NA","82","82","0","82","NA","82","82","0","82","NA","82","NA","82","0","0","82","82","0","82","82","83","z","02/15/18 13:46:25","The main experiment item","yes","FIN__BA__M21__7%3A10%3A17.osexp","C:\Users\ERP Testing Room\Desktop\Joanna\morph21","no","mono","no","18","no","white","no","yes","1080","legacy","82","82","C:/Users/ERP Testing Room/Desktop/Joanna/morph21/subject-125.csv","xpyriment","Jazzy James","3.1.4","0","z","space","NA","NA","NA","space","z","505","59936","NA","NA","NA","239015","505","2","legacy","1024","2","48000","-16","BA_m21","125","odd","FILL_NW","DROES","1358","602756","601155","595063","240381","514997","NA","NA","NA","602748","601653","NA","600656","NA","600646","602748","1366","603156","NA","NA","601756","1358","1358","602147","600646","1358","601756","603156","morph21_Oliver/Morris","74","52570","83","yes","1280","17"
"300","89.2857142857","89.2857142857","632.654761905","632.654761905","black","no","xpyriment","legacy","legacy","0","207","NA","uniform","73790","1000","0.0135519718119","1","undefined","1","0","83","83","83","0","83","83","83","NA","83","83","0","83","NA","83","83","0","83","NA","83","NA","83","0","0","83","83","0","83","83","84","/","02/15/18 13:46:25","The main experiment item","yes","FIN__BA__M21__7%3A10%3A17.osexp","C:\Users\ERP Testing Room\Desktop\Joanna\morph21","no","mono","no","18","no","white","no","yes","1080","legacy","83","83","C:/Users/ERP Testing Room/Desktop/Joanna/morph21/subject-125.csv","xpyriment","Jazzy James","3.1.4","0","/","space","NA","NA","NA","space","/","573","59936","NA","NA","NA","239015","573","2","legacy","1024","2","48000","-16","BA_m21","125","odd","FILL_W","BOX","1358","607564","604431","606056","240381","514997","NA","NA","NA","606050","604928","NA","603931","NA","603925","606050","1366","607864","NA","NA","605056","1358","1358","605447","603925","1358","605056","607864","morph21_Oliver/Morris","75","53143","84","yes","1280","42"
"250","89.4117647059","89.4117647059","632.894117647","632.894117647","black","no","xpyriment","legacy","legacy","0","208","NA","uniform","68966","1000","0.0144998985007","1","undefined","1","0","84","84","84","0","84","84","84","NA","84","84","0","84","NA","84","84","0","84","NA","84","NA","84","0","0","84","84","0","84","84","85","z","02/15/18 13:46:25","The main experiment item","yes","FIN__BA__M21__7%3A10%3A17.osexp","C:\Users\ERP Testing Room\Desktop\Joanna\morph21","no","mono","no","18","no","white","no","yes","1080","legacy","84","84","C:/Users/ERP Testing Room/Desktop/Joanna/morph21/subject-125.csv","xpyriment","Jazzy James","3.1.4","0","z","space","NA","NA","NA","space","z","653","59936","NA","NA","NA","239015","653","2","legacy","1024","2","48000","-16","BA_m21","125","odd","FILL_NW","POLT","1358","610648","609039","606056","240381","514997","NA","NA","NA","610641","609536","NA","608539","NA","608529","610641","1366","610898","NA","NA","609648","1358","1358","610039","608529","1358","609648","610898","morph21_Oliver/Morris","76","53796","85","yes","1280","38"
"400","89.5348837209","89.5348837209","632.325581395","632.325581395","black","no","xpyriment","legacy","legacy","0","201","NA","uniform","71245","1000","0.0140360727069","1","undefined","1","0","85","85","85","0","85","85","85","NA","85","85","0","85","NA","85","85","0","85","NA","85","NA","85","0","0","85","85","0","85","85","86","/","02/15/18 13:46:25","The main experiment item","yes","FIN__BA__M21__7%3A10%3A17.osexp","C:\Users\ERP Testing Room\Desktop\Joanna\morph21","no","mono","no","18","no","white","no","yes","1080","legacy","85","85","C:/Users/ERP Testing Room/Desktop/Joanna/morph21/subject-125.csv","xpyriment","Jazzy James","3.1.4","0","/","space","NA","NA","NA","space","/","584","59936","NA","NA","NA","239015","584","2","legacy","1024","2","48000","-16","BA_m21","125","odd","CW_S","WIDOWED","1358","613789","612206","606056","240381","514997","NA","NA","NA","613781","612703","NA","611706","NA","611697","613781","1366","614189","NA","NA","612789","1358","1358","613181","611697","1358","612789","614189","morph21_Oliver/Morris","77","54380","86","yes","1280","7"
"350","89.6551724138","89.6551724138","630.724137931","630.724137931","black","no","xpyriment","legacy","legacy","0","207","NA","uniform","75757","1000","0.0132001003208","1","undefined","1","0","86","86","86","0","86","86","86","NA","86","86","0","86","NA","86","86","0","86","NA","86","NA","86","0","0","86","86","0","86","86","87","/","02/15/18 13:46:25","The main experiment item","yes","FIN__BA__M21__7%3A10%3A17.osexp","C:\Users\ERP Testing Room\Desktop\Joanna\morph21","no","mono","no","18","no","white","no","yes","1080","legacy","86","86","C:/Users/ERP Testing Room/Desktop/Joanna/morph21/subject-125.csv","xpyriment","Jazzy James","3.1.4","0","/","space","NA","NA","NA","space","/","493","59936","NA","NA","NA","239015","493","2","legacy","1024","2","48000","-16","BA_m21","125","odd","FILL_W","WEIRD","1358","618566","615449","617057","240381","514997","NA","NA","NA","617050","615946","NA","614948","NA","614936","617050","1366","618916","NA","NA","616057","1358","1358","616449","614936","1358","616057","618916","morph21_Oliver/Morris","78","54873","87","yes","1280","2"
"300","89.7727272727","89.7727272727","631.306818182","631.306818182","black","no","xpyriment","legacy","legacy","0","208","NA","uniform","71223","1000","0.0140404082951","1","undefined","1","0","87","87","87","0","87","87","87","NA","87","87","0","87","NA","87","87","0","87","NA","87","NA","87","0","0","87","87","0","87","87","88","z","02/15/18 13:46:25","The main experiment item","yes","FIN__BA__M21__7%3A10%3A17.osexp","C:\Users\ERP Testing Room\Desktop\Joanna\morph21","no","mono","no","18","no","white","no","yes","1080","legacy","87","87","C:/Users/ERP Testing Room/Desktop/Joanna/morph21/subject-125.csv","xpyriment","Jazzy James","3.1.4","0","z","space","NA","NA","NA","space","z","682","59936","NA","NA","NA","239015","682","2","legacy","1024","2","48000","-16","BA_m21","125","odd","FILL_NW","DASK","1358","621891","620307","617057","240381","514997","NA","NA","NA","621882","620804","NA","619807","NA","619804","621882","1366","622191","NA","NA","620891","1358","1358","621282","619804","1358","620891","622191","morph21_Oliver/Morris","79","55555","88","yes","1280","12"
"350","89.8876404494","89.8876404494","629.662921348","629.662921348","black","no","xpyriment","legacy","legacy","0","201","NA","uniform","68338","1000","0.0146331470046","1","undefined","1","0","88","88","88","0","88","88","88","NA","88","88","0","88","NA","88","88","0","88","NA","88","NA","88","0","0","88","88","0","88","88","89","/","02/15/18 13:46:25","The main experiment item","yes","FIN__BA__M21__7%3A10%3A17.osexp","C:\Users\ERP Testing Room\Desktop\Joanna\morph21","no","mono","no","18","no","white","no","yes","1080","legacy","88","88","C:/Users/ERP Testing Room/Desktop/Joanna/morph21/subject-125.csv","xpyriment","Jazzy James","3.1.4","0","/","space","NA","NA","NA","space","/","485","59936","NA","NA","NA","239015","485","2","legacy","1024","2","48000","-16","BA_m21","125","odd","CW_S","SINGER","1358","625016","623408","617057","240381","514997","NA","NA","NA","625012","623905","NA","622908","NA","622904","625012","1366","625366","NA","NA","624016","1358","1358","624416","622903","1358","624016","625366","morph21_Oliver/Morris","80","56040","89","yes","1280","17"
"350","90","90","631.166666667","631.166666667","black","no","xpyriment","legacy","legacy","0","201","NA","uniform","62778","1000","0.0159291471535","1","undefined","1","0","89","89","89","0","89","89","89","NA","89","89","0","89","NA","89","89","0","89","NA","89","NA","89","0","0","89","89","0","89","89","90","/","02/15/18 13:46:25","The main experiment item","yes","FIN__BA__M21__7%3A10%3A17.osexp","C:\Users\ERP Testing Room\Desktop\Joanna\morph21","no","mono","no","18","no","white","no","yes","1080","legacy","89","89","C:/Users/ERP Testing Room/Desktop/Joanna/morph21/subject-125.csv","xpyriment","Jazzy James","3.1.4","0","/","space","NA","NA","NA","space","/","765","59936","NA","NA","NA","239015","765","2","legacy","1024","2","48000","-16","BA_m21","125","odd","CW_S","DULLNESS","1358","629733","626599","628224","240381","514997","NA","NA","NA","628216","627096","NA","626099","NA","626094","628216","1366","630083","NA","NA","627224","1358","1358","627616","626094","1358","627224","630083","morph21_Oliver/Morris","81","56805","90","yes","1280","43"
"300","90.1098901099","90.1098901099","630.813186813","630.813186813","black","no","xpyriment","legacy","legacy","0","208","NA","uniform","73642","1000","0.0135792075174","1","undefined","1","0","90","90","90","0","90","90","90","NA","90","90","0","90","NA","90","90","0","90","NA","90","NA","90","0","0","90","90","0","90","90","91","z","02/15/18 13:46:25","The main experiment item","yes","FIN__BA__M21__7%3A10%3A17.osexp","C:\Users\ERP Testing Room\Desktop\Joanna\morph21","no","mono","no","18","no","white","no","yes","1080","legacy","90","90","C:/Users/ERP Testing Room/Desktop/Joanna/morph21/subject-125.csv","xpyriment","Jazzy James","3.1.4","0","z","space","NA","NA","NA","space","z","599","59936","NA","NA","NA","239015","599","2","legacy","1024","2","48000","-16","BA_m21","125","odd","FILL_NW","DULKS","1358","632934","631325","628224","240381","514997","NA","NA","NA","632929","631822","NA","630825","NA","630816","632929","1366","633234","NA","NA","631933","1358","1358","632333","630816","1358","631933","633234","morph21_Oliver/Morris","82","57404","91","yes","1280","18"
