"ITI","acc","accuracy","average_response_time","avg_rt","background","bidi","canvas_backend","clock_backend","color_backend","compensation","cond_trig","condtrigtime","coordinates","coroutines_cycles","coroutines_duration","coroutines_mean_cycle_duration","correct","correct_instructions_1","correct_new_keyboard_response_1","count_AB_m21","count_ITI","count_blank_screen","count_blink_screen","count_block1","count_break1","count_break2","count_break3_1","count_canvas","count_correct_trigger","count_def_chain","count_end_screen","count_fixation_1","count_getting_started","count_inc_counter","count_incorrect_trigger","count_instructions_1","count_logger","count_logscript","count_new_coroutines","count_new_inline_script","count_new_keyboard_response_1","count_reset_counter_prep","count_reset_counter_run","count_responsescreen","count_sequence","count_start_trigger","count_target_present","count_word_trigger","counter","cresp","datetime","description","disable_garbage_collection","experiment_file","experiment_path","font_bold","font_family","font_italic","font_size","font_underline","foreground","form_clicks","fullscreen","height","keyboard_backend","live_row","live_row_block1","logfile","mouse_backend","opensesame_codename","opensesame_version","repeat_cycle","response","response_break1","response_break2","response_break3_1","response_end_screen","response_instructions_1","response_new_keyboard_response_1","response_time","response_time_break1","response_time_break2","response_time_break3_1","response_time_end_screen","response_time_instructions_1","response_time_new_keyboard_response_1","round_decimals","sampler_backend","sound_buf_size","sound_channels","sound_freq","sound_sample_size","start","subject_nr","subject_parity","targ_type","target","time_AB_m21","time_ITI","time_blank_screen","time_blink_screen","time_block1","time_break1","time_break2","time_break3_1","time_canvas","time_correct_trigger","time_def_chain","time_end_screen","time_fixation_1","time_getting_started","time_inc_counter","time_incorrect_trigger","time_instructions_1","time_logger","time_logscript","time_new_inline_script","time_new_keyboard_response_1","time_reset_counter_prep","time_reset_counter_run","time_responsescreen","time_sequence","time_start_trigger","time_target_present","time_word_trigger","title","total_correct","total_response_time","total_responses","uniform_coordinates","width","word_trig"
"300","100","100","807","807","black","no","xpyriment","legacy","legacy","0","207","NA","uniform","62749","1000","0.0159365089483","1","undefined","1","0","0","0","0","0","0","0","0","NA","0","0","0","0","NA","0","0","0","0","NA","0","NA","0","0","0","0","0","0","0","0","1","/","10/29/18 16:28:28","The main experiment item","yes","FIN__AB__M21__7%3A10%3A17.osexp","C:\Users\ERP Testing Room\Desktop\Joanna\morph21","no","mono","no","18","no","white","no","yes","1080","legacy","0","0","C:/Users/ERP Testing Room/Desktop/Joanna/morph21/subject-146.csv","xpyriment","Jazzy James","3.1.4","0","/","NA","NA","NA","NA","space","/","807","NA","NA","NA","NA","137454","807","2","legacy","1024","2","48000","-16","AB_m21","146","even","FILL_W","BOX","2472","142731","141148","NA","139947","NA","NA","NA","NA","142727","141645","NA","140643","NA","140576","142727","2492","143031","NA","NA","141731","2473","2473","142131","140576","2472","141731","143031","morph21_Oliver/Morris","1","807","1","yes","1280","42"
"400","100","100","692","692","black","no","xpyriment","legacy","legacy","0","202","NA","uniform","71436","1000","0.0139985441514","1","undefined","1","0","1","1","1","0","1","1","1","NA","1","1","0","1","NA","1","1","0","1","NA","1","NA","1","0","0","1","1","0","1","1","2","/","10/29/18 16:28:28","The main experiment item","yes","FIN__AB__M21__7%3A10%3A17.osexp","C:\Users\ERP Testing Room\Desktop\Joanna\morph21","no","mono","no","18","no","white","no","yes","1080","legacy","1","1","C:/Users/ERP Testing Room/Desktop/Joanna/morph21/subject-146.csv","xpyriment","Jazzy James","3.1.4","0","/","NA","NA","NA","NA","space","/","577","NA","NA","NA","NA","137454","577","2","legacy","1024","2","48000","-16","AB_m21","146","even","CW_L","BLINDNESS","2472","145881","144290","NA","139947","NA","NA","NA","NA","145877","144787","NA","143789","NA","143785","145877","2492","146281","NA","NA","144881","2473","2473","145281","143785","2472","144881","146281","morph21_Oliver/Morris","2","1384","2","yes","1280","40"
"300","100","100","701.333333333","701.333333333","black","no","xpyriment","legacy","legacy","0","204","NA","uniform","68747","1000","0.0145460892839","1","undefined","1","0","2","2","2","0","2","2","2","NA","2","2","0","2","NA","2","2","0","2","NA","2","NA","2","0","0","2","2","0","2","2","3","z","10/29/18 16:28:28","The main experiment item","yes","FIN__AB__M21__7%3A10%3A17.osexp","C:\Users\ERP Testing Room\Desktop\Joanna\morph21","no","mono","no","18","no","white","no","yes","1080","legacy","2","2","C:/Users/ERP Testing Room/Desktop/Joanna/morph21/subject-146.csv","xpyriment","Jazzy James","3.1.4","0","z","NA","NA","NA","NA","space","z","720","NA","NA","NA","NA","137454","720","2","legacy","1024","2","48000","-16","AB_m21","146","even","NW_L_COMP","BINDIC","2472","150815","147698","149306","139947","NA","NA","NA","NA","149297","148195","NA","147198","NA","147193","149297","2492","151115","NA","NA","148306","2473","2473","148698","147193","2472","148306","151115","morph21_Oliver/Morris","3","2104","3","yes","1280","22"
"400","75","75","702.75","702.75","black","no","xpyriment","legacy","legacy","0","207","NA","uniform","64988","1000","0.0153874561457","0","undefined","0","0","3","3","3","0","3","3","3","NA","3","3","0","3","NA","3","3","0","3","NA","3","NA","3","0","0","3","3","0","3","3","4","/","10/29/18 16:28:28","The main experiment item","yes","FIN__AB__M21__7%3A10%3A17.osexp","C:\Users\ERP Testing Room\Desktop\Joanna\morph21","no","mono","no","18","no","white","no","yes","1080","legacy","3","3","C:/Users/ERP Testing Room/Desktop/Joanna/morph21/subject-146.csv","xpyriment","Jazzy James","3.1.4","0","z","NA","NA","NA","NA","space","z","707","NA","NA","NA","NA","137454","707","2","legacy","1024","2","48000","-16","AB_m21","146","even","FILL_W","LITHE","2472","154023","152440","149306","139947","NA","NA","NA","NA","149297","152937","NA","151932","NA","151920","154015","2492","154423","NA","NA","153023","2473","2473","153415","151920","2472","153023","154423","morph21_Oliver/Morris","3","2811","4","yes","1280","23"
"200","80","80","673.8","673.8","black","no","xpyriment","legacy","legacy","0","207","NA","uniform","75149","1000","0.0133068969647","1","undefined","1","0","4","4","4","0","4","4","4","NA","4","4","0","4","NA","4","4","0","4","NA","4","NA","4","0","0","4","4","0","4","4","5","/","10/29/18 16:28:28","The main experiment item","yes","FIN__AB__M21__7%3A10%3A17.osexp","C:\Users\ERP Testing Room\Desktop\Joanna\morph21","no","mono","no","18","no","white","no","yes","1080","legacy","4","4","C:/Users/ERP Testing Room/Desktop/Joanna/morph21/subject-146.csv","xpyriment","Jazzy James","3.1.4","0","/","NA","NA","NA","NA","space","/","558","NA","NA","NA","NA","137454","558","2","legacy","1024","2","48000","-16","AB_m21","146","even","FILL_W","FLOAT","2472","157307","155707","149306","139947","NA","NA","NA","NA","157302","156204","NA","155207","NA","155198","157302","2492","157507","NA","NA","156307","2473","2473","156707","155197","2472","156307","157507","morph21_Oliver/Morris","4","3369","5","yes","1280","30"
"300","83.3333333333","83.3333333333","677.833333333","677.833333333","black","no","xpyriment","legacy","legacy","0","208","NA","uniform","70819","1000","0.0141205043844","1","undefined","1","0","5","5","5","0","5","5","5","NA","5","5","0","5","NA","5","5","0","5","NA","5","NA","5","0","0","5","5","0","5","5","6","z","10/29/18 16:28:28","The main experiment item","yes","FIN__AB__M21__7%3A10%3A17.osexp","C:\Users\ERP Testing Room\Desktop\Joanna\morph21","no","mono","no","18","no","white","no","yes","1080","legacy","5","5","C:/Users/ERP Testing Room/Desktop/Joanna/morph21/subject-146.csv","xpyriment","Jazzy James","3.1.4","0","z","NA","NA","NA","NA","space","z","698","NA","NA","NA","NA","137454","698","2","legacy","1024","2","48000","-16","AB_m21","146","even","FILL_NW","VOOFS","2472","161908","158783","160400","139947","NA","NA","NA","NA","160391","159280","NA","158274","NA","158267","160391","2492","162208","NA","NA","159400","2473","2473","159791","158267","2472","159400","162208","morph21_Oliver/Morris","5","4067","6","yes","1280","48"
"200","85.7142857143","85.7142857143","676.857142857","676.857142857","black","no","xpyriment","legacy","legacy","0","204","NA","uniform","67772","1000","0.0147553561943","1","undefined","1","0","6","6","6","0","6","6","6","NA","6","6","0","6","NA","6","6","0","6","NA","6","NA","6","0","0","6","6","0","6","6","7","z","10/29/18 16:28:28","The main experiment item","yes","FIN__AB__M21__7%3A10%3A17.osexp","C:\Users\ERP Testing Room\Desktop\Joanna\morph21","no","mono","no","18","no","white","no","yes","1080","legacy","6","6","C:/Users/ERP Testing Room/Desktop/Joanna/morph21/subject-146.csv","xpyriment","Jazzy James","3.1.4","0","z","NA","NA","NA","NA","space","z","671","NA","NA","NA","NA","137454","671","2","legacy","1024","2","48000","-16","AB_m21","146","even","NW_L_COMP","FLIPORY","2472","165083","163491","160400","139947","NA","NA","NA","NA","165073","163988","NA","162991","NA","162985","165073","2492","165283","NA","NA","164083","2473","2473","164475","162985","2472","164083","165283","morph21_Oliver/Morris","6","4738","7","yes","1280","16"
"350","87.5","87.5","663.375","663.375","black","no","xpyriment","legacy","legacy","0","201","NA","uniform","75654","1000","0.0132180717477","1","undefined","1","0","7","7","7","0","7","7","7","NA","7","7","0","7","NA","7","7","0","7","NA","7","NA","7","0","0","7","7","0","7","7","8","/","10/29/18 16:28:28","The main experiment item","yes","FIN__AB__M21__7%3A10%3A17.osexp","C:\Users\ERP Testing Room\Desktop\Joanna\morph21","no","mono","no","18","no","white","no","yes","1080","legacy","7","7","C:/Users/ERP Testing Room/Desktop/Joanna/morph21/subject-146.csv","xpyriment","Jazzy James","3.1.4","0","/","NA","NA","NA","NA","space","/","569","NA","NA","NA","NA","137454","569","2","legacy","1024","2","48000","-16","AB_m21","146","even","CW_S","NEATLY","2472","168225","166616","160400","139947","NA","NA","NA","NA","168222","167114","NA","166116","NA","166111","168222","2492","168575","NA","NA","167225","2473","2473","167625","166111","2472","167225","168575","morph21_Oliver/Morris","7","5307","8","yes","1280","33"
"400","88.8888888889","88.8888888889","652","652","black","no","xpyriment","legacy","legacy","0","208","NA","uniform","68267","1000","0.0146483659748","1","undefined","1","0","8","8","8","0","8","8","8","NA","8","8","0","8","NA","8","8","0","8","NA","8","NA","8","0","0","8","8","0","8","8","9","z","10/29/18 16:28:28","The main experiment item","yes","FIN__AB__M21__7%3A10%3A17.osexp","C:\Users\ERP Testing Room\Desktop\Joanna\morph21","no","mono","no","18","no","white","no","yes","1080","legacy","8","8","C:/Users/ERP Testing Room/Desktop/Joanna/morph21/subject-146.csv","xpyriment","Jazzy James","3.1.4","0","z","NA","NA","NA","NA","space","z","561","NA","NA","NA","NA","137454","561","2","legacy","1024","2","48000","-16","AB_m21","146","even","FILL_NW","ULNS","2472","172925","169808","171417","139947","NA","NA","NA","NA","171407","170305","NA","169308","NA","169299","171407","2492","173325","NA","NA","170417","2473","2473","170808","169299","2472","170417","173325","morph21_Oliver/Morris","8","5868","9","yes","1280","45"
"200","90","90","660.8","660.8","black","no","xpyriment","legacy","legacy","0","203","NA","uniform","68994","1000","0.0144940139722","1","undefined","1","0","9","9","9","0","9","9","9","NA","9","9","0","9","NA","9","9","0","9","NA","9","NA","9","0","0","9","9","0","9","9","10","z","10/29/18 16:28:28","The main experiment item","yes","FIN__AB__M21__7%3A10%3A17.osexp","C:\Users\ERP Testing Room\Desktop\Joanna\morph21","no","mono","no","18","no","white","no","yes","1080","legacy","9","9","C:/Users/ERP Testing Room/Desktop/Joanna/morph21/subject-146.csv","xpyriment","Jazzy James","3.1.4","0","z","NA","NA","NA","NA","space","z","740","NA","NA","NA","NA","137454","740","2","legacy","1024","2","48000","-16","AB_m21","146","even","NW_S_COMP","ADOPTISH","2472","176118","174517","171417","139947","NA","NA","NA","NA","176111","175014","NA","174017","NA","174009","176111","2492","176318","NA","NA","175118","2473","2473","175509","174009","2472","175118","176318","morph21_Oliver/Morris","9","6608","10","yes","1280","19"
"350","90.9090909091","90.9090909091","651.545454545","651.545454545","black","no","xpyriment","legacy","legacy","0","207","NA","uniform","71476","1000","0.0139907101684","1","undefined","1","0","10","10","10","0","10","10","10","NA","10","10","0","10","NA","10","10","0","10","NA","10","NA","10","0","0","10","10","0","10","10","11","/","10/29/18 16:28:28","The main experiment item","yes","FIN__AB__M21__7%3A10%3A17.osexp","C:\Users\ERP Testing Room\Desktop\Joanna\morph21","no","mono","no","18","no","white","no","yes","1080","legacy","10","10","C:/Users/ERP Testing Room/Desktop/Joanna/morph21/subject-146.csv","xpyriment","Jazzy James","3.1.4","0","/","NA","NA","NA","NA","space","/","559","NA","NA","NA","NA","137454","559","2","legacy","1024","2","48000","-16","AB_m21","146","even","FILL_W","FAINT","2472","179243","177643","171417","139947","NA","NA","NA","NA","179233","178140","NA","177143","NA","177139","179233","2492","179593","NA","NA","178243","2473","2473","178635","177139","2472","178243","179593","morph21_Oliver/Morris","10","7167","11","yes","1280","31"
"300","91.6666666667","91.6666666667","637.666666667","637.666666667","black","no","xpyriment","legacy","legacy","0","208","NA","uniform","80894","1000","0.0123618562563","1","undefined","1","0","11","11","11","0","11","11","11","NA","11","11","0","11","NA","11","11","0","11","NA","11","NA","11","0","0","11","11","0","11","11","12","z","10/29/18 16:28:28","The main experiment item","yes","FIN__AB__M21__7%3A10%3A17.osexp","C:\Users\ERP Testing Room\Desktop\Joanna\morph21","no","mono","no","18","no","white","no","yes","1080","legacy","11","11","C:/Users/ERP Testing Room/Desktop/Joanna/morph21/subject-146.csv","xpyriment","Jazzy James","3.1.4","0","z","NA","NA","NA","NA","space","z","485","NA","NA","NA","NA","137454","485","2","legacy","1024","2","48000","-16","AB_m21","146","even","FILL_NW","HEEM","2472","183993","180901","182485","139947","NA","NA","NA","NA","182477","181399","NA","180401","NA","180397","182477","2492","184293","NA","NA","181485","2473","2473","181876","180397","2472","181485","184293","morph21_Oliver/Morris","11","7652","12","yes","1280","27"
"200","92.3076923077","92.3076923077","632.769230769","632.769230769","black","no","xpyriment","legacy","legacy","0","208","NA","uniform","73089","1000","0.0136819494042","1","undefined","1","0","12","12","12","0","12","12","12","NA","12","12","0","12","NA","12","12","0","12","NA","12","NA","12","0","0","12","12","0","12","12","13","z","10/29/18 16:28:28","The main experiment item","yes","FIN__AB__M21__7%3A10%3A17.osexp","C:\Users\ERP Testing Room\Desktop\Joanna\morph21","no","mono","no","18","no","white","no","yes","1080","legacy","12","12","C:/Users/ERP Testing Room/Desktop/Joanna/morph21/subject-146.csv","xpyriment","Jazzy James","3.1.4","0","z","NA","NA","NA","NA","space","z","574","NA","NA","NA","NA","137454","574","2","legacy","1024","2","48000","-16","AB_m21","146","even","FILL_NW","DARM","2472","187068","185468","182485","139947","NA","NA","NA","NA","187058","185965","NA","184968","NA","184964","187058","2492","187268","NA","NA","186068","2473","2473","186460","184964","2472","186068","187268","morph21_Oliver/Morris","12","8226","13","yes","1280","11"
"250","92.8571428571","92.8571428571","632.642857143","632.642857143","black","no","xpyriment","legacy","legacy","0","206","NA","uniform","75096","1000","0.0133162884841","1","undefined","1","0","13","13","13","0","13","13","13","NA","13","13","0","13","NA","13","13","0","13","NA","13","NA","13","0","0","13","13","0","13","13","14","z","10/29/18 16:28:28","The main experiment item","yes","FIN__AB__M21__7%3A10%3A17.osexp","C:\Users\ERP Testing Room\Desktop\Joanna\morph21","no","mono","no","18","no","white","no","yes","1080","legacy","13","13","C:/Users/ERP Testing Room/Desktop/Joanna/morph21/subject-146.csv","xpyriment","Jazzy James","3.1.4","0","z","NA","NA","NA","NA","space","z","631","NA","NA","NA","NA","137454","631","2","legacy","1024","2","48000","-16","AB_m21","146","even","NW_L_SIMP","BEARILT","2472","190243","188635","182485","139947","NA","NA","NA","NA","190234","189132","NA","188135","NA","188131","190234","2492","190494","NA","NA","189243","2473","2473","189635","188131","2472","189243","190494","morph21_Oliver/Morris","13","8857","14","yes","1280","25"
"200","93.3333333333","93.3333333333","625.133333333","625.133333333","black","no","xpyriment","legacy","legacy","0","207","NA","uniform","73977","1000","0.0135177149655","1","undefined","1","0","14","14","14","0","14","14","14","NA","14","14","0","14","NA","14","14","0","14","NA","14","NA","14","0","0","14","14","0","14","14","15","/","10/29/18 16:28:28","The main experiment item","yes","FIN__AB__M21__7%3A10%3A17.osexp","C:\Users\ERP Testing Room\Desktop\Joanna\morph21","no","mono","no","18","no","white","no","yes","1080","legacy","14","14","C:/Users/ERP Testing Room/Desktop/Joanna/morph21/subject-146.csv","xpyriment","Jazzy James","3.1.4","0","/","NA","NA","NA","NA","space","/","520","NA","NA","NA","NA","137454","520","2","legacy","1024","2","48000","-16","AB_m21","146","even","FILL_W","TEST","2472","194895","191777","193386","139947","NA","NA","NA","NA","193381","192274","NA","191277","NA","191266","193381","2492","195095","NA","NA","192386","2473","2473","192786","191266","2472","192386","195095","morph21_Oliver/Morris","14","9377","15","yes","1280","47"
"300","93.75","93.75","616.3125","616.3125","black","no","xpyriment","legacy","legacy","0","201","NA","uniform","76547","1000","0.0130638692568","1","undefined","1","0","15","15","15","0","15","15","15","NA","15","15","0","15","NA","15","15","0","15","NA","15","NA","15","0","0","15","15","0","15","15","16","/","10/29/18 16:28:28","The main experiment item","yes","FIN__AB__M21__7%3A10%3A17.osexp","C:\Users\ERP Testing Room\Desktop\Joanna\morph21","no","mono","no","18","no","white","no","yes","1080","legacy","15","15","C:/Users/ERP Testing Room/Desktop/Joanna/morph21/subject-146.csv","xpyriment","Jazzy James","3.1.4","0","/","NA","NA","NA","NA","space","/","484","NA","NA","NA","NA","137454","484","2","legacy","1024","2","48000","-16","AB_m21","146","even","CW_S","MAGICAL","2472","197870","196278","193386","139947","NA","NA","NA","NA","197862","196775","NA","195778","NA","195768","197862","2492","198170","NA","NA","196870","2473","2473","197261","195768","2472","196870","198170","morph21_Oliver/Morris","15","9861","16","yes","1280","4"
"300","94.1176470588","94.1176470588","605.352941176","605.352941176","black","no","xpyriment","legacy","legacy","0","206","NA","uniform","73267","1000","0.0136487095145","1","undefined","1","0","16","16","16","0","16","16","16","NA","16","16","0","16","NA","16","16","0","16","NA","16","NA","16","0","0","16","16","0","16","16","17","z","10/29/18 16:28:28","The main experiment item","yes","FIN__AB__M21__7%3A10%3A17.osexp","C:\Users\ERP Testing Room\Desktop\Joanna\morph21","no","mono","no","18","no","white","no","yes","1080","legacy","16","16","C:/Users/ERP Testing Room/Desktop/Joanna/morph21/subject-146.csv","xpyriment","Jazzy James","3.1.4","0","z","NA","NA","NA","NA","space","z","430","NA","NA","NA","NA","137454","430","2","legacy","1024","2","48000","-16","AB_m21","146","even","NW_L_SIMP","LONGNELS","2472","201020","199420","193386","139947","NA","NA","NA","NA","201015","199917","NA","198920","NA","198913","201015","2492","201320","NA","NA","200020","2473","2473","200420","198913","2472","200020","201320","morph21_Oliver/Morris","16","10291","17","yes","1280","17"
"200","94.4444444444","94.4444444444","600.555555556","600.555555556","black","no","xpyriment","legacy","legacy","0","205","NA","uniform","65976","1000","0.0151570267976","1","undefined","1","0","17","17","17","0","17","17","17","NA","17","17","0","17","NA","17","17","0","17","NA","17","NA","17","0","0","17","17","0","17","17","18","z","10/29/18 16:28:28","The main experiment item","yes","FIN__AB__M21__7%3A10%3A17.osexp","C:\Users\ERP Testing Room\Desktop\Joanna\morph21","no","mono","no","18","no","white","no","yes","1080","legacy","17","17","C:/Users/ERP Testing Room/Desktop/Joanna/morph21/subject-146.csv","xpyriment","Jazzy James","3.1.4","0","z","NA","NA","NA","NA","space","z","519","NA","NA","NA","NA","137454","519","2","legacy","1024","2","48000","-16","AB_m21","146","even","NW_S_SIMP","THRILLANGE","2472","205912","202803","204403","139947","NA","NA","NA","NA","204399","203301","NA","202303","NA","202296","204399","2492","206112","NA","NA","203403","2473","2473","203803","202296","2472","203403","206112","morph21_Oliver/Morris","17","10810","18","yes","1280","22"
"350","94.7368421053","94.7368421053","595.631578947","595.631578947","black","no","xpyriment","legacy","legacy","0","208","NA","uniform","62246","1000","0.0160652893359","1","undefined","1","0","18","18","18","0","18","18","18","NA","18","18","0","18","NA","18","18","0","18","NA","18","NA","18","0","0","18","18","0","18","18","19","z","10/29/18 16:28:28","The main experiment item","yes","FIN__AB__M21__7%3A10%3A17.osexp","C:\Users\ERP Testing Room\Desktop\Joanna\morph21","no","mono","no","18","no","white","no","yes","1080","legacy","18","18","C:/Users/ERP Testing Room/Desktop/Joanna/morph21/subject-146.csv","xpyriment","Jazzy James","3.1.4","0","z","NA","NA","NA","NA","space","z","507","NA","NA","NA","NA","137454","507","2","legacy","1024","2","48000","-16","AB_m21","146","even","FILL_NW","BLANTH","2472","208879","207279","204403","139947","NA","NA","NA","NA","208874","207776","NA","206779","NA","206773","208874","2492","209229","NA","NA","207879","2473","2473","208279","206773","2472","207879","209229","morph21_Oliver/Morris","18","11317","19","yes","1280","3"
"350","95","95","594.65","594.65","black","no","xpyriment","legacy","legacy","0","201","NA","uniform","64295","1000","0.0155533089665","1","undefined","1","0","19","19","19","0","19","19","19","NA","19","19","0","19","NA","19","19","0","19","NA","19","NA","19","0","0","19","19","0","19","19","20","/","10/29/18 16:28:28","The main experiment item","yes","FIN__AB__M21__7%3A10%3A17.osexp","C:\Users\ERP Testing Room\Desktop\Joanna\morph21","no","mono","no","18","no","white","no","yes","1080","legacy","19","19","C:/Users/ERP Testing Room/Desktop/Joanna/morph21/subject-146.csv","xpyriment","Jazzy James","3.1.4","0","/","NA","NA","NA","NA","space","/","576","NA","NA","NA","NA","137454","576","2","legacy","1024","2","48000","-16","AB_m21","146","even","CW_S","DULLNESS","2472","212130","210538","204403","139947","NA","NA","NA","NA","212121","211035","NA","210038","NA","210027","212121","2492","212480","NA","NA","211130","2473","2473","211521","210027","2472","211130","212480","morph21_Oliver/Morris","19","11893","20","yes","1280","43"
"250","95.2380952381","95.2380952381","592","592","black","no","xpyriment","legacy","legacy","0","201","NA","uniform","73372","1000","0.0136291773429","1","undefined","1","0","20","20","20","0","20","20","20","NA","20","20","0","20","NA","20","20","0","20","NA","20","NA","20","0","0","20","20","0","20","20","21","/","10/29/18 16:28:28","The main experiment item","yes","FIN__AB__M21__7%3A10%3A17.osexp","C:\Users\ERP Testing Room\Desktop\Joanna\morph21","no","mono","no","18","no","white","no","yes","1080","legacy","20","20","C:/Users/ERP Testing Room/Desktop/Joanna/morph21/subject-146.csv","xpyriment","Jazzy James","3.1.4","0","/","NA","NA","NA","NA","space","/","539","NA","NA","NA","NA","137454","539","2","legacy","1024","2","48000","-16","AB_m21","146","even","CW_S","AWARENESS","2472","216963","213855","215455","139947","NA","NA","NA","NA","215448","214352","NA","213346","NA","213338","215448","2492","217214","NA","NA","214455","2473","2473","214847","213338","2472","214455","217214","morph21_Oliver/Morris","20","12432","21","yes","1280","44"
"350","95.4545454545","95.4545454545","585.636363636","585.636363636","black","no","xpyriment","legacy","legacy","0","208","NA","uniform","78476","1000","0.0127427493756","1","undefined","1","0","21","21","21","0","21","21","21","NA","21","21","0","21","NA","21","21","0","21","NA","21","NA","21","0","0","21","21","0","21","21","22","z","10/29/18 16:28:28","The main experiment item","yes","FIN__AB__M21__7%3A10%3A17.osexp","C:\Users\ERP Testing Room\Desktop\Joanna\morph21","no","mono","no","18","no","white","no","yes","1080","legacy","21","21","C:/Users/ERP Testing Room/Desktop/Joanna/morph21/subject-146.csv","xpyriment","Jazzy James","3.1.4","0","z","NA","NA","NA","NA","space","z","452","NA","NA","NA","NA","137454","452","2","legacy","1024","2","48000","-16","AB_m21","146","even","FILL_NW","DELP","2472","220038","218438","215455","139947","NA","NA","NA","NA","220034","218936","NA","217938","NA","217927","220034","2492","220389","NA","NA","219038","2473","2473","219438","217927","2472","219038","220389","morph21_Oliver/Morris","21","12884","22","yes","1280","14"
"200","95.652173913","95.652173913","576.739130435","576.739130435","black","no","xpyriment","legacy","legacy","0","207","NA","uniform","80516","1000","0.0124198916985","1","undefined","1","0","22","22","22","0","22","22","22","NA","22","22","0","22","NA","22","22","0","22","NA","22","NA","22","0","0","22","22","0","22","22","23","/","10/29/18 16:28:28","The main experiment item","yes","FIN__AB__M21__7%3A10%3A17.osexp","C:\Users\ERP Testing Room\Desktop\Joanna\morph21","no","mono","no","18","no","white","no","yes","1080","legacy","22","22","C:/Users/ERP Testing Room/Desktop/Joanna/morph21/subject-146.csv","xpyriment","Jazzy James","3.1.4","0","/","NA","NA","NA","NA","space","/","381","NA","NA","NA","NA","137454","381","2","legacy","1024","2","48000","-16","AB_m21","146","even","FILL_W","WRECK","2472","223197","221614","215455","139947","NA","NA","NA","NA","223189","222111","NA","221113","NA","221106","223189","2492","223397","NA","NA","222197","2473","2473","222589","221106","2472","222197","223397","morph21_Oliver/Morris","22","13265","23","yes","1280","13"
"250","91.6666666667","91.6666666667","572.083333333","572.083333333","black","no","xpyriment","legacy","legacy","0","201","NA","uniform","70457","1000","0.0141930539194","0","undefined","0","0","23","23","23","0","23","23","23","NA","23","23","0","23","NA","23","23","0","23","NA","23","NA","23","0","0","23","23","0","23","23","24","/","10/29/18 16:28:28","The main experiment item","yes","FIN__AB__M21__7%3A10%3A17.osexp","C:\Users\ERP Testing Room\Desktop\Joanna\morph21","no","mono","no","18","no","white","no","yes","1080","legacy","23","23","C:/Users/ERP Testing Room/Desktop/Joanna/morph21/subject-146.csv","xpyriment","Jazzy James","3.1.4","0","z","NA","NA","NA","NA","space","z","465","NA","NA","NA","NA","137454","465","2","legacy","1024","2","48000","-16","AB_m21","146","even","CW_S","MOSSY","2472","227798","224689","226289","139947","NA","NA","NA","NA","223189","225186","NA","224189","NA","224183","226286","2492","228048","NA","NA","225297","2473","2473","225689","224183","2472","225297","228048","morph21_Oliver/Morris","22","13730","24","yes","1280","47"
"400","92","92","572.72","572.72","black","no","xpyriment","legacy","legacy","0","206","NA","uniform","72053","1000","0.0138786726437","1","undefined","1","0","24","24","24","0","24","24","24","NA","24","24","0","24","NA","24","24","0","24","NA","24","NA","24","0","0","24","24","0","24","24","25","z","10/29/18 16:28:28","The main experiment item","yes","FIN__AB__M21__7%3A10%3A17.osexp","C:\Users\ERP Testing Room\Desktop\Joanna\morph21","no","mono","no","18","no","white","no","yes","1080","legacy","24","24","C:/Users/ERP Testing Room/Desktop/Joanna/morph21/subject-146.csv","xpyriment","Jazzy James","3.1.4","0","z","NA","NA","NA","NA","space","z","588","NA","NA","NA","NA","137454","588","2","legacy","1024","2","48000","-16","AB_m21","146","even","NW_L_SIMP","POORIDY","2472","230798","229206","226289","139947","NA","NA","NA","NA","230792","229704","NA","228707","NA","228699","230792","2492","231198","NA","NA","229798","2473","2473","230190","228699","2472","229798","231198","morph21_Oliver/Morris","23","14318","25","yes","1280","13"
"400","88.4615384615","88.4615384615","589","589","black","no","xpyriment","legacy","legacy","0","207","NA","uniform","57920","1000","0.0172651933702","0","undefined","0","0","25","25","25","0","25","25","25","NA","25","25","0","25","NA","25","25","0","25","NA","25","NA","25","0","0","25","25","0","25","25","26","/","10/29/18 16:28:28","The main experiment item","yes","FIN__AB__M21__7%3A10%3A17.osexp","C:\Users\ERP Testing Room\Desktop\Joanna\morph21","no","mono","no","18","no","white","no","yes","1080","legacy","25","25","C:/Users/ERP Testing Room/Desktop/Joanna/morph21/subject-146.csv","xpyriment","Jazzy James","3.1.4","0","None","NA","NA","NA","NA","space","None","996","NA","NA","NA","NA","137454","996","2","legacy","1024","2","48000","-16","AB_m21","146","even","FILL_W","QUIT","2472","234173","232582","226289","139947","NA","NA","NA","NA","230792","233079","NA","232082","NA","232076","234169","2492","234573","NA","NA","233173","2473","2473","233573","232076","2472","233173","234573","morph21_Oliver/Morris","23","15314","26","yes","1280","21"
"400","88.8888888889","88.8888888889","588.555555556","588.555555556","black","no","xpyriment","legacy","legacy","0","202","NA","uniform","67696","1000","0.0147719215316","1","undefined","1","0","26","26","26","0","26","26","26","NA","26","26","0","26","NA","26","26","0","26","NA","26","NA","26","0","0","26","26","0","26","26","27","/","10/29/18 16:28:28","The main experiment item","yes","FIN__AB__M21__7%3A10%3A17.osexp","C:\Users\ERP Testing Room\Desktop\Joanna\morph21","no","mono","no","18","no","white","no","yes","1080","legacy","26","26","C:/Users/ERP Testing Room/Desktop/Joanna/morph21/subject-146.csv","xpyriment","Jazzy James","3.1.4","0","/","NA","NA","NA","NA","space","/","577","NA","NA","NA","NA","137454","577","2","legacy","1024","2","48000","-16","AB_m21","146","even","CW_L","WRONGLY","2472","238974","235857","237465","139947","NA","NA","NA","NA","237462","236354","NA","235357","NA","235351","237462","2492","239374","NA","NA","236465","2473","2473","236865","235351","2472","236465","239374","morph21_Oliver/Morris","24","15891","27","yes","1280","37"
"250","85.7142857143","85.7142857143","588.214285714","588.214285714","black","no","xpyriment","legacy","legacy","0","207","NA","uniform","76123","1000","0.0131366341316","0","undefined","0","0","27","27","27","0","27","27","27","NA","27","27","0","27","NA","27","27","0","27","NA","27","NA","27","0","0","27","27","0","27","27","28","/","10/29/18 16:28:28","The main experiment item","yes","FIN__AB__M21__7%3A10%3A17.osexp","C:\Users\ERP Testing Room\Desktop\Joanna\morph21","no","mono","no","18","no","white","no","yes","1080","legacy","27","27","C:/Users/ERP Testing Room/Desktop/Joanna/morph21/subject-146.csv","xpyriment","Jazzy James","3.1.4","0","z","NA","NA","NA","NA","space","z","579","NA","NA","NA","NA","137454","579","2","legacy","1024","2","48000","-16","AB_m21","146","even","FILL_W","SOUGHT","2472","242207","240624","237465","139947","NA","NA","NA","NA","237462","241121","NA","240124","NA","240116","242204","2492","242457","NA","NA","241215","2473","2473","241607","240116","2472","241215","242457","morph21_Oliver/Morris","24","16470","28","yes","1280","40"
"200","86.2068965517","86.2068965517","585.862068966","585.862068966","black","no","xpyriment","legacy","legacy","0","205","NA","uniform","79872","1000","0.0125200320513","1","undefined","1","0","28","28","28","0","28","28","28","NA","28","28","0","28","NA","28","28","0","28","NA","28","NA","28","0","0","28","28","0","28","28","29","z","10/29/18 16:28:28","The main experiment item","yes","FIN__AB__M21__7%3A10%3A17.osexp","C:\Users\ERP Testing Room\Desktop\Joanna\morph21","no","mono","no","18","no","white","no","yes","1080","legacy","28","28","C:/Users/ERP Testing Room/Desktop/Joanna/morph21/subject-146.csv","xpyriment","Jazzy James","3.1.4","0","z","NA","NA","NA","NA","space","z","520","NA","NA","NA","NA","137454","520","2","legacy","1024","2","48000","-16","AB_m21","146","even","NW_S_SIMP","NULLITH","2472","245267","243657","237465","139947","NA","NA","NA","NA","245260","244154","NA","243157","NA","243149","245260","2492","245467","NA","NA","244266","2473","2473","244657","243149","2472","244266","245467","morph21_Oliver/Morris","25","16990","29","yes","1280","23"
"350","86.6666666667","86.6666666667","580.466666667","580.466666667","black","no","xpyriment","legacy","legacy","0","202","NA","uniform","78615","1000","0.0127202187878","1","undefined","1","0","29","29","29","0","29","29","29","NA","29","29","0","29","NA","29","29","0","29","NA","29","NA","29","0","0","29","29","0","29","29","30","/","10/29/18 16:28:28","The main experiment item","yes","FIN__AB__M21__7%3A10%3A17.osexp","C:\Users\ERP Testing Room\Desktop\Joanna\morph21","no","mono","no","18","no","white","no","yes","1080","legacy","29","29","C:/Users/ERP Testing Room/Desktop/Joanna/morph21/subject-146.csv","xpyriment","Jazzy James","3.1.4","0","/","NA","NA","NA","NA","space","/","424","NA","NA","NA","NA","137454","424","2","legacy","1024","2","48000","-16","AB_m21","146","even","CW_L","KICKING","2472","249958","246850","248450","139947","NA","NA","NA","NA","248447","247347","NA","246350","NA","246347","248447","2492","250309","NA","NA","247458","2473","2473","247850","246347","2472","247458","250309","morph21_Oliver/Morris","26","17414","30","yes","1280","23"
"250","87.0967741935","87.0967741935","574.806451613","574.806451613","black","no","xpyriment","legacy","legacy","0","201","NA","uniform","83302","1000","0.0120045136972","1","undefined","1","0","30","30","30","0","30","30","30","NA","30","30","0","30","NA","30","30","0","30","NA","30","NA","30","0","0","30","30","0","30","30","31","/","10/29/18 16:28:28","The main experiment item","yes","FIN__AB__M21__7%3A10%3A17.osexp","C:\Users\ERP Testing Room\Desktop\Joanna\morph21","no","mono","no","18","no","white","no","yes","1080","legacy","30","30","C:/Users/ERP Testing Room/Desktop/Joanna/morph21/subject-146.csv","xpyriment","Jazzy James","3.1.4","0","/","NA","NA","NA","NA","space","/","405","NA","NA","NA","NA","137454","405","2","legacy","1024","2","48000","-16","AB_m21","146","even","CW_S","HARMLESS","2472","253125","251533","248450","139947","NA","NA","NA","NA","253121","252031","NA","251033","NA","251028","253121","2492","253375","NA","NA","252125","2473","2473","252525","251028","2472","252125","253375","morph21_Oliver/Morris","27","17819","31","yes","1280","29"
"300","87.5","87.5","576.875","576.875","black","no","xpyriment","legacy","legacy","0","205","NA","uniform","73799","1000","0.01355031911","1","undefined","1","0","31","31","31","0","31","31","31","NA","31","31","0","31","NA","31","31","0","31","NA","31","NA","31","0","0","31","31","0","31","31","32","z","10/29/18 16:28:28","The main experiment item","yes","FIN__AB__M21__7%3A10%3A17.osexp","C:\Users\ERP Testing Room\Desktop\Joanna\morph21","no","mono","no","18","no","white","no","yes","1080","legacy","31","31","C:/Users/ERP Testing Room/Desktop/Joanna/morph21/subject-146.csv","xpyriment","Jazzy James","3.1.4","0","z","NA","NA","NA","NA","space","z","641","NA","NA","NA","NA","137454","641","2","legacy","1024","2","48000","-16","AB_m21","146","even","NW_S_SIMP","YIELDILT","2472","256209","254600","248450","139947","NA","NA","NA","NA","256202","255097","NA","254100","NA","254097","256202","2492","256509","NA","NA","255209","2473","2473","255600","254096","2472","255209","256509","morph21_Oliver/Morris","28","18460","32","yes","1280","20"
"250","87.8787878788","87.8787878788","578.666666667","578.666666667","black","no","xpyriment","legacy","legacy","0","203","NA","uniform","72244","1000","0.0138419799568","1","undefined","1","0","32","32","32","0","32","32","32","NA","32","32","0","32","NA","32","32","0","32","NA","32","NA","32","0","0","32","32","0","32","32","33","z","10/29/18 16:28:28","The main experiment item","yes","FIN__AB__M21__7%3A10%3A17.osexp","C:\Users\ERP Testing Room\Desktop\Joanna\morph21","no","mono","no","18","no","white","no","yes","1080","legacy","32","32","C:/Users/ERP Testing Room/Desktop/Joanna/morph21/subject-146.csv","xpyriment","Jazzy James","3.1.4","0","z","NA","NA","NA","NA","space","z","636","NA","NA","NA","NA","137454","636","2","legacy","1024","2","48000","-16","AB_m21","146","even","NW_S_COMP","BEERER","2472","260842","257734","259334","139947","NA","NA","NA","NA","259327","258231","NA","257234","NA","257226","259327","2492","261092","NA","NA","258334","2473","2473","258725","257226","2472","258334","261092","morph21_Oliver/Morris","29","19096","33","yes","1280","5"
"300","88.2352941176","88.2352941176","575.970588235","575.970588235","black","no","xpyriment","legacy","legacy","0","203","NA","uniform","77431","1000","0.0129147240769","1","undefined","1","0","33","33","33","0","33","33","33","NA","33","33","0","33","NA","33","33","0","33","NA","33","NA","33","0","0","33","33","0","33","33","34","z","10/29/18 16:28:28","The main experiment item","yes","FIN__AB__M21__7%3A10%3A17.osexp","C:\Users\ERP Testing Room\Desktop\Joanna\morph21","no","mono","no","18","no","white","no","yes","1080","legacy","33","33","C:/Users/ERP Testing Room/Desktop/Joanna/morph21/subject-146.csv","xpyriment","Jazzy James","3.1.4","0","z","NA","NA","NA","NA","space","z","487","NA","NA","NA","NA","137454","487","2","legacy","1024","2","48000","-16","AB_m21","146","even","NW_S_COMP","CURTITY","2472","263843","262252","259334","139947","NA","NA","NA","NA","263834","262749","NA","261751","NA","261746","263834","2492","264143","NA","NA","262843","2473","2473","263235","261746","2472","262843","264143","morph21_Oliver/Morris","30","19583","34","yes","1280","11"
"200","88.5714285714","88.5714285714","574.028571429","574.028571429","black","no","xpyriment","legacy","legacy","0","202","NA","uniform","67846","1000","0.0147392624473","1","undefined","1","0","34","34","34","0","34","34","34","NA","34","34","0","34","NA","34","34","0","34","NA","34","NA","34","0","0","34","34","0","34","34","35","/","10/29/18 16:28:28","The main experiment item","yes","FIN__AB__M21__7%3A10%3A17.osexp","C:\Users\ERP Testing Room\Desktop\Joanna\morph21","no","mono","no","18","no","white","no","yes","1080","legacy","34","34","C:/Users/ERP Testing Room/Desktop/Joanna/morph21/subject-146.csv","xpyriment","Jazzy James","3.1.4","0","/","NA","NA","NA","NA","space","/","508","NA","NA","NA","NA","137454","508","2","legacy","1024","2","48000","-16","AB_m21","146","even","CW_L","SAILOR","2472","267102","265510","259334","139947","NA","NA","NA","NA","267098","266007","NA","265010","NA","265006","267098","2492","267302","NA","NA","266102","2473","2473","266502","265006","2472","266102","267302","morph21_Oliver/Morris","31","20091","35","yes","1280","43"
"200","86.1111111111","86.1111111111","571.055555556","571.055555556","black","no","xpyriment","legacy","legacy","0","208","NA","uniform","71859","1000","0.0139161413323","0","undefined","0","0","35","35","35","0","35","35","35","NA","35","35","0","35","NA","35","35","0","35","NA","35","NA","35","0","0","35","35","0","35","35","36","z","10/29/18 16:28:28","The main experiment item","yes","FIN__AB__M21__7%3A10%3A17.osexp","C:\Users\ERP Testing Room\Desktop\Joanna\morph21","no","mono","no","18","no","white","no","yes","1080","legacy","35","35","C:/Users/ERP Testing Room/Desktop/Joanna/morph21/subject-146.csv","xpyriment","Jazzy James","3.1.4","0","/","NA","NA","NA","NA","space","/","467","NA","NA","NA","NA","137454","467","2","legacy","1024","2","48000","-16","AB_m21","146","even","FILL_NW","FALONS","2472","271644","268535","270135","139947","NA","NA","NA","NA","267098","269032","NA","268035","NA","268029","270129","2492","271844","NA","NA","269135","2473","2473","269527","268029","2472","269135","271844","morph21_Oliver/Morris","31","20558","36","yes","1280","19"
"400","83.7837837838","83.7837837838","568.783783784","568.783783784","black","no","xpyriment","legacy","legacy","0","207","NA","uniform","76079","1000","0.0131442316539","0","undefined","0","0","36","36","36","0","36","36","36","NA","36","36","0","36","NA","36","36","0","36","NA","36","NA","36","0","0","36","36","0","36","36","37","/","10/29/18 16:28:28","The main experiment item","yes","FIN__AB__M21__7%3A10%3A17.osexp","C:\Users\ERP Testing Room\Desktop\Joanna\morph21","no","mono","no","18","no","white","no","yes","1080","legacy","36","36","C:/Users/ERP Testing Room/Desktop/Joanna/morph21/subject-146.csv","xpyriment","Jazzy James","3.1.4","0","z","NA","NA","NA","NA","space","z","487","NA","NA","NA","NA","137454","487","2","legacy","1024","2","48000","-16","AB_m21","146","even","FILL_W","EAT","2472","274627","273044","270135","139947","NA","NA","NA","NA","267098","273541","NA","272544","NA","272537","274621","2492","275027","NA","NA","273627","2473","2473","274019","272537","2472","273627","275027","morph21_Oliver/Morris","31","21045","37","yes","1280","25"
"300","84.2105263158","84.2105263158","568.368421053","568.368421053","black","no","xpyriment","legacy","legacy","0","208","NA","uniform","75001","1000","0.0133331555579","1","undefined","1","0","37","37","37","0","37","37","37","NA","37","37","0","37","NA","37","37","0","37","NA","37","NA","37","0","0","37","37","0","37","37","38","z","10/29/18 16:28:28","The main experiment item","yes","FIN__AB__M21__7%3A10%3A17.osexp","C:\Users\ERP Testing Room\Desktop\Joanna\morph21","no","mono","no","18","no","white","no","yes","1080","legacy","37","37","C:/Users/ERP Testing Room/Desktop/Joanna/morph21/subject-146.csv","xpyriment","Jazzy James","3.1.4","0","z","NA","NA","NA","NA","space","z","553","NA","NA","NA","NA","137454","553","2","legacy","1024","2","48000","-16","AB_m21","146","even","FILL_NW","KEMT","2472","277977","276369","270135","139947","NA","NA","NA","NA","277970","276866","NA","275869","NA","275865","277970","2492","278277","NA","NA","276977","2473","2473","277369","275865","2472","276977","278277","morph21_Oliver/Morris","32","21598","38","yes","1280","32"
"250","84.6153846154","84.6153846154","566.102564103","566.102564103","black","no","xpyriment","legacy","legacy","0","207","NA","uniform","75564","1000","0.0132338150442","1","undefined","1","0","38","38","38","0","38","38","38","NA","38","38","0","38","NA","38","38","0","38","NA","38","NA","38","0","0","38","38","0","38","38","39","/","10/29/18 16:28:28","The main experiment item","yes","FIN__AB__M21__7%3A10%3A17.osexp","C:\Users\ERP Testing Room\Desktop\Joanna\morph21","no","mono","no","18","no","white","no","yes","1080","legacy","38","38","C:/Users/ERP Testing Room/Desktop/Joanna/morph21/subject-146.csv","xpyriment","Jazzy James","3.1.4","0","/","NA","NA","NA","NA","space","/","480","NA","NA","NA","NA","137454","480","2","legacy","1024","2","48000","-16","AB_m21","146","even","FILL_W","PACK","2472","282687","279569","281178","139947","NA","NA","NA","NA","281172","280066","NA","279069","NA","279063","281172","2492","282937","NA","NA","280178","2473","2473","280570","279063","2472","280178","282937","morph21_Oliver/Morris","33","22078","39","yes","1280","41"
"300","85","85","566.175","566.175","black","no","xpyriment","legacy","legacy","0","205","NA","uniform","71127","1000","0.0140593586121","1","undefined","1","0","39","39","39","0","39","39","39","NA","39","39","0","39","NA","39","39","0","39","NA","39","NA","39","0","0","39","39","0","39","39","40","z","10/29/18 16:28:28","The main experiment item","yes","FIN__AB__M21__7%3A10%3A17.osexp","C:\Users\ERP Testing Room\Desktop\Joanna\morph21","no","mono","no","18","no","white","no","yes","1080","legacy","39","39","C:/Users/ERP Testing Room/Desktop/Joanna/morph21/subject-146.csv","xpyriment","Jazzy James","3.1.4","0","z","NA","NA","NA","NA","space","z","569","NA","NA","NA","NA","137454","569","2","legacy","1024","2","48000","-16","AB_m21","146","even","NW_S_SIMP","WARNODY","2472","285745","284162","281178","139947","NA","NA","NA","NA","285737","284659","NA","283662","NA","283656","285737","2492","286045","NA","NA","284745","2473","2473","285137","283656","2472","284745","286045","morph21_Oliver/Morris","34","22647","40","yes","1280","12"
"350","85.3658536585","85.3658536585","565","565","black","no","xpyriment","legacy","legacy","0","208","NA","uniform","76128","1000","0.0131357713325","1","undefined","1","0","40","40","40","0","40","40","40","NA","40","40","0","40","NA","40","40","0","40","NA","40","NA","40","0","0","40","40","0","40","40","41","z","10/29/18 16:28:28","The main experiment item","yes","FIN__AB__M21__7%3A10%3A17.osexp","C:\Users\ERP Testing Room\Desktop\Joanna\morph21","no","mono","no","18","no","white","no","yes","1080","legacy","40","40","C:/Users/ERP Testing Room/Desktop/Joanna/morph21/subject-146.csv","xpyriment","Jazzy James","3.1.4","0","z","NA","NA","NA","NA","space","z","518","NA","NA","NA","NA","137454","518","2","legacy","1024","2","48000","-16","AB_m21","146","even","FILL_NW","JADS","2472","289020","287420","281178","139947","NA","NA","NA","NA","289015","287918","NA","286920","NA","286913","289015","2492","289371","NA","NA","288020","2473","2473","288420","286912","2472","288020","289371","morph21_Oliver/Morris","35","23165","41","yes","1280","31"
"400","85.7142857143","85.7142857143","561.928571429","561.928571429","black","no","xpyriment","legacy","legacy","0","208","NA","uniform","69884","1000","0.0143094270505","1","undefined","1","0","41","41","41","0","41","41","41","NA","41","41","0","41","NA","41","41","0","41","NA","41","NA","41","0","0","41","41","0","41","41","42","z","10/29/18 16:28:28","The main experiment item","yes","FIN__AB__M21__7%3A10%3A17.osexp","C:\Users\ERP Testing Room\Desktop\Joanna\morph21","no","mono","no","18","no","white","no","yes","1080","legacy","41","41","C:/Users/ERP Testing Room/Desktop/Joanna/morph21/subject-146.csv","xpyriment","Jazzy James","3.1.4","0","z","NA","NA","NA","NA","space","z","436","NA","NA","NA","NA","137454","436","2","legacy","1024","2","48000","-16","AB_m21","146","even","FILL_NW","BALFS","2472","293771","290654","292262","139947","NA","NA","NA","NA","292253","291151","NA","290154","NA","290150","292253","2492","294171","NA","NA","291262","2473","2473","291654","290150","2472","291262","294171","morph21_Oliver/Morris","36","23601","42","yes","1280","2"
"200","86.0465116279","86.0465116279","558.837209302","558.837209302","black","no","xpyriment","legacy","legacy","0","207","NA","uniform","71707","1000","0.0139456398957","1","undefined","1","0","42","42","42","0","42","42","42","NA","42","42","0","42","NA","42","42","0","42","NA","42","NA","42","0","0","42","42","0","42","42","43","/","10/29/18 16:28:28","The main experiment item","yes","FIN__AB__M21__7%3A10%3A17.osexp","C:\Users\ERP Testing Room\Desktop\Joanna\morph21","no","mono","no","18","no","white","no","yes","1080","legacy","42","42","C:/Users/ERP Testing Room/Desktop/Joanna/morph21/subject-146.csv","xpyriment","Jazzy James","3.1.4","0","/","NA","NA","NA","NA","space","/","429","NA","NA","NA","NA","137454","429","2","legacy","1024","2","48000","-16","AB_m21","146","even","FILL_W","LEGAL","2472","297021","295421","292262","139947","NA","NA","NA","NA","297018","295918","NA","294921","NA","294914","297018","2492","297221","NA","NA","296029","2473","2473","296421","294914","2472","296029","297221","morph21_Oliver/Morris","37","24030","43","yes","1280","35"
"250","86.3636363636","86.3636363636","555.659090909","555.659090909","black","no","xpyriment","legacy","legacy","0","207","NA","uniform","71992","1000","0.0138904322703","1","undefined","1","0","43","43","43","0","43","43","43","NA","43","43","0","43","NA","43","43","0","43","NA","43","NA","43","0","0","43","43","0","43","43","44","/","10/29/18 16:28:28","The main experiment item","yes","FIN__AB__M21__7%3A10%3A17.osexp","C:\Users\ERP Testing Room\Desktop\Joanna\morph21","no","mono","no","18","no","white","no","yes","1080","legacy","43","43","C:/Users/ERP Testing Room/Desktop/Joanna/morph21/subject-146.csv","xpyriment","Jazzy James","3.1.4","0","/","NA","NA","NA","NA","space","/","419","NA","NA","NA","NA","137454","419","2","legacy","1024","2","48000","-16","AB_m21","146","even","FILL_W","FIERCE","2472","300055","298455","292262","139947","NA","NA","NA","NA","300053","298952","NA","297955","NA","297951","300053","2492","300305","NA","NA","299063","2473","2473","299455","297951","2472","299063","300305","morph21_Oliver/Morris","38","24449","44","yes","1280","24"
"200","86.6666666667","86.6666666667","554.022222222","554.022222222","black","no","xpyriment","legacy","legacy","0","202","NA","uniform","69848","1000","0.0143168021991","1","undefined","1","0","44","44","44","0","44","44","44","NA","44","44","0","44","NA","44","44","0","44","NA","44","NA","44","0","0","44","44","0","44","44","45","/","10/29/18 16:28:28","The main experiment item","yes","FIN__AB__M21__7%3A10%3A17.osexp","C:\Users\ERP Testing Room\Desktop\Joanna\morph21","no","mono","no","18","no","white","no","yes","1080","legacy","44","44","C:/Users/ERP Testing Room/Desktop/Joanna/morph21/subject-146.csv","xpyriment","Jazzy James","3.1.4","0","/","NA","NA","NA","NA","space","/","482","NA","NA","NA","NA","137454","482","2","legacy","1024","2","48000","-16","AB_m21","146","even","CW_L","SHAMEFUL","2472","304772","301680","303264","139947","NA","NA","NA","NA","303260","302177","NA","301180","NA","301172","303260","2492","304972","NA","NA","302264","2473","2473","302664","301172","2472","302264","304972","morph21_Oliver/Morris","39","24931","45","yes","1280","19"
"300","86.9565217391","86.9565217391","553.239130435","553.239130435","black","no","xpyriment","legacy","legacy","0","205","NA","uniform","69082","1000","0.0144755507947","1","undefined","1","0","45","45","45","0","45","45","45","NA","45","45","0","45","NA","45","45","0","45","NA","45","NA","45","0","0","45","45","0","45","45","46","z","10/29/18 16:28:28","The main experiment item","yes","FIN__AB__M21__7%3A10%3A17.osexp","C:\Users\ERP Testing Room\Desktop\Joanna\morph21","no","mono","no","18","no","white","no","yes","1080","legacy","45","45","C:/Users/ERP Testing Room/Desktop/Joanna/morph21/subject-146.csv","xpyriment","Jazzy James","3.1.4","0","z","NA","NA","NA","NA","space","z","518","NA","NA","NA","NA","137454","518","2","legacy","1024","2","48000","-16","AB_m21","146","even","NW_S_SIMP","WINKIDY","2472","307772","306172","303264","139947","NA","NA","NA","NA","307768","306669","NA","305672","NA","305666","307768","2492","308072","NA","NA","306772","2473","2473","307172","305666","2472","306772","308072","morph21_Oliver/Morris","40","25449","46","yes","1280","21"
"400","87.2340425532","87.2340425532","551.234042553","551.234042553","black","no","xpyriment","legacy","legacy","0","202","NA","uniform","69427","1000","0.0144036181889","1","undefined","1","0","46","46","46","0","46","46","46","NA","46","46","0","46","NA","46","46","0","46","NA","46","NA","46","0","0","46","46","0","46","46","47","/","10/29/18 16:28:28","The main experiment item","yes","FIN__AB__M21__7%3A10%3A17.osexp","C:\Users\ERP Testing Room\Desktop\Joanna\morph21","no","mono","no","18","no","white","no","yes","1080","legacy","46","46","C:/Users/ERP Testing Room/Desktop/Joanna/morph21/subject-146.csv","xpyriment","Jazzy James","3.1.4","0","/","NA","NA","NA","NA","space","/","459","NA","NA","NA","NA","137454","459","2","legacy","1024","2","48000","-16","AB_m21","146","even","CW_L","SHAPELY","2472","310847","309256","303264","139947","NA","NA","NA","NA","310841","309753","NA","308756","NA","308746","310841","2492","311247","NA","NA","309847","2473","2473","310239","308746","2472","309847","311247","morph21_Oliver/Morris","41","25908","47","yes","1280","35"
"300","87.5","87.5","556.5","556.5","black","no","xpyriment","legacy","legacy","0","204","NA","uniform","60243","1000","0.016599438939","1","undefined","1","0","47","47","47","0","47","47","47","NA","47","47","0","47","NA","47","47","0","47","NA","47","NA","47","0","0","47","47","0","47","47","48","z","10/29/18 16:28:28","The main experiment item","yes","FIN__AB__M21__7%3A10%3A17.osexp","C:\Users\ERP Testing Room\Desktop\Joanna\morph21","no","mono","no","18","no","white","no","yes","1080","legacy","47","47","C:/Users/ERP Testing Room/Desktop/Joanna/morph21/subject-146.csv","xpyriment","Jazzy James","3.1.4","0","z","NA","NA","NA","NA","space","z","804","NA","NA","NA","NA","137454","804","2","legacy","1024","2","48000","-16","AB_m21","146","even","NW_L_COMP","EMPLOYNESS","2472","315724","312631","314214","139947","NA","NA","NA","NA","314207","313128","NA","312131","NA","312121","314207","2492","316024","NA","NA","313214","2473","2473","313606","312121","2472","313214","316024","morph21_Oliver/Morris","42","26712","48","yes","1280","21"
"300","87.7551020408","87.7551020408","556.734693878","556.734693878","black","no","xpyriment","legacy","legacy","0","207","NA","uniform","68334","1000","0.0146340035707","1","undefined","1","0","48","48","48","0","48","48","48","NA","48","48","0","48","NA","48","48","0","48","NA","48","NA","48","0","0","48","48","0","48","48","49","/","10/29/18 16:28:28","The main experiment item","yes","FIN__AB__M21__7%3A10%3A17.osexp","C:\Users\ERP Testing Room\Desktop\Joanna\morph21","no","mono","no","18","no","white","no","yes","1080","legacy","48","48","C:/Users/ERP Testing Room/Desktop/Joanna/morph21/subject-146.csv","xpyriment","Jazzy James","3.1.4","0","/","NA","NA","NA","NA","space","/","568","NA","NA","NA","NA","137454","568","2","legacy","1024","2","48000","-16","AB_m21","146","even","FILL_W","MOURN","2472","318882","317274","314214","139947","NA","NA","NA","NA","318875","317771","NA","316774","NA","316769","318875","2492","319182","NA","NA","317882","2473","2473","318274","316769","2472","317882","319182","morph21_Oliver/Morris","43","27280","49","yes","1280","26"
"350","88","88","555.8","555.8","black","no","xpyriment","legacy","legacy","0","206","NA","uniform","64929","1000","0.0154014384944","1","undefined","1","0","49","49","49","0","49","49","49","NA","49","49","0","49","NA","49","49","0","49","NA","49","NA","49","0","0","49","49","0","49","49","50","z","10/29/18 16:28:28","The main experiment item","yes","FIN__AB__M21__7%3A10%3A17.osexp","C:\Users\ERP Testing Room\Desktop\Joanna\morph21","no","mono","no","18","no","white","no","yes","1080","legacy","49","49","C:/Users/ERP Testing Room/Desktop/Joanna/morph21/subject-146.csv","xpyriment","Jazzy James","3.1.4","0","z","NA","NA","NA","NA","space","z","510","NA","NA","NA","NA","137454","510","2","legacy","1024","2","48000","-16","AB_m21","146","even","NW_L_SIMP","WITCHITH","2472","322116","320516","314214","139947","NA","NA","NA","NA","322108","321013","NA","320015","NA","320012","322108","2492","322466","NA","NA","321116","2473","2473","321507","320012","2472","321115","322466","morph21_Oliver/Morris","44","27790","50","yes","1280","11"
"250","88.2352941176","88.2352941176","553.764705882","553.764705882","black","no","xpyriment","legacy","legacy","0","207","NA","uniform","68053","1000","0.0146944293418","1","undefined","1","0","50","50","50","0","50","50","50","NA","50","50","0","50","NA","50","50","0","50","NA","50","NA","50","0","0","50","50","0","50","50","51","/","10/29/18 16:28:28","The main experiment item","yes","FIN__AB__M21__7%3A10%3A17.osexp","C:\Users\ERP Testing Room\Desktop\Joanna\morph21","no","mono","no","18","no","white","no","yes","1080","legacy","50","50","C:/Users/ERP Testing Room/Desktop/Joanna/morph21/subject-146.csv","xpyriment","Jazzy James","3.1.4","0","/","NA","NA","NA","NA","space","/","452","NA","NA","NA","NA","137454","452","2","legacy","1024","2","48000","-16","AB_m21","146","even","FILL_W","SOFT","2472","326882","323791","325374","139947","NA","NA","NA","NA","325367","324288","NA","323291","NA","323280","325367","2492","327133","NA","NA","324374","2473","2473","324766","323280","2472","324374","327133","morph21_Oliver/Morris","45","28242","51","yes","1280","43"
"250","88.4615384615","88.4615384615","551.519230769","551.519230769","black","no","xpyriment","legacy","legacy","0","202","NA","uniform","68592","1000","0.0145789596454","1","undefined","1","0","51","51","51","0","51","51","51","NA","51","51","0","51","NA","51","51","0","51","NA","51","NA","51","0","0","51","51","0","51","51","52","/","10/29/18 16:28:28","The main experiment item","yes","FIN__AB__M21__7%3A10%3A17.osexp","C:\Users\ERP Testing Room\Desktop\Joanna\morph21","no","mono","no","18","no","white","no","yes","1080","legacy","51","51","C:/Users/ERP Testing Room/Desktop/Joanna/morph21/subject-146.csv","xpyriment","Jazzy James","3.1.4","0","/","NA","NA","NA","NA","space","/","437","NA","NA","NA","NA","137454","437","2","legacy","1024","2","48000","-16","AB_m21","146","even","CW_L","LAUGHING","2472","329957","328366","325374","139947","NA","NA","NA","NA","329951","328863","NA","327866","NA","327855","329951","2492","330208","NA","NA","328957","2473","2473","329349","327855","2472","328957","330208","morph21_Oliver/Morris","46","28679","52","yes","1280","27"
"200","88.679245283","88.679245283","550.245283019","550.245283019","black","no","xpyriment","legacy","legacy","0","208","NA","uniform","80740","1000","0.0123854347288","1","undefined","1","0","52","52","52","0","52","52","52","NA","52","52","0","52","NA","52","52","0","52","NA","52","NA","52","0","0","52","52","0","52","52","53","z","10/29/18 16:28:28","The main experiment item","yes","FIN__AB__M21__7%3A10%3A17.osexp","C:\Users\ERP Testing Room\Desktop\Joanna\morph21","no","mono","no","18","no","white","no","yes","1080","legacy","52","52","C:/Users/ERP Testing Room/Desktop/Joanna/morph21/subject-146.csv","xpyriment","Jazzy James","3.1.4","0","z","NA","NA","NA","NA","space","z","484","NA","NA","NA","NA","137454","484","2","legacy","1024","2","48000","-16","AB_m21","146","even","FILL_NW","PUCTS","2472","333159","331558","325374","139947","NA","NA","NA","NA","333153","332055","NA","331058","NA","331055","333153","2492","333359","NA","NA","332158","2473","2473","332550","331055","2472","332158","333359","morph21_Oliver/Morris","47","29163","53","yes","1280","40"
"250","88.8888888889","88.8888888889","549.518518519","549.518518519","black","no","xpyriment","legacy","legacy","0","207","NA","uniform","67882","1000","0.0147314457441","1","undefined","1","0","53","53","53","0","53","53","53","NA","53","53","0","53","NA","53","53","0","53","NA","53","NA","53","0","0","53","53","0","53","53","54","/","10/29/18 16:28:28","The main experiment item","yes","FIN__AB__M21__7%3A10%3A17.osexp","C:\Users\ERP Testing Room\Desktop\Joanna\morph21","no","mono","no","18","no","white","no","yes","1080","legacy","53","53","C:/Users/ERP Testing Room/Desktop/Joanna/morph21/subject-146.csv","xpyriment","Jazzy James","3.1.4","0","/","NA","NA","NA","NA","space","/","511","NA","NA","NA","NA","137454","511","2","legacy","1024","2","48000","-16","AB_m21","146","even","FILL_W","SUIT","2472","337784","334659","336275","139947","NA","NA","NA","NA","336267","335156","NA","334159","NA","334154","336267","2492","338034","NA","NA","335275","2473","2473","335667","334154","2472","335275","338034","morph21_Oliver/Morris","48","29674","54","yes","1280","49"
"250","89.0909090909","89.0909090909","547.672727273","547.672727273","black","no","xpyriment","legacy","legacy","0","201","NA","uniform","76975","1000","0.0129912309191","1","undefined","1","0","54","54","54","0","54","54","54","NA","54","54","0","54","NA","54","54","0","54","NA","54","NA","54","0","0","54","54","0","54","54","55","/","10/29/18 16:28:28","The main experiment item","yes","FIN__AB__M21__7%3A10%3A17.osexp","C:\Users\ERP Testing Room\Desktop\Joanna\morph21","no","mono","no","18","no","white","no","yes","1080","legacy","54","54","C:/Users/ERP Testing Room/Desktop/Joanna/morph21/subject-146.csv","xpyriment","Jazzy James","3.1.4","0","/","NA","NA","NA","NA","space","/","448","NA","NA","NA","NA","137454","448","2","legacy","1024","2","48000","-16","AB_m21","146","even","CW_S","SEEKER","2472","340826","339217","336275","139947","NA","NA","NA","NA","340818","339714","NA","338717","NA","338709","340818","2492","341076","NA","NA","339826","2473","2473","340217","338709","2472","339826","341076","morph21_Oliver/Morris","49","30122","55","yes","1280","16"
"200","89.2857142857","89.2857142857","546.071428571","546.071428571","black","no","xpyriment","legacy","legacy","0","202","NA","uniform","66714","1000","0.0149893575561","1","undefined","1","0","55","55","55","0","55","55","55","NA","55","55","0","55","NA","55","55","0","55","NA","55","NA","55","0","0","55","55","0","55","55","56","/","10/29/18 16:28:28","The main experiment item","yes","FIN__AB__M21__7%3A10%3A17.osexp","C:\Users\ERP Testing Room\Desktop\Joanna\morph21","no","mono","no","18","no","white","no","yes","1080","legacy","55","55","C:/Users/ERP Testing Room/Desktop/Joanna/morph21/subject-146.csv","xpyriment","Jazzy James","3.1.4","0","/","NA","NA","NA","NA","space","/","458","NA","NA","NA","NA","137454","458","2","legacy","1024","2","48000","-16","AB_m21","146","even","CW_L","BONELESS","2472","343967","342384","336275","139947","NA","NA","NA","NA","343959","342881","NA","341884","NA","341874","343959","2492","344167","NA","NA","342968","2473","2473","343359","341874","2472","342967","344167","morph21_Oliver/Morris","50","30580","56","yes","1280","34"
"400","89.4736842105","89.4736842105","545.368421053","545.368421053","black","no","xpyriment","legacy","legacy","0","202","NA","uniform","79522","1000","0.0125751364402","1","undefined","1","0","56","56","56","0","56","56","56","NA","56","56","0","56","NA","56","56","0","56","NA","56","NA","56","0","0","56","56","0","56","56","57","/","10/29/18 16:28:28","The main experiment item","yes","FIN__AB__M21__7%3A10%3A17.osexp","C:\Users\ERP Testing Room\Desktop\Joanna\morph21","no","mono","no","18","no","white","no","yes","1080","legacy","56","56","C:/Users/ERP Testing Room/Desktop/Joanna/morph21/subject-146.csv","xpyriment","Jazzy James","3.1.4","0","/","NA","NA","NA","NA","space","/","506","NA","NA","NA","NA","137454","506","2","legacy","1024","2","48000","-16","AB_m21","146","even","CW_L","QUIETLY","2472","348684","345593","347176","139947","NA","NA","NA","NA","347173","346090","NA","345093","NA","345081","347173","2492","349085","NA","NA","346184","2473","2473","346576","345081","2472","346184","349085","morph21_Oliver/Morris","51","31086","57","yes","1280","36"
"350","89.6551724138","89.6551724138","544.482758621","544.482758621","black","no","xpyriment","legacy","legacy","0","202","NA","uniform","80321","1000","0.0124500441977","1","undefined","1","0","57","57","57","0","57","57","57","NA","57","57","0","57","NA","57","57","0","57","NA","57","NA","57","0","0","57","57","0","57","57","58","/","10/29/18 16:28:28","The main experiment item","yes","FIN__AB__M21__7%3A10%3A17.osexp","C:\Users\ERP Testing Room\Desktop\Joanna\morph21","no","mono","no","18","no","white","no","yes","1080","legacy","57","57","C:/Users/ERP Testing Room/Desktop/Joanna/morph21/subject-146.csv","xpyriment","Jazzy James","3.1.4","0","/","NA","NA","NA","NA","space","/","494","NA","NA","NA","NA","137454","494","2","legacy","1024","2","48000","-16","AB_m21","146","even","CW_L","PARKING","2472","351844","350252","347176","139947","NA","NA","NA","NA","351841","350749","NA","349752","NA","349745","351841","2492","352194","NA","NA","350852","2473","2473","351244","349745","2472","350852","352194","morph21_Oliver/Morris","52","31580","58","yes","1280","25"
"400","89.8305084746","89.8305084746","544.440677966","544.440677966","black","no","xpyriment","legacy","legacy","0","208","NA","uniform","70452","1000","0.0141940612048","1","undefined","1","0","58","58","58","0","58","58","58","NA","58","58","0","58","NA","58","58","0","58","NA","58","NA","58","0","0","58","58","0","58","58","59","z","10/29/18 16:28:28","The main experiment item","yes","FIN__AB__M21__7%3A10%3A17.osexp","C:\Users\ERP Testing Room\Desktop\Joanna\morph21","no","mono","no","18","no","white","no","yes","1080","legacy","58","58","C:/Users/ERP Testing Room/Desktop/Joanna/morph21/subject-146.csv","xpyriment","Jazzy James","3.1.4","0","z","NA","NA","NA","NA","space","z","542","NA","NA","NA","NA","137454","542","2","legacy","1024","2","48000","-16","AB_m21","146","even","FILL_NW","HEND","2472","355052","353444","347176","139947","NA","NA","NA","NA","355042","353941","NA","352944","NA","352937","355042","2492","355452","NA","NA","354052","2473","2473","354444","352937","2472","354052","355452","morph21_Oliver/Morris","53","32122","59","yes","1280","28"
"350","90","90","544.333333333","544.333333333","black","no","xpyriment","legacy","legacy","0","203","NA","uniform","77227","1000","0.0129488391366","1","undefined","1","0","59","59","59","0","59","59","59","NA","59","59","0","59","NA","59","59","0","59","NA","59","NA","59","0","0","59","59","0","59","59","60","z","10/29/18 16:28:28","The main experiment item","yes","FIN__AB__M21__7%3A10%3A17.osexp","C:\Users\ERP Testing Room\Desktop\Joanna\morph21","no","mono","no","18","no","white","no","yes","1080","legacy","59","59","C:/Users/ERP Testing Room/Desktop/Joanna/morph21/subject-146.csv","xpyriment","Jazzy James","3.1.4","0","z","NA","NA","NA","NA","space","z","538","NA","NA","NA","NA","137454","538","2","legacy","1024","2","48000","-16","AB_m21","146","even","NW_S_COMP","HUMIDOUS","2472","359853","356761","358344","139947","NA","NA","NA","NA","358336","357258","NA","356252","NA","356247","358336","2492","360203","NA","NA","357344","2473","2473","357736","356247","2472","357344","360203","morph21_Oliver/Morris","54","32660","60","yes","1280","25"
"250","90.1639344262","90.1639344262","543.360655738","543.360655738","black","no","xpyriment","legacy","legacy","0","201","NA","uniform","73901","1000","0.0135316166222","1","undefined","1","0","60","60","60","0","60","60","60","NA","60","60","0","60","NA","60","60","0","60","NA","60","NA","60","0","0","60","60","0","60","60","61","/","10/29/18 16:28:28","The main experiment item","yes","FIN__AB__M21__7%3A10%3A17.osexp","C:\Users\ERP Testing Room\Desktop\Joanna\morph21","no","mono","no","18","no","white","no","yes","1080","legacy","60","60","C:/Users/ERP Testing Room/Desktop/Joanna/morph21/subject-146.csv","xpyriment","Jazzy James","3.1.4","0","/","NA","NA","NA","NA","space","/","485","NA","NA","NA","NA","137454","485","2","legacy","1024","2","48000","-16","AB_m21","146","even","CW_S","PLANNER","2472","363061","361478","358344","139947","NA","NA","NA","NA","363053","361975","NA","360978","NA","360974","363053","2492","363311","NA","NA","362061","2473","2473","362453","360974","2472","362061","363311","morph21_Oliver/Morris","55","33145","61","yes","1280","22"
"400","90.3225806452","90.3225806452","542.564516129","542.564516129","black","no","xpyriment","legacy","legacy","0","202","NA","uniform","71157","1000","0.0140534311452","1","undefined","1","0","61","61","61","0","61","61","61","NA","61","61","0","61","NA","61","61","0","61","NA","61","NA","61","0","0","61","61","0","61","61","62","/","10/29/18 16:28:28","The main experiment item","yes","FIN__AB__M21__7%3A10%3A17.osexp","C:\Users\ERP Testing Room\Desktop\Joanna\morph21","no","mono","no","18","no","white","no","yes","1080","legacy","61","61","C:/Users/ERP Testing Room/Desktop/Joanna/morph21/subject-146.csv","xpyriment","Jazzy James","3.1.4","0","/","NA","NA","NA","NA","space","/","494","NA","NA","NA","NA","137454","494","2","legacy","1024","2","48000","-16","AB_m21","146","even","CW_L","LOCKER","2472","366244","364628","358344","139947","NA","NA","NA","NA","366237","365125","NA","364128","NA","364123","366237","2492","366644","NA","NA","365244","2473","2473","365636","364123","2472","365244","366644","morph21_Oliver/Morris","56","33639","62","yes","1280","8"
"400","90.4761904762","90.4761904762","540.825396825","540.825396825","black","no","xpyriment","legacy","legacy","0","202","NA","uniform","71648","1000","0.0139571237159","1","undefined","1","0","62","62","62","0","62","62","62","NA","62","62","0","62","NA","62","62","0","62","NA","62","NA","62","0","0","62","62","0","62","62","63","/","10/29/18 16:28:28","The main experiment item","yes","FIN__AB__M21__7%3A10%3A17.osexp","C:\Users\ERP Testing Room\Desktop\Joanna\morph21","no","mono","no","18","no","white","no","yes","1080","legacy","62","62","C:/Users/ERP Testing Room/Desktop/Joanna/morph21/subject-146.csv","xpyriment","Jazzy James","3.1.4","0","/","NA","NA","NA","NA","space","/","433","NA","NA","NA","NA","137454","433","2","legacy","1024","2","48000","-16","AB_m21","146","even","CW_L","DRYNESS","2472","371046","367929","369537","139947","NA","NA","NA","NA","369528","368426","NA","367429","NA","367424","369528","2492","371446","NA","NA","368537","2473","2473","368929","367424","2472","368537","371446","morph21_Oliver/Morris","57","34072","63","yes","1280","42"
"250","90.625","90.625","539.453125","539.453125","black","no","xpyriment","legacy","legacy","0","207","NA","uniform","76643","1000","0.0130475059692","1","undefined","1","0","63","63","63","0","63","63","63","NA","63","63","0","63","NA","63","63","0","63","NA","63","NA","63","0","0","63","63","0","63","63","64","/","10/29/18 16:28:28","The main experiment item","yes","FIN__AB__M21__7%3A10%3A17.osexp","C:\Users\ERP Testing Room\Desktop\Joanna\morph21","no","mono","no","18","no","white","no","yes","1080","legacy","63","63","C:/Users/ERP Testing Room/Desktop/Joanna/morph21/subject-146.csv","xpyriment","Jazzy James","3.1.4","0","/","NA","NA","NA","NA","space","/","453","NA","NA","NA","NA","137454","453","2","legacy","1024","2","48000","-16","AB_m21","146","even","FILL_W","TREAT","2472","374221","372637","369537","139947","NA","NA","NA","NA","374215","373135","NA","372137","NA","372132","374215","2492","374471","NA","NA","373221","2473","2473","373612","372132","2472","373221","374471","morph21_Oliver/Morris","58","34525","64","yes","1280","48"
"400","90.7692307692","90.7692307692","538.076923077","538.076923077","black","no","xpyriment","legacy","legacy","0","201","NA","uniform","80236","1000","0.0124632334613","1","undefined","1","0","64","64","64","0","64","64","64","NA","64","64","0","64","NA","64","64","0","64","NA","64","NA","64","0","0","64","64","0","64","64","65","/","10/29/18 16:28:28","The main experiment item","yes","FIN__AB__M21__7%3A10%3A17.osexp","C:\Users\ERP Testing Room\Desktop\Joanna\morph21","no","mono","no","18","no","white","no","yes","1080","legacy","64","64","C:/Users/ERP Testing Room/Desktop/Joanna/morph21/subject-146.csv","xpyriment","Jazzy James","3.1.4","0","/","NA","NA","NA","NA","space","/","450","NA","NA","NA","NA","137454","450","2","legacy","1024","2","48000","-16","AB_m21","146","even","CW_S","DESIGN","2472","377304","375696","369537","139947","NA","NA","NA","NA","377301","376193","NA","375196","NA","375188","377301","2492","377704","NA","NA","376304","2473","2473","376704","375188","2472","376304","377704","morph21_Oliver/Morris","59","34975","65","yes","1280","19"
"250","90.9090909091","90.9090909091","536.393939394","536.393939394","black","no","xpyriment","legacy","legacy","0","202","NA","uniform","65976","1000","0.0151570267976","1","undefined","1","0","65","65","65","0","65","65","65","NA","65","65","0","65","NA","65","65","0","65","NA","65","NA","65","0","0","65","65","0","65","65","66","/","10/29/18 16:28:28","The main experiment item","yes","FIN__AB__M21__7%3A10%3A17.osexp","C:\Users\ERP Testing Room\Desktop\Joanna\morph21","no","mono","no","18","no","white","no","yes","1080","legacy","65","65","C:/Users/ERP Testing Room/Desktop/Joanna/morph21/subject-146.csv","xpyriment","Jazzy James","3.1.4","0","/","NA","NA","NA","NA","space","/","427","NA","NA","NA","NA","137454","427","2","legacy","1024","2","48000","-16","AB_m21","146","even","CW_L","FLEXIBLE","2472","382179","379063","380671","139947","NA","NA","NA","NA","380662","379560","NA","378563","NA","378558","380662","2492","382430","NA","NA","379671","2473","2473","380063","378557","2472","379671","382430","morph21_Oliver/Morris","60","35402","66","yes","1280","22"
"400","91.0447761194","91.0447761194","535.28358209","535.28358209","black","no","xpyriment","legacy","legacy","0","201","NA","uniform","77657","1000","0.0128771392148","1","undefined","1","0","66","66","66","0","66","66","66","NA","66","66","0","66","NA","66","66","0","66","NA","66","NA","66","0","0","66","66","0","66","66","67","/","10/29/18 16:28:28","The main experiment item","yes","FIN__AB__M21__7%3A10%3A17.osexp","C:\Users\ERP Testing Room\Desktop\Joanna\morph21","no","mono","no","18","no","white","no","yes","1080","legacy","66","66","C:/Users/ERP Testing Room/Desktop/Joanna/morph21/subject-146.csv","xpyriment","Jazzy James","3.1.4","0","/","NA","NA","NA","NA","space","/","462","NA","NA","NA","NA","137454","462","2","legacy","1024","2","48000","-16","AB_m21","146","even","CW_S","AVOIDABLE","2472","385206","383621","380671","139947","NA","NA","NA","NA","385197","384118","NA","383121","NA","383115","385197","2492","385606","NA","NA","384205","2473","2473","384596","383115","2472","384205","385606","morph21_Oliver/Morris","61","35864","67","yes","1280","2"
"300","91.1764705882","91.1764705882","537.617647059","537.617647059","black","no","xpyriment","legacy","legacy","0","203","NA","uniform","73704","1000","0.0135677846521","1","undefined","1","0","67","67","67","0","67","67","67","NA","67","67","0","67","NA","67","67","0","67","NA","67","NA","67","0","0","67","67","0","67","67","68","z","10/29/18 16:28:28","The main experiment item","yes","FIN__AB__M21__7%3A10%3A17.osexp","C:\Users\ERP Testing Room\Desktop\Joanna\morph21","no","mono","no","18","no","white","no","yes","1080","legacy","67","67","C:/Users/ERP Testing Room/Desktop/Joanna/morph21/subject-146.csv","xpyriment","Jazzy James","3.1.4","0","z","NA","NA","NA","NA","space","z","694","NA","NA","NA","NA","137454","694","2","legacy","1024","2","48000","-16","AB_m21","146","even","NW_S_COMP","FIGER","2472","388372","386789","380671","139947","NA","NA","NA","NA","388366","387286","NA","386289","NA","386281","388366","2492","388672","NA","NA","387372","2473","2473","387764","386281","2472","387372","388672","morph21_Oliver/Morris","62","36558","68","yes","1280","4"
"400","91.3043478261","91.3043478261","541.782608696","541.782608696","black","no","xpyriment","legacy","legacy","0","205","NA","uniform","69026","1000","0.0144872946426","1","undefined","1","0","68","68","68","0","68","68","68","NA","68","68","0","68","NA","68","68","0","68","NA","68","NA","68","0","0","68","68","0","68","68","69","z","10/29/18 16:28:28","The main experiment item","yes","FIN__AB__M21__7%3A10%3A17.osexp","C:\Users\ERP Testing Room\Desktop\Joanna\morph21","no","mono","no","18","no","white","no","yes","1080","legacy","68","68","C:/Users/ERP Testing Room/Desktop/Joanna/morph21/subject-146.csv","xpyriment","Jazzy James","3.1.4","0","z","NA","NA","NA","NA","space","z","825","NA","NA","NA","NA","137454","825","2","legacy","1024","2","48000","-16","AB_m21","146","even","NW_S_SIMP","MEDICALADY","2472","392998","389906","391489","139947","NA","NA","NA","NA","391480","390403","NA","389406","NA","389398","391480","2492","393398","NA","NA","390489","2473","2473","390881","389398","2472","390489","393398","morph21_Oliver/Morris","63","37383","69","yes","1280","18"
"200","91.4285714286","91.4285714286","548.171428571","548.171428571","black","no","xpyriment","legacy","legacy","0","201","NA","uniform","60956","1000","0.0164052759367","1","undefined","1","0","69","69","69","0","69","69","69","NA","69","69","0","69","NA","69","69","0","69","NA","69","NA","69","0","0","69","69","0","69","69","70","/","10/29/18 16:28:28","The main experiment item","yes","FIN__AB__M21__7%3A10%3A17.osexp","C:\Users\ERP Testing Room\Desktop\Joanna\morph21","no","mono","no","18","no","white","no","yes","1080","legacy","69","69","C:/Users/ERP Testing Room/Desktop/Joanna/morph21/subject-146.csv","xpyriment","Jazzy James","3.1.4","0","/","NA","NA","NA","NA","space","/","989","NA","NA","NA","NA","137454","989","2","legacy","1024","2","48000","-16","AB_m21","146","even","CW_S","ENJOYMENT","2472","396189","394581","391489","139947","NA","NA","NA","NA","396184","395078","NA","394081","NA","394073","396184","2492","396389","NA","NA","395189","2473","2473","395581","394073","2472","395189","396389","morph21_Oliver/Morris","64","38372","70","yes","1280","40"
"250","91.5492957746","91.5492957746","547.985915493","547.985915493","black","no","xpyriment","legacy","legacy","0","206","NA","uniform","68933","1000","0.014506839975","1","undefined","1","0","70","70","70","0","70","70","70","NA","70","70","0","70","NA","70","70","0","70","NA","70","NA","70","0","0","70","70","0","70","70","71","z","10/29/18 16:28:28","The main experiment item","yes","FIN__AB__M21__7%3A10%3A17.osexp","C:\Users\ERP Testing Room\Desktop\Joanna\morph21","no","mono","no","18","no","white","no","yes","1080","legacy","70","70","C:/Users/ERP Testing Room/Desktop/Joanna/morph21/subject-146.csv","xpyriment","Jazzy James","3.1.4","0","z","NA","NA","NA","NA","space","z","535","NA","NA","NA","NA","137454","535","2","legacy","1024","2","48000","-16","AB_m21","146","even","NW_L_SIMP"," DRESSODY","2472","399314","397706","391489","139947","NA","NA","NA","NA","399312","398203","NA","397206","NA","397201","399312","2492","399565","NA","NA","398323","2473","2473","398715","397200","2472","398323","399565","morph21_Oliver/Morris","65","38907","71","yes","1280","21"
"350","91.6666666667","91.6666666667","546.680555556","546.680555556","black","no","xpyriment","legacy","legacy","0","207","NA","uniform","77021","1000","0.0129834720401","1","undefined","1","0","71","71","71","0","71","71","71","NA","71","71","0","71","NA","71","71","0","71","NA","71","NA","71","0","0","71","71","0","71","71","72","/","10/29/18 16:28:28","The main experiment item","yes","FIN__AB__M21__7%3A10%3A17.osexp","C:\Users\ERP Testing Room\Desktop\Joanna\morph21","no","mono","no","18","no","white","no","yes","1080","legacy","71","71","C:/Users/ERP Testing Room/Desktop/Joanna/morph21/subject-146.csv","xpyriment","Jazzy James","3.1.4","0","/","NA","NA","NA","NA","space","/","454","NA","NA","NA","NA","137454","454","2","legacy","1024","2","48000","-16","AB_m21","146","even","FILL_W","LIFT","2472","404057","400948","402549","139947","NA","NA","NA","NA","402544","401445","NA","400448","NA","400444","402544","2492","404408","NA","NA","401548","2473","2473","401948","400444","2472","401548","404408","morph21_Oliver/Morris","66","39361","72","yes","1280","39"
"200","91.7808219178","91.7808219178","547.095890411","547.095890411","black","no","xpyriment","legacy","legacy","0","207","NA","uniform","77027","1000","0.0129824606956","1","undefined","1","0","72","72","72","0","72","72","72","NA","72","72","0","72","NA","72","72","0","72","NA","72","NA","72","0","0","72","72","0","72","72","73","/","10/29/18 16:28:28","The main experiment item","yes","FIN__AB__M21__7%3A10%3A17.osexp","C:\Users\ERP Testing Room\Desktop\Joanna\morph21","no","mono","no","18","no","white","no","yes","1080","legacy","72","72","C:/Users/ERP Testing Room/Desktop/Joanna/morph21/subject-146.csv","xpyriment","Jazzy James","3.1.4","0","/","NA","NA","NA","NA","space","/","577","NA","NA","NA","NA","137454","577","2","legacy","1024","2","48000","-16","AB_m21","146","even","FILL_W","SAVE","2472","407241","405666","402549","139947","NA","NA","NA","NA","407238","406163","NA","405166","NA","405159","407238","2492","407441","NA","NA","406249","2473","2473","406641","405159","2472","406249","407441","morph21_Oliver/Morris","67","39938","73","yes","1280","46"
"250","91.8918918919","91.8918918919","547.878378378","547.878378378","black","no","xpyriment","legacy","legacy","0","204","NA","uniform","76875","1000","0.0130081300813","1","undefined","1","0","73","73","73","0","73","73","73","NA","73","73","0","73","NA","73","73","0","73","NA","73","NA","73","0","0","73","73","0","73","73","74","z","10/29/18 16:28:28","The main experiment item","yes","FIN__AB__M21__7%3A10%3A17.osexp","C:\Users\ERP Testing Room\Desktop\Joanna\morph21","no","mono","no","18","no","white","no","yes","1080","legacy","73","73","C:/Users/ERP Testing Room/Desktop/Joanna/morph21/subject-146.csv","xpyriment","Jazzy James","3.1.4","0","z","NA","NA","NA","NA","space","z","605","NA","NA","NA","NA","137454","605","2","legacy","1024","2","48000","-16","AB_m21","146","even","NW_L_COMP","STIRANCE","2472","410333","408749","402549","139947","NA","NA","NA","NA","410325","409246","NA","408249","NA","408242","410325","2492","410583","NA","NA","409333","2473","2473","409724","408242","2472","409333","410583","morph21_Oliver/Morris","68","40543","74","yes","1280","1"
"300","92","92","547.266666667","547.266666667","black","no","xpyriment","legacy","legacy","0","202","NA","uniform","76805","1000","0.013019985678","undefined","undefined","1","0","74","74","74","0","74","74","74","NA","74","74","0","74","NA","74","74","0","74","NA","74","NA","74","0","0","74","74","0","74","74","75","/","10/29/18 16:28:28","The main experiment item","yes","FIN__AB__M21__7%3A10%3A17.osexp","C:\Users\ERP Testing Room\Desktop\Joanna\morph21","no","mono","no","18","no","white","no","yes","1080","legacy","74","74","C:/Users/ERP Testing Room/Desktop/Joanna/morph21/subject-146.csv","xpyriment","Jazzy James","3.1.4","0","space","space","NA","NA","NA","space","/","55965","55965","NA","NA","NA","137454","502","2","legacy","1024","2","48000","-16","AB_m21","146","even","CW_L","DOUBTFUL","2472","415016","411924","413508","139947","415325","NA","NA","NA","413504","412422","NA","411424","NA","411419","413504","2492","471290","NA","NA","412508","2473","2473","412908","411419","2472","412508","415316","morph21_Oliver/Morris","69","41045","75","yes","1280","21"
"350","92.1052631579","92.1052631579","548.315789474","548.315789474","black","no","xpyriment","legacy","legacy","0","203","NA","uniform","69370","1000","0.014415453366","1","undefined","1","0","75","75","75","0","75","75","75","NA","75","75","0","75","NA","75","75","0","75","NA","75","NA","75","0","0","75","75","0","75","75","76","z","10/29/18 16:28:28","The main experiment item","yes","FIN__AB__M21__7%3A10%3A17.osexp","C:\Users\ERP Testing Room\Desktop\Joanna\morph21","no","mono","no","18","no","white","no","yes","1080","legacy","75","75","C:/Users/ERP Testing Room/Desktop/Joanna/morph21/subject-146.csv","xpyriment","Jazzy James","3.1.4","0","z","space","NA","NA","NA","space","z","627","55965","NA","NA","NA","137454","627","2","legacy","1024","2","48000","-16","AB_m21","146","even","NW_S_COMP","FIENDISM","2472","474064","472473","413508","139947","415325","NA","NA","NA","474056","472970","NA","471972","NA","471968","474056","2492","474414","NA","NA","473064","2473","2473","473456","471968","2472","473064","474414","morph21_Oliver/Morris","70","41672","76","yes","1280","24"
"200","92.2077922078","92.2077922078","549.25974026","549.25974026","black","no","xpyriment","legacy","legacy","0","208","NA","uniform","72299","1000","0.0138314499509","1","undefined","1","0","76","76","76","0","76","76","76","NA","76","76","0","76","NA","76","76","0","76","NA","76","NA","76","0","0","76","76","0","76","76","77","z","10/29/18 16:28:28","The main experiment item","yes","FIN__AB__M21__7%3A10%3A17.osexp","C:\Users\ERP Testing Room\Desktop\Joanna\morph21","no","mono","no","18","no","white","no","yes","1080","legacy","76","76","C:/Users/ERP Testing Room/Desktop/Joanna/morph21/subject-146.csv","xpyriment","Jazzy James","3.1.4","0","z","space","NA","NA","NA","space","z","621","55965","NA","NA","NA","137454","621","2","legacy","1024","2","48000","-16","AB_m21","146","even","FILL_NW","GAIRS","2472","477381","475773","413508","139947","415325","NA","NA","NA","477371","476270","NA","475273","NA","475266","477371","2492","477581","NA","NA","476381","2473","2473","476773","475266","2472","476381","477581","morph21_Oliver/Morris","71","42293","77","yes","1280","23"
"300","92.3076923077","92.3076923077","548.974358974","548.974358974","black","no","xpyriment","legacy","legacy","0","208","NA","uniform","74332","1000","0.0134531561104","1","undefined","1","0","77","77","77","0","77","77","77","NA","77","77","0","77","NA","77","77","0","77","NA","77","NA","77","0","0","77","77","0","77","77","78","z","10/29/18 16:28:28","The main experiment item","yes","FIN__AB__M21__7%3A10%3A17.osexp","C:\Users\ERP Testing Room\Desktop\Joanna\morph21","no","mono","no","18","no","white","no","yes","1080","legacy","77","77","C:/Users/ERP Testing Room/Desktop/Joanna/morph21/subject-146.csv","xpyriment","Jazzy James","3.1.4","0","z","space","NA","NA","NA","space","z","527","55965","NA","NA","NA","137454","527","2","legacy","1024","2","48000","-16","AB_m21","146","even","FILL_NW","VOGS","2472","482023","478915","480515","139947","415325","NA","NA","NA","480508","479412","NA","478415","NA","478406","480508","2492","482323","NA","NA","479515","2473","2473","479906","478406","2472","479515","482323","morph21_Oliver/Morris","72","42820","78","yes","1280","47"
"400","92.4050632911","92.4050632911","547.481012658","547.481012658","black","no","xpyriment","legacy","legacy","0","203","NA","uniform","82415","1000","0.012133713523","1","undefined","1","0","78","78","78","0","78","78","78","NA","78","78","0","78","NA","78","78","0","78","NA","78","NA","78","0","0","78","78","0","78","78","79","z","10/29/18 16:28:28","The main experiment item","yes","FIN__AB__M21__7%3A10%3A17.osexp","C:\Users\ERP Testing Room\Desktop\Joanna\morph21","no","mono","no","18","no","white","no","yes","1080","legacy","78","78","C:/Users/ERP Testing Room/Desktop/Joanna/morph21/subject-146.csv","xpyriment","Jazzy James","3.1.4","0","z","space","NA","NA","NA","space","z","431","55965","NA","NA","NA","137454","431","2","legacy","1024","2","48000","-16","AB_m21","146","even","NW_S_COMP","ALTARIC","2472","485123","483498","480515","139947","415325","NA","NA","NA","485113","483995","NA","482998","NA","482989","485113","2492","485523","NA","NA","484123","2473","2473","484515","482989","2472","484123","485523","morph21_Oliver/Morris","73","43251","79","yes","1280","7"
"400","92.5","92.5","547.6125","547.6125","black","no","xpyriment","legacy","legacy","0","207","NA","uniform","76808","1000","0.0130194771378","1","undefined","1","0","79","79","79","0","79","79","79","NA","79","79","0","79","NA","79","79","0","79","NA","79","NA","79","0","0","79","79","0","79","79","80","/","10/29/18 16:28:28","The main experiment item","yes","FIN__AB__M21__7%3A10%3A17.osexp","C:\Users\ERP Testing Room\Desktop\Joanna\morph21","no","mono","no","18","no","white","no","yes","1080","legacy","79","79","C:/Users/ERP Testing Room/Desktop/Joanna/morph21/subject-146.csv","xpyriment","Jazzy James","3.1.4","0","/","space","NA","NA","NA","space","/","558","55965","NA","NA","NA","137454","558","2","legacy","1024","2","48000","-16","AB_m21","146","even","FILL_W","CRUNCH","2472","488348","486732","480515","139947","415325","NA","NA","NA","488344","487229","NA","486232","NA","486225","488344","2492","488748","NA","NA","487348","2473","2473","487748","486225","2472","487348","488748","morph21_Oliver/Morris","74","43809","80","yes","1280","20"
"300","92.5925925926","92.5925925926","547.580246914","547.580246914","black","no","xpyriment","legacy","legacy","0","205","NA","uniform","69085","1000","0.0144749221973","1","undefined","1","0","80","80","80","0","80","80","80","NA","80","80","0","80","NA","80","80","0","80","NA","80","NA","80","0","0","80","80","0","80","80","81","z","10/29/18 16:28:28","The main experiment item","yes","FIN__AB__M21__7%3A10%3A17.osexp","C:\Users\ERP Testing Room\Desktop\Joanna\morph21","no","mono","no","18","no","white","no","yes","1080","legacy","80","80","C:/Users/ERP Testing Room/Desktop/Joanna/morph21/subject-146.csv","xpyriment","Jazzy James","3.1.4","0","z","space","NA","NA","NA","space","z","545","55965","NA","NA","NA","137454","545","2","legacy","1024","2","48000","-16","AB_m21","146","even","NW_S_SIMP","BOLTOES","2472","493175","490058","491666","139947","415325","NA","NA","NA","491658","490555","NA","489558","NA","489549","491658","2492","493475","NA","NA","490666","2473","2473","491058","489549","2472","490666","493475","morph21_Oliver/Morris","75","44354","81","yes","1280","13"
"400","92.6829268293","92.6829268293","545.841463415","545.841463415","black","no","xpyriment","legacy","legacy","0","204","NA","uniform","80852","1000","0.012368277841","1","undefined","1","0","81","81","81","0","81","81","81","NA","81","81","0","81","NA","81","81","0","81","NA","81","NA","81","0","0","81","81","0","81","81","82","z","10/29/18 16:28:28","The main experiment item","yes","FIN__AB__M21__7%3A10%3A17.osexp","C:\Users\ERP Testing Room\Desktop\Joanna\morph21","no","mono","no","18","no","white","no","yes","1080","legacy","81","81","C:/Users/ERP Testing Room/Desktop/Joanna/morph21/subject-146.csv","xpyriment","Jazzy James","3.1.4","0","z","space","NA","NA","NA","space","z","405","55965","NA","NA","NA","137454","405","2","legacy","1024","2","48000","-16","AB_m21","146","even","NW_L_COMP","BOILOUS","2472","496333","494733","491666","139947","415325","NA","NA","NA","496329","495230","NA","494233","NA","494229","496329","2492","496733","NA","NA","495341","2473","2473","495733","494229","2472","495341","496733","morph21_Oliver/Morris","76","44759","82","yes","1280","18"
"400","92.7710843373","92.7710843373","545.614457831","545.614457831","black","no","xpyriment","legacy","legacy","0","206","NA","uniform","79224","1000","0.0126224376452","1","undefined","1","0","82","82","82","0","82","82","82","NA","82","82","0","82","NA","82","82","0","82","NA","82","NA","82","0","0","82","82","0","82","82","83","z","10/29/18 16:28:28","The main experiment item","yes","FIN__AB__M21__7%3A10%3A17.osexp","C:\Users\ERP Testing Room\Desktop\Joanna\morph21","no","mono","no","18","no","white","no","yes","1080","legacy","82","82","C:/Users/ERP Testing Room/Desktop/Joanna/morph21/subject-146.csv","xpyriment","Jazzy James","3.1.4","0","z","space","NA","NA","NA","space","z","527","55965","NA","NA","NA","137454","527","2","legacy","1024","2","48000","-16","AB_m21","146","even","NW_L_SIMP","BLOODEL","2472","499683","498100","491666","139947","415325","NA","NA","NA","499676","498597","NA","497592","NA","497581","499676","2492","500083","NA","NA","498683","2473","2473","499075","497581","2472","498683","500083","morph21_Oliver/Morris","77","45286","83","yes","1280","24"
"250","92.8571428571","92.8571428571","544.761904762","544.761904762","black","no","xpyriment","legacy","legacy","0","208","NA","uniform","72750","1000","0.0137457044674","1","undefined","1","0","83","83","83","0","83","83","83","NA","83","83","0","83","NA","83","83","0","83","NA","83","NA","83","0","0","83","83","0","83","83","84","z","10/29/18 16:28:28","The main experiment item","yes","FIN__AB__M21__7%3A10%3A17.osexp","C:\Users\ERP Testing Room\Desktop\Joanna\morph21","no","mono","no","18","no","white","no","yes","1080","legacy","83","83","C:/Users/ERP Testing Room/Desktop/Joanna/morph21/subject-146.csv","xpyriment","Jazzy James","3.1.4","0","z","space","NA","NA","NA","space","z","474","55965","NA","NA","NA","137454","474","2","legacy","1024","2","48000","-16","AB_m21","146","even","FILL_NW","PLAODS","2472","504492","501367","502983","139947","415325","NA","NA","NA","502980","501864","NA","500867","NA","500859","502980","2492","504742","NA","NA","501992","2473","2473","502383","500859","2472","501992","504742","morph21_Oliver/Morris","78","45760","84","yes","1280","37"
"200","92.9411764706","92.9411764706","544.023529412","544.023529412","black","no","xpyriment","legacy","legacy","0","203","NA","uniform","80382","1000","0.0124405961534","1","undefined","1","0","84","84","84","0","84","84","84","NA","84","84","0","84","NA","84","84","0","84","NA","84","NA","84","0","0","84","84","0","84","84","85","z","10/29/18 16:28:28","The main experiment item","yes","FIN__AB__M21__7%3A10%3A17.osexp","C:\Users\ERP Testing Room\Desktop\Joanna\morph21","no","mono","no","18","no","white","no","yes","1080","legacy","84","84","C:/Users/ERP Testing Room/Desktop/Joanna/morph21/subject-146.csv","xpyriment","Jazzy James","3.1.4","0","z","space","NA","NA","NA","space","z","482","55965","NA","NA","NA","137454","482","2","legacy","1024","2","48000","-16","AB_m21","146","even","NW_S_COMP","ELMIST","2472","507610","506025","502983","139947","415325","NA","NA","NA","507605","506522","NA","505525","NA","505516","507605","2492","507810","NA","NA","506617","2473","2473","507008","505516","2472","506617","507810","morph21_Oliver/Morris","79","46242","85","yes","1280","10"
"350","91.8604651163","91.8604651163","544.11627907","544.11627907","black","no","xpyriment","legacy","legacy","0","204","NA","uniform","76041","1000","0.0131508002262","0","undefined","0","0","85","85","85","0","85","85","85","NA","85","85","0","85","NA","85","85","0","85","NA","85","NA","85","0","0","85","85","0","85","85","86","z","10/29/18 16:28:28","The main experiment item","yes","FIN__AB__M21__7%3A10%3A17.osexp","C:\Users\ERP Testing Room\Desktop\Joanna\morph21","no","mono","no","18","no","white","no","yes","1080","legacy","85","85","C:/Users/ERP Testing Room/Desktop/Joanna/morph21/subject-146.csv","xpyriment","Jazzy James","3.1.4","0","/","space","NA","NA","NA","space","/","552","55965","NA","NA","NA","137454","552","2","legacy","1024","2","48000","-16","AB_m21","146","even","NW_L_COMP","AGREELY","2472","510851","509235","502983","139947","415325","NA","NA","NA","507605","509732","NA","508735","NA","508727","510841","2492","511201","NA","NA","509851","2473","2473","510243","508727","2472","509851","511201","morph21_Oliver/Morris","79","46794","86","yes","1280","24"
"400","91.9540229885","91.9540229885","543.827586207","543.827586207","black","no","xpyriment","legacy","legacy","0","206","NA","uniform","76667","1000","0.0130434215503","1","undefined","1","0","86","86","86","0","86","86","86","NA","86","86","0","86","NA","86","86","0","86","NA","86","NA","86","0","0","86","86","0","86","86","87","z","10/29/18 16:28:28","The main experiment item","yes","FIN__AB__M21__7%3A10%3A17.osexp","C:\Users\ERP Testing Room\Desktop\Joanna\morph21","no","mono","no","18","no","white","no","yes","1080","legacy","86","86","C:/Users/ERP Testing Room/Desktop/Joanna/morph21/subject-146.csv","xpyriment","Jazzy James","3.1.4","0","z","space","NA","NA","NA","space","z","519","55965","NA","NA","NA","137454","519","2","legacy","1024","2","48000","-16","AB_m21","146","even","NW_L_SIMP","VALIDEL","2472","515535","512443","514026","139947","415325","NA","NA","NA","514021","512940","NA","511943","NA","511938","514021","2492","515935","NA","NA","513027","2473","2473","513418","511938","2472","513026","515935","morph21_Oliver/Morris","80","47313","87","yes","1280","23"
"200","92.0454545455","92.0454545455","544.227272727","544.227272727","black","no","xpyriment","legacy","legacy","0","205","NA","uniform","77511","1000","0.0129013946408","1","undefined","1","0","87","87","87","0","87","87","87","NA","87","87","0","87","NA","87","87","0","87","NA","87","NA","87","0","0","87","87","0","87","87","88","z","10/29/18 16:28:28","The main experiment item","yes","FIN__AB__M21__7%3A10%3A17.osexp","C:\Users\ERP Testing Room\Desktop\Joanna\morph21","no","mono","no","18","no","white","no","yes","1080","legacy","87","87","C:/Users/ERP Testing Room/Desktop/Joanna/morph21/subject-146.csv","xpyriment","Jazzy James","3.1.4","0","z","space","NA","NA","NA","space","z","579","55965","NA","NA","NA","137454","579","2","legacy","1024","2","48000","-16","AB_m21","146","even","NW_S_SIMP","JAWLA","2472","518727","517135","514026","139947","415325","NA","NA","NA","518717","517632","NA","516635","NA","516626","518717","2492","518927","NA","NA","517727","2473","2473","518118","516626","2472","517727","518927","morph21_Oliver/Morris","81","47892","88","yes","1280","7"
"400","92.1348314607","92.1348314607","543.842696629","543.842696629","black","no","xpyriment","legacy","legacy","0","208","NA","uniform","75104","1000","0.0133148700469","1","undefined","1","0","88","88","88","0","88","88","88","NA","88","88","0","88","NA","88","88","0","88","NA","88","NA","88","0","0","88","88","0","88","88","89","z","10/29/18 16:28:28","The main experiment item","yes","FIN__AB__M21__7%3A10%3A17.osexp","C:\Users\ERP Testing Room\Desktop\Joanna\morph21","no","mono","no","18","no","white","no","yes","1080","legacy","88","88","C:/Users/ERP Testing Room/Desktop/Joanna/morph21/subject-146.csv","xpyriment","Jazzy James","3.1.4","0","z","space","NA","NA","NA","space","z","510","55965","NA","NA","NA","137454","510","2","legacy","1024","2","48000","-16","AB_m21","146","even","FILL_NW","SOISE","2472","521860","520260","514026","139947","415325","NA","NA","NA","521855","520757","NA","519760","NA","519753","521855","2492","522260","NA","NA","520860","2473","2473","521260","519753","2472","520860","522260","morph21_Oliver/Morris","82","48402","89","yes","1280","43"
"200","92.2222222222","92.2222222222","542.911111111","542.911111111","black","no","xpyriment","legacy","legacy","0","202","NA","uniform","74865","1000","0.0133573766112","1","undefined","1","0","89","89","89","0","89","89","89","NA","89","89","0","89","NA","89","89","0","89","NA","89","NA","89","0","0","89","89","0","89","89","90","/","10/29/18 16:28:28","The main experiment item","yes","FIN__AB__M21__7%3A10%3A17.osexp","C:\Users\ERP Testing Room\Desktop\Joanna\morph21","no","mono","no","18","no","white","no","yes","1080","legacy","89","89","C:/Users/ERP Testing Room/Desktop/Joanna/morph21/subject-146.csv","xpyriment","Jazzy James","3.1.4","0","/","space","NA","NA","NA","space","/","460","55965","NA","NA","NA","137454","460","2","legacy","1024","2","48000","-16","AB_m21","146","even","CW_L","COLLECTOR","2472","526628","523535","525120","139947","415325","NA","NA","NA","525110","524032","NA","523035","NA","523029","525110","2492","526828","NA","NA","524119","2473","2473","524511","523029","2472","524119","526828","morph21_Oliver/Morris","83","48862","90","yes","1280","46"
"250","92.3076923077","92.3076923077","542.527472527","542.527472527","black","no","xpyriment","legacy","legacy","0","203","NA","uniform","80096","1000","0.0124850179784","1","undefined","1","0","90","90","90","0","90","90","90","NA","90","90","0","90","NA","90","90","0","90","NA","90","NA","90","0","0","90","90","0","90","90","91","z","10/29/18 16:28:28","The main experiment item","yes","FIN__AB__M21__7%3A10%3A17.osexp","C:\Users\ERP Testing Room\Desktop\Joanna\morph21","no","mono","no","18","no","white","no","yes","1080","legacy","90","90","C:/Users/ERP Testing Room/Desktop/Joanna/morph21/subject-146.csv","xpyriment","Jazzy James","3.1.4","0","z","space","NA","NA","NA","space","z","508","55965","NA","NA","NA","137454","508","2","legacy","1024","2","48000","-16","AB_m21","146","even","NW_S_COMP","LIDARY","2472","529678","528095","525120","139947","415325","NA","NA","NA","529669","528592","NA","527595","NA","527590","529669","2492","529928","NA","NA","528678","2473","2473","529070","527590","2472","528678","529928","morph21_Oliver/Morris","84","49370","91","yes","1280","3"
