"ITI","acc","accuracy","average_response_time","avg_rt","background","bidi","canvas_backend","clock_backend","color_backend","compensation","cond_trig","condtrigtime","coordinates","coroutines_cycles","coroutines_duration","coroutines_mean_cycle_duration","correct","correct_instructions_1","correct_new_keyboard_response_1","count_AB_m21","count_ITI","count_blank_screen","count_blink_screen","count_block1","count_break1","count_break2","count_break3_1","count_canvas","count_correct_trigger","count_def_chain","count_end_screen","count_fixation_1","count_getting_started","count_inc_counter","count_incorrect_trigger","count_instructions_1","count_logger","count_logscript","count_new_coroutines","count_new_inline_script","count_new_keyboard_response_1","count_reset_counter_prep","count_reset_counter_run","count_responsescreen","count_sequence","count_start_trigger","count_target_present","count_word_trigger","counter","cresp","datetime","description","disable_garbage_collection","experiment_file","experiment_path","font_bold","font_family","font_italic","font_size","font_underline","foreground","form_clicks","fullscreen","height","keyboard_backend","live_row","live_row_block1","logfile","mouse_backend","opensesame_codename","opensesame_version","repeat_cycle","response","response_break1","response_break2","response_break3_1","response_end_screen","response_instructions_1","response_new_keyboard_response_1","response_time","response_time_break1","response_time_break2","response_time_break3_1","response_time_end_screen","response_time_instructions_1","response_time_new_keyboard_response_1","round_decimals","sampler_backend","sound_buf_size","sound_channels","sound_freq","sound_sample_size","start","subject_nr","subject_parity","targ_type","target","time_AB_m21","time_ITI","time_blank_screen","time_blink_screen","time_block1","time_break1","time_break2","time_break3_1","time_canvas","time_correct_trigger","time_def_chain","time_end_screen","time_fixation_1","time_getting_started","time_inc_counter","time_incorrect_trigger","time_instructions_1","time_logger","time_logscript","time_new_inline_script","time_new_keyboard_response_1","time_reset_counter_prep","time_reset_counter_run","time_responsescreen","time_sequence","time_start_trigger","time_target_present","time_word_trigger","title","total_correct","total_response_time","total_responses","uniform_coordinates","width","word_trig"
"250","0","0","989","989","black","no","xpyriment","legacy","legacy","0","206","NA","uniform","60661","1000","0.0164850562965","0","undefined","0","0","0","0","0","0","0","0","0","NA","0","0","0","0","NA","0","0","0","0","NA","0","NA","0","0","0","0","0","0","0","0","1","z","10/09/17 13:39:47","The main experiment item","yes","FIN__AB__M21__7%3A10%3A17.osexp","C:\Users\ERP Testing Room\Desktop\Joanna\morph21","no","mono","no","18","no","white","no","yes","1080","legacy","0","0","C:/Users/ERP Testing Room/Desktop/Joanna/morph21/subject-108.csv","xpyriment","Jazzy James","3.1.4","0","None","NA","NA","NA","NA","space","None","989","NA","NA","NA","NA","227838","989","2","legacy","1024","2","48000","-16","AB_m21","108","even","NW_L_SIMP","SHOOTMANT","1388","232126","230526","NA","229236","NA","NA","NA","NA","NA","231023","NA","230021","NA","229951","232123","1397","232376","NA","NA","231134","1388","1388","231526","229951","1388","231134","232376","morph21_Oliver/Morris","0","989","1","yes","1280","16"
"300","50","50","827","827","black","no","xpyriment","legacy","legacy","0","206","NA","uniform","72347","1000","0.0138222732111","1","undefined","1","0","1","1","1","0","1","1","1","NA","1","1","0","1","NA","1","1","0","1","NA","1","NA","1","0","0","1","1","0","1","1","2","z","10/09/17 13:39:47","The main experiment item","yes","FIN__AB__M21__7%3A10%3A17.osexp","C:\Users\ERP Testing Room\Desktop\Joanna\morph21","no","mono","no","18","no","white","no","yes","1080","legacy","1","1","C:/Users/ERP Testing Room/Desktop/Joanna/morph21/subject-108.csv","xpyriment","Jazzy James","3.1.4","0","z","NA","NA","NA","NA","space","z","665","NA","NA","NA","NA","227838","665","2","legacy","1024","2","48000","-16","AB_m21","108","even","NW_L_SIMP","TAXFIL","1388","235234","233617","NA","229236","NA","NA","NA","NA","235224","234115","NA","233117","NA","233115","235224","1397","235534","NA","NA","234234","1388","1388","234626","233114","1388","234234","235534","morph21_Oliver/Morris","1","1654","2","yes","1280","6"
"400","33.3333333333","33.3333333333","759.666666667","759.666666667","black","no","xpyriment","legacy","legacy","0","203","NA","uniform","69203","1000","0.0144502405965","0","undefined","0","0","2","2","2","0","2","2","2","NA","2","2","0","2","NA","2","2","0","2","NA","2","NA","2","0","0","2","2","0","2","2","3","z","10/09/17 13:39:47","The main experiment item","yes","FIN__AB__M21__7%3A10%3A17.osexp","C:\Users\ERP Testing Room\Desktop\Joanna\morph21","no","mono","no","18","no","white","no","yes","1080","legacy","2","2","C:/Users/ERP Testing Room/Desktop/Joanna/morph21/subject-108.csv","xpyriment","Jazzy James","3.1.4","0","/","NA","NA","NA","NA","space","/","625","NA","NA","NA","NA","227838","625","2","legacy","1024","2","48000","-16","AB_m21","108","even","NW_S_COMP","TRUENESS","1388","239926","236834","238418","229236","NA","NA","NA","NA","235224","237331","NA","236334","NA","236329","238410","1397","240326","NA","NA","237418","1388","1388","237809","236329","1388","237418","240326","morph21_Oliver/Morris","1","2279","3","yes","1280","15"
"400","50","50","744.5","744.5","black","no","xpyriment","legacy","legacy","0","208","NA","uniform","65327","1000","0.0153076063496","1","undefined","1","0","3","3","3","0","3","3","3","NA","3","3","0","3","NA","3","3","0","3","NA","3","NA","3","0","0","3","3","0","3","3","4","z","10/09/17 13:39:47","The main experiment item","yes","FIN__AB__M21__7%3A10%3A17.osexp","C:\Users\ERP Testing Room\Desktop\Joanna\morph21","no","mono","no","18","no","white","no","yes","1080","legacy","3","3","C:/Users/ERP Testing Room/Desktop/Joanna/morph21/subject-108.csv","xpyriment","Jazzy James","3.1.4","0","z","NA","NA","NA","NA","space","z","699","NA","NA","NA","NA","227838","699","2","legacy","1024","2","48000","-16","AB_m21","108","even","FILL_NW","GIKE","1388","243177","241594","238418","229236","NA","NA","NA","NA","243171","242091","NA","241093","NA","241084","243171","1397","243577","NA","NA","242177","1388","1388","242569","241084","1388","242177","243577","morph21_Oliver/Morris","2","2978","4","yes","1280","24"
"400","40","40","793.2","793.2","black","no","xpyriment","legacy","legacy","0","207","NA","uniform","58474","1000","0.017101617813","0","undefined","0","0","4","4","4","0","4","4","4","NA","4","4","0","4","NA","4","4","0","4","NA","4","NA","4","0","0","4","4","0","4","4","5","/","10/09/17 13:39:47","The main experiment item","yes","FIN__AB__M21__7%3A10%3A17.osexp","C:\Users\ERP Testing Room\Desktop\Joanna\morph21","no","mono","no","18","no","white","no","yes","1080","legacy","4","4","C:/Users/ERP Testing Room/Desktop/Joanna/morph21/subject-108.csv","xpyriment","Jazzy James","3.1.4","0","None","NA","NA","NA","NA","space","None","988","NA","NA","NA","NA","227838","988","2","legacy","1024","2","48000","-16","AB_m21","108","even","FILL_W","LITHE","1388","246394","244769","238418","229236","NA","NA","NA","NA","243171","245266","NA","244269","NA","244263","246391","1397","246794","NA","NA","245402","1388","1388","245794","244263","1388","245402","246794","morph21_Oliver/Morris","2","3966","5","yes","1280","23"
"300","50","50","743.666666667","743.666666667","black","no","xpyriment","legacy","legacy","0","207","NA","uniform","74873","1000","0.0133559494077","1","undefined","1","0","5","5","5","0","5","5","5","NA","5","5","0","5","NA","5","5","0","5","NA","5","NA","5","0","0","5","5","0","5","5","6","/","10/09/17 13:39:47","The main experiment item","yes","FIN__AB__M21__7%3A10%3A17.osexp","C:\Users\ERP Testing Room\Desktop\Joanna\morph21","no","mono","no","18","no","white","no","yes","1080","legacy","5","5","C:/Users/ERP Testing Room/Desktop/Joanna/morph21/subject-108.csv","xpyriment","Jazzy James","3.1.4","0","/","NA","NA","NA","NA","space","/","496","NA","NA","NA","NA","227838","496","2","legacy","1024","2","48000","-16","AB_m21","108","even","FILL_W","MOURN","1388","251136","248044","249628","229236","NA","NA","NA","NA","249621","248541","NA","247544","NA","247533","249621","1397","251436","NA","NA","248627","1388","1388","249019","247533","1388","248627","251436","morph21_Oliver/Morris","3","4462","6","yes","1280","26"
"400","57.1428571429","57.1428571429","739.428571429","739.428571429","black","no","xpyriment","legacy","legacy","0","208","NA","uniform","61086","1000","0.0163703630947","1","undefined","1","0","6","6","6","0","6","6","6","NA","6","6","0","6","NA","6","6","0","6","NA","6","NA","6","0","0","6","6","0","6","6","7","z","10/09/17 13:39:47","The main experiment item","yes","FIN__AB__M21__7%3A10%3A17.osexp","C:\Users\ERP Testing Room\Desktop\Joanna\morph21","no","mono","no","18","no","white","no","yes","1080","legacy","6","6","C:/Users/ERP Testing Room/Desktop/Joanna/morph21/subject-108.csv","xpyriment","Jazzy James","3.1.4","0","z","NA","NA","NA","NA","space","z","714","NA","NA","NA","NA","227838","714","2","legacy","1024","2","48000","-16","AB_m21","108","even","FILL_NW","BALFS","1388","254353","252769","249628","229236","NA","NA","NA","NA","254346","253266","NA","252269","NA","252258","254346","1397","254753","NA","NA","253353","1388","1388","253744","252258","1388","253353","254753","morph21_Oliver/Morris","4","5176","7","yes","1280","2"
"400","62.5","62.5","737","737","black","no","xpyriment","legacy","legacy","0","208","NA","uniform","67303","1000","0.0148581786845","1","undefined","1","0","7","7","7","0","7","7","7","NA","7","7","0","7","NA","7","7","0","7","NA","7","NA","7","0","0","7","7","0","7","7","8","z","10/09/17 13:39:47","The main experiment item","yes","FIN__AB__M21__7%3A10%3A17.osexp","C:\Users\ERP Testing Room\Desktop\Joanna\morph21","no","mono","no","18","no","white","no","yes","1080","legacy","7","7","C:/Users/ERP Testing Room/Desktop/Joanna/morph21/subject-108.csv","xpyriment","Jazzy James","3.1.4","0","z","NA","NA","NA","NA","space","z","720","NA","NA","NA","NA","227838","720","2","legacy","1024","2","48000","-16","AB_m21","108","even","FILL_NW","DROES","1388","257611","256003","249628","229236","NA","NA","NA","NA","257602","256500","NA","255494","NA","255487","257602","1397","258011","NA","NA","256611","1388","1388","257003","255487","1388","256611","258011","morph21_Oliver/Morris","5","5896","8","yes","1280","17"
"400","55.5555555556","55.5555555556","765.222222222","765.222222222","black","no","xpyriment","legacy","legacy","0","205","NA","uniform","51739","1000","0.0193277798179","0","undefined","0","0","8","8","8","0","8","8","8","NA","8","8","0","8","NA","8","8","0","8","NA","8","NA","8","0","0","8","8","0","8","8","9","z","10/09/17 13:39:47","The main experiment item","yes","FIN__AB__M21__7%3A10%3A17.osexp","C:\Users\ERP Testing Room\Desktop\Joanna\morph21","no","mono","no","18","no","white","no","yes","1080","legacy","8","8","C:/Users/ERP Testing Room/Desktop/Joanna/morph21/subject-108.csv","xpyriment","Jazzy James","3.1.4","0","None","NA","NA","NA","NA","space","None","991","NA","NA","NA","NA","227838","991","2","legacy","1024","2","48000","-16","AB_m21","108","even","NW_S_SIMP","MEDICALADY","1388","262371","259254","260862","229236","NA","NA","NA","NA","257602","259751","NA","258753","NA","258747","260853","1397","262771","NA","NA","259862","1388","1388","260254","258747","1388","259862","262771","morph21_Oliver/Morris","5","6887","9","yes","1280","18"
"300","60","60","751.9","751.9","black","no","xpyriment","legacy","legacy","0","201","NA","uniform","60578","1000","0.0165076430387","1","undefined","1","0","9","9","9","0","9","9","9","NA","9","9","0","9","NA","9","9","0","9","NA","9","NA","9","0","0","9","9","0","9","9","10","/","10/09/17 13:39:47","The main experiment item","yes","FIN__AB__M21__7%3A10%3A17.osexp","C:\Users\ERP Testing Room\Desktop\Joanna\morph21","no","mono","no","18","no","white","no","yes","1080","legacy","9","9","C:/Users/ERP Testing Room/Desktop/Joanna/morph21/subject-108.csv","xpyriment","Jazzy James","3.1.4","0","/","NA","NA","NA","NA","space","/","632","NA","NA","NA","NA","227838","632","2","legacy","1024","2","48000","-16","AB_m21","108","even","CW_S","INSISTENT","1388","265588","264004","260862","229236","NA","NA","NA","NA","265581","264501","NA","263504","NA","263500","265581","1397","265888","NA","NA","264588","1388","1388","264979","263500","1388","264588","265888","morph21_Oliver/Morris","6","7519","10","yes","1280","9"
"400","63.6363636364","63.6363636364","749.818181818","749.818181818","black","no","xpyriment","legacy","legacy","0","204","NA","uniform","69526","1000","0.0143831084774","1","undefined","1","0","10","10","10","0","10","10","10","NA","10","10","0","10","NA","10","10","0","10","NA","10","NA","10","0","0","10","10","0","10","10","11","z","10/09/17 13:39:47","The main experiment item","yes","FIN__AB__M21__7%3A10%3A17.osexp","C:\Users\ERP Testing Room\Desktop\Joanna\morph21","no","mono","no","18","no","white","no","yes","1080","legacy","10","10","C:/Users/ERP Testing Room/Desktop/Joanna/morph21/subject-108.csv","xpyriment","Jazzy James","3.1.4","0","z","NA","NA","NA","NA","space","z","729","NA","NA","NA","NA","227838","729","2","legacy","1024","2","48000","-16","AB_m21","108","even","NW_L_COMP","FLITENCE","1388","268746","267138","260862","229236","NA","NA","NA","NA","268736","267635","NA","266638","NA","266631","268736","1397","269146","NA","NA","267746","1388","1388","268138","266631","1388","267746","269146","morph21_Oliver/Morris","7","8248","11","yes","1280","3"
"250","66.6666666667","66.6666666667","733.583333333","733.583333333","black","no","xpyriment","legacy","legacy","0","207","NA","uniform","70230","1000","0.0142389292325","1","undefined","1","0","11","11","11","0","11","11","11","NA","11","11","0","11","NA","11","11","0","11","NA","11","NA","11","0","0","11","11","0","11","11","12","/","10/09/17 13:39:47","The main experiment item","yes","FIN__AB__M21__7%3A10%3A17.osexp","C:\Users\ERP Testing Room\Desktop\Joanna\morph21","no","mono","no","18","no","white","no","yes","1080","legacy","11","11","C:/Users/ERP Testing Room/Desktop/Joanna/morph21/subject-108.csv","xpyriment","Jazzy James","3.1.4","0","/","NA","NA","NA","NA","space","/","555","NA","NA","NA","NA","227838","555","2","legacy","1024","2","48000","-16","AB_m21","108","even","FILL_W","TREAT","1388","273405","270313","271896","229236","NA","NA","NA","NA","271888","270810","NA","269804","NA","269800","271888","1397","273655","NA","NA","270896","1388","1388","271288","269800","1388","270896","273655","morph21_Oliver/Morris","8","8803","12","yes","1280","48"
"350","69.2307692308","69.2307692308","737.769230769","737.769230769","black","no","xpyriment","legacy","legacy","0","205","NA","uniform","67714","1000","0.0147679948017","1","undefined","1","0","12","12","12","0","12","12","12","NA","12","12","0","12","NA","12","12","0","12","NA","12","NA","12","0","0","12","12","0","12","12","13","z","10/09/17 13:39:47","The main experiment item","yes","FIN__AB__M21__7%3A10%3A17.osexp","C:\Users\ERP Testing Room\Desktop\Joanna\morph21","no","mono","no","18","no","white","no","yes","1080","legacy","12","12","C:/Users/ERP Testing Room/Desktop/Joanna/morph21/subject-108.csv","xpyriment","Jazzy James","3.1.4","0","z","NA","NA","NA","NA","space","z","788","NA","NA","NA","NA","227838","788","2","legacy","1024","2","48000","-16","AB_m21","108","even","NW_S_SIMP","ACREMANT","1388","276481","274896","271896","229236","NA","NA","NA","NA","276471","275393","NA","274396","NA","274387","276471","1397","276831","NA","NA","275480","1388","1388","275871","274387","1388","275480","276831","morph21_Oliver/Morris","9","9591","13","yes","1280","16"
"350","71.4285714286","71.4285714286","727.857142857","727.857142857","black","no","xpyriment","legacy","legacy","0","202","NA","uniform","64660","1000","0.0154655119084","1","undefined","1","0","13","13","13","0","13","13","13","NA","13","13","0","13","NA","13","13","0","13","NA","13","NA","13","0","0","13","13","0","13","13","14","/","10/09/17 13:39:47","The main experiment item","yes","FIN__AB__M21__7%3A10%3A17.osexp","C:\Users\ERP Testing Room\Desktop\Joanna\morph21","no","mono","no","18","no","white","no","yes","1080","legacy","13","13","C:/Users/ERP Testing Room/Desktop/Joanna/morph21/subject-108.csv","xpyriment","Jazzy James","3.1.4","0","/","NA","NA","NA","NA","space","/","599","NA","NA","NA","NA","227838","599","2","legacy","1024","2","48000","-16","AB_m21","108","even","CW_L","GUARDING","1388","279581","277997","271896","229236","NA","NA","NA","NA","279574","278495","NA","277498","NA","277488","279574","1397","279931","NA","NA","278581","1388","1388","278973","277488","1388","278581","279931","morph21_Oliver/Morris","10","10190","14","yes","1280","26"
"300","73.3333333333","73.3333333333","735.6","735.6","black","no","xpyriment","legacy","legacy","0","203","NA","uniform","53101","1000","0.0188320370614","1","undefined","1","0","14","14","14","0","14","14","14","NA","14","14","0","14","NA","14","14","0","14","NA","14","NA","14","0","0","14","14","0","14","14","15","z","10/09/17 13:39:47","The main experiment item","yes","FIN__AB__M21__7%3A10%3A17.osexp","C:\Users\ERP Testing Room\Desktop\Joanna\morph21","no","mono","no","18","no","white","no","yes","1080","legacy","14","14","C:/Users/ERP Testing Room/Desktop/Joanna/morph21/subject-108.csv","xpyriment","Jazzy James","3.1.4","0","z","NA","NA","NA","NA","space","z","844","NA","NA","NA","NA","227838","844","2","legacy","1024","2","48000","-16","AB_m21","108","even","NW_S_COMP","CURTITY","1388","284364","281264","282856","229236","NA","NA","NA","NA","282853","281761","NA","280764","NA","280754","282853","1397","284665","NA","NA","281864","1388","1388","282256","280754","1388","281864","284665","morph21_Oliver/Morris","11","11034","15","yes","1280","11"
"400","75","75","731.6875","731.6875","black","no","xpyriment","legacy","legacy","0","202","NA","uniform","66733","1000","0.0149850898356","1","undefined","1","0","15","15","15","0","15","15","15","NA","15","15","0","15","NA","15","15","0","15","NA","15","NA","15","0","0","15","15","0","15","15","16","/","10/09/17 13:39:47","The main experiment item","yes","FIN__AB__M21__7%3A10%3A17.osexp","C:\Users\ERP Testing Room\Desktop\Joanna\morph21","no","mono","no","18","no","white","no","yes","1080","legacy","15","15","C:/Users/ERP Testing Room/Desktop/Joanna/morph21/subject-108.csv","xpyriment","Jazzy James","3.1.4","0","/","NA","NA","NA","NA","space","/","673","NA","NA","NA","NA","227838","673","2","legacy","1024","2","48000","-16","AB_m21","108","even","CW_L","STYLISH","1388","287490","285898","282856","229236","NA","NA","NA","NA","287479","286395","NA","285390","NA","285384","287479","1397","287890","NA","NA","286490","1388","1388","286881","285384","1388","286490","287890","morph21_Oliver/Morris","12","11707","16","yes","1280","29"
"200","76.4705882353","76.4705882353","731.882352941","731.882352941","black","no","xpyriment","legacy","legacy","0","203","NA","uniform","66223","1000","0.0151004937861","1","undefined","1","0","16","16","16","0","16","16","16","NA","16","16","0","16","NA","16","16","0","16","NA","16","NA","16","0","0","16","16","0","16","16","17","z","10/09/17 13:39:47","The main experiment item","yes","FIN__AB__M21__7%3A10%3A17.osexp","C:\Users\ERP Testing Room\Desktop\Joanna\morph21","no","mono","no","18","no","white","no","yes","1080","legacy","16","16","C:/Users/ERP Testing Room/Desktop/Joanna/morph21/subject-108.csv","xpyriment","Jazzy James","3.1.4","0","z","NA","NA","NA","NA","space","z","735","NA","NA","NA","NA","227838","735","2","legacy","1024","2","48000","-16","AB_m21","108","even","NW_S_COMP","ELMIST","1388","290756","289165","282856","229236","NA","NA","NA","NA","290747","289662","NA","288665","NA","288657","290747","1397","290956","NA","NA","289756","1388","1388","290148","288657","1388","289756","290956","morph21_Oliver/Morris","13","12442","17","yes","1280","10"
"400","77.7777777778","77.7777777778","743.277777778","743.277777778","black","no","xpyriment","legacy","legacy","0","202","NA","uniform","48553","1000","0.0205960496777","1","undefined","1","0","17","17","17","0","17","17","17","NA","17","17","0","17","NA","17","17","0","17","NA","17","NA","17","0","0","17","17","0","17","17","18","/","10/09/17 13:39:47","The main experiment item","yes","FIN__AB__M21__7%3A10%3A17.osexp","C:\Users\ERP Testing Room\Desktop\Joanna\morph21","no","mono","no","18","no","white","no","yes","1080","legacy","17","17","C:/Users/ERP Testing Room/Desktop/Joanna/morph21/subject-108.csv","xpyriment","Jazzy James","3.1.4","0","/","NA","NA","NA","NA","space","/","937","NA","NA","NA","NA","227838","937","2","legacy","1024","2","48000","-16","AB_m21","108","even","CW_L","CLOUDLESS","1388","295416","292315","293908","229236","NA","NA","NA","NA","293898","292812","NA","291815","NA","291812","293898","1397","295816","NA","NA","292907","1388","1388","293298","291812","1388","292907","295816","morph21_Oliver/Morris","14","13379","18","yes","1280","33"
"200","78.9473684211","78.9473684211","733.842105263","733.842105263","black","no","xpyriment","legacy","legacy","0","202","NA","uniform","67632","1000","0.0147859001656","1","undefined","1","0","18","18","18","0","18","18","18","NA","18","18","0","18","NA","18","18","0","18","NA","18","NA","18","0","0","18","18","0","18","18","19","/","10/09/17 13:39:47","The main experiment item","yes","FIN__AB__M21__7%3A10%3A17.osexp","C:\Users\ERP Testing Room\Desktop\Joanna\morph21","no","mono","no","18","no","white","no","yes","1080","legacy","18","18","C:/Users/ERP Testing Room/Desktop/Joanna/morph21/subject-108.csv","xpyriment","Jazzy James","3.1.4","0","/","NA","NA","NA","NA","space","/","564","NA","NA","NA","NA","227838","564","2","legacy","1024","2","48000","-16","AB_m21","108","even","CW_L","BONELESS","1388","298616","297024","293908","229236","NA","NA","NA","NA","298607","297521","NA","296524","NA","296516","298607","1397","298816","NA","NA","297616","1388","1388","298008","296516","1388","297616","298816","morph21_Oliver/Morris","15","13943","19","yes","1280","34"
"300","80","80","732.9","732.9","black","no","xpyriment","legacy","legacy","0","204","NA","uniform","67316","1000","0.0148553092875","1","undefined","1","0","19","19","19","0","19","19","19","NA","19","19","0","19","NA","19","19","0","19","NA","19","NA","19","0","0","19","19","0","19","19","20","z","10/09/17 13:39:47","The main experiment item","yes","FIN__AB__M21__7%3A10%3A17.osexp","C:\Users\ERP Testing Room\Desktop\Joanna\morph21","no","mono","no","18","no","white","no","yes","1080","legacy","19","19","C:/Users/ERP Testing Room/Desktop/Joanna/morph21/subject-108.csv","xpyriment","Jazzy James","3.1.4","0","z","NA","NA","NA","NA","space","z","715","NA","NA","NA","NA","227838","715","2","legacy","1024","2","48000","-16","AB_m21","108","even","NW_L_COMP","BINDIC","1388","301616","300016","293908","229236","NA","NA","NA","NA","301610","300513","NA","299516","NA","299511","301610","1397","301916","NA","NA","300616","1388","1388","301008","299511","1388","300616","301916","morph21_Oliver/Morris","16","14658","20","yes","1280","22"
"250","80.9523809524","80.9523809524","722.714285714","722.714285714","black","no","xpyriment","legacy","legacy","0","201","NA","uniform","70986","1000","0.0140872848167","1","undefined","1","0","20","20","20","0","20","20","20","NA","20","20","0","20","NA","20","20","0","20","NA","20","NA","20","0","0","20","20","0","20","20","21","/","10/09/17 13:39:47","The main experiment item","yes","FIN__AB__M21__7%3A10%3A17.osexp","C:\Users\ERP Testing Room\Desktop\Joanna\morph21","no","mono","no","18","no","white","no","yes","1080","legacy","20","20","C:/Users/ERP Testing Room/Desktop/Joanna/morph21/subject-108.csv","xpyriment","Jazzy James","3.1.4","0","/","NA","NA","NA","NA","space","/","519","NA","NA","NA","NA","227838","519","2","legacy","1024","2","48000","-16","AB_m21","108","even","CW_S","MOSSY","1388","306216","303075","304708","229236","NA","NA","NA","NA","304699","303572","NA","302575","NA","302569","304699","1397","306467","NA","NA","303708","1388","1388","304100","302569","1388","303708","306467","morph21_Oliver/Morris","17","15177","21","yes","1280","47"
"300","81.8181818182","81.8181818182","724.772727273","724.772727273","black","no","xpyriment","legacy","legacy","0","205","NA","uniform","65619","1000","0.0152394885628","1","undefined","1","0","21","21","21","0","21","21","21","NA","21","21","0","21","NA","21","21","0","21","NA","21","NA","21","0","0","21","21","0","21","21","22","z","10/09/17 13:39:47","The main experiment item","yes","FIN__AB__M21__7%3A10%3A17.osexp","C:\Users\ERP Testing Room\Desktop\Joanna\morph21","no","mono","no","18","no","white","no","yes","1080","legacy","21","21","C:/Users/ERP Testing Room/Desktop/Joanna/morph21/subject-108.csv","xpyriment","Jazzy James","3.1.4","0","z","NA","NA","NA","NA","space","z","768","NA","NA","NA","NA","227838","768","2","legacy","1024","2","48000","-16","AB_m21","108","even","NW_S_SIMP","SOCKETEL","1388","309275","307692","304708","229236","NA","NA","NA","NA","309268","308189","NA","307192","NA","307185","309268","1397","309575","NA","NA","308275","1388","1388","308667","307185","1388","308275","309575","morph21_Oliver/Morris","18","15945","22","yes","1280","1"
"200","82.6086956522","82.6086956522","714.739130435","714.739130435","black","no","xpyriment","legacy","legacy","0","201","NA","uniform","70669","1000","0.0141504761635","1","undefined","1","0","22","22","22","0","22","22","22","NA","22","22","0","22","NA","22","22","0","22","NA","22","NA","22","0","0","22","22","0","22","22","23","/","10/09/17 13:39:47","The main experiment item","yes","FIN__AB__M21__7%3A10%3A17.osexp","C:\Users\ERP Testing Room\Desktop\Joanna\morph21","no","mono","no","18","no","white","no","yes","1080","legacy","22","22","C:/Users/ERP Testing Room/Desktop/Joanna/morph21/subject-108.csv","xpyriment","Jazzy James","3.1.4","0","/","NA","NA","NA","NA","space","/","494","NA","NA","NA","NA","227838","494","2","legacy","1024","2","48000","-16","AB_m21","108","even","CW_S","BOLDNESS","1388","312326","310733","304708","229236","NA","NA","NA","NA","312318","311231","NA","310233","NA","310224","312318","1397","312526","NA","NA","311326","1388","1388","311718","310223","1388","311326","312526","morph21_Oliver/Morris","19","16439","23","yes","1280","41"
"400","83.3333333333","83.3333333333","710.041666667","710.041666667","black","no","xpyriment","legacy","legacy","0","201","NA","uniform","60795","1000","0.0164487211119","1","undefined","1","0","23","23","23","0","23","23","23","NA","23","23","0","23","NA","23","23","0","23","NA","23","NA","23","0","0","23","23","0","23","23","24","/","10/09/17 13:39:47","The main experiment item","yes","FIN__AB__M21__7%3A10%3A17.osexp","C:\Users\ERP Testing Room\Desktop\Joanna\morph21","no","mono","no","18","no","white","no","yes","1080","legacy","23","23","C:/Users/ERP Testing Room/Desktop/Joanna/morph21/subject-108.csv","xpyriment","Jazzy James","3.1.4","0","/","NA","NA","NA","NA","space","/","602","NA","NA","NA","NA","227838","602","2","legacy","1024","2","48000","-16","AB_m21","108","even","CW_S","WIDOWED","1388","316935","313809","315426","229236","NA","NA","NA","NA","315417","314307","NA","313309","NA","313305","315417","1397","317335","NA","NA","314426","1388","1388","314818","313305","1388","314426","317335","morph21_Oliver/Morris","20","17041","24","yes","1280","7"
"200","84","84","717.8","717.8","black","no","xpyriment","legacy","legacy","0","203","NA","uniform","60103","1000","0.0166381045871","1","undefined","1","0","24","24","24","0","24","24","24","NA","24","24","0","24","NA","24","24","0","24","NA","24","NA","24","0","0","24","24","0","24","24","25","z","10/09/17 13:39:47","The main experiment item","yes","FIN__AB__M21__7%3A10%3A17.osexp","C:\Users\ERP Testing Room\Desktop\Joanna\morph21","no","mono","no","18","no","white","no","yes","1080","legacy","24","24","C:/Users/ERP Testing Room/Desktop/Joanna/morph21/subject-108.csv","xpyriment","Jazzy James","3.1.4","0","z","NA","NA","NA","NA","space","z","904","NA","NA","NA","NA","227838","904","2","legacy","1024","2","48000","-16","AB_m21","108","even","NW_S_COMP","ANTISM","1388","320235","318626","315426","229236","NA","NA","NA","NA","320225","319124","NA","318126","NA","318121","320225","1397","320435","NA","NA","319235","1388","1388","319626","318121","1388","319235","320435","morph21_Oliver/Morris","21","17945","25","yes","1280","8"
"200","80.7692307692","80.7692307692","712.346153846","712.346153846","black","no","xpyriment","legacy","legacy","0","205","NA","uniform","71390","1000","0.0140075640846","0","undefined","0","0","25","25","25","0","25","25","25","NA","25","25","0","25","NA","25","25","0","25","NA","25","NA","25","0","0","25","25","0","25","25","26","z","10/09/17 13:39:47","The main experiment item","yes","FIN__AB__M21__7%3A10%3A17.osexp","C:\Users\ERP Testing Room\Desktop\Joanna\morph21","no","mono","no","18","no","white","no","yes","1080","legacy","25","25","C:/Users/ERP Testing Room/Desktop/Joanna/morph21/subject-108.csv","xpyriment","Jazzy James","3.1.4","0","/","NA","NA","NA","NA","space","/","576","NA","NA","NA","NA","227838","576","2","legacy","1024","2","48000","-16","AB_m21","108","even","NW_S_SIMP","JAWLA","1388","323227","321660","315426","229236","NA","NA","NA","NA","320225","322157","NA","321160","NA","321156","323223","1397","323427","NA","NA","322235","1388","1388","322627","321156","1388","322235","323427","morph21_Oliver/Morris","21","18521","26","yes","1280","7"
"200","81.4814814815","81.4814814815","711.740740741","711.740740741","black","no","xpyriment","legacy","legacy","0","206","NA","uniform","65499","1000","0.0152674086627","1","undefined","1","0","26","26","26","0","26","26","26","NA","26","26","0","26","NA","26","26","0","26","NA","26","NA","26","0","0","26","26","0","26","26","27","z","10/09/17 13:39:47","The main experiment item","yes","FIN__AB__M21__7%3A10%3A17.osexp","C:\Users\ERP Testing Room\Desktop\Joanna\morph21","no","mono","no","18","no","white","no","yes","1080","legacy","26","26","C:/Users/ERP Testing Room/Desktop/Joanna/morph21/subject-108.csv","xpyriment","Jazzy James","3.1.4","0","z","NA","NA","NA","NA","space","z","696","NA","NA","NA","NA","227838","696","2","legacy","1024","2","48000","-16","AB_m21","108","even","NW_L_SIMP","GROWILT","1388","327743","324643","326235","229236","NA","NA","NA","NA","326225","325140","NA","324143","NA","324136","326225","1397","327944","NA","NA","325235","1388","1388","325627","324136","1388","325235","327944","morph21_Oliver/Morris","22","19217","27","yes","1280","20"
"300","82.1428571429","82.1428571429","710","710","black","no","xpyriment","legacy","legacy","0","205","NA","uniform","67612","1000","0.0147902739159","1","undefined","1","0","27","27","27","0","27","27","27","NA","27","27","0","27","NA","27","27","0","27","NA","27","NA","27","0","0","27","27","0","27","27","28","z","10/09/17 13:39:47","The main experiment item","yes","FIN__AB__M21__7%3A10%3A17.osexp","C:\Users\ERP Testing Room\Desktop\Joanna\morph21","no","mono","no","18","no","white","no","yes","1080","legacy","27","27","C:/Users/ERP Testing Room/Desktop/Joanna/morph21/subject-108.csv","xpyriment","Jazzy James","3.1.4","0","z","NA","NA","NA","NA","space","z","663","NA","NA","NA","NA","227838","663","2","legacy","1024","2","48000","-16","AB_m21","108","even","NW_S_SIMP","WARNODY","1388","330845","329228","326235","229236","NA","NA","NA","NA","330837","329725","NA","328728","NA","328718","330837","1397","331145","NA","NA","329845","1388","1388","330236","328718","1388","329845","331145","morph21_Oliver/Morris","23","19880","28","yes","1280","12"
"400","82.7586206897","82.7586206897","706.034482759","706.034482759","black","no","xpyriment","legacy","legacy","0","202","NA","uniform","66226","1000","0.0150998097424","1","undefined","1","0","28","28","28","0","28","28","28","NA","28","28","0","28","NA","28","28","0","28","NA","28","NA","28","0","0","28","28","0","28","28","29","/","10/09/17 13:39:47","The main experiment item","yes","FIN__AB__M21__7%3A10%3A17.osexp","C:\Users\ERP Testing Room\Desktop\Joanna\morph21","no","mono","no","18","no","white","no","yes","1080","legacy","28","28","C:/Users/ERP Testing Room/Desktop/Joanna/morph21/subject-108.csv","xpyriment","Jazzy James","3.1.4","0","/","NA","NA","NA","NA","space","/","595","NA","NA","NA","NA","227838","595","2","legacy","1024","2","48000","-16","AB_m21","108","even","CW_L","SPELLER","1388","333953","332361","326235","229236","NA","NA","NA","NA","333946","332858","NA","331861","NA","331851","333946","1397","334353","NA","NA","332953","1388","1388","333345","331851","1388","332953","334353","morph21_Oliver/Morris","24","20475","29","yes","1280","3"
"300","83.3333333333","83.3333333333","707.1","707.1","black","no","xpyriment","legacy","legacy","0","204","NA","uniform","63207","1000","0.0158210324806","1","undefined","1","0","29","29","29","0","29","29","29","NA","29","29","0","29","NA","29","29","0","29","NA","29","NA","29","0","0","29","29","0","29","29","30","z","10/09/17 13:39:47","The main experiment item","yes","FIN__AB__M21__7%3A10%3A17.osexp","C:\Users\ERP Testing Room\Desktop\Joanna\morph21","no","mono","no","18","no","white","no","yes","1080","legacy","29","29","C:/Users/ERP Testing Room/Desktop/Joanna/morph21/subject-108.csv","xpyriment","Jazzy James","3.1.4","0","z","NA","NA","NA","NA","space","z","738","NA","NA","NA","NA","227838","738","2","legacy","1024","2","48000","-16","AB_m21","108","even","NW_L_COMP","NORTHIZE","1388","338662","335545","337153","229236","NA","NA","NA","NA","337145","336042","NA","335045","NA","335038","337145","1397","338962","NA","NA","336153","1388","1388","336545","335037","1388","336153","338962","morph21_Oliver/Morris","25","21213","30","yes","1280","20"
"200","83.8709677419","83.8709677419","706.290322581","706.290322581","black","no","xpyriment","legacy","legacy","0","208","NA","uniform","74535","1000","0.0134165157309","1","undefined","1","0","30","30","30","0","30","30","30","NA","30","30","0","30","NA","30","30","0","30","NA","30","NA","30","0","0","30","30","0","30","30","31","z","10/09/17 13:39:47","The main experiment item","yes","FIN__AB__M21__7%3A10%3A17.osexp","C:\Users\ERP Testing Room\Desktop\Joanna\morph21","no","mono","no","18","no","white","no","yes","1080","legacy","30","30","C:/Users/ERP Testing Room/Desktop/Joanna/morph21/subject-108.csv","xpyriment","Jazzy James","3.1.4","0","z","NA","NA","NA","NA","space","z","682","NA","NA","NA","NA","227838","682","2","legacy","1024","2","48000","-16","AB_m21","108","even","FILL_NW","DARM","1388","341753","340162","337153","229236","NA","NA","NA","NA","341746","340659","NA","339662","NA","339653","341746","1397","341954","NA","NA","340753","1388","1388","341145","339653","1388","340753","341954","morph21_Oliver/Morris","26","21895","31","yes","1280","11"
"350","84.375","84.375","703.15625","703.15625","black","no","xpyriment","legacy","legacy","0","208","NA","uniform","68950","1000","0.0145032632342","1","undefined","1","0","31","31","31","0","31","31","31","NA","31","31","0","31","NA","31","31","0","31","NA","31","NA","31","0","0","31","31","0","31","31","32","z","10/09/17 13:39:47","The main experiment item","yes","FIN__AB__M21__7%3A10%3A17.osexp","C:\Users\ERP Testing Room\Desktop\Joanna\morph21","no","mono","no","18","no","white","no","yes","1080","legacy","31","31","C:/Users/ERP Testing Room/Desktop/Joanna/morph21/subject-108.csv","xpyriment","Jazzy James","3.1.4","0","z","NA","NA","NA","NA","space","z","606","NA","NA","NA","NA","227838","606","2","legacy","1024","2","48000","-16","AB_m21","108","even","FILL_NW","BLANTH","1388","344845","343237","337153","229236","NA","NA","NA","NA","344840","343734","NA","342737","NA","342730","344840","1397","345195","NA","NA","343845","1388","1388","344245","342730","1388","343845","345195","morph21_Oliver/Morris","27","22501","32","yes","1280","3"
"350","81.8181818182","81.8181818182","701.121212121","701.121212121","black","no","xpyriment","legacy","legacy","0","202","NA","uniform","66967","1000","0.0149327280601","0","undefined","0","0","32","32","32","0","32","32","32","NA","32","32","0","32","NA","32","32","0","32","NA","32","NA","32","0","0","32","32","0","32","32","33","/","10/09/17 13:39:47","The main experiment item","yes","FIN__AB__M21__7%3A10%3A17.osexp","C:\Users\ERP Testing Room\Desktop\Joanna\morph21","no","mono","no","18","no","white","no","yes","1080","legacy","32","32","C:/Users/ERP Testing Room/Desktop/Joanna/morph21/subject-108.csv","xpyriment","Jazzy James","3.1.4","0","z","NA","NA","NA","NA","space","z","636","NA","NA","NA","NA","227838","636","2","legacy","1024","2","48000","-16","AB_m21","108","even","CW_L","BARKER","1388","349605","346513","348096","229236","NA","NA","NA","NA","344840","347010","NA","346012","NA","346003","348089","1397","349955","NA","NA","347096","1388","1388","347488","346003","1388","347096","349955","morph21_Oliver/Morris","27","23137","33","yes","1280","2"
"350","82.3529411765","82.3529411765","699.029411765","699.029411765","black","no","xpyriment","legacy","legacy","0","208","NA","uniform","65753","1000","0.0152084315545","1","undefined","1","0","33","33","33","0","33","33","33","NA","33","33","0","33","NA","33","33","0","33","NA","33","NA","33","0","0","33","33","0","33","33","34","z","10/09/17 13:39:47","The main experiment item","yes","FIN__AB__M21__7%3A10%3A17.osexp","C:\Users\ERP Testing Room\Desktop\Joanna\morph21","no","mono","no","18","no","white","no","yes","1080","legacy","33","33","C:/Users/ERP Testing Room/Desktop/Joanna/morph21/subject-108.csv","xpyriment","Jazzy James","3.1.4","0","z","NA","NA","NA","NA","space","z","630","NA","NA","NA","NA","227838","630","2","legacy","1024","2","48000","-16","AB_m21","108","even","FILL_NW","KRAISE","1388","352838","351222","348096","229236","NA","NA","NA","NA","352828","351719","NA","350722","NA","350712","352828","1397","353188","NA","NA","351838","1388","1388","352230","350711","1388","351838","353188","morph21_Oliver/Morris","28","23767","34","yes","1280","33"
"350","82.8571428571","82.8571428571","695.571428571","695.571428571","black","no","xpyriment","legacy","legacy","0","202","NA","uniform","63399","1000","0.0157731194498","1","undefined","1","0","34","34","34","0","34","34","34","NA","34","34","0","34","NA","34","34","0","34","NA","34","NA","34","0","0","34","34","0","34","34","35","/","10/09/17 13:39:47","The main experiment item","yes","FIN__AB__M21__7%3A10%3A17.osexp","C:\Users\ERP Testing Room\Desktop\Joanna\morph21","no","mono","no","18","no","white","no","yes","1080","legacy","34","34","C:/Users/ERP Testing Room/Desktop/Joanna/morph21/subject-108.csv","xpyriment","Jazzy James","3.1.4","0","/","NA","NA","NA","NA","space","/","578","NA","NA","NA","NA","227838","578","2","legacy","1024","2","48000","-16","AB_m21","108","even","CW_L","FEEDER","1388","356113","354505","348096","229236","NA","NA","NA","NA","356106","355002","NA","354005","NA","353994","356106","1397","356463","NA","NA","355113","1388","1388","355505","353994","1388","355113","356463","morph21_Oliver/Morris","29","24345","35","yes","1280","14"
"250","83.3333333333","83.3333333333","694.194444444","694.194444444","black","no","xpyriment","legacy","legacy","0","207","NA","uniform","66198","1000","0.0151061965618","1","undefined","1","0","35","35","35","0","35","35","35","NA","35","35","0","35","NA","35","35","0","35","NA","35","NA","35","0","0","35","35","0","35","35","36","/","10/09/17 13:39:47","The main experiment item","yes","FIN__AB__M21__7%3A10%3A17.osexp","C:\Users\ERP Testing Room\Desktop\Joanna\morph21","no","mono","no","18","no","white","no","yes","1080","legacy","35","35","C:/Users/ERP Testing Room/Desktop/Joanna/morph21/subject-108.csv","xpyriment","Jazzy James","3.1.4","0","/","NA","NA","NA","NA","space","/","646","NA","NA","NA","NA","227838","646","2","legacy","1024","2","48000","-16","AB_m21","108","even","FILL_W","SHIP","1388","360914","357822","359405","229236","NA","NA","NA","NA","359399","358319","NA","357322","NA","357315","359399","1397","361164","NA","NA","358405","1388","1388","358797","357315","1388","358405","361164","morph21_Oliver/Morris","30","24991","36","yes","1280","37"
"250","83.7837837838","83.7837837838","692.324324324","692.324324324","black","no","xpyriment","legacy","legacy","0","201","NA","uniform","65484","1000","0.0152709058701","1","undefined","1","0","36","36","36","0","36","36","36","NA","36","36","0","36","NA","36","36","0","36","NA","36","NA","36","0","0","36","36","0","36","36","37","/","10/09/17 13:39:47","The main experiment item","yes","FIN__AB__M21__7%3A10%3A17.osexp","C:\Users\ERP Testing Room\Desktop\Joanna\morph21","no","mono","no","18","no","white","no","yes","1080","legacy","36","36","C:/Users/ERP Testing Room/Desktop/Joanna/morph21/subject-108.csv","xpyriment","Jazzy James","3.1.4","0","/","NA","NA","NA","NA","space","/","625","NA","NA","NA","NA","227838","625","2","legacy","1024","2","48000","-16","AB_m21","108","even","CW_S","HUGELY","1388","364148","362522","359405","229236","NA","NA","NA","NA","364141","363019","NA","362022","NA","362014","364141","1397","364398","NA","NA","363147","1388","1388","363539","362014","1388","363147","364398","morph21_Oliver/Morris","31","25616","37","yes","1280","35"
"400","84.2105263158","84.2105263158","690.289473684","690.289473684","black","no","xpyriment","legacy","legacy","0","205","NA","uniform","64907","1000","0.0154066587579","1","undefined","1","0","37","37","37","0","37","37","37","NA","37","37","0","37","NA","37","37","0","37","NA","37","NA","37","0","0","37","37","0","37","37","38","z","10/09/17 13:39:47","The main experiment item","yes","FIN__AB__M21__7%3A10%3A17.osexp","C:\Users\ERP Testing Room\Desktop\Joanna\morph21","no","mono","no","18","no","white","no","yes","1080","legacy","37","37","C:/Users/ERP Testing Room/Desktop/Joanna/morph21/subject-108.csv","xpyriment","Jazzy James","3.1.4","0","z","NA","NA","NA","NA","space","z","615","NA","NA","NA","NA","227838","615","2","legacy","1024","2","48000","-16","AB_m21","108","even","NW_S_SIMP","URNILT","1388","367373","365782","359405","229236","NA","NA","NA","NA","367367","366279","NA","365282","NA","365272","367367","1397","367773","NA","NA","366373","1388","1388","366765","365272","1388","366373","367773","morph21_Oliver/Morris","32","26231","38","yes","1280","5"
"400","84.6153846154","84.6153846154","688.102564103","688.102564103","black","no","xpyriment","legacy","legacy","0","207","NA","uniform","68376","1000","0.014625014625","1","undefined","1","0","38","38","38","0","38","38","38","NA","38","38","0","38","NA","38","38","0","38","NA","38","NA","38","0","0","38","38","0","38","38","39","/","10/09/17 13:39:47","The main experiment item","yes","FIN__AB__M21__7%3A10%3A17.osexp","C:\Users\ERP Testing Room\Desktop\Joanna\morph21","no","mono","no","18","no","white","no","yes","1080","legacy","38","38","C:/Users/ERP Testing Room/Desktop/Joanna/morph21/subject-108.csv","xpyriment","Jazzy James","3.1.4","0","/","NA","NA","NA","NA","space","/","605","NA","NA","NA","NA","227838","605","2","legacy","1024","2","48000","-16","AB_m21","108","even","FILL_W","EAT","1388","372299","369190","370790","229236","NA","NA","NA","NA","370780","369687","NA","368690","NA","368684","370780","1397","372699","NA","NA","369790","1388","1388","370182","368684","1388","369790","372699","morph21_Oliver/Morris","33","26836","39","yes","1280","25"
"400","82.5","82.5","692.05","692.05","black","no","xpyriment","legacy","legacy","0","208","NA","uniform","61568","1000","0.0162422037422","0","undefined","0","0","39","39","39","0","39","39","39","NA","39","39","0","39","NA","39","39","0","39","NA","39","NA","39","0","0","39","39","0","39","39","40","z","10/09/17 13:39:47","The main experiment item","yes","FIN__AB__M21__7%3A10%3A17.osexp","C:\Users\ERP Testing Room\Desktop\Joanna\morph21","no","mono","no","18","no","white","no","yes","1080","legacy","39","39","C:/Users/ERP Testing Room/Desktop/Joanna/morph21/subject-108.csv","xpyriment","Jazzy James","3.1.4","0","/","NA","NA","NA","NA","space","/","846","NA","NA","NA","NA","227838","846","2","legacy","1024","2","48000","-16","AB_m21","108","even","FILL_NW","HEND","1388","375557","373949","370790","229236","NA","NA","NA","NA","370780","374446","NA","373449","NA","373445","375548","1397","375957","NA","NA","374557","1388","1388","374949","373445","1388","374557","375957","morph21_Oliver/Morris","33","27682","40","yes","1280","28"
"300","82.9268292683","82.9268292683","690.073170732","690.073170732","black","no","xpyriment","legacy","legacy","0","202","NA","uniform","68788","1000","0.0145374193173","1","undefined","1","0","40","40","40","0","40","40","40","NA","40","40","0","40","NA","40","40","0","40","NA","40","NA","40","0","0","40","40","0","40","40","41","/","10/09/17 13:39:47","The main experiment item","yes","FIN__AB__M21__7%3A10%3A17.osexp","C:\Users\ERP Testing Room\Desktop\Joanna\morph21","no","mono","no","18","no","white","no","yes","1080","legacy","40","40","C:/Users/ERP Testing Room/Desktop/Joanna/morph21/subject-108.csv","xpyriment","Jazzy James","3.1.4","0","/","NA","NA","NA","NA","space","/","611","NA","NA","NA","NA","227838","611","2","legacy","1024","2","48000","-16","AB_m21","108","even","CW_L","DOUBTFUL","1388","378832","377249","370790","229236","NA","NA","NA","NA","378829","377746","NA","376749","NA","376743","378829","1397","379132","NA","NA","377840","1388","1388","378232","376743","1388","377840","379132","morph21_Oliver/Morris","34","28293","41","yes","1280","21"
"300","83.3333333333","83.3333333333","693.928571429","693.928571429","black","no","xpyriment","legacy","legacy","0","208","NA","uniform","57357","1000","0.0174346635982","1","undefined","1","0","41","41","41","0","41","41","41","NA","41","41","0","41","NA","41","41","0","41","NA","41","NA","41","0","0","41","41","0","41","41","42","z","10/09/17 13:39:47","The main experiment item","yes","FIN__AB__M21__7%3A10%3A17.osexp","C:\Users\ERP Testing Room\Desktop\Joanna\morph21","no","mono","no","18","no","white","no","yes","1080","legacy","41","41","C:/Users/ERP Testing Room/Desktop/Joanna/morph21/subject-108.csv","xpyriment","Jazzy James","3.1.4","0","z","NA","NA","NA","NA","space","z","852","NA","NA","NA","NA","227838","852","2","legacy","1024","2","48000","-16","AB_m21","108","even","FILL_NW","SCURE","1388","383525","380432","382017","229236","NA","NA","NA","NA","382010","380929","NA","379932","NA","379925","382010","1397","383825","NA","NA","381016","1388","1388","381408","379925","1388","381016","383825","morph21_Oliver/Morris","35","29145","42","yes","1280","41"
"300","83.7209302326","83.7209302326","691.418604651","691.418604651","black","no","xpyriment","legacy","legacy","0","208","NA","uniform","72375","1000","0.013816925734","1","undefined","1","0","42","42","42","0","42","42","42","NA","42","42","0","42","NA","42","42","0","42","NA","42","NA","42","0","0","42","42","0","42","42","43","z","10/09/17 13:39:47","The main experiment item","yes","FIN__AB__M21__7%3A10%3A17.osexp","C:\Users\ERP Testing Room\Desktop\Joanna\morph21","no","mono","no","18","no","white","no","yes","1080","legacy","42","42","C:/Users/ERP Testing Room/Desktop/Joanna/morph21/subject-108.csv","xpyriment","Jazzy James","3.1.4","0","z","NA","NA","NA","NA","space","z","586","NA","NA","NA","NA","227838","586","2","legacy","1024","2","48000","-16","AB_m21","108","even","FILL_NW","DULKS","1388","386650","385067","382017","229236","NA","NA","NA","NA","386644","385564","NA","384567","NA","384560","386644","1397","386950","NA","NA","385650","1388","1388","386042","384560","1388","385650","386950","morph21_Oliver/Morris","36","29731","43","yes","1280","18"
"200","84.0909090909","84.0909090909","688.840909091","688.840909091","black","no","xpyriment","legacy","legacy","0","207","NA","uniform","63501","1000","0.0157477834995","1","undefined","1","0","43","43","43","0","43","43","43","NA","43","43","0","43","NA","43","43","0","43","NA","43","NA","43","0","0","43","43","0","43","43","44","/","10/09/17 13:39:47","The main experiment item","yes","FIN__AB__M21__7%3A10%3A17.osexp","C:\Users\ERP Testing Room\Desktop\Joanna\morph21","no","mono","no","18","no","white","no","yes","1080","legacy","43","43","C:/Users/ERP Testing Room/Desktop/Joanna/morph21/subject-108.csv","xpyriment","Jazzy James","3.1.4","0","/","NA","NA","NA","NA","space","/","578","NA","NA","NA","NA","227838","578","2","legacy","1024","2","48000","-16","AB_m21","108","even","FILL_W","GOLF","1388","389850","388267","382017","229236","NA","NA","NA","NA","389841","388764","NA","387767","NA","387756","389841","1397","390050","NA","NA","388850","1388","1388","389242","387756","1388","388850","390050","morph21_Oliver/Morris","37","30309","44","yes","1280","28"
"200","84.4444444444","84.4444444444","688.244444444","688.244444444","black","no","xpyriment","legacy","legacy","0","203","NA","uniform","70686","1000","0.0141470729706","1","undefined","1","0","44","44","44","0","44","44","44","NA","44","44","0","44","NA","44","44","0","44","NA","44","NA","44","0","0","44","44","0","44","44","45","z","10/09/17 13:39:47","The main experiment item","yes","FIN__AB__M21__7%3A10%3A17.osexp","C:\Users\ERP Testing Room\Desktop\Joanna\morph21","no","mono","no","18","no","white","no","yes","1080","legacy","44","44","C:/Users/ERP Testing Room/Desktop/Joanna/morph21/subject-108.csv","xpyriment","Jazzy James","3.1.4","0","z","NA","NA","NA","NA","space","z","662","NA","NA","NA","NA","227838","662","2","legacy","1024","2","48000","-16","AB_m21","108","even","NW_S_COMP","MELTANCE","1388","394426","391334","392917","229236","NA","NA","NA","NA","392910","391831","NA","390834","NA","390826","392910","1397","394626","NA","NA","391917","1388","1388","392309","390826","1388","391917","394626","morph21_Oliver/Morris","38","30971","45","yes","1280","1"
"200","84.7826086957","84.7826086957","691.739130435","691.739130435","black","no","xpyriment","legacy","legacy","0","205","NA","uniform","60391","1000","0.0165587587554","1","undefined","1","0","45","45","45","0","45","45","45","NA","45","45","0","45","NA","45","45","0","45","NA","45","NA","45","0","0","45","45","0","45","45","46","z","10/09/17 13:39:47","The main experiment item","yes","FIN__AB__M21__7%3A10%3A17.osexp","C:\Users\ERP Testing Room\Desktop\Joanna\morph21","no","mono","no","18","no","white","no","yes","1080","legacy","45","45","C:/Users/ERP Testing Room/Desktop/Joanna/morph21/subject-108.csv","xpyriment","Jazzy James","3.1.4","0","z","NA","NA","NA","NA","space","z","849","NA","NA","NA","NA","227838","849","2","legacy","1024","2","48000","-16","AB_m21","108","even","NW_S_SIMP","THRILLANGE","1388","397426","395792","392917","229236","NA","NA","NA","NA","397423","396289","NA","395292","NA","395284","397423","1397","397626","NA","NA","396434","1388","1388","396826","395284","1388","396434","397626","morph21_Oliver/Morris","39","31820","46","yes","1280","22"
"250","85.1063829787","85.1063829787","690.127659574","690.127659574","black","no","xpyriment","legacy","legacy","0","202","NA","uniform","70585","1000","0.014167316002","1","undefined","1","0","46","46","46","0","46","46","46","NA","46","46","0","46","NA","46","46","0","46","NA","46","NA","46","0","0","46","46","0","46","46","47","/","10/09/17 13:39:47","The main experiment item","yes","FIN__AB__M21__7%3A10%3A17.osexp","C:\Users\ERP Testing Room\Desktop\Joanna\morph21","no","mono","no","18","no","white","no","yes","1080","legacy","46","46","C:/Users/ERP Testing Room/Desktop/Joanna/morph21/subject-108.csv","xpyriment","Jazzy James","3.1.4","0","/","NA","NA","NA","NA","space","/","616","NA","NA","NA","NA","227838","616","2","legacy","1024","2","48000","-16","AB_m21","108","even","CW_L","FLEXIBLE","1388","400452","398868","392917","229236","NA","NA","NA","NA","400446","399366","NA","398367","NA","398362","400446","1397","400702","NA","NA","399452","1388","1388","399843","398362","1388","399452","400702","morph21_Oliver/Morris","40","32436","47","yes","1280","22"
"300","85.4166666667","85.4166666667","689.5625","689.5625","black","no","xpyriment","legacy","legacy","0","208","NA","uniform","68935","1000","0.0145064190904","1","undefined","1","0","47","47","47","0","47","47","47","NA","47","47","0","47","NA","47","47","0","47","NA","47","NA","47","0","0","47","47","0","47","47","48","z","10/09/17 13:39:47","The main experiment item","yes","FIN__AB__M21__7%3A10%3A17.osexp","C:\Users\ERP Testing Room\Desktop\Joanna\morph21","no","mono","no","18","no","white","no","yes","1080","legacy","47","47","C:/Users/ERP Testing Room/Desktop/Joanna/morph21/subject-108.csv","xpyriment","Jazzy James","3.1.4","0","z","NA","NA","NA","NA","space","z","663","NA","NA","NA","NA","227838","663","2","legacy","1024","2","48000","-16","AB_m21","108","even","FILL_NW","KEMT","1388","404985","401860","403477","229236","NA","NA","NA","NA","403469","402357","NA","401360","NA","401351","403469","1397","405286","NA","NA","402477","1388","1388","402869","401351","1388","402477","405286","morph21_Oliver/Morris","41","33099","48","yes","1280","32"
"400","85.7142857143","85.7142857143","694.857142857","694.857142857","black","no","xpyriment","legacy","legacy","0","204","NA","uniform","53379","1000","0.0187339590476","1","undefined","1","0","48","48","48","0","48","48","48","NA","48","48","0","48","NA","48","48","0","48","NA","48","NA","48","0","0","48","48","0","48","48","49","z","10/09/17 13:39:47","The main experiment item","yes","FIN__AB__M21__7%3A10%3A17.osexp","C:\Users\ERP Testing Room\Desktop\Joanna\morph21","no","mono","no","18","no","white","no","yes","1080","legacy","48","48","C:/Users/ERP Testing Room/Desktop/Joanna/morph21/subject-108.csv","xpyriment","Jazzy James","3.1.4","0","z","NA","NA","NA","NA","space","z","949","NA","NA","NA","NA","227838","949","2","legacy","1024","2","48000","-16","AB_m21","108","even","NW_L_COMP","PASSMENT","1388","408102","406519","403477","229236","NA","NA","NA","NA","408096","407016","NA","406010","NA","406000","408096","1397","408502","NA","NA","407102","1388","1388","407494","406000","1388","407102","408502","morph21_Oliver/Morris","42","34048","49","yes","1280","14"
"250","86","86","692.12","692.12","black","no","xpyriment","legacy","legacy","0","207","NA","uniform","68539","1000","0.0145902332978","1","undefined","1","0","49","49","49","0","49","49","49","NA","49","49","0","49","NA","49","49","0","49","NA","49","NA","49","0","0","49","49","0","49","49","50","/","10/09/17 13:39:47","The main experiment item","yes","FIN__AB__M21__7%3A10%3A17.osexp","C:\Users\ERP Testing Room\Desktop\Joanna\morph21","no","mono","no","18","no","white","no","yes","1080","legacy","49","49","C:/Users/ERP Testing Room/Desktop/Joanna/morph21/subject-108.csv","xpyriment","Jazzy James","3.1.4","0","/","NA","NA","NA","NA","space","/","558","NA","NA","NA","NA","227838","558","2","legacy","1024","2","48000","-16","AB_m21","108","even","FILL_W","SOUGHT","1388","411461","409861","403477","229236","NA","NA","NA","NA","411453","410358","NA","409361","NA","409355","411453","1397","411711","NA","NA","410461","1388","1388","410852","409355","1388","410461","411711","morph21_Oliver/Morris","43","34606","50","yes","1280","40"
"250","86.2745098039","86.2745098039","694.156862745","694.156862745","black","no","xpyriment","legacy","legacy","0","204","NA","uniform","64307","1000","0.0155504066431","1","undefined","1","0","50","50","50","0","50","50","50","NA","50","50","0","50","NA","50","50","0","50","NA","50","NA","50","0","0","50","50","0","50","50","51","z","10/09/17 13:39:47","The main experiment item","yes","FIN__AB__M21__7%3A10%3A17.osexp","C:\Users\ERP Testing Room\Desktop\Joanna\morph21","no","mono","no","18","no","white","no","yes","1080","legacy","50","50","C:/Users/ERP Testing Room/Desktop/Joanna/morph21/subject-108.csv","xpyriment","Jazzy James","3.1.4","0","z","NA","NA","NA","NA","space","z","796","NA","NA","NA","NA","227838","796","2","legacy","1024","2","48000","-16","AB_m21","108","even","NW_L_COMP","BREAKITY","1388","416028","412919","414519","229236","NA","NA","NA","NA","414513","413416","NA","412419","NA","412410","414513","1397","416278","NA","NA","413519","1388","1388","413911","412410","1388","413519","416278","morph21_Oliver/Morris","44","35402","51","yes","1280","23"
"200","86.5384615385","86.5384615385","697.634615385","697.634615385","black","no","xpyriment","legacy","legacy","0","204","NA","uniform","61150","1000","0.0163532297629","1","undefined","1","0","51","51","51","0","51","51","51","NA","51","51","0","51","NA","51","51","0","51","NA","51","NA","51","0","0","51","51","0","51","51","52","z","10/09/17 13:39:47","The main experiment item","yes","FIN__AB__M21__7%3A10%3A17.osexp","C:\Users\ERP Testing Room\Desktop\Joanna\morph21","no","mono","no","18","no","white","no","yes","1080","legacy","51","51","C:/Users/ERP Testing Room/Desktop/Joanna/morph21/subject-108.csv","xpyriment","Jazzy James","3.1.4","0","z","NA","NA","NA","NA","space","z","875","NA","NA","NA","NA","227838","875","2","legacy","1024","2","48000","-16","AB_m21","108","even","NW_L_COMP","PITCHORY","1388","419129","417545","414519","229236","NA","NA","NA","NA","419122","418042","NA","417045","NA","417035","419122","1397","419329","NA","NA","418129","1388","1388","418520","417035","1388","418129","419329","morph21_Oliver/Morris","45","36277","52","yes","1280","25"
"350","84.9056603774","84.9056603774","699.037735849","699.037735849","black","no","xpyriment","legacy","legacy","0","207","NA","uniform","69263","1000","0.0144377228823","0","undefined","0","0","52","52","52","0","52","52","52","NA","52","52","0","52","NA","52","52","0","52","NA","52","NA","52","0","0","52","52","0","52","52","53","/","10/09/17 13:39:47","The main experiment item","yes","FIN__AB__M21__7%3A10%3A17.osexp","C:\Users\ERP Testing Room\Desktop\Joanna\morph21","no","mono","no","18","no","white","no","yes","1080","legacy","52","52","C:/Users/ERP Testing Room/Desktop/Joanna/morph21/subject-108.csv","xpyriment","Jazzy James","3.1.4","0","z","NA","NA","NA","NA","space","z","772","NA","NA","NA","NA","227838","772","2","legacy","1024","2","48000","-16","AB_m21","108","even","FILL_W","BRISK","1388","422104","420479","414519","229236","NA","NA","NA","NA","419122","420976","NA","419979","NA","419969","422098","1397","422454","NA","NA","421104","1388","1388","421495","419969","1388","421104","422454","morph21_Oliver/Morris","45","37049","53","yes","1280","8"
"200","85.1851851852","85.1851851852","697.481481481","697.481481481","black","no","xpyriment","legacy","legacy","0","204","NA","uniform","65180","1000","0.0153421294876","1","undefined","1","0","53","53","53","0","53","53","53","NA","53","53","0","53","NA","53","53","0","53","NA","53","NA","53","0","0","53","53","0","53","53","54","z","10/09/17 13:39:47","The main experiment item","yes","FIN__AB__M21__7%3A10%3A17.osexp","C:\Users\ERP Testing Room\Desktop\Joanna\morph21","no","mono","no","18","no","white","no","yes","1080","legacy","53","53","C:/Users/ERP Testing Room/Desktop/Joanna/morph21/subject-108.csv","xpyriment","Jazzy James","3.1.4","0","z","NA","NA","NA","NA","space","z","615","NA","NA","NA","NA","227838","615","2","legacy","1024","2","48000","-16","AB_m21","108","even","NW_L_COMP","FLIPORY","1388","426712","423604","425204","229236","NA","NA","NA","NA","425194","424101","NA","423104","NA","423094","425194","1397","426913","NA","NA","424204","1388","1388","424596","423094","1388","424204","426913","morph21_Oliver/Morris","46","37664","54","yes","1280","16"
"200","85.4545454545","85.4545454545","695.745454545","695.745454545","black","no","xpyriment","legacy","legacy","0","202","NA","uniform","71313","1000","0.0140226887103","1","undefined","1","0","54","54","54","0","54","54","54","NA","54","54","0","54","NA","54","54","0","54","NA","54","NA","54","0","0","54","54","0","54","54","55","/","10/09/17 13:39:47","The main experiment item","yes","FIN__AB__M21__7%3A10%3A17.osexp","C:\Users\ERP Testing Room\Desktop\Joanna\morph21","no","mono","no","18","no","white","no","yes","1080","legacy","54","54","C:/Users/ERP Testing Room/Desktop/Joanna/morph21/subject-108.csv","xpyriment","Jazzy James","3.1.4","0","/","NA","NA","NA","NA","space","/","602","NA","NA","NA","NA","227838","602","2","legacy","1024","2","48000","-16","AB_m21","108","even","CW_L","SHAMEFUL","1388","429729","428104","425204","229236","NA","NA","NA","NA","429722","428601","NA","427604","NA","427599","429722","1397","429929","NA","NA","428729","1388","1388","429121","427599","1388","428729","429929","morph21_Oliver/Morris","47","38266","55","yes","1280","19"
"400","85.7142857143","85.7142857143","696.482142857","696.482142857","black","no","xpyriment","legacy","legacy","0","206","NA","uniform","67334","1000","0.0148513381056","1","undefined","1","0","55","55","55","0","55","55","55","NA","55","55","0","55","NA","55","55","0","55","NA","55","NA","55","0","0","55","55","0","55","55","56","z","10/09/17 13:39:47","The main experiment item","yes","FIN__AB__M21__7%3A10%3A17.osexp","C:\Users\ERP Testing Room\Desktop\Joanna\morph21","no","mono","no","18","no","white","no","yes","1080","legacy","55","55","C:/Users/ERP Testing Room/Desktop/Joanna/morph21/subject-108.csv","xpyriment","Jazzy James","3.1.4","0","z","NA","NA","NA","NA","space","z","737","NA","NA","NA","NA","227838","737","2","legacy","1024","2","48000","-16","AB_m21","108","even","NW_L_SIMP","POORIDY","1388","432746","431163","425204","229236","NA","NA","NA","NA","432740","431660","NA","430663","NA","430654","432740","1397","433146","NA","NA","431746","1388","1388","432138","430654","1388","431746","433146","morph21_Oliver/Morris","48","39003","56","yes","1280","13"
"200","85.9649122807","85.9649122807","692.736842105","692.736842105","black","no","xpyriment","legacy","legacy","0","207","NA","uniform","71414","1000","0.0140028565827","1","undefined","1","0","56","56","56","0","56","56","56","NA","56","56","0","56","NA","56","56","0","56","NA","56","NA","56","0","0","56","56","0","56","56","57","/","10/09/17 13:39:47","The main experiment item","yes","FIN__AB__M21__7%3A10%3A17.osexp","C:\Users\ERP Testing Room\Desktop\Joanna\morph21","no","mono","no","18","no","white","no","yes","1080","legacy","56","56","C:/Users/ERP Testing Room/Desktop/Joanna/morph21/subject-108.csv","xpyriment","Jazzy James","3.1.4","0","/","NA","NA","NA","NA","space","/","483","NA","NA","NA","NA","227838","483","2","legacy","1024","2","48000","-16","AB_m21","108","even","FILL_W","SAVE","1388","437597","434505","436089","229236","NA","NA","NA","NA","436082","435003","NA","434005","NA","433997","436082","1397","437797","NA","NA","435089","1388","1388","435480","433997","1388","435089","437797","morph21_Oliver/Morris","49","39486","57","yes","1280","46"
"200","86.2068965517","86.2068965517","692.155172414","692.155172414","black","no","xpyriment","legacy","legacy","0","208","NA","uniform","60812","1000","0.0164441228705","1","undefined","1","0","57","57","57","0","57","57","57","NA","57","57","0","57","NA","57","57","0","57","NA","57","NA","57","0","0","57","57","0","57","57","58","z","10/09/17 13:39:47","The main experiment item","yes","FIN__AB__M21__7%3A10%3A17.osexp","C:\Users\ERP Testing Room\Desktop\Joanna\morph21","no","mono","no","18","no","white","no","yes","1080","legacy","57","57","C:/Users/ERP Testing Room/Desktop/Joanna/morph21/subject-108.csv","xpyriment","Jazzy James","3.1.4","0","z","NA","NA","NA","NA","space","z","659","NA","NA","NA","NA","227838","659","2","legacy","1024","2","48000","-16","AB_m21","108","even","FILL_NW","VUNKS","1388","440664","439064","436089","229236","NA","NA","NA","NA","440661","439561","NA","438564","NA","438561","440661","1397","440864","NA","NA","439672","1388","1388","440064","438561","1388","439672","440864","morph21_Oliver/Morris","50","40145","58","yes","1280","49"
"200","86.4406779661","86.4406779661","690.847457627","690.847457627","black","no","xpyriment","legacy","legacy","0","208","NA","uniform","61605","1000","0.0162324486649","1","undefined","1","0","58","58","58","0","58","58","58","NA","58","58","0","58","NA","58","58","0","58","NA","58","NA","58","0","0","58","58","0","58","58","59","z","10/09/17 13:39:47","The main experiment item","yes","FIN__AB__M21__7%3A10%3A17.osexp","C:\Users\ERP Testing Room\Desktop\Joanna\morph21","no","mono","no","18","no","white","no","yes","1080","legacy","58","58","C:/Users/ERP Testing Room/Desktop/Joanna/morph21/subject-108.csv","xpyriment","Jazzy James","3.1.4","0","z","NA","NA","NA","NA","space","z","615","NA","NA","NA","NA","227838","615","2","legacy","1024","2","48000","-16","AB_m21","108","even","FILL_NW","GAIRS","1388","443756","442147","436089","229236","NA","NA","NA","NA","443747","442644","NA","441647","NA","441641","443747","1397","443956","NA","NA","442756","1388","1388","443147","441641","1388","442756","443956","morph21_Oliver/Morris","51","40760","59","yes","1280","23"
"250","86.6666666667","86.6666666667","691.333333333","691.333333333","black","no","xpyriment","legacy","legacy","0","207","NA","uniform","60839","1000","0.0164368250629","1","undefined","1","0","59","59","59","0","59","59","59","NA","59","59","0","59","NA","59","59","0","59","NA","59","NA","59","0","0","59","59","0","59","59","60","/","10/09/17 13:39:47","The main experiment item","yes","FIN__AB__M21__7%3A10%3A17.osexp","C:\Users\ERP Testing Room\Desktop\Joanna\morph21","no","mono","no","18","no","white","no","yes","1080","legacy","59","59","C:/Users/ERP Testing Room/Desktop/Joanna/morph21/subject-108.csv","xpyriment","Jazzy James","3.1.4","0","/","NA","NA","NA","NA","space","/","720","NA","NA","NA","NA","227838","720","2","legacy","1024","2","48000","-16","AB_m21","108","even","FILL_W","SMOKE","1388","448439","445323","446931","229236","NA","NA","NA","NA","446926","445820","NA","444823","NA","444813","446926","1397","448690","NA","NA","445931","1388","1388","446331","444813","1388","445931","448690","morph21_Oliver/Morris","52","41480","60","yes","1280","50"
"300","85.2459016393","85.2459016393","696.262295082","696.262295082","black","no","xpyriment","legacy","legacy","0","206","NA","uniform","55278","1000","0.0180903795362","0","undefined","0","0","60","60","60","0","60","60","60","NA","60","60","0","60","NA","60","60","0","60","NA","60","NA","60","0","0","60","60","0","60","60","61","z","10/09/17 13:39:47","The main experiment item","yes","FIN__AB__M21__7%3A10%3A17.osexp","C:\Users\ERP Testing Room\Desktop\Joanna\morph21","no","mono","no","18","no","white","no","yes","1080","legacy","60","60","C:/Users/ERP Testing Room/Desktop/Joanna/morph21/subject-108.csv","xpyriment","Jazzy James","3.1.4","0","None","NA","NA","NA","NA","space","None","992","NA","NA","NA","NA","227838","992","2","legacy","1024","2","48000","-16","AB_m21","108","even","NW_L_SIMP","BEANITH","1388","451532","449931","446931","229236","NA","NA","NA","NA","446926","450428","NA","449431","NA","449422","451523","1397","451832","NA","NA","450531","1388","1388","450923","449422","1388","450531","451832","morph21_Oliver/Morris","52","42472","61","yes","1280","8"
"400","85.4838709677","85.4838709677","694.064516129","694.064516129","black","no","xpyriment","legacy","legacy","0","202","NA","uniform","67390","1000","0.0148389968838","1","undefined","1","0","61","61","61","0","61","61","61","NA","61","61","0","61","NA","61","61","0","61","NA","61","NA","61","0","0","61","61","0","61","61","62","/","10/09/17 13:39:47","The main experiment item","yes","FIN__AB__M21__7%3A10%3A17.osexp","C:\Users\ERP Testing Room\Desktop\Joanna\morph21","no","mono","no","18","no","white","no","yes","1080","legacy","61","61","C:/Users/ERP Testing Room/Desktop/Joanna/morph21/subject-108.csv","xpyriment","Jazzy James","3.1.4","0","/","NA","NA","NA","NA","space","/","560","NA","NA","NA","NA","227838","560","2","legacy","1024","2","48000","-16","AB_m21","108","even","CW_L","DRYNESS","1388","454732","453166","446931","229236","NA","NA","NA","NA","454725","453663","NA","452666","NA","452657","454725","1397","455132","NA","NA","453732","1388","1388","454124","452657","1388","453732","455132","morph21_Oliver/Morris","53","43032","62","yes","1280","42"
"400","85.7142857143","85.7142857143","692.984126984","692.984126984","black","no","xpyriment","legacy","legacy","0","207","NA","uniform","60173","1000","0.0166187492729","1","undefined","1","0","62","62","62","0","62","62","62","NA","62","62","0","62","NA","62","62","0","62","NA","62","NA","62","0","0","62","62","0","62","62","63","/","10/09/17 13:39:47","The main experiment item","yes","FIN__AB__M21__7%3A10%3A17.osexp","C:\Users\ERP Testing Room\Desktop\Joanna\morph21","no","mono","no","18","no","white","no","yes","1080","legacy","62","62","C:/Users/ERP Testing Room/Desktop/Joanna/morph21/subject-108.csv","xpyriment","Jazzy James","3.1.4","0","/","NA","NA","NA","NA","space","/","626","NA","NA","NA","NA","227838","626","2","legacy","1024","2","48000","-16","AB_m21","108","even","FILL_W","CEASE","1388","459383","456307","457874","229236","NA","NA","NA","NA","457869","456805","NA","455807","NA","455801","457869","1397","459783","NA","NA","456874","1388","1388","457274","455801","1388","456874","459783","morph21_Oliver/Morris","54","43658","63","yes","1280","18"
"350","85.9375","85.9375","694.078125","694.078125","black","no","xpyriment","legacy","legacy","0","202","NA","uniform","64305","1000","0.0155508902885","1","undefined","1","0","63","63","63","0","63","63","63","NA","63","63","0","63","NA","63","63","0","63","NA","63","NA","63","0","0","63","63","0","63","63","64","/","10/09/17 13:39:47","The main experiment item","yes","FIN__AB__M21__7%3A10%3A17.osexp","C:\Users\ERP Testing Room\Desktop\Joanna\morph21","no","mono","no","18","no","white","no","yes","1080","legacy","63","63","C:/Users/ERP Testing Room/Desktop/Joanna/morph21/subject-108.csv","xpyriment","Jazzy James","3.1.4","0","/","NA","NA","NA","NA","space","/","763","NA","NA","NA","NA","227838","763","2","legacy","1024","2","48000","-16","AB_m21","108","even","CW_L","PARKING","1388","462624","461033","457874","229236","NA","NA","NA","NA","462617","461530","NA","460533","NA","460528","462617","1397","462974","NA","NA","461624","1388","1388","462016","460528","1388","461624","462974","morph21_Oliver/Morris","55","44421","64","yes","1280","25"
"350","86.1538461538","86.1538461538","695.384615385","695.384615385","black","no","xpyriment","legacy","legacy","0","208","NA","uniform","63919","1000","0.0156448004506","1","undefined","1","0","64","64","64","0","64","64","64","NA","64","64","0","64","NA","64","64","0","64","NA","64","NA","64","0","0","64","64","0","64","64","65","z","10/09/17 13:39:47","The main experiment item","yes","FIN__AB__M21__7%3A10%3A17.osexp","C:\Users\ERP Testing Room\Desktop\Joanna\morph21","no","mono","no","18","no","white","no","yes","1080","legacy","64","64","C:/Users/ERP Testing Room/Desktop/Joanna/morph21/subject-108.csv","xpyriment","Jazzy James","3.1.4","0","z","NA","NA","NA","NA","space","z","779","NA","NA","NA","NA","227838","779","2","legacy","1024","2","48000","-16","AB_m21","108","even","FILL_NW","JADS","1388","465824","464208","457874","229236","NA","NA","NA","NA","465814","464705","NA","463708","NA","463702","465814","1397","466175","NA","NA","464824","1388","1388","465216","463702","1388","464824","466175","morph21_Oliver/Morris","56","45200","65","yes","1280","31"
"300","86.3636363636","86.3636363636","695.196969697","695.196969697","black","no","xpyriment","legacy","legacy","0","205","NA","uniform","67595","1000","0.0147939936386","1","undefined","1","0","65","65","65","0","65","65","65","NA","65","65","0","65","NA","65","65","0","65","NA","65","NA","65","0","0","65","65","0","65","65","66","z","10/09/17 13:39:47","The main experiment item","yes","FIN__AB__M21__7%3A10%3A17.osexp","C:\Users\ERP Testing Room\Desktop\Joanna\morph21","no","mono","no","18","no","white","no","yes","1080","legacy","65","65","C:/Users/ERP Testing Room/Desktop/Joanna/morph21/subject-108.csv","xpyriment","Jazzy James","3.1.4","0","z","NA","NA","NA","NA","space","z","683","NA","NA","NA","NA","227838","683","2","legacy","1024","2","48000","-16","AB_m21","108","even","NW_S_SIMP","HELMETOES","1388","470542","467425","469034","229236","NA","NA","NA","NA","469027","467922","NA","466925","NA","466920","469027","1397","470843","NA","NA","468033","1388","1388","468425","466920","1388","468033","470843","morph21_Oliver/Morris","57","45883","66","yes","1280","14"
"350","86.5671641791","86.5671641791","692.328358209","692.328358209","black","no","xpyriment","legacy","legacy","0","207","NA","uniform","72880","1000","0.0137211855104","1","undefined","1","0","66","66","66","0","66","66","66","NA","66","66","0","66","NA","66","66","0","66","NA","66","NA","66","0","0","66","66","0","66","66","67","/","10/09/17 13:39:47","The main experiment item","yes","FIN__AB__M21__7%3A10%3A17.osexp","C:\Users\ERP Testing Room\Desktop\Joanna\morph21","no","mono","no","18","no","white","no","yes","1080","legacy","66","66","C:/Users/ERP Testing Room/Desktop/Joanna/morph21/subject-108.csv","xpyriment","Jazzy James","3.1.4","0","/","NA","NA","NA","NA","space","/","503","NA","NA","NA","NA","227838","503","2","legacy","1024","2","48000","-16","AB_m21","108","even","FILL_W","WEIRD","1388","473701","472076","469034","229236","NA","NA","NA","NA","473696","472573","NA","471576","NA","471573","473696","1397","474051","NA","NA","472701","1388","1388","473101","471572","1388","472701","474051","morph21_Oliver/Morris","58","46386","67","yes","1280","2"
"200","86.7647058824","86.7647058824","690.941176471","690.941176471","black","no","xpyriment","legacy","legacy","0","206","NA","uniform","63332","1000","0.0157898061012","1","undefined","1","0","67","67","67","0","67","67","67","NA","67","67","0","67","NA","67","67","0","67","NA","67","NA","67","0","0","67","67","0","67","67","68","z","10/09/17 13:39:47","The main experiment item","yes","FIN__AB__M21__7%3A10%3A17.osexp","C:\Users\ERP Testing Room\Desktop\Joanna\morph21","no","mono","no","18","no","white","no","yes","1080","legacy","67","67","C:/Users/ERP Testing Room/Desktop/Joanna/morph21/subject-108.csv","xpyriment","Jazzy James","3.1.4","0","z","NA","NA","NA","NA","space","z","598","NA","NA","NA","NA","227838","598","2","legacy","1024","2","48000","-16","AB_m21","108","even","NW_L_SIMP","TOWERLA","1388","476934","475343","469034","229236","NA","NA","NA","NA","476927","475840","NA","474843","NA","474833","476927","1397","477134","NA","NA","475934","1388","1388","476326","474832","1388","475934","477134","morph21_Oliver/Morris","59","46984","68","yes","1280","15"
"350","86.9565217391","86.9565217391","687.608695652","687.608695652","black","no","xpyriment","legacy","legacy","0","202","NA","uniform","70542","1000","0.0141759519152","1","undefined","1","0","68","68","68","0","68","68","68","NA","68","68","0","68","NA","68","68","0","68","NA","68","NA","68","0","0","68","68","0","68","68","69","/","10/09/17 13:39:47","The main experiment item","yes","FIN__AB__M21__7%3A10%3A17.osexp","C:\Users\ERP Testing Room\Desktop\Joanna\morph21","no","mono","no","18","no","white","no","yes","1080","legacy","68","68","C:/Users/ERP Testing Room/Desktop/Joanna/morph21/subject-108.csv","xpyriment","Jazzy James","3.1.4","0","/","NA","NA","NA","NA","space","/","461","NA","NA","NA","NA","227838","461","2","legacy","1024","2","48000","-16","AB_m21","108","even","CW_L","BOMBER","1388","481618","478509","480109","229236","NA","NA","NA","NA","480101","479007","NA","478009","NA","478002","480101","1397","481968","NA","NA","479110","1388","1388","479501","478001","1388","479110","481968","morph21_Oliver/Morris","60","47445","69","yes","1280","7"
"250","85.7142857143","85.7142857143","691.957142857","691.957142857","black","no","xpyriment","legacy","legacy","0","208","NA","uniform","54962","1000","0.0181943888505","0","undefined","0","0","69","69","69","0","69","69","69","NA","69","69","0","69","NA","69","69","0","69","NA","69","NA","69","0","0","69","69","0","69","69","70","z","10/09/17 13:39:47","The main experiment item","yes","FIN__AB__M21__7%3A10%3A17.osexp","C:\Users\ERP Testing Room\Desktop\Joanna\morph21","no","mono","no","18","no","white","no","yes","1080","legacy","69","69","C:/Users/ERP Testing Room/Desktop/Joanna/morph21/subject-108.csv","xpyriment","Jazzy James","3.1.4","0","None","NA","NA","NA","NA","space","None","992","NA","NA","NA","NA","227838","992","2","legacy","1024","2","48000","-16","AB_m21","108","even","FILL_NW","DOWED","1388","484893","483310","480109","229236","NA","NA","NA","NA","480101","483807","NA","482810","NA","482802","484885","1397","485143","NA","NA","483893","1388","1388","484285","482802","1388","483893","485143","morph21_Oliver/Morris","60","48437","70","yes","1280","16"
"400","85.9154929577","85.9154929577","691.802816901","691.802816901","black","no","xpyriment","legacy","legacy","0","202","NA","uniform","64596","1000","0.0154808347266","1","undefined","1","0","70","70","70","0","70","70","70","NA","70","70","0","70","NA","70","70","0","70","NA","70","NA","70","0","0","70","70","0","70","70","71","/","10/09/17 13:39:47","The main experiment item","yes","FIN__AB__M21__7%3A10%3A17.osexp","C:\Users\ERP Testing Room\Desktop\Joanna\morph21","no","mono","no","18","no","white","no","yes","1080","legacy","70","70","C:/Users/ERP Testing Room/Desktop/Joanna/morph21/subject-108.csv","xpyriment","Jazzy James","3.1.4","0","/","NA","NA","NA","NA","space","/","681","NA","NA","NA","NA","227838","681","2","legacy","1024","2","48000","-16","AB_m21","108","even","CW_L","QUIETLY","1388","488211","486561","480109","229236","NA","NA","NA","NA","488202","487058","NA","486061","NA","486052","488202","1397","488611","NA","NA","487211","1388","1388","487603","486052","1388","487211","488611","morph21_Oliver/Morris","61","49118","71","yes","1280","36"
"200","86.1111111111","86.1111111111","691.791666667","691.791666667","black","no","xpyriment","legacy","legacy","0","201","NA","uniform","70870","1000","0.0141103428813","1","undefined","1","0","71","71","71","0","71","71","71","NA","71","71","0","71","NA","71","71","0","71","NA","71","NA","71","0","0","71","71","0","71","71","72","/","10/09/17 13:39:47","The main experiment item","yes","FIN__AB__M21__7%3A10%3A17.osexp","C:\Users\ERP Testing Room\Desktop\Joanna\morph21","no","mono","no","18","no","white","no","yes","1080","legacy","71","71","C:/Users/ERP Testing Room/Desktop/Joanna/morph21/subject-108.csv","xpyriment","Jazzy James","3.1.4","0","/","NA","NA","NA","NA","space","/","691","NA","NA","NA","NA","227838","691","2","legacy","1024","2","48000","-16","AB_m21","108","even","CW_S","THRUSTER","1388","493061","489969","491553","229236","NA","NA","NA","NA","491544","490466","NA","489469","NA","489464","491544","1397","493261","NA","NA","490553","1388","1388","490944","489463","1388","490553","493261","morph21_Oliver/Morris","62","49809","72","yes","1280","24"
"200","86.301369863","86.301369863","691.643835616","691.643835616","black","no","xpyriment","legacy","legacy","0","208","NA","uniform","68003","1000","0.0147052335926","1","undefined","1","0","72","72","72","0","72","72","72","NA","72","72","0","72","NA","72","72","0","72","NA","72","NA","72","0","0","72","72","0","72","72","73","z","10/09/17 13:39:47","The main experiment item","yes","FIN__AB__M21__7%3A10%3A17.osexp","C:\Users\ERP Testing Room\Desktop\Joanna\morph21","no","mono","no","18","no","white","no","yes","1080","legacy","72","72","C:/Users/ERP Testing Room/Desktop/Joanna/morph21/subject-108.csv","xpyriment","Jazzy James","3.1.4","0","z","NA","NA","NA","NA","space","z","681","NA","NA","NA","NA","227838","681","2","legacy","1024","2","48000","-16","AB_m21","108","even","FILL_NW","TUEER","1388","496169","494578","491553","229236","NA","NA","NA","NA","496159","495075","NA","494078","NA","494074","496159","1397","496370","NA","NA","495170","1388","1388","495561","494074","1388","495169","496370","morph21_Oliver/Morris","63","50490","73","yes","1280","44"
"400","86.4864864865","86.4864864865","692.324324324","692.324324324","black","no","xpyriment","legacy","legacy","0","206","NA","uniform","69009","1000","0.0144908635106","1","undefined","1","0","73","73","73","0","73","73","73","NA","73","73","0","73","NA","73","73","0","73","NA","73","NA","73","0","0","73","73","0","73","73","74","z","10/09/17 13:39:47","The main experiment item","yes","FIN__AB__M21__7%3A10%3A17.osexp","C:\Users\ERP Testing Room\Desktop\Joanna\morph21","no","mono","no","18","no","white","no","yes","1080","legacy","73","73","C:/Users/ERP Testing Room/Desktop/Joanna/morph21/subject-108.csv","xpyriment","Jazzy James","3.1.4","0","z","NA","NA","NA","NA","space","z","742","NA","NA","NA","NA","227838","742","2","legacy","1024","2","48000","-16","AB_m21","108","even","NW_L_SIMP","BOGADY","1388","499253","497636","491553","229236","NA","NA","NA","NA","499248","498133","NA","497136","NA","497128","499248","1397","499653","NA","NA","498253","1388","1388","498653","497128","1388","498253","499653","morph21_Oliver/Morris","64","51232","74","yes","1280","2"
"300","85.3333333333","85.3333333333","690.666666667","690.666666667","black","no","xpyriment","legacy","legacy","0","206","NA","uniform","71824","1000","0.0139229226999","undefined","undefined","0","0","74","74","74","0","74","74","74","NA","74","74","0","74","NA","74","74","0","74","NA","74","NA","74","0","0","74","74","0","74","74","75","z","10/09/17 13:39:47","The main experiment item","yes","FIN__AB__M21__7%3A10%3A17.osexp","C:\Users\ERP Testing Room\Desktop\Joanna\morph21","no","mono","no","18","no","white","no","yes","1080","legacy","74","74","C:/Users/ERP Testing Room/Desktop/Joanna/morph21/subject-108.csv","xpyriment","Jazzy James","3.1.4","0","space","space","NA","NA","NA","space","/","57079","57079","NA","NA","NA","227838","568","2","legacy","1024","2","48000","-16","AB_m21","108","even","NW_L_SIMP","EARILT","1388","504121","501011","502611","229236","504429","NA","NA","NA","499248","501509","NA","500511","NA","500508","502604","1397","561508","NA","NA","501611","1388","1388","502003","500508","1388","501611","504421","morph21_Oliver/Morris","64","51800","75","yes","1280","12"
"200","85.5263157895","85.5263157895","693.434210526","693.434210526","black","no","xpyriment","legacy","legacy","0","208","NA","uniform","54377","1000","0.0183901281792","1","undefined","1","0","75","75","75","0","75","75","75","NA","75","75","0","75","NA","75","75","0","75","NA","75","NA","75","0","0","75","75","0","75","75","76","z","10/09/17 13:39:47","The main experiment item","yes","FIN__AB__M21__7%3A10%3A17.osexp","C:\Users\ERP Testing Room\Desktop\Joanna\morph21","no","mono","no","18","no","white","no","yes","1080","legacy","75","75","C:/Users/ERP Testing Room/Desktop/Joanna/morph21/subject-108.csv","xpyriment","Jazzy James","3.1.4","0","z","space","NA","NA","NA","space","z","901","57079","NA","NA","NA","227838","901","2","legacy","1024","2","48000","-16","AB_m21","108","even","FILL_NW","FROT","1388","564327","562718","502611","229236","504429","NA","NA","NA","564324","563215","NA","562218","NA","562211","564324","1397","564527","NA","NA","563335","1388","1388","563727","562211","1388","563335","564527","morph21_Oliver/Morris","65","52701","76","yes","1280","22"
"200","85.7142857143","85.7142857143","694.532467532","694.532467532","black","no","xpyriment","legacy","legacy","0","205","NA","uniform","58642","1000","0.0170526243989","1","undefined","1","0","76","76","76","0","76","76","76","NA","76","76","0","76","NA","76","76","0","76","NA","76","NA","76","0","0","76","76","0","76","76","77","z","10/09/17 13:39:47","The main experiment item","yes","FIN__AB__M21__7%3A10%3A17.osexp","C:\Users\ERP Testing Room\Desktop\Joanna\morph21","no","mono","no","18","no","white","no","yes","1080","legacy","76","76","C:/Users/ERP Testing Room/Desktop/Joanna/morph21/subject-108.csv","xpyriment","Jazzy James","3.1.4","0","z","space","NA","NA","NA","space","z","778","57079","NA","NA","NA","227838","778","2","legacy","1024","2","48000","-16","AB_m21","108","even","NW_S_SIMP","OPPOSEMANT","1388","567385","565802","502611","229236","504429","NA","NA","NA","567380","566299","NA","565302","NA","565298","567380","1397","567585","NA","NA","566385","1388","1388","566785","565298","1388","566385","567585","morph21_Oliver/Morris","66","53479","77","yes","1280","8"
"300","85.8974358974","85.8974358974","698.192307692","698.192307692","black","no","xpyriment","legacy","legacy","0","204","NA","uniform","55603","1000","0.0179846411165","1","undefined","1","0","77","77","77","0","77","77","77","NA","77","77","0","77","NA","77","77","0","77","NA","77","NA","77","0","0","77","77","0","77","77","78","z","10/09/17 13:39:47","The main experiment item","yes","FIN__AB__M21__7%3A10%3A17.osexp","C:\Users\ERP Testing Room\Desktop\Joanna\morph21","no","mono","no","18","no","white","no","yes","1080","legacy","77","77","C:/Users/ERP Testing Room/Desktop/Joanna/morph21/subject-108.csv","xpyriment","Jazzy James","3.1.4","0","z","space","NA","NA","NA","space","z","980","57079","NA","NA","NA","227838","980","2","legacy","1024","2","48000","-16","AB_m21","108","even","NW_L_COMP","SHEETER","1388","572027","568894","570519","229236","504429","NA","NA","NA","570508","569391","NA","568394","NA","568385","570508","1397","572327","NA","NA","569519","1388","1388","569910","568384","1388","569519","572327","morph21_Oliver/Morris","67","54459","78","yes","1280","5"
"250","86.0759493671","86.0759493671","700.594936709","700.594936709","black","no","xpyriment","legacy","legacy","0","207","NA","uniform","56720","1000","0.0176304654443","1","undefined","1","0","78","78","78","0","78","78","78","NA","78","78","0","78","NA","78","78","0","78","NA","78","NA","78","0","0","78","78","0","78","78","79","/","10/09/17 13:39:47","The main experiment item","yes","FIN__AB__M21__7%3A10%3A17.osexp","C:\Users\ERP Testing Room\Desktop\Joanna\morph21","no","mono","no","18","no","white","no","yes","1080","legacy","78","78","C:/Users/ERP Testing Room/Desktop/Joanna/morph21/subject-108.csv","xpyriment","Jazzy James","3.1.4","0","/","space","NA","NA","NA","space","/","888","57079","NA","NA","NA","227838","888","2","legacy","1024","2","48000","-16","AB_m21","108","even","FILL_W","PACK","1388","575220","573603","570519","229236","504429","NA","NA","NA","575212","574100","NA","573102","NA","573096","575212","1397","575470","NA","NA","574220","1388","1388","574611","573096","1388","574220","575470","morph21_Oliver/Morris","68","55347","79","yes","1280","41"
"300","86.25","86.25","699.4625","699.4625","black","no","xpyriment","legacy","legacy","0","204","NA","uniform","67316","1000","0.0148553092875","1","undefined","1","0","79","79","79","0","79","79","79","NA","79","79","0","79","NA","79","79","0","79","NA","79","NA","79","0","0","79","79","0","79","79","80","z","10/09/17 13:39:47","The main experiment item","yes","FIN__AB__M21__7%3A10%3A17.osexp","C:\Users\ERP Testing Room\Desktop\Joanna\morph21","no","mono","no","18","no","white","no","yes","1080","legacy","79","79","C:/Users/ERP Testing Room/Desktop/Joanna/morph21/subject-108.csv","xpyriment","Jazzy James","3.1.4","0","z","space","NA","NA","NA","space","z","610","57079","NA","NA","NA","227838","610","2","legacy","1024","2","48000","-16","AB_m21","108","even","NW_L_COMP","KINGISM","1388","578378","576778","570519","229236","504429","NA","NA","NA","578368","577275","NA","576278","NA","576271","578368","1397","578678","NA","NA","577378","1388","1388","577770","576271","1388","577378","578678","morph21_Oliver/Morris","69","55957","80","yes","1280","19"
"350","85.1851851852","85.1851851852","696.098765432","696.098765432","black","no","xpyriment","legacy","legacy","0","204","NA","uniform","74630","1000","0.0133994372236","0","undefined","0","0","80","80","80","0","80","80","80","NA","80","80","0","80","NA","80","80","0","80","NA","80","NA","80","0","0","80","80","0","80","80","81","z","10/09/17 13:39:47","The main experiment item","yes","FIN__AB__M21__7%3A10%3A17.osexp","C:\Users\ERP Testing Room\Desktop\Joanna\morph21","no","mono","no","18","no","white","no","yes","1080","legacy","80","80","C:/Users/ERP Testing Room/Desktop/Joanna/morph21/subject-108.csv","xpyriment","Jazzy James","3.1.4","0","/","space","NA","NA","NA","space","/","427","57079","NA","NA","NA","227838","427","2","legacy","1024","2","48000","-16","AB_m21","108","even","NW_L_COMP","AGREELY","1388","583054","579962","581545","229236","504429","NA","NA","NA","578368","580459","NA","579462","NA","579453","581540","1397","583404","NA","NA","580545","1388","1388","580945","579452","1388","580545","583404","morph21_Oliver/Morris","69","56384","81","yes","1280","24"
"400","85.3658536585","85.3658536585","694.414634146","694.414634146","black","no","xpyriment","legacy","legacy","0","203","NA","uniform","73080","1000","0.0136836343733","1","undefined","1","0","81","81","81","0","81","81","81","NA","81","81","0","81","NA","81","81","0","81","NA","81","NA","81","0","0","81","81","0","81","81","82","z","10/09/17 13:39:47","The main experiment item","yes","FIN__AB__M21__7%3A10%3A17.osexp","C:\Users\ERP Testing Room\Desktop\Joanna\morph21","no","mono","no","18","no","white","no","yes","1080","legacy","81","81","C:/Users/ERP Testing Room/Desktop/Joanna/morph21/subject-108.csv","xpyriment","Jazzy James","3.1.4","0","z","space","NA","NA","NA","space","z","558","57079","NA","NA","NA","227838","558","2","legacy","1024","2","48000","-16","AB_m21","108","even","NW_S_COMP","ARIDISM","1388","586245","584654","581545","229236","504429","NA","NA","NA","586240","585151","NA","584154","NA","584147","586240","1397","586645","NA","NA","585245","1388","1388","585645","584146","1388","585245","586645","morph21_Oliver/Morris","70","56942","82","yes","1280","9"
"300","85.5421686747","85.5421686747","693.710843373","693.710843373","black","no","xpyriment","legacy","legacy","0","205","NA","uniform","70215","1000","0.0142419710888","1","undefined","1","0","82","82","82","0","82","82","82","NA","82","82","0","82","NA","82","82","0","82","NA","82","NA","82","0","0","82","82","0","82","82","83","z","10/09/17 13:39:47","The main experiment item","yes","FIN__AB__M21__7%3A10%3A17.osexp","C:\Users\ERP Testing Room\Desktop\Joanna\morph21","no","mono","no","18","no","white","no","yes","1080","legacy","82","82","C:/Users/ERP Testing Room/Desktop/Joanna/morph21/subject-108.csv","xpyriment","Jazzy James","3.1.4","0","z","space","NA","NA","NA","space","z","636","57079","NA","NA","NA","227838","636","2","legacy","1024","2","48000","-16","AB_m21","108","even","NW_S_SIMP","TILTADY","1388","589496","587904","581545","229236","504429","NA","NA","NA","589487","588401","NA","587404","NA","587394","589487","1397","589796","NA","NA","588495","1388","1388","588887","587394","1388","588495","589796","morph21_Oliver/Morris","71","57578","83","yes","1280","17"
"350","85.7142857143","85.7142857143","695.988095238","695.988095238","black","no","xpyriment","legacy","legacy","0","203","NA","uniform","58188","1000","0.0171856740221","1","undefined","1","0","83","83","83","0","83","83","83","NA","83","83","0","83","NA","83","83","0","83","NA","83","NA","83","0","0","83","83","0","83","83","84","z","10/09/17 13:39:47","The main experiment item","yes","FIN__AB__M21__7%3A10%3A17.osexp","C:\Users\ERP Testing Room\Desktop\Joanna\morph21","no","mono","no","18","no","white","no","yes","1080","legacy","83","83","C:/Users/ERP Testing Room/Desktop/Joanna/morph21/subject-108.csv","xpyriment","Jazzy James","3.1.4","0","z","space","NA","NA","NA","space","z","885","57079","NA","NA","NA","227838","885","2","legacy","1024","2","48000","-16","AB_m21","108","even","NW_S_COMP","FIENDISM","1388","594155","591055","592647","229236","504429","NA","NA","NA","592638","591552","NA","590554","NA","590543","592638","1397","594505","NA","NA","591647","1388","1388","592038","590543","1388","591647","594505","morph21_Oliver/Morris","72","58463","84","yes","1280","24"
"250","85.8823529412","85.8823529412","693.741176471","693.741176471","black","no","xpyriment","legacy","legacy","0","201","NA","uniform","69579","1000","0.0143721525173","1","undefined","1","0","84","84","84","0","84","84","84","NA","84","84","0","84","NA","84","84","0","84","NA","84","NA","84","0","0","84","84","0","84","84","85","/","10/09/17 13:39:47","The main experiment item","yes","FIN__AB__M21__7%3A10%3A17.osexp","C:\Users\ERP Testing Room\Desktop\Joanna\morph21","no","mono","no","18","no","white","no","yes","1080","legacy","84","84","C:/Users/ERP Testing Room/Desktop/Joanna/morph21/subject-108.csv","xpyriment","Jazzy James","3.1.4","0","/","space","NA","NA","NA","space","/","505","57079","NA","NA","NA","227838","505","2","legacy","1024","2","48000","-16","AB_m21","108","even","CW_S","NOTICEABLE","1388","597355","595772","592647","229236","504429","NA","NA","NA","597350","596269","NA","595272","NA","595261","597350","1397","597605","NA","NA","596355","1388","1388","596755","595261","1388","596355","597605","morph21_Oliver/Morris","73","58968","85","yes","1280","3"
"350","86.0465116279","86.0465116279","692.372093023","692.372093023","black","no","xpyriment","legacy","legacy","0","201","NA","uniform","68672","1000","0.0145619757689","1","undefined","1","0","85","85","85","0","85","85","85","NA","85","85","0","85","NA","85","85","0","85","NA","85","NA","85","0","0","85","85","0","85","85","86","/","10/09/17 13:39:47","The main experiment item","yes","FIN__AB__M21__7%3A10%3A17.osexp","C:\Users\ERP Testing Room\Desktop\Joanna\morph21","no","mono","no","18","no","white","no","yes","1080","legacy","85","85","C:/Users/ERP Testing Room/Desktop/Joanna/morph21/subject-108.csv","xpyriment","Jazzy James","3.1.4","0","/","space","NA","NA","NA","space","/","576","57079","NA","NA","NA","227838","576","2","legacy","1024","2","48000","-16","AB_m21","108","even","CW_S","AMAZEMENT","1388","600364","598780","592647","229236","504429","NA","NA","NA","600355","599277","NA","598280","NA","598275","600355","1397","600714","NA","NA","599364","1388","1388","599755","598275","1388","599364","600714","morph21_Oliver/Morris","74","59544","86","yes","1280","39"
"400","86.2068965517","86.2068965517","690.804597701","690.804597701","black","no","xpyriment","legacy","legacy","0","201","NA","uniform","67520","1000","0.0148104265403","1","undefined","1","0","86","86","86","0","86","86","86","NA","86","86","0","86","NA","86","86","0","86","NA","86","NA","86","0","0","86","86","0","86","86","87","/","10/09/17 13:39:47","The main experiment item","yes","FIN__AB__M21__7%3A10%3A17.osexp","C:\Users\ERP Testing Room\Desktop\Joanna\morph21","no","mono","no","18","no","white","no","yes","1080","legacy","86","86","C:/Users/ERP Testing Room/Desktop/Joanna/morph21/subject-108.csv","xpyriment","Jazzy James","3.1.4","0","/","space","NA","NA","NA","space","/","556","57079","NA","NA","NA","227838","556","2","legacy","1024","2","48000","-16","AB_m21","108","even","CW_S","ALLOWANCE","1388","605147","602030","603639","229236","504429","NA","NA","NA","603636","602528","NA","601530","NA","601520","603636","1397","605547","NA","NA","602647","1388","1388","603039","601520","1388","602647","605547","morph21_Oliver/Morris","75","60100","87","yes","1280","5"
"250","86.3636363636","86.3636363636","688.5","688.5","black","no","xpyriment","legacy","legacy","0","207","NA","uniform","75656","1000","0.0132177223221","1","undefined","1","0","87","87","87","0","87","87","87","NA","87","87","0","87","NA","87","87","0","87","NA","87","NA","87","0","0","87","87","0","87","87","88","/","10/09/17 13:39:47","The main experiment item","yes","FIN__AB__M21__7%3A10%3A17.osexp","C:\Users\ERP Testing Room\Desktop\Joanna\morph21","no","mono","no","18","no","white","no","yes","1080","legacy","87","87","C:/Users/ERP Testing Room/Desktop/Joanna/morph21/subject-108.csv","xpyriment","Jazzy James","3.1.4","0","/","space","NA","NA","NA","space","/","488","57079","NA","NA","NA","227838","488","2","legacy","1024","2","48000","-16","AB_m21","108","even","FILL_W","STARVE","1388","608347","606764","603639","229236","504429","NA","NA","NA","608340","607261","NA","606264","NA","606259","608340","1397","608597","NA","NA","607347","1388","1388","607739","606259","1388","607347","608597","morph21_Oliver/Morris","76","60588","88","yes","1280","15"
"400","86.5168539326","86.5168539326","686.438202247","686.438202247","black","no","xpyriment","legacy","legacy","0","207","NA","uniform","80677","1000","0.012395106412","1","undefined","1","0","88","88","88","0","88","88","88","NA","88","88","0","88","NA","88","88","0","88","NA","88","NA","88","0","0","88","88","0","88","88","89","/","10/09/17 13:39:47","The main experiment item","yes","FIN__AB__M21__7%3A10%3A17.osexp","C:\Users\ERP Testing Room\Desktop\Joanna\morph21","no","mono","no","18","no","white","no","yes","1080","legacy","88","88","C:/Users/ERP Testing Room/Desktop/Joanna/morph21/subject-108.csv","xpyriment","Jazzy James","3.1.4","0","/","space","NA","NA","NA","space","/","505","57079","NA","NA","NA","227838","505","2","legacy","1024","2","48000","-16","AB_m21","108","even","FILL_W","DRUNK","1388","611324","609740","603639","229236","504429","NA","NA","NA","611317","610237","NA","609240","NA","609230","611317","1397","611724","NA","NA","610323","1388","1388","610715","609230","1388","610323","611724","morph21_Oliver/Morris","77","61093","89","yes","1280","19"
"200","86.6666666667","86.6666666667","684.255555556","684.255555556","black","no","xpyriment","legacy","legacy","0","207","NA","uniform","66089","1000","0.0151311110775","1","undefined","1","0","89","89","89","0","89","89","89","NA","89","89","0","89","NA","89","89","0","89","NA","89","NA","89","0","0","89","89","0","89","89","90","/","10/09/17 13:39:47","The main experiment item","yes","FIN__AB__M21__7%3A10%3A17.osexp","C:\Users\ERP Testing Room\Desktop\Joanna\morph21","no","mono","no","18","no","white","no","yes","1080","legacy","89","89","C:/Users/ERP Testing Room/Desktop/Joanna/morph21/subject-108.csv","xpyriment","Jazzy James","3.1.4","0","/","space","NA","NA","NA","space","/","490","57079","NA","NA","NA","227838","490","2","legacy","1024","2","48000","-16","AB_m21","108","even","FILL_W","FLESH","1388","616199","613090","614690","229236","504429","NA","NA","NA","614683","613587","NA","612590","NA","612585","614683","1397","616399","NA","NA","613690","1388","1388","614082","612585","1388","613690","616399","morph21_Oliver/Morris","78","61583","90","yes","1280","32"
"400","86.8131868132","86.8131868132","684.527472527","684.527472527","black","no","xpyriment","legacy","legacy","0","203","NA","uniform","54086","1000","0.0184890729579","1","undefined","1","0","90","90","90","0","90","90","90","NA","90","90","0","90","NA","90","90","0","90","NA","90","NA","90","0","0","90","90","0","90","90","91","z","10/09/17 13:39:47","The main experiment item","yes","FIN__AB__M21__7%3A10%3A17.osexp","C:\Users\ERP Testing Room\Desktop\Joanna\morph21","no","mono","no","18","no","white","no","yes","1080","legacy","90","90","C:/Users/ERP Testing Room/Desktop/Joanna/morph21/subject-108.csv","xpyriment","Jazzy James","3.1.4","0","z","space","NA","NA","NA","space","z","709","57079","NA","NA","NA","227838","709","2","legacy","1024","2","48000","-16","AB_m21","108","even","NW_S_COMP","ALTARIC","1388","619174","617574","614690","229236","504429","NA","NA","NA","619169","618071","NA","617074","NA","617068","619169","1397","619574","NA","NA","618174","1388","1388","618574","617068","1388","618174","619574","morph21_Oliver/Morris","79","62292","91","yes","1280","7"
