"ITI","acc","accuracy","average_response_time","avg_rt","background","bidi","canvas_backend","clock_backend","color_backend","compensation","cond_trig","condtrigtime","coordinates","coroutines_cycles","coroutines_duration","coroutines_mean_cycle_duration","correct","correct_instructions_1","correct_new_keyboard_response_1","count_AB_m21","count_ITI","count_blank_screen","count_blink_screen","count_block1","count_break1","count_break2","count_break3_1","count_canvas","count_correct_trigger","count_def_chain","count_end_screen","count_fixation_1","count_getting_started","count_inc_counter","count_incorrect_trigger","count_instructions_1","count_logger","count_logscript","count_new_coroutines","count_new_inline_script","count_new_keyboard_response_1","count_reset_counter_prep","count_reset_counter_run","count_responsescreen","count_sequence","count_start_trigger","count_target_present","count_word_trigger","counter","cresp","datetime","description","disable_garbage_collection","experiment_file","experiment_path","font_bold","font_family","font_italic","font_size","font_underline","foreground","form_clicks","fullscreen","height","keyboard_backend","live_row","live_row_block1","logfile","mouse_backend","opensesame_codename","opensesame_version","repeat_cycle","response","response_break1","response_break2","response_break3_1","response_end_screen","response_instructions_1","response_new_keyboard_response_1","response_time","response_time_break1","response_time_break2","response_time_break3_1","response_time_end_screen","response_time_instructions_1","response_time_new_keyboard_response_1","round_decimals","sampler_backend","sound_buf_size","sound_channels","sound_freq","sound_sample_size","start","subject_nr","subject_parity","targ_type","target","time_AB_m21","time_ITI","time_blank_screen","time_blink_screen","time_block1","time_break1","time_break2","time_break3_1","time_canvas","time_correct_trigger","time_def_chain","time_end_screen","time_fixation_1","time_getting_started","time_inc_counter","time_incorrect_trigger","time_instructions_1","time_logger","time_logscript","time_new_inline_script","time_new_keyboard_response_1","time_reset_counter_prep","time_reset_counter_run","time_responsescreen","time_sequence","time_start_trigger","time_target_present","time_word_trigger","title","total_correct","total_response_time","total_responses","uniform_coordinates","width","word_trig"
"250","0","0","997","997","black","no","xpyriment","legacy","legacy","0","201","NA","uniform","57921","1000","0.0172648952884","0","undefined","0","0","0","0","0","0","0","0","0","NA","0","0","0","0","NA","0","0","0","0","NA","0","NA","0","0","0","0","0","0","0","0","1","/","07/24/17 16:04:29","The main experiment item","yes","FIN__AB__M21__7%3A10%3A17.osexp","C:\Users\ERP Testing Room\Desktop\Joanna\morph21","no","mono","no","18","no","white","no","yes","1080","legacy","0","0","C:/Users/ERP Testing Room/Desktop/Joanna/morph21/subject-11.csv","xpyriment","Jazzy James","3.1.4","0","None","NA","NA","NA","NA","z","None","997","NA","NA","NA","NA","38841","997","2","legacy","1024","2","48000","-16","AB_m21","11","odd","CW_S","TOSSING","1609","43385","41785","NA","40468","NA","NA","NA","NA","NA","42282","NA","41280","NA","41212","43382","1626","43635","NA","NA","42385","1609","1609","42785","41212","1609","42385","43635","morph21_Oliver/Morris","0","997","1","yes","1280","26"
"250","50","50","886.5","886.5","black","no","xpyriment","legacy","legacy","0","204","NA","uniform","63710","1000","0.0156961230576","1","undefined","1","0","1","1","1","0","1","1","1","NA","1","1","0","1","NA","1","1","0","1","NA","1","NA","1","0","0","1","1","0","1","1","2","z","07/24/17 16:04:29","The main experiment item","yes","FIN__AB__M21__7%3A10%3A17.osexp","C:\Users\ERP Testing Room\Desktop\Joanna\morph21","no","mono","no","18","no","white","no","yes","1080","legacy","1","1","C:/Users/ERP Testing Room/Desktop/Joanna/morph21/subject-11.csv","xpyriment","Jazzy James","3.1.4","0","z","NA","NA","NA","NA","z","z","776","NA","NA","NA","NA","38841","776","2","legacy","1024","2","48000","-16","AB_m21","11","odd","NW_L_COMP","BREAKITY","1609","46635","45002","NA","40468","NA","NA","NA","NA","46626","45499","NA","44502","NA","44496","46626","1626","46885","NA","NA","45635","1609","1609","46027","44496","1609","45635","46885","morph21_Oliver/Morris","1","1773","2","yes","1280","23"
"400","66.6666666667","66.6666666667","860.333333333","860.333333333","black","no","xpyriment","legacy","legacy","0","201","NA","uniform","65285","1000","0.0153174542391","1","undefined","1","0","2","2","2","0","2","2","2","NA","2","2","0","2","NA","2","2","0","2","NA","2","NA","2","0","0","2","2","0","2","2","3","/","07/24/17 16:04:29","The main experiment item","yes","FIN__AB__M21__7%3A10%3A17.osexp","C:\Users\ERP Testing Room\Desktop\Joanna\morph21","no","mono","no","18","no","white","no","yes","1080","legacy","2","2","C:/Users/ERP Testing Room/Desktop/Joanna/morph21/subject-11.csv","xpyriment","Jazzy James","3.1.4","0","/","NA","NA","NA","NA","z","/","808","NA","NA","NA","NA","38841","808","2","legacy","1024","2","48000","-16","AB_m21","11","odd","CW_S","AVOIDABLE","1609","51327","48210","49819","40468","NA","NA","NA","NA","49812","48707","NA","47710","NA","47705","49812","1626","51727","NA","NA","48819","1609","1609","49210","47705","1609","48818","51727","morph21_Oliver/Morris","2","2581","3","yes","1280","2"
"350","75","75","825","825","black","no","xpyriment","legacy","legacy","0","208","NA","uniform","63232","1000","0.0158147773279","1","undefined","1","0","3","3","3","0","3","3","3","NA","3","3","0","3","NA","3","3","0","3","NA","3","NA","3","0","0","3","3","0","3","3","4","z","07/24/17 16:04:29","The main experiment item","yes","FIN__AB__M21__7%3A10%3A17.osexp","C:\Users\ERP Testing Room\Desktop\Joanna\morph21","no","mono","no","18","no","white","no","yes","1080","legacy","3","3","C:/Users/ERP Testing Room/Desktop/Joanna/morph21/subject-11.csv","xpyriment","Jazzy James","3.1.4","0","z","NA","NA","NA","NA","z","z","719","NA","NA","NA","NA","38841","719","2","legacy","1024","2","48000","-16","AB_m21","11","odd","FILL_NW","DASP","1609","54628","53036","49819","40468","NA","NA","NA","NA","54624","53534","NA","52536","NA","52532","54624","1626","54978","NA","NA","53628","1609","1609","54028","52532","1609","53628","54978","morph21_Oliver/Morris","3","3300","4","yes","1280","13"
"300","80","80","788","788","black","no","xpyriment","legacy","legacy","0","201","NA","uniform","69850","1000","0.0143163922691","1","undefined","1","0","4","4","4","0","4","4","4","NA","4","4","0","4","NA","4","4","0","4","NA","4","NA","4","0","0","4","4","0","4","4","5","/","07/24/17 16:04:29","The main experiment item","yes","FIN__AB__M21__7%3A10%3A17.osexp","C:\Users\ERP Testing Room\Desktop\Joanna\morph21","no","mono","no","18","no","white","no","yes","1080","legacy","4","4","C:/Users/ERP Testing Room/Desktop/Joanna/morph21/subject-11.csv","xpyriment","Jazzy James","3.1.4","0","/","NA","NA","NA","NA","z","/","640","NA","NA","NA","NA","38841","640","2","legacy","1024","2","48000","-16","AB_m21","11","odd","CW_S","RISKY","1609","57778","56170","49819","40468","NA","NA","NA","NA","57775","56667","NA","55661","NA","55651","57775","1626","58078","NA","NA","56787","1609","1609","57178","55651","1609","56787","58078","morph21_Oliver/Morris","4","3940","5","yes","1280","50"
"400","83.3333333333","83.3333333333","759.333333333","759.333333333","black","no","xpyriment","legacy","legacy","0","206","NA","uniform","67671","1000","0.0147773787886","1","undefined","1","0","5","5","5","0","5","5","5","NA","5","5","0","5","NA","5","5","0","5","NA","5","NA","5","0","0","5","5","0","5","5","6","z","07/24/17 16:04:29","The main experiment item","yes","FIN__AB__M21__7%3A10%3A17.osexp","C:\Users\ERP Testing Room\Desktop\Joanna\morph21","no","mono","no","18","no","white","no","yes","1080","legacy","5","5","C:/Users/ERP Testing Room/Desktop/Joanna/morph21/subject-11.csv","xpyriment","Jazzy James","3.1.4","0","z","NA","NA","NA","NA","z","z","616","NA","NA","NA","NA","38841","616","2","legacy","1024","2","48000","-16","AB_m21","11","odd","NW_L_SIMP","VALIDEL","1609","62495","59387","60987","40468","NA","NA","NA","NA","60979","59884","NA","58887","NA","58881","60979","1626","62895","NA","NA","59987","1609","1609","60378","58881","1609","59987","62895","morph21_Oliver/Morris","5","4556","6","yes","1280","23"
"200","85.7142857143","85.7142857143","740","740","black","no","xpyriment","legacy","legacy","0","207","NA","uniform","72090","1000","0.0138715494521","1","undefined","1","0","6","6","6","0","6","6","6","NA","6","6","0","6","NA","6","6","0","6","NA","6","NA","6","0","0","6","6","0","6","6","7","/","07/24/17 16:04:29","The main experiment item","yes","FIN__AB__M21__7%3A10%3A17.osexp","C:\Users\ERP Testing Room\Desktop\Joanna\morph21","no","mono","no","18","no","white","no","yes","1080","legacy","6","6","C:/Users/ERP Testing Room/Desktop/Joanna/morph21/subject-11.csv","xpyriment","Jazzy James","3.1.4","0","/","NA","NA","NA","NA","z","/","624","NA","NA","NA","NA","38841","624","2","legacy","1024","2","48000","-16","AB_m21","11","odd","FILL_W","TAX","1609","65795","64195","60987","40468","NA","NA","NA","NA","65790","64692","NA","63695","NA","63687","65790","1626","65995","NA","NA","64795","1609","1609","65195","63687","1609","64795","65995","morph21_Oliver/Morris","6","5180","7","yes","1280","45"
"400","75","75","706","706","black","no","xpyriment","legacy","legacy","0","202","NA","uniform","73874","1000","0.0135365622546","0","undefined","0","0","7","7","7","0","7","7","7","NA","7","7","0","7","NA","7","7","0","7","NA","7","NA","7","0","0","7","7","0","7","7","8","/","07/24/17 16:04:29","The main experiment item","yes","FIN__AB__M21__7%3A10%3A17.osexp","C:\Users\ERP Testing Room\Desktop\Joanna\morph21","no","mono","no","18","no","white","no","yes","1080","legacy","7","7","C:/Users/ERP Testing Room/Desktop/Joanna/morph21/subject-11.csv","xpyriment","Jazzy James","3.1.4","0","z","NA","NA","NA","NA","z","z","468","NA","NA","NA","NA","38841","468","2","legacy","1024","2","48000","-16","AB_m21","11","odd","CW_L","WRONGLY","1609","68879","67295","60987","40468","NA","NA","NA","NA","65790","67793","NA","66795","NA","66792","68876","1626","69279","NA","NA","67879","1609","1609","68279","66792","1609","67879","69279","morph21_Oliver/Morris","6","5648","8","yes","1280","37"
"300","66.6666666667","66.6666666667","737.777777778","737.777777778","black","no","xpyriment","legacy","legacy","0","208","NA","uniform","57136","1000","0.017502100252","0","undefined","0","0","8","8","8","0","8","8","8","NA","8","8","0","8","NA","8","8","0","8","NA","8","NA","8","0","0","8","8","0","8","8","9","z","07/24/17 16:04:29","The main experiment item","yes","FIN__AB__M21__7%3A10%3A17.osexp","C:\Users\ERP Testing Room\Desktop\Joanna\morph21","no","mono","no","18","no","white","no","yes","1080","legacy","8","8","C:/Users/ERP Testing Room/Desktop/Joanna/morph21/subject-11.csv","xpyriment","Jazzy James","3.1.4","0","None","NA","NA","NA","NA","z","None","992","NA","NA","NA","NA","38841","992","2","legacy","1024","2","48000","-16","AB_m21","11","odd","FILL_NW","HEEM","1609","73605","70513","72097","40468","NA","NA","NA","NA","65790","71010","NA","70013","NA","70007","72089","1626","73905","NA","NA","71097","1609","1609","71488","70007","1609","71096","73905","morph21_Oliver/Morris","6","6640","9","yes","1280","27"
"200","70","70","724.7","724.7","black","no","xpyriment","legacy","legacy","0","202","NA","uniform","69945","1000","0.0142969476017","1","undefined","1","0","9","9","9","0","9","9","9","NA","9","9","0","9","NA","9","9","0","9","NA","9","NA","9","0","0","9","9","0","9","9","10","/","07/24/17 16:04:29","The main experiment item","yes","FIN__AB__M21__7%3A10%3A17.osexp","C:\Users\ERP Testing Room\Desktop\Joanna\morph21","no","mono","no","18","no","white","no","yes","1080","legacy","9","9","C:/Users/ERP Testing Room/Desktop/Joanna/morph21/subject-11.csv","xpyriment","Jazzy James","3.1.4","0","/","NA","NA","NA","NA","z","/","607","NA","NA","NA","NA","38841","607","2","legacy","1024","2","48000","-16","AB_m21","11","odd","CW_L","VERBAL","1609","76772","75180","72097","40468","NA","NA","NA","NA","76765","75677","NA","74680","NA","74671","76765","1626","76972","NA","NA","75772","1609","1609","76163","74671","1609","75772","76972","morph21_Oliver/Morris","7","7247","10","yes","1280","50"
"250","72.7272727273","72.7272727273","711","711","black","no","xpyriment","legacy","legacy","0","201","NA","uniform","60585","1000","0.0165057357432","1","undefined","1","0","10","10","10","0","10","10","10","NA","10","10","0","10","NA","10","10","0","10","NA","10","NA","10","0","0","10","10","0","10","10","11","/","07/24/17 16:04:29","The main experiment item","yes","FIN__AB__M21__7%3A10%3A17.osexp","C:\Users\ERP Testing Room\Desktop\Joanna\morph21","no","mono","no","18","no","white","no","yes","1080","legacy","10","10","C:/Users/ERP Testing Room/Desktop/Joanna/morph21/subject-11.csv","xpyriment","Jazzy James","3.1.4","0","/","NA","NA","NA","NA","z","/","574","NA","NA","NA","NA","38841","574","2","legacy","1024","2","48000","-16","AB_m21","11","odd","CW_S","MOSSY","1609","79805","78213","72097","40468","NA","NA","NA","NA","79802","78711","NA","77713","NA","77703","79802","1626","80055","NA","NA","78805","1609","1609","79205","77703","1609","78805","80055","morph21_Oliver/Morris","8","7821","11","yes","1280","47"
"300","75","75","712.166666667","712.166666667","black","no","xpyriment","legacy","legacy","0","203","NA","uniform","63823","1000","0.0156683327327","1","undefined","1","0","11","11","11","0","11","11","11","NA","11","11","0","11","NA","11","11","0","11","NA","11","NA","11","0","0","11","11","0","11","11","12","z","07/24/17 16:04:29","The main experiment item","yes","FIN__AB__M21__7%3A10%3A17.osexp","C:\Users\ERP Testing Room\Desktop\Joanna\morph21","no","mono","no","18","no","white","no","yes","1080","legacy","11","11","C:/Users/ERP Testing Room/Desktop/Joanna/morph21/subject-11.csv","xpyriment","Jazzy James","3.1.4","0","z","NA","NA","NA","NA","z","z","725","NA","NA","NA","NA","38841","725","2","legacy","1024","2","48000","-16","AB_m21","11","odd","NW_S_COMP","FIGER","1609","84522","81414","83014","40468","NA","NA","NA","NA","83004","81911","NA","80914","NA","80906","83004","1626","84822","NA","NA","82014","1609","1609","82405","80905","1609","82014","84822","morph21_Oliver/Morris","9","8546","12","yes","1280","4"
"200","76.9230769231","76.9230769231","699.307692308","699.307692308","black","no","xpyriment","legacy","legacy","0","201","NA","uniform","65709","1000","0.0152186154104","1","undefined","1","0","12","12","12","0","12","12","12","NA","12","12","0","12","NA","12","12","0","12","NA","12","NA","12","0","0","12","12","0","12","12","13","/","07/24/17 16:04:29","The main experiment item","yes","FIN__AB__M21__7%3A10%3A17.osexp","C:\Users\ERP Testing Room\Desktop\Joanna\morph21","no","mono","no","18","no","white","no","yes","1080","legacy","12","12","C:/Users/ERP Testing Room/Desktop/Joanna/morph21/subject-11.csv","xpyriment","Jazzy James","3.1.4","0","/","NA","NA","NA","NA","z","/","545","NA","NA","NA","NA","38841","545","2","legacy","1024","2","48000","-16","AB_m21","11","odd","CW_S","CAMPAIGNER","1609","87707","86114","83014","40468","NA","NA","NA","NA","87697","86611","NA","85614","NA","85604","87697","1626","87907","NA","NA","86706","1609","1609","87097","85604","1609","86706","87907","morph21_Oliver/Morris","10","9091","13","yes","1280","15"
"350","78.5714285714","78.5714285714","684.357142857","684.357142857","black","no","xpyriment","legacy","legacy","0","202","NA","uniform","72147","1000","0.0138605901839","1","undefined","1","0","13","13","13","0","13","13","13","NA","13","13","0","13","NA","13","13","0","13","NA","13","NA","13","0","0","13","13","0","13","13","14","/","07/24/17 16:04:29","The main experiment item","yes","FIN__AB__M21__7%3A10%3A17.osexp","C:\Users\ERP Testing Room\Desktop\Joanna\morph21","no","mono","no","18","no","white","no","yes","1080","legacy","13","13","C:/Users/ERP Testing Room/Desktop/Joanna/morph21/subject-11.csv","xpyriment","Jazzy James","3.1.4","0","/","NA","NA","NA","NA","z","/","490","NA","NA","NA","NA","38841","490","2","legacy","1024","2","48000","-16","AB_m21","11","odd","CW_L","SWIMMER","1609","90865","89257","83014","40468","NA","NA","NA","NA","90855","89754","NA","88757","NA","88748","90855","1626","91215","NA","NA","89865","1609","1609","90257","88748","1609","89865","91215","morph21_Oliver/Morris","11","9581","14","yes","1280","5"
"350","80","80","670.866666667","670.866666667","black","no","xpyriment","legacy","legacy","0","202","NA","uniform","80081","1000","0.0124873565515","1","undefined","1","0","14","14","14","0","14","14","14","NA","14","14","0","14","NA","14","14","0","14","NA","14","NA","14","0","0","14","14","0","14","14","15","/","07/24/17 16:04:29","The main experiment item","yes","FIN__AB__M21__7%3A10%3A17.osexp","C:\Users\ERP Testing Room\Desktop\Joanna\morph21","no","mono","no","18","no","white","no","yes","1080","legacy","14","14","C:/Users/ERP Testing Room/Desktop/Joanna/morph21/subject-11.csv","xpyriment","Jazzy James","3.1.4","0","/","NA","NA","NA","NA","z","/","482","NA","NA","NA","NA","38841","482","2","legacy","1024","2","48000","-16","AB_m21","11","odd","CW_L","KICKING","1609","95574","92482","94065","40468","NA","NA","NA","NA","94062","92979","NA","91982","NA","91971","94062","1626","95924","NA","NA","93073","1609","1609","93465","91971","1609","93073","95924","morph21_Oliver/Morris","12","10063","15","yes","1280","23"
"200","81.25","81.25","674.375","674.375","black","no","xpyriment","legacy","legacy","0","208","NA","uniform","70126","1000","0.0142600462025","1","undefined","1","0","15","15","15","0","15","15","15","NA","15","15","0","15","NA","15","15","0","15","NA","15","NA","15","0","0","15","15","0","15","15","16","z","07/24/17 16:04:29","The main experiment item","yes","FIN__AB__M21__7%3A10%3A17.osexp","C:\Users\ERP Testing Room\Desktop\Joanna\morph21","no","mono","no","18","no","white","no","yes","1080","legacy","15","15","C:/Users/ERP Testing Room/Desktop/Joanna/morph21/subject-11.csv","xpyriment","Jazzy James","3.1.4","0","z","NA","NA","NA","NA","z","z","727","NA","NA","NA","NA","38841","727","2","legacy","1024","2","48000","-16","AB_m21","11","odd","FILL_NW","PUCTS","1609","98732","97132","94065","40468","NA","NA","NA","NA","98727","97629","NA","96632","NA","96624","98727","1626","98932","NA","NA","97732","1609","1609","98132","96624","1609","97732","98932","morph21_Oliver/Morris","13","10790","16","yes","1280","40"
"300","82.3529411765","82.3529411765","676.411764706","676.411764706","black","no","xpyriment","legacy","legacy","0","206","NA","uniform","65369","1000","0.0152977711147","1","undefined","1","0","16","16","16","0","16","16","16","NA","16","16","0","16","NA","16","16","0","16","NA","16","NA","16","0","0","16","16","0","16","16","17","z","07/24/17 16:04:29","The main experiment item","yes","FIN__AB__M21__7%3A10%3A17.osexp","C:\Users\ERP Testing Room\Desktop\Joanna\morph21","no","mono","no","18","no","white","no","yes","1080","legacy","16","16","C:/Users/ERP Testing Room/Desktop/Joanna/morph21/subject-11.csv","xpyriment","Jazzy James","3.1.4","0","z","NA","NA","NA","NA","z","z","709","NA","NA","NA","NA","38841","709","2","legacy","1024","2","48000","-16","AB_m21","11","odd","NW_L_SIMP","PRAYANGE","1609","101782","100174","94065","40468","NA","NA","NA","NA","101775","100671","NA","99674","NA","99670","101775","1626","102082","NA","NA","100782","1609","1609","101174","99670","1609","100782","102082","morph21_Oliver/Morris","14","11499","17","yes","1280","1"
"350","83.3333333333","83.3333333333","677.388888889","677.388888889","black","no","xpyriment","legacy","legacy","0","202","NA","uniform","70090","1000","0.0142673705236","1","undefined","1","0","17","17","17","0","17","17","17","NA","17","17","0","17","NA","17","17","0","17","NA","17","NA","17","0","0","17","17","0","17","17","18","/","07/24/17 16:04:29","The main experiment item","yes","FIN__AB__M21__7%3A10%3A17.osexp","C:\Users\ERP Testing Room\Desktop\Joanna\morph21","no","mono","no","18","no","white","no","yes","1080","legacy","17","17","C:/Users/ERP Testing Room/Desktop/Joanna/morph21/subject-11.csv","xpyriment","Jazzy James","3.1.4","0","/","NA","NA","NA","NA","z","/","694","NA","NA","NA","NA","38841","694","2","legacy","1024","2","48000","-16","AB_m21","11","odd","CW_L","PUNCHER","1609","106467","103349","104958","40468","NA","NA","NA","NA","104948","103846","NA","102849","NA","102843","104948","1626","106817","NA","NA","103957","1609","1609","104349","102843","1609","103957","106817","morph21_Oliver/Morris","15","12193","18","yes","1280","1"
"400","84.2105263158","84.2105263158","686.894736842","686.894736842","black","no","xpyriment","legacy","legacy","0","201","NA","uniform","60775","1000","0.0164541341012","1","undefined","1","0","18","18","18","0","18","18","18","NA","18","18","0","18","NA","18","18","0","18","NA","18","NA","18","0","0","18","18","0","18","18","19","/","07/24/17 16:04:29","The main experiment item","yes","FIN__AB__M21__7%3A10%3A17.osexp","C:\Users\ERP Testing Room\Desktop\Joanna\morph21","no","mono","no","18","no","white","no","yes","1080","legacy","18","18","C:/Users/ERP Testing Room/Desktop/Joanna/morph21/subject-11.csv","xpyriment","Jazzy James","3.1.4","0","/","NA","NA","NA","NA","z","/","858","NA","NA","NA","NA","38841","858","2","legacy","1024","2","48000","-16","AB_m21","11","odd","CW_S","DESIGN","1609","109625","108042","104958","40468","NA","NA","NA","NA","109619","108539","NA","107542","NA","107537","109619","1626","110025","NA","NA","108625","1609","1609","109017","107537","1609","108625","110025","morph21_Oliver/Morris","16","13051","19","yes","1280","19"
"350","85","85","699.8","699.8","black","no","xpyriment","legacy","legacy","0","202","NA","uniform","55593","1000","0.0179878761715","1","undefined","1","0","19","19","19","0","19","19","19","NA","19","19","0","19","NA","19","19","0","19","NA","19","NA","19","0","0","19","19","0","19","19","20","/","07/24/17 16:04:29","The main experiment item","yes","FIN__AB__M21__7%3A10%3A17.osexp","C:\Users\ERP Testing Room\Desktop\Joanna\morph21","no","mono","no","18","no","white","no","yes","1080","legacy","19","19","C:/Users/ERP Testing Room/Desktop/Joanna/morph21/subject-11.csv","xpyriment","Jazzy James","3.1.4","0","/","NA","NA","NA","NA","z","/","945","NA","NA","NA","NA","38841","945","2","legacy","1024","2","48000","-16","AB_m21","11","odd","CW_L","FEEDER","1609","112834","111242","104958","40468","NA","NA","NA","NA","112829","111739","NA","110742","NA","110736","112829","1626","113184","NA","NA","111834","1609","1609","112234","110736","1609","111834","113184","morph21_Oliver/Morris","17","13996","20","yes","1280","14"
"200","85.7142857143","85.7142857143","691.476190476","691.476190476","black","no","xpyriment","legacy","legacy","0","201","NA","uniform","73784","1000","0.0135530738371","1","undefined","1","0","20","20","20","0","20","20","20","NA","20","20","0","20","NA","20","20","0","20","NA","20","NA","20","0","0","20","20","0","20","20","21","/","07/24/17 16:04:29","The main experiment item","yes","FIN__AB__M21__7%3A10%3A17.osexp","C:\Users\ERP Testing Room\Desktop\Joanna\morph21","no","mono","no","18","no","white","no","yes","1080","legacy","20","20","C:/Users/ERP Testing Room/Desktop/Joanna/morph21/subject-11.csv","xpyriment","Jazzy James","3.1.4","0","/","NA","NA","NA","NA","z","/","525","NA","NA","NA","NA","38841","525","2","legacy","1024","2","48000","-16","AB_m21","11","odd","CW_S","THRUSTER","1609","117642","114509","116134","40468","NA","NA","NA","NA","116125","115006","NA","114009","NA","114005","116125","1626","117842","NA","NA","115134","1609","1609","115525","114005","1609","115134","117842","morph21_Oliver/Morris","18","14521","21","yes","1280","24"
"200","86.3636363636","86.3636363636","694.909090909","694.909090909","black","no","xpyriment","legacy","legacy","0","203","NA","uniform","62784","1000","0.0159276248726","1","undefined","1","0","21","21","21","0","21","21","21","NA","21","21","0","21","NA","21","21","0","21","NA","21","NA","21","0","0","21","21","0","21","21","22","z","07/24/17 16:04:29","The main experiment item","yes","FIN__AB__M21__7%3A10%3A17.osexp","C:\Users\ERP Testing Room\Desktop\Joanna\morph21","no","mono","no","18","no","white","no","yes","1080","legacy","21","21","C:/Users/ERP Testing Room/Desktop/Joanna/morph21/subject-11.csv","xpyriment","Jazzy James","3.1.4","0","z","NA","NA","NA","NA","z","z","767","NA","NA","NA","NA","38841","767","2","legacy","1024","2","48000","-16","AB_m21","11","odd","NW_S_COMP","ELMIST","1609","120676","119084","116134","40468","NA","NA","NA","NA","120669","119581","NA","118584","NA","118574","120669","1626","120876","NA","NA","119676","1609","1609","120067","118574","1609","119676","120876","morph21_Oliver/Morris","19","15288","22","yes","1280","10"
"300","86.9565217391","86.9565217391","692.782608696","692.782608696","black","no","xpyriment","legacy","legacy","0","208","NA","uniform","66599","1000","0.0150152404691","1","undefined","1","0","22","22","22","0","22","22","22","NA","22","22","0","22","NA","22","22","0","22","NA","22","NA","22","0","0","22","22","0","22","22","23","z","07/24/17 16:04:29","The main experiment item","yes","FIN__AB__M21__7%3A10%3A17.osexp","C:\Users\ERP Testing Room\Desktop\Joanna\morph21","no","mono","no","18","no","white","no","yes","1080","legacy","22","22","C:/Users/ERP Testing Room/Desktop/Joanna/morph21/subject-11.csv","xpyriment","Jazzy James","3.1.4","0","z","NA","NA","NA","NA","z","z","646","NA","NA","NA","NA","38841","646","2","legacy","1024","2","48000","-16","AB_m21","11","odd","FILL_NW","SCURE","1609","123693","122101","116134","40468","NA","NA","NA","NA","123687","122598","NA","121601","NA","121591","123687","1626","123994","NA","NA","122694","1609","1609","123085","121591","1609","122693","123994","morph21_Oliver/Morris","20","15934","23","yes","1280","41"
"250","87.5","87.5","684.583333333","684.583333333","black","no","xpyriment","legacy","legacy","0","202","NA","uniform","70075","1000","0.0142704245451","1","undefined","1","0","23","23","23","0","23","23","23","NA","23","23","0","23","NA","23","23","0","23","NA","23","NA","23","0","0","23","23","0","23","23","24","/","07/24/17 16:04:29","The main experiment item","yes","FIN__AB__M21__7%3A10%3A17.osexp","C:\Users\ERP Testing Room\Desktop\Joanna\morph21","no","mono","no","18","no","white","no","yes","1080","legacy","23","23","C:/Users/ERP Testing Room/Desktop/Joanna/morph21/subject-11.csv","xpyriment","Jazzy James","3.1.4","0","/","NA","NA","NA","NA","z","/","496","NA","NA","NA","NA","38841","496","2","legacy","1024","2","48000","-16","AB_m21","11","odd","CW_L","EXCITEMENT","1609","128344","125235","126835","40468","NA","NA","NA","NA","126828","125732","NA","124735","NA","124732","126828","1626","128594","NA","NA","125835","1609","1609","126227","124732","1609","125835","128594","morph21_Oliver/Morris","21","16430","24","yes","1280","38"
"350","88","88","682.96","682.96","black","no","xpyriment","legacy","legacy","0","207","NA","uniform","73286","1000","0.013645170974","1","undefined","1","0","24","24","24","0","24","24","24","NA","24","24","0","24","NA","24","24","0","24","NA","24","NA","24","0","0","24","24","0","24","24","25","/","07/24/17 16:04:29","The main experiment item","yes","FIN__AB__M21__7%3A10%3A17.osexp","C:\Users\ERP Testing Room\Desktop\Joanna\morph21","no","mono","no","18","no","white","no","yes","1080","legacy","24","24","C:/Users/ERP Testing Room/Desktop/Joanna/morph21/subject-11.csv","xpyriment","Jazzy James","3.1.4","0","/","NA","NA","NA","NA","z","/","644","NA","NA","NA","NA","38841","644","2","legacy","1024","2","48000","-16","AB_m21","11","odd","FILL_W","WEIRD","1609","131511","129902","126835","40468","NA","NA","NA","NA","131503","130399","NA","129402","NA","129397","131503","1626","131861","NA","NA","130511","1609","1609","130902","129397","1609","130511","131861","morph21_Oliver/Morris","22","17074","25","yes","1280","2"
"300","88.4615384615","88.4615384615","685.961538462","685.961538462","black","no","xpyriment","legacy","legacy","0","204","NA","uniform","60142","1000","0.0166273153537","1","undefined","1","0","25","25","25","0","25","25","25","NA","25","25","0","25","NA","25","25","0","25","NA","25","NA","25","0","0","25","25","0","25","25","26","z","07/24/17 16:04:29","The main experiment item","yes","FIN__AB__M21__7%3A10%3A17.osexp","C:\Users\ERP Testing Room\Desktop\Joanna\morph21","no","mono","no","18","no","white","no","yes","1080","legacy","25","25","C:/Users/ERP Testing Room/Desktop/Joanna/morph21/subject-11.csv","xpyriment","Jazzy James","3.1.4","0","z","NA","NA","NA","NA","z","z","761","NA","NA","NA","NA","38841","761","2","legacy","1024","2","48000","-16","AB_m21","11","odd","NW_L_COMP","KINGISM","1609","134786","133194","126835","40468","NA","NA","NA","NA","134783","133691","NA","132694","NA","132689","134783","1626","135086","NA","NA","133794","1609","1609","134186","132689","1609","133794","135086","morph21_Oliver/Morris","23","17835","26","yes","1280","19"
"200","88.8888888889","88.8888888889","681.925925926","681.925925926","black","no","xpyriment","legacy","legacy","0","201","NA","uniform","67567","1000","0.014800124321","1","undefined","1","0","26","26","26","0","26","26","26","NA","26","26","0","26","NA","26","26","0","26","NA","26","NA","26","0","0","26","26","0","26","26","27","/","07/24/17 16:04:29","The main experiment item","yes","FIN__AB__M21__7%3A10%3A17.osexp","C:\Users\ERP Testing Room\Desktop\Joanna\morph21","no","mono","no","18","no","white","no","yes","1080","legacy","26","26","C:/Users/ERP Testing Room/Desktop/Joanna/morph21/subject-11.csv","xpyriment","Jazzy James","3.1.4","0","/","NA","NA","NA","NA","z","/","577","NA","NA","NA","NA","38841","577","2","legacy","1024","2","48000","-16","AB_m21","11","odd","CW_S","AMUSEMENT","1609","139511","136386","138002","40468","NA","NA","NA","NA","137994","136883","NA","135886","NA","135882","137994","1626","139711","NA","NA","137002","1609","1609","137394","135881","1609","137002","139711","morph21_Oliver/Morris","24","18412","27","yes","1280","38"
"400","89.2857142857","89.2857142857","681.964285714","681.964285714","black","no","xpyriment","legacy","legacy","0","206","NA","uniform","68348","1000","0.014631006028","1","undefined","1","0","27","27","27","0","27","27","27","NA","27","27","0","27","NA","27","27","0","27","NA","27","NA","27","0","0","27","27","0","27","27","28","z","07/24/17 16:04:29","The main experiment item","yes","FIN__AB__M21__7%3A10%3A17.osexp","C:\Users\ERP Testing Room\Desktop\Joanna\morph21","no","mono","no","18","no","white","no","yes","1080","legacy","27","27","C:/Users/ERP Testing Room/Desktop/Joanna/morph21/subject-11.csv","xpyriment","Jazzy James","3.1.4","0","z","NA","NA","NA","NA","z","z","683","NA","NA","NA","NA","38841","683","2","legacy","1024","2","48000","-16","AB_m21","11","odd","NW_L_SIMP","POORIDY","1609","142704","141087","138002","40468","NA","NA","NA","NA","142698","141584","NA","140587","NA","140583","142698","1626","143104","NA","NA","141704","1609","1609","142095","140583","1609","141704","143104","morph21_Oliver/Morris","25","19095","28","yes","1280","13"
"400","89.6551724138","89.6551724138","681.620689655","681.620689655","black","no","xpyriment","legacy","legacy","0","205","NA","uniform","62481","1000","0.0160048654791","1","undefined","1","0","28","28","28","0","28","28","28","NA","28","28","0","28","NA","28","28","0","28","NA","28","NA","28","0","0","28","28","0","28","28","29","z","07/24/17 16:04:29","The main experiment item","yes","FIN__AB__M21__7%3A10%3A17.osexp","C:\Users\ERP Testing Room\Desktop\Joanna\morph21","no","mono","no","18","no","white","no","yes","1080","legacy","28","28","C:/Users/ERP Testing Room/Desktop/Joanna/morph21/subject-11.csv","xpyriment","Jazzy James","3.1.4","0","z","NA","NA","NA","NA","z","z","672","NA","NA","NA","NA","38841","672","2","legacy","1024","2","48000","-16","AB_m21","11","odd","NW_S_SIMP","ADVERTISELA","1609","145979","144387","138002","40468","NA","NA","NA","NA","145973","144884","NA","143887","NA","143882","145973","1626","146379","NA","NA","144979","1609","1609","145370","143882","1609","144979","146379","morph21_Oliver/Morris","26","19767","29","yes","1280","25"
"250","90","90","688.1","688.1","black","no","xpyriment","legacy","legacy","0","207","NA","uniform","63945","1000","0.0156384392838","1","undefined","1","0","29","29","29","0","29","29","29","NA","29","29","0","29","NA","29","29","0","29","NA","29","NA","29","0","0","29","29","0","29","29","30","/","07/24/17 16:04:29","The main experiment item","yes","FIN__AB__M21__7%3A10%3A17.osexp","C:\Users\ERP Testing Room\Desktop\Joanna\morph21","no","mono","no","18","no","white","no","yes","1080","legacy","29","29","C:/Users/ERP Testing Room/Desktop/Joanna/morph21/subject-11.csv","xpyriment","Jazzy James","3.1.4","0","/","NA","NA","NA","NA","z","/","876","NA","NA","NA","NA","38841","876","2","legacy","1024","2","48000","-16","AB_m21","11","odd","FILL_W","TREAT","1609","150779","147646","149271","40468","NA","NA","NA","NA","149265","148143","NA","147146","NA","147137","149265","1626","151029","NA","NA","148271","1609","1609","148662","147137","1609","148271","151029","morph21_Oliver/Morris","27","20643","30","yes","1280","48"
"250","90.3225806452","90.3225806452","697.322580645","697.322580645","black","no","xpyriment","legacy","legacy","0","201","NA","uniform","55268","1000","0.0180936527466","1","undefined","1","0","30","30","30","0","30","30","30","NA","30","30","0","30","NA","30","30","0","30","NA","30","NA","30","0","0","30","30","0","30","30","31","/","07/24/17 16:04:29","The main experiment item","yes","FIN__AB__M21__7%3A10%3A17.osexp","C:\Users\ERP Testing Room\Desktop\Joanna\morph21","no","mono","no","18","no","white","no","yes","1080","legacy","30","30","C:/Users/ERP Testing Room/Desktop/Joanna/morph21/subject-11.csv","xpyriment","Jazzy James","3.1.4","0","/","NA","NA","NA","NA","z","/","974","NA","NA","NA","NA","38841","974","2","legacy","1024","2","48000","-16","AB_m21","11","odd","CW_S","HARMLESS","1609","153812","152221","149271","40468","NA","NA","NA","NA","153804","152718","NA","151721","NA","151717","153804","1626","154063","NA","NA","152813","1609","1609","153204","151717","1609","152813","154063","morph21_Oliver/Morris","28","21617","31","yes","1280","29"
"350","90.625","90.625","696.03125","696.03125","black","no","xpyriment","legacy","legacy","0","207","NA","uniform","66224","1000","0.0151002657647","1","undefined","1","0","31","31","31","0","31","31","31","NA","31","31","0","31","NA","31","31","0","31","NA","31","NA","31","0","0","31","31","0","31","31","32","/","07/24/17 16:04:29","The main experiment item","yes","FIN__AB__M21__7%3A10%3A17.osexp","C:\Users\ERP Testing Room\Desktop\Joanna\morph21","no","mono","no","18","no","white","no","yes","1080","legacy","31","31","C:/Users/ERP Testing Room/Desktop/Joanna/morph21/subject-11.csv","xpyriment","Jazzy James","3.1.4","0","/","NA","NA","NA","NA","z","/","656","NA","NA","NA","NA","38841","656","2","legacy","1024","2","48000","-16","AB_m21","11","odd","FILL_W","GLOOM","1609","156979","155396","149271","40468","NA","NA","NA","NA","156973","155893","NA","154896","NA","154887","156973","1626","157329","NA","NA","155979","1609","1609","156371","154887","1609","155979","157329","morph21_Oliver/Morris","29","22273","32","yes","1280","14"
"250","90.9090909091","90.9090909091","704.272727273","704.272727273","black","no","xpyriment","legacy","legacy","0","204","NA","uniform","61969","1000","0.0161371008085","1","undefined","1","0","32","32","32","0","32","32","32","NA","32","32","0","32","NA","32","32","0","32","NA","32","NA","32","0","0","32","32","0","32","32","33","z","07/24/17 16:04:29","The main experiment item","yes","FIN__AB__M21__7%3A10%3A17.osexp","C:\Users\ERP Testing Room\Desktop\Joanna\morph21","no","mono","no","18","no","white","no","yes","1080","legacy","32","32","C:/Users/ERP Testing Room/Desktop/Joanna/morph21/subject-11.csv","xpyriment","Jazzy James","3.1.4","0","z","NA","NA","NA","NA","z","z","968","NA","NA","NA","NA","38841","968","2","legacy","1024","2","48000","-16","AB_m21","11","odd","NW_L_COMP","FREENESS","1609","161656","158564","160147","40468","NA","NA","NA","NA","160141","159061","NA","158064","NA","158053","160141","1626","161906","NA","NA","159147","1609","1609","159539","158053","1609","159147","161906","morph21_Oliver/Morris","30","23241","33","yes","1280","15"
"400","91.1764705882","91.1764705882","706.882352941","706.882352941","black","no","xpyriment","legacy","legacy","0","206","NA","uniform","62112","1000","0.0160999484802","1","undefined","1","0","33","33","33","0","33","33","33","NA","33","33","0","33","NA","33","33","0","33","NA","33","NA","33","0","0","33","33","0","33","33","34","z","07/24/17 16:04:29","The main experiment item","yes","FIN__AB__M21__7%3A10%3A17.osexp","C:\Users\ERP Testing Room\Desktop\Joanna\morph21","no","mono","no","18","no","white","no","yes","1080","legacy","33","33","C:/Users/ERP Testing Room/Desktop/Joanna/morph21/subject-11.csv","xpyriment","Jazzy James","3.1.4","0","z","NA","NA","NA","NA","z","z","793","NA","NA","NA","NA","38841","793","2","legacy","1024","2","48000","-16","AB_m21","11","odd","NW_L_SIMP","CLASSOES","1609","164722","163122","160147","40468","NA","NA","NA","NA","164712","163619","NA","162622","NA","162618","164712","1626","165123","NA","NA","163722","1609","1609","164114","162618","1609","163722","165123","morph21_Oliver/Morris","31","24034","34","yes","1280","18"
"400","91.4285714286","91.4285714286","706.228571429","706.228571429","black","no","xpyriment","legacy","legacy","0","208","NA","uniform","60418","1000","0.0165513588666","1","undefined","1","0","34","34","34","0","34","34","34","NA","34","34","0","34","NA","34","34","0","34","NA","34","NA","34","0","0","34","34","0","34","34","35","z","07/24/17 16:04:29","The main experiment item","yes","FIN__AB__M21__7%3A10%3A17.osexp","C:\Users\ERP Testing Room\Desktop\Joanna\morph21","no","mono","no","18","no","white","no","yes","1080","legacy","34","34","C:/Users/ERP Testing Room/Desktop/Joanna/morph21/subject-11.csv","xpyriment","Jazzy James","3.1.4","0","z","NA","NA","NA","NA","z","z","684","NA","NA","NA","NA","38841","684","2","legacy","1024","2","48000","-16","AB_m21","11","odd","FILL_NW","BUTE","1609","168047","166464","160147","40468","NA","NA","NA","NA","168041","166961","NA","165964","NA","165959","168041","1626","168448","NA","NA","167047","1609","1609","167439","165959","1609","167047","168448","morph21_Oliver/Morris","32","24718","35","yes","1280","5"
"400","91.6666666667","91.6666666667","707.055555556","707.055555556","black","no","xpyriment","legacy","legacy","0","203","NA","uniform","63602","1000","0.0157227760133","1","undefined","1","0","35","35","35","0","35","35","35","NA","35","35","0","35","NA","35","35","0","35","NA","35","NA","35","0","0","35","35","0","35","35","36","z","07/24/17 16:04:29","The main experiment item","yes","FIN__AB__M21__7%3A10%3A17.osexp","C:\Users\ERP Testing Room\Desktop\Joanna\morph21","no","mono","no","18","no","white","no","yes","1080","legacy","35","35","C:/Users/ERP Testing Room/Desktop/Joanna/morph21/subject-11.csv","xpyriment","Jazzy James","3.1.4","0","z","NA","NA","NA","NA","z","z","736","NA","NA","NA","NA","38841","736","2","legacy","1024","2","48000","-16","AB_m21","11","odd","NW_S_COMP","ALTARIC","1609","172839","169739","171331","40468","NA","NA","NA","NA","171323","170236","NA","169239","NA","169234","171323","1626","173240","NA","NA","170331","1609","1609","170723","169234","1609","170331","173240","morph21_Oliver/Morris","33","25454","36","yes","1280","7"
"300","89.1891891892","89.1891891892","704.432432432","704.432432432","black","no","xpyriment","legacy","legacy","0","207","NA","uniform","69003","1000","0.0144921235309","0","undefined","0","0","36","36","36","0","36","36","36","NA","36","36","0","36","NA","36","36","0","36","NA","36","NA","36","0","0","36","36","0","36","36","37","/","07/24/17 16:04:29","The main experiment item","yes","FIN__AB__M21__7%3A10%3A17.osexp","C:\Users\ERP Testing Room\Desktop\Joanna\morph21","no","mono","no","18","no","white","no","yes","1080","legacy","36","36","C:/Users/ERP Testing Room/Desktop/Joanna/morph21/subject-11.csv","xpyriment","Jazzy James","3.1.4","0","z","NA","NA","NA","NA","z","z","610","NA","NA","NA","NA","38841","610","2","legacy","1024","2","48000","-16","AB_m21","11","odd","FILL_W","BALD","1609","176074","174489","171331","40468","NA","NA","NA","NA","171323","174987","NA","173989","NA","173985","176069","1626","176374","NA","NA","175074","1609","1609","175474","173985","1609","175074","176374","morph21_Oliver/Morris","33","26064","37","yes","1280","3"
"300","86.8421052632","86.8421052632","711.921052632","711.921052632","black","no","xpyriment","legacy","legacy","0","208","NA","uniform","57234","1000","0.0174721319495","0","undefined","0","0","37","37","37","0","37","37","37","NA","37","37","0","37","NA","37","37","0","37","NA","37","NA","37","0","0","37","37","0","37","37","38","z","07/24/17 16:04:29","The main experiment item","yes","FIN__AB__M21__7%3A10%3A17.osexp","C:\Users\ERP Testing Room\Desktop\Joanna\morph21","no","mono","no","18","no","white","no","yes","1080","legacy","37","37","C:/Users/ERP Testing Room/Desktop/Joanna/morph21/subject-11.csv","xpyriment","Jazzy James","3.1.4","0","None","NA","NA","NA","NA","z","None","989","NA","NA","NA","NA","38841","989","2","legacy","1024","2","48000","-16","AB_m21","11","odd","FILL_NW","KEMT","1609","179224","177641","171331","40468","NA","NA","NA","NA","171323","178138","NA","177141","NA","177135","179221","1626","179524","NA","NA","178232","1609","1609","178624","177135","1609","178232","179524","morph21_Oliver/Morris","33","27053","38","yes","1280","32"
"350","87.1794871795","87.1794871795","717.435897436","717.435897436","black","no","xpyriment","legacy","legacy","0","204","NA","uniform","53207","1000","0.0187945195181","1","undefined","1","0","38","38","38","0","38","38","38","NA","38","38","0","38","NA","38","38","0","38","NA","38","NA","38","0","0","38","38","0","38","38","39","z","07/24/17 16:04:29","The main experiment item","yes","FIN__AB__M21__7%3A10%3A17.osexp","C:\Users\ERP Testing Room\Desktop\Joanna\morph21","no","mono","no","18","no","white","no","yes","1080","legacy","38","38","C:/Users/ERP Testing Room/Desktop/Joanna/morph21/subject-11.csv","xpyriment","Jazzy James","3.1.4","0","z","NA","NA","NA","NA","z","z","927","NA","NA","NA","NA","38841","927","2","legacy","1024","2","48000","-16","AB_m21","11","odd","NW_L_COMP","INKISM","1609","183833","180699","182324","40468","NA","NA","NA","NA","182315","181196","NA","180199","NA","180194","182315","1626","184183","NA","NA","181324","1609","1609","181716","180194","1609","181324","184183","morph21_Oliver/Morris","34","27980","39","yes","1280","8"
"200","87.5","87.5","717.475","717.475","black","no","xpyriment","legacy","legacy","0","201","NA","uniform","60020","1000","0.0166611129623","1","undefined","1","0","39","39","39","0","39","39","39","NA","39","39","0","39","NA","39","39","0","39","NA","39","NA","39","0","0","39","39","0","39","39","40","/","07/24/17 16:04:29","The main experiment item","yes","FIN__AB__M21__7%3A10%3A17.osexp","C:\Users\ERP Testing Room\Desktop\Joanna\morph21","no","mono","no","18","no","white","no","yes","1080","legacy","39","39","C:/Users/ERP Testing Room/Desktop/Joanna/morph21/subject-11.csv","xpyriment","Jazzy James","3.1.4","0","/","NA","NA","NA","NA","z","/","719","NA","NA","NA","NA","38841","719","2","legacy","1024","2","48000","-16","AB_m21","11","odd","CW_S","BOLDNESS","1609","187108","185491","182324","40468","NA","NA","NA","NA","187097","185988","NA","184991","NA","184982","187097","1626","187308","NA","NA","186108","1609","1609","186499","184982","1609","186108","187308","morph21_Oliver/Morris","35","28699","40","yes","1280","41"
"250","87.8048780488","87.8048780488","720.756097561","720.756097561","black","no","xpyriment","legacy","legacy","0","207","NA","uniform","60945","1000","0.0164082369349","1","undefined","1","0","40","40","40","0","40","40","40","NA","40","40","0","40","NA","40","40","0","40","NA","40","NA","40","0","0","40","40","0","40","40","41","/","07/24/17 16:04:29","The main experiment item","yes","FIN__AB__M21__7%3A10%3A17.osexp","C:\Users\ERP Testing Room\Desktop\Joanna\morph21","no","mono","no","18","no","white","no","yes","1080","legacy","40","40","C:/Users/ERP Testing Room/Desktop/Joanna/morph21/subject-11.csv","xpyriment","Jazzy James","3.1.4","0","/","NA","NA","NA","NA","z","/","852","NA","NA","NA","NA","38841","852","2","legacy","1024","2","48000","-16","AB_m21","11","odd","FILL_W","SHIP","1609","190199","188608","182324","40468","NA","NA","NA","NA","190193","189105","NA","188099","NA","188092","190193","1626","190450","NA","NA","189199","1609","1609","189591","188092","1609","189199","190450","morph21_Oliver/Morris","36","29551","41","yes","1280","37"
"300","88.0952380952","88.0952380952","720.19047619","720.19047619","black","no","xpyriment","legacy","legacy","0","205","NA","uniform","72076","1000","0.0138742438537","1","undefined","1","0","41","41","41","0","41","41","41","NA","41","41","0","41","NA","41","41","0","41","NA","41","NA","41","0","0","41","41","0","41","41","42","z","07/24/17 16:04:29","The main experiment item","yes","FIN__AB__M21__7%3A10%3A17.osexp","C:\Users\ERP Testing Room\Desktop\Joanna\morph21","no","mono","no","18","no","white","no","yes","1080","legacy","41","41","C:/Users/ERP Testing Room/Desktop/Joanna/morph21/subject-11.csv","xpyriment","Jazzy James","3.1.4","0","z","NA","NA","NA","NA","z","z","697","NA","NA","NA","NA","38841","697","2","legacy","1024","2","48000","-16","AB_m21","11","odd","NW_S_SIMP","YIELDILT","1609","194801","191691","193292","40468","NA","NA","NA","NA","193282","192188","NA","191191","NA","191181","193282","1626","195101","NA","NA","192291","1609","1609","192684","191181","1609","192291","195101","morph21_Oliver/Morris","37","30248","42","yes","1280","20"
"200","86.0465116279","86.0465116279","726.441860465","726.441860465","black","no","xpyriment","legacy","legacy","0","203","NA","uniform","60428","1000","0.0165486198451","0","undefined","0","0","42","42","42","0","42","42","42","NA","42","42","0","42","NA","42","42","0","42","NA","42","NA","42","0","0","42","42","0","42","42","43","z","07/24/17 16:04:29","The main experiment item","yes","FIN__AB__M21__7%3A10%3A17.osexp","C:\Users\ERP Testing Room\Desktop\Joanna\morph21","no","mono","no","18","no","white","no","yes","1080","legacy","42","42","C:/Users/ERP Testing Room/Desktop/Joanna/morph21/subject-11.csv","xpyriment","Jazzy James","3.1.4","0","None","NA","NA","NA","NA","z","None","989","NA","NA","NA","NA","38841","989","2","legacy","1024","2","48000","-16","AB_m21","11","odd","NW_S_COMP","FANFUL","1609","198026","196409","193292","40468","NA","NA","NA","NA","193282","196906","NA","195909","NA","195902","198023","1626","198226","NA","NA","197034","1609","1609","197426","195902","1609","197034","198226","morph21_Oliver/Morris","37","31237","43","yes","1280","6"
"300","86.3636363636","86.3636363636","724.090909091","724.090909091","black","no","xpyriment","legacy","legacy","0","201","NA","uniform","70635","1000","0.0141572874637","1","undefined","1","0","43","43","43","0","43","43","43","NA","43","43","0","43","NA","43","43","0","43","NA","43","NA","43","0","0","43","43","0","43","43","44","/","07/24/17 16:04:29","The main experiment item","yes","FIN__AB__M21__7%3A10%3A17.osexp","C:\Users\ERP Testing Room\Desktop\Joanna\morph21","no","mono","no","18","no","white","no","yes","1080","legacy","43","43","C:/Users/ERP Testing Room/Desktop/Joanna/morph21/subject-11.csv","xpyriment","Jazzy James","3.1.4","0","/","NA","NA","NA","NA","z","/","623","NA","NA","NA","NA","38841","623","2","legacy","1024","2","48000","-16","AB_m21","11","odd","CW_S","BUYER","1609","201068","199451","193292","40468","NA","NA","NA","NA","201065","199948","NA","198951","NA","198940","201065","1626","201368","NA","NA","200076","1609","1609","200468","198940","1609","200076","201368","morph21_Oliver/Morris","38","31860","44","yes","1280","21"
"300","86.6666666667","86.6666666667","721.377777778","721.377777778","black","no","xpyriment","legacy","legacy","0","204","NA","uniform","71646","1000","0.0139575133294","1","undefined","1","0","44","44","44","0","44","44","44","NA","44","44","0","44","NA","44","44","0","44","NA","44","NA","44","0","0","44","44","0","44","44","45","z","07/24/17 16:04:29","The main experiment item","yes","FIN__AB__M21__7%3A10%3A17.osexp","C:\Users\ERP Testing Room\Desktop\Joanna\morph21","no","mono","no","18","no","white","no","yes","1080","legacy","44","44","C:/Users/ERP Testing Room/Desktop/Joanna/morph21/subject-11.csv","xpyriment","Jazzy James","3.1.4","0","z","NA","NA","NA","NA","z","z","602","NA","NA","NA","NA","38841","602","2","legacy","1024","2","48000","-16","AB_m21","11","odd","NW_L_COMP","ADDMENT","1609","205710","202601","204201","40468","NA","NA","NA","NA","204199","203098","NA","202101","NA","202095","204199","1626","206010","NA","NA","203209","1609","1609","203601","202095","1609","203209","206010","morph21_Oliver/Morris","39","32462","45","yes","1280","13"
"350","86.9565217391","86.9565217391","721.02173913","721.02173913","black","no","xpyriment","legacy","legacy","0","207","NA","uniform","63742","1000","0.0156882432305","1","undefined","1","0","45","45","45","0","45","45","45","NA","45","45","0","45","NA","45","45","0","45","NA","45","NA","45","0","0","45","45","0","45","45","46","/","07/24/17 16:04:29","The main experiment item","yes","FIN__AB__M21__7%3A10%3A17.osexp","C:\Users\ERP Testing Room\Desktop\Joanna\morph21","no","mono","no","18","no","white","no","yes","1080","legacy","45","45","C:/Users/ERP Testing Room/Desktop/Joanna/morph21/subject-11.csv","xpyriment","Jazzy James","3.1.4","0","/","NA","NA","NA","NA","z","/","705","NA","NA","NA","NA","38841","705","2","legacy","1024","2","48000","-16","AB_m21","11","odd","FILL_W","LIFT","1609","208810","207193","204201","40468","NA","NA","NA","NA","208805","207690","NA","206693","NA","206686","208805","1626","209160","NA","NA","207810","1609","1609","208210","206686","1609","207810","209160","morph21_Oliver/Morris","40","33167","46","yes","1280","39"
"300","87.2340425532","87.2340425532","716.872340426","716.872340426","black","no","xpyriment","legacy","legacy","0","202","NA","uniform","70598","1000","0.0141647072155","1","undefined","1","0","46","46","46","0","46","46","46","NA","46","46","0","46","NA","46","46","0","46","NA","46","NA","46","0","0","46","46","0","46","46","47","/","07/24/17 16:04:29","The main experiment item","yes","FIN__AB__M21__7%3A10%3A17.osexp","C:\Users\ERP Testing Room\Desktop\Joanna\morph21","no","mono","no","18","no","white","no","yes","1080","legacy","46","46","C:/Users/ERP Testing Room/Desktop/Joanna/morph21/subject-11.csv","xpyriment","Jazzy James","3.1.4","0","/","NA","NA","NA","NA","z","/","526","NA","NA","NA","NA","38841","526","2","legacy","1024","2","48000","-16","AB_m21","11","odd","CW_L","MADNESS","1609","212102","210519","204201","40468","NA","NA","NA","NA","212097","211016","NA","210019","NA","210010","212097","1626","212403","NA","NA","211102","1609","1609","211494","210010","1609","211102","212403","morph21_Oliver/Morris","41","33693","47","yes","1280","41"
"400","87.5","87.5","713.145833333","713.145833333","black","no","xpyriment","legacy","legacy","0","207","NA","uniform","76149","1000","0.0131321488135","1","undefined","1","0","47","47","47","0","47","47","47","NA","47","47","0","47","NA","47","47","0","47","NA","47","NA","47","0","0","47","47","0","47","47","48","/","07/24/17 16:04:29","The main experiment item","yes","FIN__AB__M21__7%3A10%3A17.osexp","C:\Users\ERP Testing Room\Desktop\Joanna\morph21","no","mono","no","18","no","white","no","yes","1080","legacy","47","47","C:/Users/ERP Testing Room/Desktop/Joanna/morph21/subject-11.csv","xpyriment","Jazzy James","3.1.4","0","/","NA","NA","NA","NA","z","/","538","NA","NA","NA","NA","38841","538","2","legacy","1024","2","48000","-16","AB_m21","11","odd","FILL_W","CEASE","1609","216669","213561","215161","40468","NA","NA","NA","NA","215155","214058","NA","213061","NA","213058","215155","1626","217070","NA","NA","214161","1609","1609","214553","213058","1609","214161","217070","morph21_Oliver/Morris","42","34231","48","yes","1280","18"
"300","87.7551020408","87.7551020408","714.102040816","714.102040816","black","no","xpyriment","legacy","legacy","0","206","NA","uniform","66720","1000","0.0149880095923","1","undefined","1","0","48","48","48","0","48","48","48","NA","48","48","0","48","NA","48","48","0","48","NA","48","NA","48","0","0","48","48","0","48","48","49","z","07/24/17 16:04:29","The main experiment item","yes","FIN__AB__M21__7%3A10%3A17.osexp","C:\Users\ERP Testing Room\Desktop\Joanna\morph21","no","mono","no","18","no","white","no","yes","1080","legacy","48","48","C:/Users/ERP Testing Room/Desktop/Joanna/morph21/subject-11.csv","xpyriment","Jazzy James","3.1.4","0","z","NA","NA","NA","NA","z","z","760","NA","NA","NA","NA","38841","760","2","legacy","1024","2","48000","-16","AB_m21","11","odd","NW_L_SIMP","LONGNELS","1609","220019","218428","215161","40468","NA","NA","NA","NA","220013","218925","NA","217919","NA","217911","220013","1626","220320","NA","NA","219019","1609","1609","219411","217911","1609","219019","220320","morph21_Oliver/Morris","43","34991","49","yes","1280","17"
"200","88","88","712.4","712.4","black","no","xpyriment","legacy","legacy","0","207","NA","uniform","61318","1000","0.0163084249323","1","undefined","1","0","49","49","49","0","49","49","49","NA","49","49","0","49","NA","49","49","0","49","NA","49","NA","49","0","0","49","49","0","49","49","50","/","07/24/17 16:04:29","The main experiment item","yes","FIN__AB__M21__7%3A10%3A17.osexp","C:\Users\ERP Testing Room\Desktop\Joanna\morph21","no","mono","no","18","no","white","no","yes","1080","legacy","49","49","C:/Users/ERP Testing Room/Desktop/Joanna/morph21/subject-11.csv","xpyriment","Jazzy James","3.1.4","0","/","NA","NA","NA","NA","z","/","629","NA","NA","NA","NA","38841","629","2","legacy","1024","2","48000","-16","AB_m21","11","odd","FILL_W","FLOAT","1609","223261","221678","215161","40468","NA","NA","NA","NA","223258","222175","NA","221178","NA","221174","223258","1626","223461","NA","NA","222270","1609","1609","222661","221174","1609","222270","223461","morph21_Oliver/Morris","44","35620","50","yes","1280","30"
"400","88.2352941176","88.2352941176","714.470588235","714.470588235","black","no","xpyriment","legacy","legacy","0","201","NA","uniform","57541","1000","0.0173789124277","1","undefined","1","0","50","50","50","0","50","50","50","NA","50","50","0","50","NA","50","50","0","50","NA","50","NA","50","0","0","50","50","0","50","50","51","/","07/24/17 16:04:29","The main experiment item","yes","FIN__AB__M21__7%3A10%3A17.osexp","C:\Users\ERP Testing Room\Desktop\Joanna\morph21","no","mono","no","18","no","white","no","yes","1080","legacy","50","50","C:/Users/ERP Testing Room/Desktop/Joanna/morph21/subject-11.csv","xpyriment","Jazzy James","3.1.4","0","/","NA","NA","NA","NA","z","/","818","NA","NA","NA","NA","38841","818","2","legacy","1024","2","48000","-16","AB_m21","11","odd","CW_S","DIETARY","1609","227863","224745","226353","40468","NA","NA","NA","NA","226346","225242","NA","224245","NA","224240","226346","1626","228263","NA","NA","225353","1609","1609","225745","224240","1609","225353","228263","morph21_Oliver/Morris","45","36438","51","yes","1280","6"
"250","88.4615384615","88.4615384615","716.769230769","716.769230769","black","no","xpyriment","legacy","legacy","0","206","NA","uniform","56697","1000","0.0176376175106","1","undefined","1","0","51","51","51","0","51","51","51","NA","51","51","0","51","NA","51","51","0","51","NA","51","NA","51","0","0","51","51","0","51","51","52","z","07/24/17 16:04:29","The main experiment item","yes","FIN__AB__M21__7%3A10%3A17.osexp","C:\Users\ERP Testing Room\Desktop\Joanna\morph21","no","mono","no","18","no","white","no","yes","1080","legacy","51","51","C:/Users/ERP Testing Room/Desktop/Joanna/morph21/subject-11.csv","xpyriment","Jazzy James","3.1.4","0","z","NA","NA","NA","NA","z","z","834","NA","NA","NA","NA","38841","834","2","legacy","1024","2","48000","-16","AB_m21","11","odd","NW_L_SIMP"," DRESSODY","1609","231104","229521","226353","40468","NA","NA","NA","NA","231101","230018","NA","229021","NA","229012","231101","1626","231354","NA","NA","230113","1609","1609","230504","229012","1609","230113","231354","morph21_Oliver/Morris","46","37272","52","yes","1280","21"
"200","88.679245283","88.679245283","713.58490566","713.58490566","black","no","xpyriment","legacy","legacy","0","202","NA","uniform","69520","1000","0.0143843498274","1","undefined","1","0","52","52","52","0","52","52","52","NA","52","52","0","52","NA","52","52","0","52","NA","52","NA","52","0","0","52","52","0","52","52","53","/","07/24/17 16:04:29","The main experiment item","yes","FIN__AB__M21__7%3A10%3A17.osexp","C:\Users\ERP Testing Room\Desktop\Joanna\morph21","no","mono","no","18","no","white","no","yes","1080","legacy","52","52","C:/Users/ERP Testing Room/Desktop/Joanna/morph21/subject-11.csv","xpyriment","Jazzy James","3.1.4","0","/","NA","NA","NA","NA","z","/","548","NA","NA","NA","NA","38841","548","2","legacy","1024","2","48000","-16","AB_m21","11","odd","CW_L","COLLECTOR","1609","234263","232646","226353","40468","NA","NA","NA","NA","234256","233143","NA","232146","NA","232141","234256","1626","234463","NA","NA","233263","1609","1609","233654","232141","1609","233263","234463","morph21_Oliver/Morris","47","37820","53","yes","1280","46"
"200","88.8888888889","88.8888888889","717.833333333","717.833333333","black","no","xpyriment","legacy","legacy","0","202","NA","uniform","56647","1000","0.0176531855173","1","undefined","1","0","53","53","53","0","53","53","53","NA","53","53","0","53","NA","53","53","0","53","NA","53","NA","53","0","0","53","53","0","53","53","54","/","07/24/17 16:04:29","The main experiment item","yes","FIN__AB__M21__7%3A10%3A17.osexp","C:\Users\ERP Testing Room\Desktop\Joanna\morph21","no","mono","no","18","no","white","no","yes","1080","legacy","53","53","C:/Users/ERP Testing Room/Desktop/Joanna/morph21/subject-11.csv","xpyriment","Jazzy James","3.1.4","0","/","NA","NA","NA","NA","z","/","943","NA","NA","NA","NA","38841","943","2","legacy","1024","2","48000","-16","AB_m21","11","odd","CW_L","BOOTLESS","1609","238896","235771","237388","40468","NA","NA","NA","NA","237383","236268","NA","235271","NA","235261","237383","1626","239097","NA","NA","236388","1609","1609","236788","235261","1609","236388","239097","morph21_Oliver/Morris","48","38763","54","yes","1280","32"
"350","87.2727272727","87.2727272727","722.872727273","722.872727273","black","no","xpyriment","legacy","legacy","0","203","NA","uniform","55602","1000","0.0179849645696","0","undefined","0","0","54","54","54","0","54","54","54","NA","54","54","0","54","NA","54","54","0","54","NA","54","NA","54","0","0","54","54","0","54","54","55","z","07/24/17 16:04:29","The main experiment item","yes","FIN__AB__M21__7%3A10%3A17.osexp","C:\Users\ERP Testing Room\Desktop\Joanna\morph21","no","mono","no","18","no","white","no","yes","1080","legacy","54","54","C:/Users/ERP Testing Room/Desktop/Joanna/morph21/subject-11.csv","xpyriment","Jazzy James","3.1.4","0","None","NA","NA","NA","NA","z","None","995","NA","NA","NA","NA","38841","995","2","legacy","1024","2","48000","-16","AB_m21","11","odd","NW_S_COMP","HUMIDOUS","1609","241930","240330","237388","40468","NA","NA","NA","NA","237383","240827","NA","239821","NA","239812","241925","1626","242280","NA","NA","240930","1609","1609","241330","239811","1609","240930","242280","morph21_Oliver/Morris","48","39758","55","yes","1280","25"
"300","85.7142857143","85.7142857143","727.714285714","727.714285714","black","no","xpyriment","legacy","legacy","0","204","NA","uniform","58748","1000","0.0170218560632","0","undefined","0","0","55","55","55","0","55","55","55","NA","55","55","0","55","NA","55","55","0","55","NA","55","NA","55","0","0","55","55","0","55","55","56","z","07/24/17 16:04:29","The main experiment item","yes","FIN__AB__M21__7%3A10%3A17.osexp","C:\Users\ERP Testing Room\Desktop\Joanna\morph21","no","mono","no","18","no","white","no","yes","1080","legacy","55","55","C:/Users/ERP Testing Room/Desktop/Joanna/morph21/subject-11.csv","xpyriment","Jazzy James","3.1.4","0","None","NA","NA","NA","NA","z","None","994","NA","NA","NA","NA","38841","994","2","legacy","1024","2","48000","-16","AB_m21","11","odd","NW_L_COMP","FELLOWOUS","1609","245148","243563","237388","40468","NA","NA","NA","NA","237383","244060","NA","243063","NA","243056","245141","1626","245448","NA","NA","244147","1609","1609","244538","243056","1609","244147","245448","morph21_Oliver/Morris","48","40752","56","yes","1280","17"
"250","85.9649122807","85.9649122807","725.964912281","725.964912281","black","no","xpyriment","legacy","legacy","0","201","NA","uniform","63181","1000","0.0158275430905","1","undefined","1","0","56","56","56","0","56","56","56","NA","56","56","0","56","NA","56","56","0","56","NA","56","NA","56","0","0","56","56","0","56","56","57","/","07/24/17 16:04:29","The main experiment item","yes","FIN__AB__M21__7%3A10%3A17.osexp","C:\Users\ERP Testing Room\Desktop\Joanna\morph21","no","mono","no","18","no","white","no","yes","1080","legacy","56","56","C:/Users/ERP Testing Room/Desktop/Joanna/morph21/subject-11.csv","xpyriment","Jazzy James","3.1.4","0","/","NA","NA","NA","NA","z","/","628","NA","NA","NA","NA","38841","628","2","legacy","1024","2","48000","-16","AB_m21","11","odd","CW_S","PLANNER","1609","249756","246639","248248","40468","NA","NA","NA","NA","248244","247136","NA","246139","NA","246131","248244","1626","250006","NA","NA","247256","1609","1609","247648","246131","1609","247256","250006","morph21_Oliver/Morris","49","41380","57","yes","1280","22"
"350","84.4827586207","84.4827586207","730.620689655","730.620689655","black","no","xpyriment","legacy","legacy","0","203","NA","uniform","57806","1000","0.0172992422932","0","undefined","0","0","57","57","57","0","57","57","57","NA","57","57","0","57","NA","57","57","0","57","NA","57","NA","57","0","0","57","57","0","57","57","58","z","07/24/17 16:04:29","The main experiment item","yes","FIN__AB__M21__7%3A10%3A17.osexp","C:\Users\ERP Testing Room\Desktop\Joanna\morph21","no","mono","no","18","no","white","no","yes","1080","legacy","57","57","C:/Users/ERP Testing Room/Desktop/Joanna/morph21/subject-11.csv","xpyriment","Jazzy James","3.1.4","0","None","NA","NA","NA","NA","z","None","996","NA","NA","NA","NA","38841","996","2","legacy","1024","2","48000","-16","AB_m21","11","odd","NW_S_COMP","EJECTENCE","1609","252873","251290","248248","40468","NA","NA","NA","NA","248244","251787","NA","250790","NA","250781","252869","1626","253223","NA","NA","251873","1609","1609","252273","250781","1609","251873","253223","morph21_Oliver/Morris","49","42376","58","yes","1280","20"
"400","83.0508474576","83.0508474576","735.016949153","735.016949153","black","no","xpyriment","legacy","legacy","0","204","NA","uniform","53830","1000","0.0185770016719","0","undefined","0","0","58","58","58","0","58","58","58","NA","58","58","0","58","NA","58","58","0","58","NA","58","NA","58","0","0","58","58","0","58","58","59","z","07/24/17 16:04:29","The main experiment item","yes","FIN__AB__M21__7%3A10%3A17.osexp","C:\Users\ERP Testing Room\Desktop\Joanna\morph21","no","mono","no","18","no","white","no","yes","1080","legacy","58","58","C:/Users/ERP Testing Room/Desktop/Joanna/morph21/subject-11.csv","xpyriment","Jazzy James","3.1.4","0","None","NA","NA","NA","NA","z","None","990","NA","NA","NA","NA","38841","990","2","legacy","1024","2","48000","-16","AB_m21","11","odd","NW_L_COMP","PASSMENT","1609","256148","254565","248248","40468","NA","NA","NA","NA","248244","255062","NA","254065","NA","254060","256140","1626","256548","NA","NA","255148","1609","1609","255540","254060","1609","255148","256548","morph21_Oliver/Morris","49","43366","59","yes","1280","14"
"200","83.3333333333","83.3333333333","735.6","735.6","black","no","xpyriment","legacy","legacy","0","207","NA","uniform","66980","1000","0.0149298297999","1","undefined","1","0","59","59","59","0","59","59","59","NA","59","59","0","59","NA","59","59","0","59","NA","59","NA","59","0","0","59","59","0","59","59","60","/","07/24/17 16:04:29","The main experiment item","yes","FIN__AB__M21__7%3A10%3A17.osexp","C:\Users\ERP Testing Room\Desktop\Joanna\morph21","no","mono","no","18","no","white","no","yes","1080","legacy","59","59","C:/Users/ERP Testing Room/Desktop/Joanna/morph21/subject-11.csv","xpyriment","Jazzy James","3.1.4","0","/","NA","NA","NA","NA","z","/","770","NA","NA","NA","NA","38841","770","2","legacy","1024","2","48000","-16","AB_m21","11","odd","FILL_W","SAVE","1609","260973","257857","259465","40468","NA","NA","NA","NA","259461","258354","NA","257357","NA","257350","259461","1626","261174","NA","NA","258465","1609","1609","258865","257350","1609","258465","261174","morph21_Oliver/Morris","50","44136","60","yes","1280","46"
"400","83.606557377","83.606557377","735.131147541","735.131147541","black","no","xpyriment","legacy","legacy","0","204","NA","uniform","58162","1000","0.0171933564871","1","undefined","1","0","60","60","60","0","60","60","60","NA","60","60","0","60","NA","60","60","0","60","NA","60","NA","60","0","0","60","60","0","60","60","61","z","07/24/17 16:04:29","The main experiment item","yes","FIN__AB__M21__7%3A10%3A17.osexp","C:\Users\ERP Testing Room\Desktop\Joanna\morph21","no","mono","no","18","no","white","no","yes","1080","legacy","60","60","C:/Users/ERP Testing Room/Desktop/Joanna/morph21/subject-11.csv","xpyriment","Jazzy James","3.1.4","0","z","NA","NA","NA","NA","z","z","707","NA","NA","NA","NA","38841","707","2","legacy","1024","2","48000","-16","AB_m21","11","odd","NW_L_COMP","FLITENCE","1609","264024","262416","259465","40468","NA","NA","NA","NA","264015","262913","NA","261915","NA","261910","264015","1626","264424","NA","NA","263025","1609","1609","263416","261909","1609","263024","264424","morph21_Oliver/Morris","51","44843","61","yes","1280","3"
"300","83.8709677419","83.8709677419","735.35483871","735.35483871","black","no","xpyriment","legacy","legacy","0","206","NA","uniform","59668","1000","0.0167594020245","1","undefined","1","0","61","61","61","0","61","61","61","NA","61","61","0","61","NA","61","61","0","61","NA","61","NA","61","0","0","61","61","0","61","61","62","z","07/24/17 16:04:29","The main experiment item","yes","FIN__AB__M21__7%3A10%3A17.osexp","C:\Users\ERP Testing Room\Desktop\Joanna\morph21","no","mono","no","18","no","white","no","yes","1080","legacy","61","61","C:/Users/ERP Testing Room/Desktop/Joanna/morph21/subject-11.csv","xpyriment","Jazzy James","3.1.4","0","z","NA","NA","NA","NA","z","z","749","NA","NA","NA","NA","38841","749","2","legacy","1024","2","48000","-16","AB_m21","11","odd","NW_L_SIMP","ELBOWILM","1609","267358","265758","259465","40468","NA","NA","NA","NA","267351","266255","NA","265258","NA","265251","267351","1626","267658","NA","NA","266358","1609","1609","266750","265251","1609","266358","267658","morph21_Oliver/Morris","52","45592","62","yes","1280","10"
"250","84.126984127","84.126984127","735.174603175","735.174603175","black","no","xpyriment","legacy","legacy","0","205","NA","uniform","62603","1000","0.015973675383","1","undefined","1","0","62","62","62","0","62","62","62","NA","62","62","0","62","NA","62","62","0","62","NA","62","NA","62","0","0","62","62","0","62","62","63","z","07/24/17 16:04:29","The main experiment item","yes","FIN__AB__M21__7%3A10%3A17.osexp","C:\Users\ERP Testing Room\Desktop\Joanna\morph21","no","mono","no","18","no","white","no","yes","1080","legacy","62","62","C:/Users/ERP Testing Room/Desktop/Joanna/morph21/subject-11.csv","xpyriment","Jazzy James","3.1.4","0","z","NA","NA","NA","NA","z","z","724","NA","NA","NA","NA","38841","724","2","legacy","1024","2","48000","-16","AB_m21","11","odd","NW_S_SIMP","DIGODY","1609","272083","268991","270575","40468","NA","NA","NA","NA","270568","269489","NA","268491","NA","268484","270568","1626","272333","NA","NA","269575","1609","1609","269966","268483","1609","269575","272333","morph21_Oliver/Morris","53","46316","63","yes","1280","11"
"350","84.375","84.375","734.84375","734.84375","black","no","xpyriment","legacy","legacy","0","202","NA","uniform","60793","1000","0.0164492622506","1","undefined","1","0","63","63","63","0","63","63","63","NA","63","63","0","63","NA","63","63","0","63","NA","63","NA","63","0","0","63","63","0","63","63","64","/","07/24/17 16:04:29","The main experiment item","yes","FIN__AB__M21__7%3A10%3A17.osexp","C:\Users\ERP Testing Room\Desktop\Joanna\morph21","no","mono","no","18","no","white","no","yes","1080","legacy","63","63","C:/Users/ERP Testing Room/Desktop/Joanna/morph21/subject-11.csv","xpyriment","Jazzy James","3.1.4","0","/","NA","NA","NA","NA","z","/","714","NA","NA","NA","NA","38841","714","2","legacy","1024","2","48000","-16","AB_m21","11","odd","CW_L","JUMPING","1609","275225","273633","270575","40468","NA","NA","NA","NA","275215","274130","NA","273133","NA","273125","275215","1626","275575","NA","NA","274225","1609","1609","274617","273125","1609","274225","275575","morph21_Oliver/Morris","54","47030","64","yes","1280","30"
"300","84.6153846154","84.6153846154","735.876923077","735.876923077","black","no","xpyriment","legacy","legacy","0","206","NA","uniform","55222","1000","0.0181087247836","1","undefined","1","0","64","64","64","0","64","64","64","NA","64","64","0","64","NA","64","64","0","64","NA","64","NA","64","0","0","64","64","0","64","64","65","z","07/24/17 16:04:29","The main experiment item","yes","FIN__AB__M21__7%3A10%3A17.osexp","C:\Users\ERP Testing Room\Desktop\Joanna\morph21","no","mono","no","18","no","white","no","yes","1080","legacy","64","64","C:/Users/ERP Testing Room/Desktop/Joanna/morph21/subject-11.csv","xpyriment","Jazzy James","3.1.4","0","z","NA","NA","NA","NA","z","z","802","NA","NA","NA","NA","38841","802","2","legacy","1024","2","48000","-16","AB_m21","11","odd","NW_L_SIMP","BANDADY","1609","278433","276842","270575","40468","NA","NA","NA","NA","278425","277339","NA","276342","NA","276331","278425","1626","278734","NA","NA","277433","1609","1609","277825","276331","1609","277433","278734","morph21_Oliver/Morris","55","47832","65","yes","1280","3"
"300","84.8484848485","84.8484848485","736.287878788","736.287878788","black","no","xpyriment","legacy","legacy","0","207","NA","uniform","52507","1000","0.0190450797037","1","undefined","1","0","65","65","65","0","65","65","65","NA","65","65","0","65","NA","65","65","0","65","NA","65","NA","65","0","0","65","65","0","65","65","66","/","07/24/17 16:04:29","The main experiment item","yes","FIN__AB__M21__7%3A10%3A17.osexp","C:\Users\ERP Testing Room\Desktop\Joanna\morph21","no","mono","no","18","no","white","no","yes","1080","legacy","65","65","C:/Users/ERP Testing Room/Desktop/Joanna/morph21/subject-11.csv","xpyriment","Jazzy James","3.1.4","0","/","NA","NA","NA","NA","z","/","763","NA","NA","NA","NA","38841","763","2","legacy","1024","2","48000","-16","AB_m21","11","odd","FILL_W","BLUNT","1609","283101","280010","281593","40468","NA","NA","NA","NA","281586","280507","NA","279509","NA","279504","281586","1626","283402","NA","NA","280593","1609","1609","280985","279504","1609","280593","283402","morph21_Oliver/Morris","56","48595","66","yes","1280","4"
"300","85.0746268657","85.0746268657","736.149253731","736.149253731","black","no","xpyriment","legacy","legacy","0","205","NA","uniform","65774","1000","0.015203575881","1","undefined","1","0","66","66","66","0","66","66","66","NA","66","66","0","66","NA","66","66","0","66","NA","66","NA","66","0","0","66","66","0","66","66","67","z","07/24/17 16:04:29","The main experiment item","yes","FIN__AB__M21__7%3A10%3A17.osexp","C:\Users\ERP Testing Room\Desktop\Joanna\morph21","no","mono","no","18","no","white","no","yes","1080","legacy","66","66","C:/Users/ERP Testing Room/Desktop/Joanna/morph21/subject-11.csv","xpyriment","Jazzy James","3.1.4","0","z","NA","NA","NA","NA","z","z","727","NA","NA","NA","NA","38841","727","2","legacy","1024","2","48000","-16","AB_m21","11","odd","NW_S_SIMP","HEIRIG","1609","286260","284677","281593","40468","NA","NA","NA","NA","286256","285174","NA","284176","NA","284172","286256","1626","286560","NA","NA","285260","1609","1609","285660","284172","1609","285260","286560","morph21_Oliver/Morris","57","49322","67","yes","1280","3"
"250","85.2941176471","85.2941176471","733.117647059","733.117647059","black","no","xpyriment","legacy","legacy","0","207","NA","uniform","70141","1000","0.0142569966211","1","undefined","1","0","67","67","67","0","67","67","67","NA","67","67","0","67","NA","67","67","0","67","NA","67","NA","67","0","0","67","67","0","67","67","68","/","07/24/17 16:04:29","The main experiment item","yes","FIN__AB__M21__7%3A10%3A17.osexp","C:\Users\ERP Testing Room\Desktop\Joanna\morph21","no","mono","no","18","no","white","no","yes","1080","legacy","67","67","C:/Users/ERP Testing Room/Desktop/Joanna/morph21/subject-11.csv","xpyriment","Jazzy James","3.1.4","0","/","NA","NA","NA","NA","z","/","530","NA","NA","NA","NA","38841","530","2","legacy","1024","2","48000","-16","AB_m21","11","odd","FILL_W","PREACH","1609","289393","287827","281593","40468","NA","NA","NA","NA","289389","288324","NA","287327","NA","287318","289389","1626","289643","NA","NA","288393","1609","1609","288793","287318","1609","288393","289643","morph21_Oliver/Morris","58","49852","68","yes","1280","7"
"300","85.5072463768","85.5072463768","731.333333333","731.333333333","black","no","xpyriment","legacy","legacy","0","202","NA","uniform","72802","1000","0.0137358863767","1","undefined","1","0","68","68","68","0","68","68","68","NA","68","68","0","68","NA","68","68","0","68","NA","68","NA","68","0","0","68","68","0","68","68","69","/","07/24/17 16:04:29","The main experiment item","yes","FIN__AB__M21__7%3A10%3A17.osexp","C:\Users\ERP Testing Room\Desktop\Joanna\morph21","no","mono","no","18","no","white","no","yes","1080","legacy","68","68","C:/Users/ERP Testing Room/Desktop/Joanna/morph21/subject-11.csv","xpyriment","Jazzy James","3.1.4","0","/","NA","NA","NA","NA","z","/","610","NA","NA","NA","NA","38841","610","2","legacy","1024","2","48000","-16","AB_m21","11","odd","CW_L","COMPOSER","1609","294102","291002","292593","40468","NA","NA","NA","NA","292584","291499","NA","290502","NA","290491","292584","1626","294402","NA","NA","291593","1609","1609","291985","290491","1609","291593","294402","morph21_Oliver/Morris","59","50462","69","yes","1280","6"
"350","84.2857142857","84.2857142857","735.085714286","735.085714286","black","no","xpyriment","legacy","legacy","0","202","NA","uniform","58541","1000","0.0170820450624","0","undefined","0","0","69","69","69","0","69","69","69","NA","69","69","0","69","NA","69","69","0","69","NA","69","NA","69","0","0","69","69","0","69","69","70","/","07/24/17 16:04:29","The main experiment item","yes","FIN__AB__M21__7%3A10%3A17.osexp","C:\Users\ERP Testing Room\Desktop\Joanna\morph21","no","mono","no","18","no","white","no","yes","1080","legacy","69","69","C:/Users/ERP Testing Room/Desktop/Joanna/morph21/subject-11.csv","xpyriment","Jazzy James","3.1.4","0","None","NA","NA","NA","NA","z","None","994","NA","NA","NA","NA","38841","994","2","legacy","1024","2","48000","-16","AB_m21","11","odd","CW_L","PAINTER","1609","297270","295669","292593","40468","NA","NA","NA","NA","292584","296166","NA","295169","NA","295157","297263","1626","297620","NA","NA","296269","1609","1609","296660","295157","1609","296269","297620","morph21_Oliver/Morris","59","51456","70","yes","1280","18"
"350","84.5070422535","84.5070422535","734.028169014","734.028169014","black","no","xpyriment","legacy","legacy","0","208","NA","uniform","71480","1000","0.0139899272524","1","undefined","1","0","70","70","70","0","70","70","70","NA","70","70","0","70","NA","70","70","0","70","NA","70","NA","70","0","0","70","70","0","70","70","71","z","07/24/17 16:04:29","The main experiment item","yes","FIN__AB__M21__7%3A10%3A17.osexp","C:\Users\ERP Testing Room\Desktop\Joanna\morph21","no","mono","no","18","no","white","no","yes","1080","legacy","70","70","C:/Users/ERP Testing Room/Desktop/Joanna/morph21/subject-11.csv","xpyriment","Jazzy James","3.1.4","0","z","NA","NA","NA","NA","z","z","660","NA","NA","NA","NA","38841","660","2","legacy","1024","2","48000","-16","AB_m21","11","odd","FILL_NW","DELP","1609","300528","298920","292593","40468","NA","NA","NA","NA","300525","299417","NA","298420","NA","298415","300525","1626","300878","NA","NA","299536","1609","1609","299928","298415","1609","299536","300878","morph21_Oliver/Morris","60","52116","71","yes","1280","14"
"400","83.3333333333","83.3333333333","737.305555556","737.305555556","black","no","xpyriment","legacy","legacy","0","204","NA","uniform","56528","1000","0.0176903481461","0","undefined","0","0","71","71","71","0","71","71","71","NA","71","71","0","71","NA","71","71","0","71","NA","71","NA","71","0","0","71","71","0","71","71","72","z","07/24/17 16:04:29","The main experiment item","yes","FIN__AB__M21__7%3A10%3A17.osexp","C:\Users\ERP Testing Room\Desktop\Joanna\morph21","no","mono","no","18","no","white","no","yes","1080","legacy","71","71","C:/Users/ERP Testing Room/Desktop/Joanna/morph21/subject-11.csv","xpyriment","Jazzy James","3.1.4","0","/","NA","NA","NA","NA","z","/","970","NA","NA","NA","NA","38841","970","2","legacy","1024","2","48000","-16","AB_m21","11","odd","NW_L_COMP","ANGELISH","1609","305245","302145","303737","40468","NA","NA","NA","NA","300525","302642","NA","301637","NA","301632","303733","1626","305645","NA","NA","302737","1609","1609","303137","301632","1609","302737","305645","morph21_Oliver/Morris","60","53086","72","yes","1280","7"
"200","83.5616438356","83.5616438356","736.356164384","736.356164384","black","no","xpyriment","legacy","legacy","0","208","NA","uniform","68214","1000","0.014659747266","1","undefined","1","0","72","72","72","0","72","72","72","NA","72","72","0","72","NA","72","72","0","72","NA","72","NA","72","0","0","72","72","0","72","72","73","z","07/24/17 16:04:29","The main experiment item","yes","FIN__AB__M21__7%3A10%3A17.osexp","C:\Users\ERP Testing Room\Desktop\Joanna\morph21","no","mono","no","18","no","white","no","yes","1080","legacy","72","72","C:/Users/ERP Testing Room/Desktop/Joanna/morph21/subject-11.csv","xpyriment","Jazzy James","3.1.4","0","z","NA","NA","NA","NA","z","z","668","NA","NA","NA","NA","38841","668","2","legacy","1024","2","48000","-16","AB_m21","11","odd","FILL_NW","GAIRS","1609","308495","306895","303737","40468","NA","NA","NA","NA","308489","307392","NA","306395","NA","306391","308489","1626","308695","NA","NA","307495","1609","1609","307887","306390","1609","307495","308695","morph21_Oliver/Morris","61","53754","73","yes","1280","23"
"250","82.4324324324","82.4324324324","739.756756757","739.756756757","black","no","xpyriment","legacy","legacy","0","208","NA","uniform","53231","1000","0.0187860457252","0","undefined","0","0","73","73","73","0","73","73","73","NA","73","73","0","73","NA","73","73","0","73","NA","73","NA","73","0","0","73","73","0","73","73","74","z","07/24/17 16:04:29","The main experiment item","yes","FIN__AB__M21__7%3A10%3A17.osexp","C:\Users\ERP Testing Room\Desktop\Joanna\morph21","no","mono","no","18","no","white","no","yes","1080","legacy","73","73","C:/Users/ERP Testing Room/Desktop/Joanna/morph21/subject-11.csv","xpyriment","Jazzy James","3.1.4","0","None","NA","NA","NA","NA","z","None","988","NA","NA","NA","NA","38841","988","2","legacy","1024","2","48000","-16","AB_m21","11","odd","FILL_NW","DOWED","1609","311579","309987","303737","40468","NA","NA","NA","NA","308489","310484","NA","309487","NA","309482","311575","1626","311829","NA","NA","310587","1609","1609","310979","309482","1609","310587","311829","morph21_Oliver/Morris","61","54742","74","yes","1280","16"
"300","82.6666666667","82.6666666667","739.866666667","739.866666667","black","no","xpyriment","legacy","legacy","0","204","NA","uniform","64894","1000","0.0154097451228","undefined","undefined","1","0","74","74","74","0","74","74","74","NA","74","74","0","74","NA","74","74","0","74","NA","74","NA","74","0","0","74","74","0","74","74","75","z","07/24/17 16:04:29","The main experiment item","yes","FIN__AB__M21__7%3A10%3A17.osexp","C:\Users\ERP Testing Room\Desktop\Joanna\morph21","no","mono","no","18","no","white","no","yes","1080","legacy","74","74","C:/Users/ERP Testing Room/Desktop/Joanna/morph21/subject-11.csv","xpyriment","Jazzy James","3.1.4","0","space","space","NA","NA","NA","z","z","23770","23770","NA","NA","NA","38841","748","2","legacy","1024","2","48000","-16","AB_m21","11","odd","NW_L_COMP","NORTHIZE","1609","316196","313079","314687","40468","316505","NA","NA","NA","314684","313576","NA","312570","NA","312563","314684","1626","340276","NA","NA","313695","1609","1609","314087","312563","1609","313695","316497","morph21_Oliver/Morris","62","55490","75","yes","1280","20"
"250","82.8947368421","82.8947368421","739.394736842","739.394736842","black","no","xpyriment","legacy","legacy","0","206","NA","uniform","58566","1000","0.0170747532698","1","undefined","1","0","75","75","75","0","75","75","75","NA","75","75","0","75","NA","75","75","0","75","NA","75","NA","75","0","0","75","75","0","75","75","76","z","07/24/17 16:04:29","The main experiment item","yes","FIN__AB__M21__7%3A10%3A17.osexp","C:\Users\ERP Testing Room\Desktop\Joanna\morph21","no","mono","no","18","no","white","no","yes","1080","legacy","75","75","C:/Users/ERP Testing Room/Desktop/Joanna/morph21/subject-11.csv","xpyriment","Jazzy James","3.1.4","0","z","space","NA","NA","NA","z","z","704","23770","NA","NA","NA","38841","704","2","legacy","1024","2","48000","-16","AB_m21","11","odd","NW_L_SIMP","SHOOTMANT","1609","343107","341507","314687","40468","316505","NA","NA","NA","343099","342004","NA","341007","NA","340999","343099","1626","343357","NA","NA","342107","1609","1609","342499","340999","1609","342107","343357","morph21_Oliver/Morris","63","56194","76","yes","1280","16"
"350","83.1168831169","83.1168831169","737.233766234","737.233766234","black","no","xpyriment","legacy","legacy","0","201","NA","uniform","71509","1000","0.0139842537303","1","undefined","1","0","76","76","76","0","76","76","76","NA","76","76","0","76","NA","76","76","0","76","NA","76","NA","76","0","0","76","76","0","76","76","77","/","07/24/17 16:04:29","The main experiment item","yes","FIN__AB__M21__7%3A10%3A17.osexp","C:\Users\ERP Testing Room\Desktop\Joanna\morph21","no","mono","no","18","no","white","no","yes","1080","legacy","76","76","C:/Users/ERP Testing Room/Desktop/Joanna/morph21/subject-11.csv","xpyriment","Jazzy James","3.1.4","0","/","space","NA","NA","NA","z","/","573","23770","NA","NA","NA","38841","573","2","legacy","1024","2","48000","-16","AB_m21","11","odd","CW_S","TOASTER","1609","346182","344590","314687","40468","316505","NA","NA","NA","346172","345088","NA","344090","NA","344080","346172","1626","346532","NA","NA","345182","1609","1609","345574","344080","1609","345182","346532","morph21_Oliver/Morris","64","56767","77","yes","1280","10"
"200","83.3333333333","83.3333333333","736.769230769","736.769230769","black","no","xpyriment","legacy","legacy","0","202","NA","uniform","64375","1000","0.0155339805825","1","undefined","1","0","77","77","77","0","77","77","77","NA","77","77","0","77","NA","77","77","0","77","NA","77","NA","77","0","0","77","77","0","77","77","78","/","07/24/17 16:04:29","The main experiment item","yes","FIN__AB__M21__7%3A10%3A17.osexp","C:\Users\ERP Testing Room\Desktop\Joanna\morph21","no","mono","no","18","no","white","no","yes","1080","legacy","77","77","C:/Users/ERP Testing Room/Desktop/Joanna/morph21/subject-11.csv","xpyriment","Jazzy James","3.1.4","0","/","space","NA","NA","NA","z","/","701","23770","NA","NA","NA","38841","701","2","legacy","1024","2","48000","-16","AB_m21","11","odd","CW_L","SAILOR","1609","350883","347774","349374","40468","316505","NA","NA","NA","349368","348271","NA","347274","NA","347270","349368","1626","351084","NA","NA","348374","1609","1609","348766","347270","1609","348374","351084","morph21_Oliver/Morris","65","57468","78","yes","1280","43"
"400","83.5443037975","83.5443037975","735.835443038","735.835443038","black","no","xpyriment","legacy","legacy","0","204","NA","uniform","69058","1000","0.0144805815402","1","undefined","1","0","78","78","78","0","78","78","78","NA","78","78","0","78","NA","78","78","0","78","NA","78","NA","78","0","0","78","78","0","78","78","79","z","07/24/17 16:04:29","The main experiment item","yes","FIN__AB__M21__7%3A10%3A17.osexp","C:\Users\ERP Testing Room\Desktop\Joanna\morph21","no","mono","no","18","no","white","no","yes","1080","legacy","78","78","C:/Users/ERP Testing Room/Desktop/Joanna/morph21/subject-11.csv","xpyriment","Jazzy James","3.1.4","0","z","space","NA","NA","NA","z","z","663","23770","NA","NA","NA","38841","663","2","legacy","1024","2","48000","-16","AB_m21","11","odd","NW_L_COMP","BOILOUS","1609","353933","352317","349374","40468","316505","NA","NA","NA","353925","352814","NA","351808","NA","351796","353925","1626","354334","NA","NA","352933","1609","1609","353325","351796","1609","352933","354334","morph21_Oliver/Morris","66","58131","79","yes","1280","18"
"200","83.75","83.75","734.7875","734.7875","black","no","xpyriment","legacy","legacy","0","202","NA","uniform","63094","1000","0.0158493676102","1","undefined","1","0","79","79","79","0","79","79","79","NA","79","79","0","79","NA","79","79","0","79","NA","79","NA","79","0","0","79","79","0","79","79","80","/","07/24/17 16:04:29","The main experiment item","yes","FIN__AB__M21__7%3A10%3A17.osexp","C:\Users\ERP Testing Room\Desktop\Joanna\morph21","no","mono","no","18","no","white","no","yes","1080","legacy","79","79","C:/Users/ERP Testing Room/Desktop/Joanna/morph21/subject-11.csv","xpyriment","Jazzy James","3.1.4","0","/","space","NA","NA","NA","z","/","652","23770","NA","NA","NA","38841","652","2","legacy","1024","2","48000","-16","AB_m21","11","odd","CW_L","BONELESS","1609","357167","355534","349374","40468","316505","NA","NA","NA","357160","356031","NA","355034","NA","355030","357160","1626","357367","NA","NA","356167","1609","1609","356559","355030","1609","356167","357367","morph21_Oliver/Morris","67","58783","80","yes","1280","34"
"300","83.950617284","83.950617284","736.617283951","736.617283951","black","no","xpyriment","legacy","legacy","0","208","NA","uniform","67852","1000","0.0147379590874","1","undefined","1","0","80","80","80","0","80","80","80","NA","80","80","0","80","NA","80","80","0","80","NA","80","NA","80","0","0","80","80","0","80","80","81","z","07/24/17 16:04:29","The main experiment item","yes","FIN__AB__M21__7%3A10%3A17.osexp","C:\Users\ERP Testing Room\Desktop\Joanna\morph21","no","mono","no","18","no","white","no","yes","1080","legacy","80","80","C:/Users/ERP Testing Room/Desktop/Joanna/morph21/subject-11.csv","xpyriment","Jazzy James","3.1.4","0","z","space","NA","NA","NA","z","z","883","23770","NA","NA","NA","38841","883","2","legacy","1024","2","48000","-16","AB_m21","11","odd","FILL_NW","DULKS","1609","361701","358592","360192","40468","316505","NA","NA","NA","360188","359089","NA","358092","NA","358087","360188","1626","362001","NA","NA","359192","1609","1609","359592","358087","1609","359192","362001","morph21_Oliver/Morris","68","59666","81","yes","1280","18"
"400","82.9268292683","82.9268292683","739.719512195","739.719512195","black","no","xpyriment","legacy","legacy","0","205","NA","uniform","58785","1000","0.0170111422982","0","undefined","0","0","81","81","81","0","81","81","81","NA","81","81","0","81","NA","81","81","0","81","NA","81","NA","81","0","0","81","81","0","81","81","82","z","07/24/17 16:04:29","The main experiment item","yes","FIN__AB__M21__7%3A10%3A17.osexp","C:\Users\ERP Testing Room\Desktop\Joanna\morph21","no","mono","no","18","no","white","no","yes","1080","legacy","81","81","C:/Users/ERP Testing Room/Desktop/Joanna/morph21/subject-11.csv","xpyriment","Jazzy James","3.1.4","0","None","space","NA","NA","NA","z","None","991","23770","NA","NA","NA","38841","991","2","legacy","1024","2","48000","-16","AB_m21","11","odd","NW_S_SIMP","SCHEMENELS","1609","364842","363234","360192","40468","316505","NA","NA","NA","360188","363731","NA","362734","NA","362725","364833","1626","365242","NA","NA","363842","1609","1609","364234","362725","1609","363842","365242","morph21_Oliver/Morris","68","60657","82","yes","1280","15"
"400","81.9277108434","81.9277108434","737.927710843","737.927710843","black","no","xpyriment","legacy","legacy","0","203","NA","uniform","71804","1000","0.0139268007353","0","undefined","0","0","82","82","82","0","82","82","82","NA","82","82","0","82","NA","82","82","0","82","NA","82","NA","82","0","0","82","82","0","82","82","83","z","07/24/17 16:04:29","The main experiment item","yes","FIN__AB__M21__7%3A10%3A17.osexp","C:\Users\ERP Testing Room\Desktop\Joanna\morph21","no","mono","no","18","no","white","no","yes","1080","legacy","82","82","C:/Users/ERP Testing Room/Desktop/Joanna/morph21/subject-11.csv","xpyriment","Jazzy James","3.1.4","0","/","space","NA","NA","NA","z","/","591","23770","NA","NA","NA","38841","591","2","legacy","1024","2","48000","-16","AB_m21","11","odd","NW_S_COMP","TRUENESS","1609","368110","366526","360192","40468","316505","NA","NA","NA","360188","367023","NA","366026","NA","366017","368101","1626","368510","NA","NA","367109","1609","1609","367502","366017","1609","367109","368510","morph21_Oliver/Morris","68","61248","83","yes","1280","15"
"300","82.1428571429","82.1428571429","735.761904762","735.761904762","black","no","xpyriment","legacy","legacy","0","204","NA","uniform","70283","1000","0.0142281917391","1","undefined","1","0","83","83","83","0","83","83","83","NA","83","83","0","83","NA","83","83","0","83","NA","83","NA","83","0","0","83","83","0","83","83","84","z","07/24/17 16:04:29","The main experiment item","yes","FIN__AB__M21__7%3A10%3A17.osexp","C:\Users\ERP Testing Room\Desktop\Joanna\morph21","no","mono","no","18","no","white","no","yes","1080","legacy","83","83","C:/Users/ERP Testing Room/Desktop/Joanna/morph21/subject-11.csv","xpyriment","Jazzy James","3.1.4","0","z","space","NA","NA","NA","z","z","556","23770","NA","NA","NA","38841","556","2","legacy","1024","2","48000","-16","AB_m21","11","odd","NW_L_COMP","BINDIC","1609","372869","369777","371360","40468","316505","NA","NA","NA","371354","370274","NA","369277","NA","369268","371354","1626","373169","NA","NA","370360","1609","1609","370752","369268","1609","370360","373169","morph21_Oliver/Morris","69","61804","84","yes","1280","22"
"250","82.3529411765","82.3529411765","734.835294118","734.835294118","black","no","xpyriment","legacy","legacy","0","201","NA","uniform","66900","1000","0.0149476831091","1","undefined","1","0","84","84","84","0","84","84","84","NA","84","84","0","84","NA","84","84","0","84","NA","84","NA","84","0","0","84","84","0","84","84","85","/","07/24/17 16:04:29","The main experiment item","yes","FIN__AB__M21__7%3A10%3A17.osexp","C:\Users\ERP Testing Room\Desktop\Joanna\morph21","no","mono","no","18","no","white","no","yes","1080","legacy","84","84","C:/Users/ERP Testing Room/Desktop/Joanna/morph21/subject-11.csv","xpyriment","Jazzy James","3.1.4","0","/","space","NA","NA","NA","z","/","657","23770","NA","NA","NA","38841","657","2","legacy","1024","2","48000","-16","AB_m21","11","odd","CW_S","SEEKER","1609","375994","374410","371360","40468","316505","NA","NA","NA","375989","374908","NA","373910","NA","373906","375989","1626","376244","NA","NA","374994","1609","1609","375394","373906","1609","374994","376244","morph21_Oliver/Morris","70","62461","85","yes","1280","16"
"200","82.5581395349","82.5581395349","736.23255814","736.23255814","black","no","xpyriment","legacy","legacy","0","203","NA","uniform","68088","1000","0.0146868758078","1","undefined","1","0","85","85","85","0","85","85","85","NA","85","85","0","85","NA","85","85","0","85","NA","85","NA","85","0","0","85","85","0","85","85","86","z","07/24/17 16:04:29","The main experiment item","yes","FIN__AB__M21__7%3A10%3A17.osexp","C:\Users\ERP Testing Room\Desktop\Joanna\morph21","no","mono","no","18","no","white","no","yes","1080","legacy","85","85","C:/Users/ERP Testing Room/Desktop/Joanna/morph21/subject-11.csv","xpyriment","Jazzy James","3.1.4","0","z","space","NA","NA","NA","z","z","855","23770","NA","NA","NA","38841","855","2","legacy","1024","2","48000","-16","AB_m21","11","odd","NW_S_COMP","DUMBITY","1609","379036","377452","371360","40468","316505","NA","NA","NA","379030","377949","NA","376952","NA","376942","379030","1626","379236","NA","NA","378036","1609","1609","378427","376942","1609","378036","379236","morph21_Oliver/Morris","71","63316","86","yes","1280","12"
"200","82.7586206897","82.7586206897","735.356321839","735.356321839","black","no","xpyriment","legacy","legacy","0","203","NA","uniform","64199","1000","0.0155765666132","1","undefined","1","0","86","86","86","0","86","86","86","NA","86","86","0","86","NA","86","86","0","86","NA","86","NA","86","0","0","86","86","0","86","86","87","z","07/24/17 16:04:29","The main experiment item","yes","FIN__AB__M21__7%3A10%3A17.osexp","C:\Users\ERP Testing Room\Desktop\Joanna\morph21","no","mono","no","18","no","white","no","yes","1080","legacy","86","86","C:/Users/ERP Testing Room/Desktop/Joanna/morph21/subject-11.csv","xpyriment","Jazzy James","3.1.4","0","z","space","NA","NA","NA","z","z","660","23770","NA","NA","NA","38841","660","2","legacy","1024","2","48000","-16","AB_m21","11","odd","NW_S_COMP","ANTISM","1609","383627","380477","382119","40468","316505","NA","NA","NA","382109","380974","NA","379977","NA","379972","382109","1626","383828","NA","NA","381119","1609","1609","381511","379972","1609","381119","383828","morph21_Oliver/Morris","72","63976","87","yes","1280","8"
"400","82.9545454545","82.9545454545","734.227272727","734.227272727","black","no","xpyriment","legacy","legacy","0","208","NA","uniform","71109","1000","0.0140629174929","1","undefined","1","0","87","87","87","0","87","87","87","NA","87","87","0","87","NA","87","87","0","87","NA","87","NA","87","0","0","87","87","0","87","87","88","z","07/24/17 16:04:29","The main experiment item","yes","FIN__AB__M21__7%3A10%3A17.osexp","C:\Users\ERP Testing Room\Desktop\Joanna\morph21","no","mono","no","18","no","white","no","yes","1080","legacy","87","87","C:/Users/ERP Testing Room/Desktop/Joanna/morph21/subject-11.csv","xpyriment","Jazzy James","3.1.4","0","z","space","NA","NA","NA","z","z","636","23770","NA","NA","NA","38841","636","2","legacy","1024","2","48000","-16","AB_m21","11","odd","FILL_NW","GIKE","1609","386712","385129","382119","40468","316505","NA","NA","NA","386703","385626","NA","384628","NA","384618","386703","1626","387112","NA","NA","385712","1609","1609","386104","384618","1609","385712","387112","morph21_Oliver/Morris","73","64612","88","yes","1280","24"
"300","83.1460674157","83.1460674157","732.08988764","732.08988764","black","no","xpyriment","legacy","legacy","0","205","NA","uniform","74442","1000","0.0134332769136","1","undefined","1","0","88","88","88","0","88","88","88","NA","88","88","0","88","NA","88","88","0","88","NA","88","NA","88","0","0","88","88","0","88","88","89","z","07/24/17 16:04:29","The main experiment item","yes","FIN__AB__M21__7%3A10%3A17.osexp","C:\Users\ERP Testing Room\Desktop\Joanna\morph21","no","mono","no","18","no","white","no","yes","1080","legacy","88","88","C:/Users/ERP Testing Room/Desktop/Joanna/morph21/subject-11.csv","xpyriment","Jazzy James","3.1.4","0","z","space","NA","NA","NA","z","z","544","23770","NA","NA","NA","38841","544","2","legacy","1024","2","48000","-16","AB_m21","11","odd","NW_S_SIMP","SOCKETEL","1609","390004","388412","382119","40468","316505","NA","NA","NA","389995","388909","NA","387912","NA","387902","389995","1626","390304","NA","NA","389004","1609","1609","389396","387902","1609","389004","390304","morph21_Oliver/Morris","74","65156","89","yes","1280","1"
"350","82.2222222222","82.2222222222","729.733333333","729.733333333","black","no","xpyriment","legacy","legacy","0","201","NA","uniform","78267","1000","0.0127767769303","0","undefined","0","0","89","89","89","0","89","89","89","NA","89","89","0","89","NA","89","89","0","89","NA","89","NA","89","0","0","89","89","0","89","89","90","/","07/24/17 16:04:29","The main experiment item","yes","FIN__AB__M21__7%3A10%3A17.osexp","C:\Users\ERP Testing Room\Desktop\Joanna\morph21","no","mono","no","18","no","white","no","yes","1080","legacy","89","89","C:/Users/ERP Testing Room/Desktop/Joanna/morph21/subject-11.csv","xpyriment","Jazzy James","3.1.4","0","z","space","NA","NA","NA","z","z","520","23770","NA","NA","NA","38841","520","2","legacy","1024","2","48000","-16","AB_m21","11","odd","CW_S","DENSELY","1609","394679","391562","393171","40468","316505","NA","NA","NA","389995","392059","NA","391062","NA","391052","393167","1626","395029","NA","NA","392171","1609","1609","392571","391052","1609","392171","395029","morph21_Oliver/Morris","74","65676","90","yes","1280","32"
"350","81.3186813187","81.3186813187","732.648351648","732.648351648","black","no","xpyriment","legacy","legacy","0","203","NA","uniform","59695","1000","0.0167518217606","0","undefined","0","0","90","90","90","0","90","90","90","NA","90","90","0","90","NA","90","90","0","90","NA","90","NA","90","0","0","90","90","0","90","90","91","z","07/24/17 16:04:29","The main experiment item","yes","FIN__AB__M21__7%3A10%3A17.osexp","C:\Users\ERP Testing Room\Desktop\Joanna\morph21","no","mono","no","18","no","white","no","yes","1080","legacy","90","90","C:/Users/ERP Testing Room/Desktop/Joanna/morph21/subject-11.csv","xpyriment","Jazzy James","3.1.4","0","None","space","NA","NA","NA","z","None","995","23770","NA","NA","NA","38841","995","2","legacy","1024","2","48000","-16","AB_m21","11","odd","NW_S_COMP","PRINCEMENT","1609","397862","396279","393171","40468","316505","NA","NA","NA","389995","396776","NA","395779","NA","395773","397857","1626","398212","NA","NA","396862","1609","1609","397254","395773","1609","396862","398212","morph21_Oliver/Morris","74","66671","91","yes","1280","17"
"350","81.5217391304","81.5217391304","732.673913043","732.673913043","black","no","xpyriment","legacy","legacy","0","206","NA","uniform","66978","1000","0.0149302756129","1","undefined","1","0","91","91","91","0","91","91","91","NA","91","91","0","91","NA","91","91","0","91","NA","91","NA","91","0","0","91","91","0","91","91","92","z","07/24/17 16:04:29","The main experiment item","yes","FIN__AB__M21__7%3A10%3A17.osexp","C:\Users\ERP Testing Room\Desktop\Joanna\morph21","no","mono","no","18","no","white","no","yes","1080","legacy","91","91","C:/Users/ERP Testing Room/Desktop/Joanna/morph21/subject-11.csv","xpyriment","Jazzy James","3.1.4","0","z","space","NA","NA","NA","z","z","735","23770","NA","NA","NA","38841","735","2","legacy","1024","2","48000","-16","AB_m21","11","odd","NW_L_SIMP","NUTLA","1609","401196","399588","393171","40468","316505","NA","NA","NA","401189","400085","NA","399088","NA","399081","401189","1626","401546","NA","NA","400196","1609","1609","400588","399080","1609","400196","401546","morph21_Oliver/Morris","75","67406","92","yes","1280","14"
