"ITI","acc","accuracy","average_response_time","avg_rt","background","bidi","canvas_backend","clock_backend","color_backend","compensation","cond_trig","condtrigtime","coordinates","coroutines_cycles","coroutines_duration","coroutines_mean_cycle_duration","correct","correct_instructions_1","correct_new_keyboard_response_1","count_AB_m21","count_ITI","count_blank_screen","count_blink_screen","count_block1","count_break1","count_break2","count_break3_1","count_canvas","count_correct_trigger","count_def_chain","count_end_screen","count_fixation_1","count_getting_started","count_inc_counter","count_incorrect_trigger","count_instructions_1","count_logger","count_logscript","count_new_coroutines","count_new_inline_script","count_new_keyboard_response_1","count_reset_counter_prep","count_reset_counter_run","count_responsescreen","count_sequence","count_start_trigger","count_target_present","count_word_trigger","counter","cresp","datetime","description","disable_garbage_collection","experiment_file","experiment_path","font_bold","font_family","font_italic","font_size","font_underline","foreground","form_clicks","fullscreen","height","keyboard_backend","live_row","live_row_block1","logfile","mouse_backend","opensesame_codename","opensesame_version","repeat_cycle","response","response_break1","response_break2","response_break3_1","response_end_screen","response_instructions_1","response_new_keyboard_response_1","response_time","response_time_break1","response_time_break2","response_time_break3_1","response_time_end_screen","response_time_instructions_1","response_time_new_keyboard_response_1","round_decimals","sampler_backend","sound_buf_size","sound_channels","sound_freq","sound_sample_size","start","subject_nr","subject_parity","targ_type","target","time_AB_m21","time_ITI","time_blank_screen","time_blink_screen","time_block1","time_break1","time_break2","time_break3_1","time_canvas","time_correct_trigger","time_def_chain","time_end_screen","time_fixation_1","time_getting_started","time_inc_counter","time_incorrect_trigger","time_instructions_1","time_logger","time_logscript","time_new_inline_script","time_new_keyboard_response_1","time_reset_counter_prep","time_reset_counter_run","time_responsescreen","time_sequence","time_start_trigger","time_target_present","time_word_trigger","title","total_correct","total_response_time","total_responses","uniform_coordinates","width","word_trig"
"250","0","0","992","992","black","no","xpyriment","legacy","legacy","0","201","NA","uniform","52086","1000","0.0191990170103","0","undefined","0","0","0","0","0","0","0","0","0","NA","0","0","0","0","NA","0","0","0","0","NA","0","NA","0","0","0","0","0","0","0","0","1","/","11/13/18 16:15:47","The main experiment item","yes","FIN__AB__M21__7%3A10%3A17.osexp","C:\Users\ERP Testing Room\Desktop\Joanna\morph21","no","mono","no","18","no","white","no","yes","1080","legacy","0","0","C:/Users/ERP Testing Room/Desktop/Joanna/morph21/subject-152.csv","xpyriment","Kafkaesque Koffka","3.2.5","0","None","NA","NA","NA","NA","space","None","992","NA","NA","NA","NA","327167","992","2","legacy","1024","2","48000","-16","AB_m21","152","even","CW_S","NOTICEABLE","1998","332019","330361","NA","329182","NA","NA","NA","NA","NA","330858","NA","329853","NA","329783","332011","2015","332269","NA","NA","331019","1998","1998","331411","329783","1998","331019","332269","morph21_Oliver/Morris","0","992","1","yes","1280","3"
"400","0","0","621.5","621.5","black","no","xpyriment","legacy","legacy","0","204","NA","uniform","75444","1000","0.0132548645353","0","undefined","0","0","1","1","1","0","1","1","1","NA","1","1","0","1","NA","1","1","0","1","NA","1","NA","1","0","0","1","1","0","1","1","2","z","11/13/18 16:15:47","The main experiment item","yes","FIN__AB__M21__7%3A10%3A17.osexp","C:\Users\ERP Testing Room\Desktop\Joanna\morph21","no","mono","no","18","no","white","no","yes","1080","legacy","1","1","C:/Users/ERP Testing Room/Desktop/Joanna/morph21/subject-152.csv","xpyriment","Kafkaesque Koffka","3.2.5","0","/","NA","NA","NA","NA","space","/","251","NA","NA","NA","NA","327167","251","2","legacy","1024","2","48000","-16","AB_m21","152","even","NW_L_COMP","FLITENCE","1998","335202","333527","NA","329182","NA","NA","NA","NA","NA","334025","NA","333027","NA","333016","335193","2015","335602","NA","NA","334202","1998","1998","334594","333016","1998","334202","335602","morph21_Oliver/Morris","0","1243","2","yes","1280","3"
"400","33.3333333333","33.3333333333","606.666666667","606.666666667","black","no","xpyriment","legacy","legacy","0","201","NA","uniform","68356","1000","0.0146292936977","1","undefined","1","0","2","2","2","0","2","2","2","NA","2","2","0","2","NA","2","2","0","2","NA","2","NA","2","0","0","2","2","0","2","2","3","/","11/13/18 16:15:47","The main experiment item","yes","FIN__AB__M21__7%3A10%3A17.osexp","C:\Users\ERP Testing Room\Desktop\Joanna\morph21","no","mono","no","18","no","white","no","yes","1080","legacy","2","2","C:/Users/ERP Testing Room/Desktop/Joanna/morph21/subject-152.csv","xpyriment","Kafkaesque Koffka","3.2.5","0","/","NA","NA","NA","NA","space","/","577","NA","NA","NA","NA","327167","577","2","legacy","1024","2","48000","-16","AB_m21","152","even","CW_S","DESIGN","1998","340154","336895","338645","329182","NA","NA","NA","NA","338640","337392","NA","336395","NA","336389","338640","2015","340554","NA","NA","337645","1998","1998","338045","336389","1998","337645","340554","morph21_Oliver/Morris","1","1820","3","yes","1280","19"
"350","50","50","610.25","610.25","black","no","xpyriment","legacy","legacy","0","206","NA","uniform","65574","1000","0.0152499466252","1","undefined","1","0","3","3","3","0","3","3","3","NA","3","3","0","3","NA","3","3","0","3","NA","3","NA","3","0","0","3","3","0","3","3","4","z","11/13/18 16:15:47","The main experiment item","yes","FIN__AB__M21__7%3A10%3A17.osexp","C:\Users\ERP Testing Room\Desktop\Joanna\morph21","no","mono","no","18","no","white","no","yes","1080","legacy","3","3","C:/Users/ERP Testing Room/Desktop/Joanna/morph21/subject-152.csv","xpyriment","Kafkaesque Koffka","3.2.5","0","z","NA","NA","NA","NA","space","z","621","NA","NA","NA","NA","327167","621","2","legacy","1024","2","48000","-16","AB_m21","152","even","NW_L_SIMP","HABITIG","1998","343329","341654","338645","329182","NA","NA","NA","NA","343320","342151","NA","341154","NA","341146","343320","2015","343679","NA","NA","342329","1998","1998","342720","341146","1998","342329","343679","morph21_Oliver/Morris","2","2441","4","yes","1280","7"
"400","40","40","686.8","686.8","black","no","xpyriment","legacy","legacy","0","208","NA","uniform","51084","1000","0.0195756009709","0","undefined","0","0","4","4","4","0","4","4","4","NA","4","4","0","4","NA","4","4","0","4","NA","4","NA","4","0","0","4","4","0","4","4","5","z","11/13/18 16:15:47","The main experiment item","yes","FIN__AB__M21__7%3A10%3A17.osexp","C:\Users\ERP Testing Room\Desktop\Joanna\morph21","no","mono","no","18","no","white","no","yes","1080","legacy","4","4","C:/Users/ERP Testing Room/Desktop/Joanna/morph21/subject-152.csv","xpyriment","Kafkaesque Koffka","3.2.5","0","None","NA","NA","NA","NA","space","None","993","NA","NA","NA","NA","327167","993","2","legacy","1024","2","48000","-16","AB_m21","152","even","FILL_NW","HEND","1998","346587","344929","338645","329182","NA","NA","NA","NA","343320","345426","NA","344429","NA","344418","346580","2015","346987","NA","NA","345587","1998","1998","345979","344418","1998","345587","346987","morph21_Oliver/Morris","2","3434","5","yes","1280","28"
"300","50","50","689.333333333","689.333333333","black","no","xpyriment","legacy","legacy","0","201","NA","uniform","64445","1000","0.0155171076111","1","undefined","1","0","5","5","5","0","5","5","5","NA","5","5","0","5","NA","5","5","0","5","NA","5","NA","5","0","0","5","5","0","5","5","6","/","11/13/18 16:15:47","The main experiment item","yes","FIN__AB__M21__7%3A10%3A17.osexp","C:\Users\ERP Testing Room\Desktop\Joanna\morph21","no","mono","no","18","no","white","no","yes","1080","legacy","5","5","C:/Users/ERP Testing Room/Desktop/Joanna/morph21/subject-152.csv","xpyriment","Kafkaesque Koffka","3.2.5","0","/","NA","NA","NA","NA","space","/","702","NA","NA","NA","NA","327167","702","2","legacy","1024","2","48000","-16","AB_m21","152","even","CW_S","MAGICAL","1998","351379","348196","349871","329182","NA","NA","NA","NA","349867","348693","NA","347696","NA","347688","349867","2015","351679","NA","NA","348871","1998","1998","349271","347688","1998","348871","351679","morph21_Oliver/Morris","3","4136","6","yes","1280","4"
"350","57.1428571429","57.1428571429","674.142857143","674.142857143","black","no","xpyriment","legacy","legacy","0","202","NA","uniform","68969","1000","0.014499267787","1","undefined","1","0","6","6","6","0","6","6","6","NA","6","6","0","6","NA","6","6","0","6","NA","6","NA","6","0","0","6","6","0","6","6","7","/","11/13/18 16:15:47","The main experiment item","yes","FIN__AB__M21__7%3A10%3A17.osexp","C:\Users\ERP Testing Room\Desktop\Joanna\morph21","no","mono","no","18","no","white","no","yes","1080","legacy","6","6","C:/Users/ERP Testing Room/Desktop/Joanna/morph21/subject-152.csv","xpyriment","Kafkaesque Koffka","3.2.5","0","/","NA","NA","NA","NA","space","/","583","NA","NA","NA","NA","327167","583","2","legacy","1024","2","48000","-16","AB_m21","152","even","CW_L","JUMPING","1998","354639","352946","349871","329182","NA","NA","NA","NA","354636","353443","NA","352438","NA","352429","354636","2015","354989","NA","NA","353647","1998","1998","354039","352429","1998","353647","354989","morph21_Oliver/Morris","4","4719","7","yes","1280","30"
"400","62.5","62.5","694.125","694.125","black","no","xpyriment","legacy","legacy","0","205","NA","uniform","56767","1000","0.0176158683742","1","undefined","1","0","7","7","7","0","7","7","7","NA","7","7","0","7","NA","7","7","0","7","NA","7","NA","7","0","0","7","7","0","7","7","8","z","11/13/18 16:15:47","The main experiment item","yes","FIN__AB__M21__7%3A10%3A17.osexp","C:\Users\ERP Testing Room\Desktop\Joanna\morph21","no","mono","no","18","no","white","no","yes","1080","legacy","7","7","C:/Users/ERP Testing Room/Desktop/Joanna/morph21/subject-152.csv","xpyriment","Kafkaesque Koffka","3.2.5","0","z","NA","NA","NA","NA","space","z","834","NA","NA","NA","NA","327167","834","2","legacy","1024","2","48000","-16","AB_m21","152","even","NW_S_SIMP","ADVERTISELA","1998","357972","356239","349871","329182","NA","NA","NA","NA","357967","356736","NA","355739","NA","355731","357967","2015","358372","NA","NA","356972","1998","1998","357372","355731","1998","356972","358372","morph21_Oliver/Morris","5","5553","8","yes","1280","25"
"250","66.6666666667","66.6666666667","679","679","black","no","xpyriment","legacy","legacy","0","202","NA","uniform","71791","1000","0.013929322617","1","undefined","1","0","8","8","8","0","8","8","8","NA","8","8","0","8","NA","8","8","0","8","NA","8","NA","8","0","0","8","8","0","8","8","9","/","11/13/18 16:15:47","The main experiment item","yes","FIN__AB__M21__7%3A10%3A17.osexp","C:\Users\ERP Testing Room\Desktop\Joanna\morph21","no","mono","no","18","no","white","no","yes","1080","legacy","8","8","C:/Users/ERP Testing Room/Desktop/Joanna/morph21/subject-152.csv","xpyriment","Kafkaesque Koffka","3.2.5","0","/","NA","NA","NA","NA","space","/","558","NA","NA","NA","NA","327167","558","2","legacy","1024","2","48000","-16","AB_m21","152","even","CW_L","FLEXIBLE","1998","362772","359522","361264","329182","NA","NA","NA","NA","361257","360019","NA","359022","NA","359015","361257","2015","363022","NA","NA","360264","1998","1998","360656","359015","1998","360264","363022","morph21_Oliver/Morris","6","6111","9","yes","1280","22"
"350","70","70","671.1","671.1","black","no","xpyriment","legacy","legacy","0","206","NA","uniform","68054","1000","0.0146942134188","1","undefined","1","0","9","9","9","0","9","9","9","NA","9","9","0","9","NA","9","9","0","9","NA","9","NA","9","0","0","9","9","0","9","9","10","z","11/13/18 16:15:47","The main experiment item","yes","FIN__AB__M21__7%3A10%3A17.osexp","C:\Users\ERP Testing Room\Desktop\Joanna\morph21","no","mono","no","18","no","white","no","yes","1080","legacy","9","9","C:/Users/ERP Testing Room/Desktop/Joanna/morph21/subject-152.csv","xpyriment","Kafkaesque Koffka","3.2.5","0","z","NA","NA","NA","NA","space","z","600","NA","NA","NA","NA","327167","600","2","legacy","1024","2","48000","-16","AB_m21","152","even","NW_L_SIMP","NUTLA","1998","365822","364147","361264","329182","NA","NA","NA","NA","365812","364645","NA","363647","NA","363642","365812","2015","366172","NA","NA","364822","1998","1998","365214","363642","1998","364822","366172","morph21_Oliver/Morris","7","6711","10","yes","1280","14"
"250","72.7272727273","72.7272727273","678","678","black","no","xpyriment","legacy","legacy","0","208","NA","uniform","61063","1000","0.0163765291584","1","undefined","1","0","10","10","10","0","10","10","10","NA","10","10","0","10","NA","10","10","0","10","NA","10","NA","10","0","0","10","10","0","10","10","11","z","11/13/18 16:15:47","The main experiment item","yes","FIN__AB__M21__7%3A10%3A17.osexp","C:\Users\ERP Testing Room\Desktop\Joanna\morph21","no","mono","no","18","no","white","no","yes","1080","legacy","10","10","C:/Users/ERP Testing Room/Desktop/Joanna/morph21/subject-152.csv","xpyriment","Kafkaesque Koffka","3.2.5","0","z","NA","NA","NA","NA","space","z","747","NA","NA","NA","NA","327167","747","2","legacy","1024","2","48000","-16","AB_m21","152","even","FILL_NW","BUWL","1998","369114","367414","361264","329182","NA","NA","NA","NA","369110","367911","NA","366914","NA","366904","369110","2015","369364","NA","NA","368122","1998","1998","368514","366904","1998","368122","369364","morph21_Oliver/Morris","8","7458","11","yes","1280","9"
"200","66.6666666667","66.6666666667","698","698","black","no","xpyriment","legacy","legacy","0","206","NA","uniform","54042","1000","0.0185041264202","0","undefined","0","0","11","11","11","0","11","11","11","NA","11","11","0","11","NA","11","11","0","11","NA","11","NA","11","0","0","11","11","0","11","11","12","z","11/13/18 16:15:47","The main experiment item","yes","FIN__AB__M21__7%3A10%3A17.osexp","C:\Users\ERP Testing Room\Desktop\Joanna\morph21","no","mono","no","18","no","white","no","yes","1080","legacy","11","11","C:/Users/ERP Testing Room/Desktop/Joanna/morph21/subject-152.csv","xpyriment","Kafkaesque Koffka","3.2.5","0","/","NA","NA","NA","NA","space","/","918","NA","NA","NA","NA","327167","918","2","legacy","1024","2","48000","-16","AB_m21","152","even","NW_L_SIMP","GROWILT","1998","373732","370531","372224","329182","NA","NA","NA","NA","369110","371028","NA","370031","NA","370024","372216","2015","373932","NA","NA","371224","1998","1998","371615","370024","1998","371224","373932","morph21_Oliver/Morris","8","8376","12","yes","1280","20"
"350","69.2307692308","69.2307692308","685.846153846","685.846153846","black","no","xpyriment","legacy","legacy","0","202","NA","uniform","67207","1000","0.0148794024432","1","undefined","1","0","12","12","12","0","12","12","12","NA","12","12","0","12","NA","12","12","0","12","NA","12","NA","12","0","0","12","12","0","12","12","13","/","11/13/18 16:15:47","The main experiment item","yes","FIN__AB__M21__7%3A10%3A17.osexp","C:\Users\ERP Testing Room\Desktop\Joanna\morph21","no","mono","no","18","no","white","no","yes","1080","legacy","12","12","C:/Users/ERP Testing Room/Desktop/Joanna/morph21/subject-152.csv","xpyriment","Kafkaesque Koffka","3.2.5","0","/","NA","NA","NA","NA","space","/","540","NA","NA","NA","NA","327167","540","2","legacy","1024","2","48000","-16","AB_m21","152","even","CW_L","SWIMMER","1998","376691","375040","372224","329182","NA","NA","NA","NA","376687","375538","NA","374541","NA","374535","376687","2015","377041","NA","NA","375690","1998","1998","376091","374535","1998","375690","377041","morph21_Oliver/Morris","9","8916","13","yes","1280","5"
"300","71.4285714286","71.4285714286","687.714285714","687.714285714","black","no","xpyriment","legacy","legacy","0","206","NA","uniform","62328","1000","0.0160441535105","1","undefined","1","0","13","13","13","0","13","13","13","NA","13","13","0","13","NA","13","13","0","13","NA","13","NA","13","0","0","13","13","0","13","13","14","z","11/13/18 16:15:47","The main experiment item","yes","FIN__AB__M21__7%3A10%3A17.osexp","C:\Users\ERP Testing Room\Desktop\Joanna\morph21","no","mono","no","18","no","white","no","yes","1080","legacy","13","13","C:/Users/ERP Testing Room/Desktop/Joanna/morph21/subject-152.csv","xpyriment","Kafkaesque Koffka","3.2.5","0","z","NA","NA","NA","NA","space","z","712","NA","NA","NA","NA","327167","712","2","legacy","1024","2","48000","-16","AB_m21","152","even","NW_L_SIMP","PRAYANGE","1998","379966","378307","372224","329182","NA","NA","NA","NA","379956","378804","NA","377807","NA","377796","379956","2015","380266","NA","NA","378966","1998","1998","379357","377796","1998","378966","380266","morph21_Oliver/Morris","10","9628","14","yes","1280","1"
"350","73.3333333333","73.3333333333","680.2","680.2","black","no","xpyriment","legacy","legacy","0","202","NA","uniform","67814","1000","0.0147462175952","1","undefined","1","0","14","14","14","0","14","14","14","NA","14","14","0","14","NA","14","14","0","14","NA","14","NA","14","0","0","14","14","0","14","14","15","/","11/13/18 16:15:47","The main experiment item","yes","FIN__AB__M21__7%3A10%3A17.osexp","C:\Users\ERP Testing Room\Desktop\Joanna\morph21","no","mono","no","18","no","white","no","yes","1080","legacy","14","14","C:/Users/ERP Testing Room/Desktop/Joanna/morph21/subject-152.csv","xpyriment","Kafkaesque Koffka","3.2.5","0","/","NA","NA","NA","NA","space","/","575","NA","NA","NA","NA","327167","575","2","legacy","1024","2","48000","-16","AB_m21","152","even","CW_L","PARKING","1998","384708","381507","383199","329182","NA","NA","NA","NA","383189","382005","NA","381007","NA","381002","383189","2015","385058","NA","NA","382199","1998","1998","382591","381002","1998","382199","385058","morph21_Oliver/Morris","11","10203","15","yes","1280","25"
"200","75","75","671.25","671.25","black","no","xpyriment","legacy","legacy","0","201","NA","uniform","62810","1000","0.0159210316829","1","undefined","1","0","15","15","15","0","15","15","15","NA","15","15","0","15","NA","15","15","0","15","NA","15","NA","15","0","0","15","15","0","15","15","16","/","11/13/18 16:15:47","The main experiment item","yes","FIN__AB__M21__7%3A10%3A17.osexp","C:\Users\ERP Testing Room\Desktop\Joanna\morph21","no","mono","no","18","no","white","no","yes","1080","legacy","15","15","C:/Users/ERP Testing Room/Desktop/Joanna/morph21/subject-152.csv","xpyriment","Kafkaesque Koffka","3.2.5","0","/","NA","NA","NA","NA","space","/","537","NA","NA","NA","NA","327167","537","2","legacy","1024","2","48000","-16","AB_m21","152","even","CW_S","LISTENER","1998","387916","386224","383199","329182","NA","NA","NA","NA","387907","386722","NA","385724","NA","385714","387907","2015","388116","NA","NA","386916","1998","1998","387308","385714","1998","386916","388116","morph21_Oliver/Morris","12","10740","16","yes","1280","18"
"200","76.4705882353","76.4705882353","670.058823529","670.058823529","black","no","xpyriment","legacy","legacy","0","201","NA","uniform","63974","1000","0.015631350236","1","undefined","1","0","16","16","16","0","16","16","16","NA","16","16","0","16","NA","16","16","0","16","NA","16","NA","16","0","0","16","16","0","16","16","17","/","11/13/18 16:15:47","The main experiment item","yes","FIN__AB__M21__7%3A10%3A17.osexp","C:\Users\ERP Testing Room\Desktop\Joanna\morph21","no","mono","no","18","no","white","no","yes","1080","legacy","16","16","C:/Users/ERP Testing Room/Desktop/Joanna/morph21/subject-152.csv","xpyriment","Kafkaesque Koffka","3.2.5","0","/","NA","NA","NA","NA","space","/","651","NA","NA","NA","NA","327167","651","2","legacy","1024","2","48000","-16","AB_m21","152","even","CW_S","AMUSEMENT","1998","391059","389384","383199","329182","NA","NA","NA","NA","391055","389881","NA","388884","NA","388878","391055","2015","391259","NA","NA","390059","1998","1998","390459","388878","1998","390059","391259","morph21_Oliver/Morris","13","11391","17","yes","1280","38"
"300","77.7777777778","77.7777777778","662.555555556","662.555555556","black","no","xpyriment","legacy","legacy","0","201","NA","uniform","69541","1000","0.0143800060396","1","undefined","1","0","17","17","17","0","17","17","17","NA","17","17","0","17","NA","17","17","0","17","NA","17","NA","17","0","0","17","17","0","17","17","18","/","11/13/18 16:15:47","The main experiment item","yes","FIN__AB__M21__7%3A10%3A17.osexp","C:\Users\ERP Testing Room\Desktop\Joanna\morph21","no","mono","no","18","no","white","no","yes","1080","legacy","17","17","C:/Users/ERP Testing Room/Desktop/Joanna/morph21/subject-152.csv","xpyriment","Kafkaesque Koffka","3.2.5","0","/","NA","NA","NA","NA","space","/","535","NA","NA","NA","NA","327167","535","2","legacy","1024","2","48000","-16","AB_m21","152","even","CW_S","GUILTY","1998","395659","392459","394151","329182","NA","NA","NA","NA","394142","392956","NA","391951","NA","391944","394142","2015","395959","NA","NA","393151","1998","1998","393542","391944","1998","393151","395959","morph21_Oliver/Morris","14","11926","18","yes","1280","34"
"250","78.9473684211","78.9473684211","658.842105263","658.842105263","black","no","xpyriment","legacy","legacy","0","201","NA","uniform","70643","1000","0.014155684215","1","undefined","1","0","18","18","18","0","18","18","18","NA","18","18","0","18","NA","18","18","0","18","NA","18","NA","18","0","0","18","18","0","18","18","19","/","11/13/18 16:15:47","The main experiment item","yes","FIN__AB__M21__7%3A10%3A17.osexp","C:\Users\ERP Testing Room\Desktop\Joanna\morph21","no","mono","no","18","no","white","no","yes","1080","legacy","18","18","C:/Users/ERP Testing Room/Desktop/Joanna/morph21/subject-152.csv","xpyriment","Kafkaesque Koffka","3.2.5","0","/","NA","NA","NA","NA","space","/","592","NA","NA","NA","NA","327167","592","2","legacy","1024","2","48000","-16","AB_m21","152","even","CW_S","COSTLY","1998","398734","397042","394151","329182","NA","NA","NA","NA","398725","397540","NA","396542","NA","396531","398725","2015","398984","NA","NA","397734","1998","1998","398126","396531","1998","397734","398984","morph21_Oliver/Morris","15","12518","19","yes","1280","36"
"350","80","80","665.15","665.15","black","no","xpyriment","legacy","legacy","0","201","NA","uniform","60036","1000","0.0166566726631","1","undefined","1","0","19","19","19","0","19","19","19","NA","19","19","0","19","NA","19","19","0","19","NA","19","NA","19","0","0","19","19","0","19","19","20","/","11/13/18 16:15:47","The main experiment item","yes","FIN__AB__M21__7%3A10%3A17.osexp","C:\Users\ERP Testing Room\Desktop\Joanna\morph21","no","mono","no","18","no","white","no","yes","1080","legacy","19","19","C:/Users/ERP Testing Room/Desktop/Joanna/morph21/subject-152.csv","xpyriment","Kafkaesque Koffka","3.2.5","0","/","NA","NA","NA","NA","space","/","785","NA","NA","NA","NA","327167","785","2","legacy","1024","2","48000","-16","AB_m21","152","even","CW_S","DULLNESS","1998","401884","400143","394151","329182","NA","NA","NA","NA","401877","400640","NA","399643","NA","399636","401877","2015","402234","NA","NA","400884","1998","1998","401276","399636","1998","400884","402234","morph21_Oliver/Morris","16","13303","20","yes","1280","43"
"300","80.9523809524","80.9523809524","666.476190476","666.476190476","black","no","xpyriment","legacy","legacy","0","202","NA","uniform","65979","1000","0.0151563376226","1","undefined","1","0","20","20","20","0","20","20","20","NA","20","20","0","20","NA","20","20","0","20","NA","20","NA","20","0","0","20","20","0","20","20","21","/","11/13/18 16:15:47","The main experiment item","yes","FIN__AB__M21__7%3A10%3A17.osexp","C:\Users\ERP Testing Room\Desktop\Joanna\morph21","no","mono","no","18","no","white","no","yes","1080","legacy","20","20","C:/Users/ERP Testing Room/Desktop/Joanna/morph21/subject-152.csv","xpyriment","Kafkaesque Koffka","3.2.5","0","/","NA","NA","NA","NA","space","/","693","NA","NA","NA","NA","327167","693","2","legacy","1024","2","48000","-16","AB_m21","152","even","CW_L","WEEDY","1998","406677","403518","405168","329182","NA","NA","NA","NA","405159","404015","NA","403018","NA","403009","405159","2015","406977","NA","NA","404168","1998","1998","404559","403009","1998","404168","406977","morph21_Oliver/Morris","17","13996","21","yes","1280","48"
"350","77.2727272727","77.2727272727","681.272727273","681.272727273","black","no","xpyriment","legacy","legacy","0","203","NA","uniform","53386","1000","0.0187315026411","0","undefined","0","0","21","21","21","0","21","21","21","NA","21","21","0","21","NA","21","21","0","21","NA","21","NA","21","0","0","21","21","0","21","21","22","z","11/13/18 16:15:47","The main experiment item","yes","FIN__AB__M21__7%3A10%3A17.osexp","C:\Users\ERP Testing Room\Desktop\Joanna\morph21","no","mono","no","18","no","white","no","yes","1080","legacy","21","21","C:/Users/ERP Testing Room/Desktop/Joanna/morph21/subject-152.csv","xpyriment","Kafkaesque Koffka","3.2.5","0","None","NA","NA","NA","NA","space","None","992","NA","NA","NA","NA","327167","992","2","legacy","1024","2","48000","-16","AB_m21","152","even","NW_S_COMP","EJECTENCE","1998","409744","408052","405168","329182","NA","NA","NA","NA","405159","408549","NA","407552","NA","407544","409736","2015","410094","NA","NA","408744","1998","1998","409136","407544","1998","408744","410094","morph21_Oliver/Morris","17","14988","22","yes","1280","20"
"300","73.9130434783","73.9130434783","694.913043478","694.913043478","black","no","xpyriment","legacy","legacy","0","204","NA","uniform","48486","1000","0.0206245101679","0","undefined","0","0","22","22","22","0","22","22","22","NA","22","22","0","22","NA","22","22","0","22","NA","22","NA","22","0","0","22","22","0","22","22","23","z","11/13/18 16:15:47","The main experiment item","yes","FIN__AB__M21__7%3A10%3A17.osexp","C:\Users\ERP Testing Room\Desktop\Joanna\morph21","no","mono","no","18","no","white","no","yes","1080","legacy","22","22","C:/Users/ERP Testing Room/Desktop/Joanna/morph21/subject-152.csv","xpyriment","Kafkaesque Koffka","3.2.5","0","None","NA","NA","NA","NA","space","None","995","NA","NA","NA","NA","327167","995","2","legacy","1024","2","48000","-16","AB_m21","152","even","NW_L_COMP","ILLIST","1998","413061","411352","405168","329182","NA","NA","NA","NA","405159","411850","NA","410852","NA","410847","413056","2015","413361","NA","NA","412061","1998","1998","412461","410847","1998","412061","413361","morph21_Oliver/Morris","17","15983","23","yes","1280","9"
"200","75","75","691.375","691.375","black","no","xpyriment","legacy","legacy","0","201","NA","uniform","62429","1000","0.0160181966714","1","undefined","1","0","23","23","23","0","23","23","23","NA","23","23","0","23","NA","23","23","0","23","NA","23","NA","23","0","0","23","23","0","23","23","24","/","11/13/18 16:15:47","The main experiment item","yes","FIN__AB__M21__7%3A10%3A17.osexp","C:\Users\ERP Testing Room\Desktop\Joanna\morph21","no","mono","no","18","no","white","no","yes","1080","legacy","23","23","C:/Users/ERP Testing Room/Desktop/Joanna/morph21/subject-152.csv","xpyriment","Kafkaesque Koffka","3.2.5","0","/","NA","NA","NA","NA","space","/","610","NA","NA","NA","NA","327167","610","2","legacy","1024","2","48000","-16","AB_m21","152","even","CW_S","LOCALLY","1998","417753","414578","416244","329182","NA","NA","NA","NA","416238","415075","NA","414077","NA","414069","416238","2015","417953","NA","NA","415244","1998","1998","415636","414069","1998","415244","417953","morph21_Oliver/Morris","18","16593","24","yes","1280","37"
"400","76","76","688.04","688.04","black","no","xpyriment","legacy","legacy","0","207","NA","uniform","66245","1000","0.0150954789041","1","undefined","1","0","24","24","24","0","24","24","24","NA","24","24","0","24","NA","24","24","0","24","NA","24","NA","24","0","0","24","24","0","24","24","25","/","11/13/18 16:15:47","The main experiment item","yes","FIN__AB__M21__7%3A10%3A17.osexp","C:\Users\ERP Testing Room\Desktop\Joanna\morph21","no","mono","no","18","no","white","no","yes","1080","legacy","24","24","C:/Users/ERP Testing Room/Desktop/Joanna/morph21/subject-152.csv","xpyriment","Kafkaesque Koffka","3.2.5","0","/","NA","NA","NA","NA","space","/","608","NA","NA","NA","NA","327167","608","2","legacy","1024","2","48000","-16","AB_m21","152","even","FILL_W","QUIT","1998","420853","419203","416244","329182","NA","NA","NA","NA","420848","419700","NA","418703","NA","418696","420848","2015","421253","NA","NA","419853","1998","1998","420253","418696","1998","419853","421253","morph21_Oliver/Morris","19","17201","25","yes","1280","21"
"350","76.9230769231","76.9230769231","684.384615385","684.384615385","black","no","xpyriment","legacy","legacy","0","201","NA","uniform","62256","1000","0.0160627088152","1","undefined","1","0","25","25","25","0","25","25","25","NA","25","25","0","25","NA","25","25","0","25","NA","25","NA","25","0","0","25","25","0","25","25","26","/","11/13/18 16:15:47","The main experiment item","yes","FIN__AB__M21__7%3A10%3A17.osexp","C:\Users\ERP Testing Room\Desktop\Joanna\morph21","no","mono","no","18","no","white","no","yes","1080","legacy","25","25","C:/Users/ERP Testing Room/Desktop/Joanna/morph21/subject-152.csv","xpyriment","Kafkaesque Koffka","3.2.5","0","/","NA","NA","NA","NA","space","/","593","NA","NA","NA","NA","327167","593","2","legacy","1024","2","48000","-16","AB_m21","152","even","CW_S","NEATLY","1998","424229","422503","416244","329182","NA","NA","NA","NA","424223","423000","NA","421995","NA","421987","424223","2015","424579","NA","NA","423229","1998","1998","423621","421987","1998","423229","424579","morph21_Oliver/Morris","20","17794","26","yes","1280","33"
"250","77.7777777778","77.7777777778","679.111111111","679.111111111","black","no","xpyriment","legacy","legacy","0","201","NA","uniform","67972","1000","0.0147119402107","1","undefined","1","0","26","26","26","0","26","26","26","NA","26","26","0","26","NA","26","26","0","26","NA","26","NA","26","0","0","26","26","0","26","26","27","/","11/13/18 16:15:47","The main experiment item","yes","FIN__AB__M21__7%3A10%3A17.osexp","C:\Users\ERP Testing Room\Desktop\Joanna\morph21","no","mono","no","18","no","white","no","yes","1080","legacy","26","26","C:/Users/ERP Testing Room/Desktop/Joanna/morph21/subject-152.csv","xpyriment","Kafkaesque Koffka","3.2.5","0","/","NA","NA","NA","NA","space","/","542","NA","NA","NA","NA","327167","542","2","legacy","1024","2","48000","-16","AB_m21","152","even","CW_S","PLANNER","1998","429012","425837","427504","329182","NA","NA","NA","NA","427497","426335","NA","425337","NA","425328","427497","2015","429263","NA","NA","426504","1998","1998","426896","425328","1998","426504","429263","morph21_Oliver/Morris","21","18336","27","yes","1280","22"
"400","78.5714285714","78.5714285714","672.714285714","672.714285714","black","no","xpyriment","legacy","legacy","0","202","NA","uniform","76981","1000","0.0129902183656","1","undefined","1","0","27","27","27","0","27","27","27","NA","27","27","0","27","NA","27","27","0","27","NA","27","NA","27","0","0","27","27","0","27","27","28","/","11/13/18 16:15:47","The main experiment item","yes","FIN__AB__M21__7%3A10%3A17.osexp","C:\Users\ERP Testing Room\Desktop\Joanna\morph21","no","mono","no","18","no","white","no","yes","1080","legacy","27","27","C:/Users/ERP Testing Room/Desktop/Joanna/morph21/subject-152.csv","xpyriment","Kafkaesque Koffka","3.2.5","0","/","NA","NA","NA","NA","space","/","500","NA","NA","NA","NA","327167","500","2","legacy","1024","2","48000","-16","AB_m21","152","even","CW_L","LOCKER","1998","432154","430471","427504","329182","NA","NA","NA","NA","432148","430968","NA","429971","NA","429962","432148","2015","432554","NA","NA","431154","1998","1998","431546","429962","1998","431154","432554","morph21_Oliver/Morris","22","18836","28","yes","1280","8"
"250","79.3103448276","79.3103448276","668.103448276","668.103448276","black","no","xpyriment","legacy","legacy","0","207","NA","uniform","65318","1000","0.0153097155455","1","undefined","1","0","28","28","28","0","28","28","28","NA","28","28","0","28","NA","28","28","0","28","NA","28","NA","28","0","0","28","28","0","28","28","29","/","11/13/18 16:15:47","The main experiment item","yes","FIN__AB__M21__7%3A10%3A17.osexp","C:\Users\ERP Testing Room\Desktop\Joanna\morph21","no","mono","no","18","no","white","no","yes","1080","legacy","28","28","C:/Users/ERP Testing Room/Desktop/Joanna/morph21/subject-152.csv","xpyriment","Kafkaesque Koffka","3.2.5","0","/","NA","NA","NA","NA","space","/","539","NA","NA","NA","NA","327167","539","2","legacy","1024","2","48000","-16","AB_m21","152","even","FILL_W","SUIT","1998","435563","433888","427504","329182","NA","NA","NA","NA","435554","434385","NA","433388","NA","433377","435554","2015","435813","NA","NA","434563","1998","1998","434954","433377","1998","434563","435813","morph21_Oliver/Morris","23","19375","29","yes","1280","49"
"350","76.6666666667","76.6666666667","678.966666667","678.966666667","black","no","xpyriment","legacy","legacy","0","202","NA","uniform","49669","1000","0.020133282329","0","undefined","0","0","29","29","29","0","29","29","29","NA","29","29","0","29","NA","29","29","0","29","NA","29","NA","29","0","0","29","29","0","29","29","30","/","11/13/18 16:15:47","The main experiment item","yes","FIN__AB__M21__7%3A10%3A17.osexp","C:\Users\ERP Testing Room\Desktop\Joanna\morph21","no","mono","no","18","no","white","no","yes","1080","legacy","29","29","C:/Users/ERP Testing Room/Desktop/Joanna/morph21/subject-152.csv","xpyriment","Kafkaesque Koffka","3.2.5","0","None","NA","NA","NA","NA","space","None","994","NA","NA","NA","NA","327167","994","2","legacy","1024","2","48000","-16","AB_m21","152","even","CW_L","GUILELESS","1998","440313","437154","438805","329182","NA","NA","NA","NA","435554","437652","NA","436655","NA","436644","438800","2015","440663","NA","NA","437805","1998","1998","438204","436644","1998","437805","440663","morph21_Oliver/Morris","23","20369","30","yes","1280","31"
"350","77.4193548387","77.4193548387","685.290322581","685.290322581","black","no","xpyriment","legacy","legacy","0","208","NA","uniform","56807","1000","0.0176034643618","1","undefined","1","0","30","30","30","0","30","30","30","NA","30","30","0","30","NA","30","30","0","30","NA","30","NA","30","0","0","30","30","0","30","30","31","z","11/13/18 16:15:47","The main experiment item","yes","FIN__AB__M21__7%3A10%3A17.osexp","C:\Users\ERP Testing Room\Desktop\Joanna\morph21","no","mono","no","18","no","white","no","yes","1080","legacy","30","30","C:/Users/ERP Testing Room/Desktop/Joanna/morph21/subject-152.csv","xpyriment","Kafkaesque Koffka","3.2.5","0","z","NA","NA","NA","NA","space","z","875","NA","NA","NA","NA","327167","875","2","legacy","1024","2","48000","-16","AB_m21","152","even","FILL_NW","DASP","1998","443539","441847","438805","329182","NA","NA","NA","NA","443532","442344","NA","441347","NA","441338","443532","2015","443889","NA","NA","442539","1998","1998","442931","441338","1998","442539","443889","morph21_Oliver/Morris","24","21244","31","yes","1280","13"
"200","78.125","78.125","679.78125","679.78125","black","no","xpyriment","legacy","legacy","0","207","NA","uniform","70926","1000","0.0140992019852","1","undefined","1","0","31","31","31","0","31","31","31","NA","31","31","0","31","NA","31","31","0","31","NA","31","NA","31","0","0","31","31","0","31","31","32","/","11/13/18 16:15:47","The main experiment item","yes","FIN__AB__M21__7%3A10%3A17.osexp","C:\Users\ERP Testing Room\Desktop\Joanna\morph21","no","mono","no","18","no","white","no","yes","1080","legacy","31","31","C:/Users/ERP Testing Room/Desktop/Joanna/morph21/subject-152.csv","xpyriment","Kafkaesque Koffka","3.2.5","0","/","NA","NA","NA","NA","space","/","509","NA","NA","NA","NA","327167","509","2","legacy","1024","2","48000","-16","AB_m21","152","even","FILL_W","STALK","1998","446689","445006","438805","329182","NA","NA","NA","NA","446683","445503","NA","444506","NA","444498","446683","2015","446889","NA","NA","445689","1998","1998","446081","444498","1998","445689","446889","morph21_Oliver/Morris","25","21753","32","yes","1280","27"
"250","78.7878787879","78.7878787879","687.303030303","687.303030303","black","no","xpyriment","legacy","legacy","0","204","NA","uniform","52577","1000","0.0190197234532","1","undefined","1","0","32","32","32","0","32","32","32","NA","32","32","0","32","NA","32","32","0","32","NA","32","NA","32","0","0","32","32","0","32","32","33","z","11/13/18 16:15:47","The main experiment item","yes","FIN__AB__M21__7%3A10%3A17.osexp","C:\Users\ERP Testing Room\Desktop\Joanna\morph21","no","mono","no","18","no","white","no","yes","1080","legacy","32","32","C:/Users/ERP Testing Room/Desktop/Joanna/morph21/subject-152.csv","xpyriment","Kafkaesque Koffka","3.2.5","0","z","NA","NA","NA","NA","space","z","928","NA","NA","NA","NA","327167","928","2","legacy","1024","2","48000","-16","AB_m21","152","even","NW_L_COMP","TRIPARY","1998","451323","448106","449814","329182","NA","NA","NA","NA","449811","448603","NA","447606","NA","447597","449811","2015","451573","NA","NA","448814","1998","1998","449214","447597","1998","448814","451573","morph21_Oliver/Morris","26","22681","33","yes","1280","2"
"400","79.4117647059","79.4117647059","687.970588235","687.970588235","black","no","xpyriment","legacy","legacy","0","208","NA","uniform","60152","1000","0.0166245511371","1","undefined","1","0","33","33","33","0","33","33","33","NA","33","33","0","33","NA","33","33","0","33","NA","33","NA","33","0","0","33","33","0","33","33","34","z","11/13/18 16:15:47","The main experiment item","yes","FIN__AB__M21__7%3A10%3A17.osexp","C:\Users\ERP Testing Room\Desktop\Joanna\morph21","no","mono","no","18","no","white","no","yes","1080","legacy","33","33","C:/Users/ERP Testing Room/Desktop/Joanna/morph21/subject-152.csv","xpyriment","Kafkaesque Koffka","3.2.5","0","z","NA","NA","NA","NA","space","z","710","NA","NA","NA","NA","327167","710","2","legacy","1024","2","48000","-16","AB_m21","152","even","FILL_NW","SOISE","1998","454456","452731","449814","329182","NA","NA","NA","NA","454448","453228","NA","452231","NA","452222","454448","2015","454856","NA","NA","453456","1998","1998","453848","452222","1998","453456","454856","morph21_Oliver/Morris","27","23391","34","yes","1280","43"
"250","80","80","695.457142857","695.457142857","black","no","xpyriment","legacy","legacy","0","207","NA","uniform","49806","1000","0.0200779022608","1","undefined","1","0","34","34","34","0","34","34","34","NA","34","34","0","34","NA","34","34","0","34","NA","34","NA","34","0","0","34","34","0","34","34","35","/","11/13/18 16:15:47","The main experiment item","yes","FIN__AB__M21__7%3A10%3A17.osexp","C:\Users\ERP Testing Room\Desktop\Joanna\morph21","no","mono","no","18","no","white","no","yes","1080","legacy","34","34","C:/Users/ERP Testing Room/Desktop/Joanna/morph21/subject-152.csv","xpyriment","Kafkaesque Koffka","3.2.5","0","/","NA","NA","NA","NA","space","/","950","NA","NA","NA","NA","327167","950","2","legacy","1024","2","48000","-16","AB_m21","152","even","FILL_W","SPLICE","1998","457831","456123","449814","329182","NA","NA","NA","NA","457821","456620","NA","455623","NA","455614","457821","2015","458081","NA","NA","456831","1998","1998","457223","455614","1998","456831","458081","morph21_Oliver/Morris","28","24341","35","yes","1280","22"
"300","80.5555555556","80.5555555556","692.111111111","692.111111111","black","no","xpyriment","legacy","legacy","0","207","NA","uniform","69387","1000","0.0144119215415","1","undefined","1","0","35","35","35","0","35","35","35","NA","35","35","0","35","NA","35","35","0","35","NA","35","NA","35","0","0","35","35","0","35","35","36","/","11/13/18 16:15:47","The main experiment item","yes","FIN__AB__M21__7%3A10%3A17.osexp","C:\Users\ERP Testing Room\Desktop\Joanna\morph21","no","mono","no","18","no","white","no","yes","1080","legacy","35","35","C:/Users/ERP Testing Room/Desktop/Joanna/morph21/subject-152.csv","xpyriment","Kafkaesque Koffka","3.2.5","0","/","NA","NA","NA","NA","space","/","575","NA","NA","NA","NA","327167","575","2","legacy","1024","2","48000","-16","AB_m21","152","even","FILL_W","BAKE","1998","462491","459299","460982","329182","NA","NA","NA","NA","460978","459796","NA","458799","NA","458794","460978","2015","462791","NA","NA","459991","1998","1998","460382","458794","1998","459991","462791","morph21_Oliver/Morris","29","24916","36","yes","1280","29"
"250","81.0810810811","81.0810810811","697.513513514","697.513513514","black","no","xpyriment","legacy","legacy","0","204","NA","uniform","53713","1000","0.0186174669075","1","undefined","1","0","36","36","36","0","36","36","36","NA","36","36","0","36","NA","36","36","0","36","NA","36","NA","36","0","0","36","36","0","36","36","37","z","11/13/18 16:15:47","The main experiment item","yes","FIN__AB__M21__7%3A10%3A17.osexp","C:\Users\ERP Testing Room\Desktop\Joanna\morph21","no","mono","no","18","no","white","no","yes","1080","legacy","36","36","C:/Users/ERP Testing Room/Desktop/Joanna/morph21/subject-152.csv","xpyriment","Kafkaesque Koffka","3.2.5","0","z","NA","NA","NA","NA","space","z","892","NA","NA","NA","NA","327167","892","2","legacy","1024","2","48000","-16","AB_m21","152","even","NW_L_COMP","STIRANCE","1998","465674","463999","460982","329182","NA","NA","NA","NA","465670","464496","NA","463499","NA","463490","465670","2015","465924","NA","NA","464674","1998","1998","465074","463490","1998","464674","465924","morph21_Oliver/Morris","30","25808","37","yes","1280","1"
"300","78.9473684211","78.9473684211","697.473684211","697.473684211","black","no","xpyriment","legacy","legacy","0","208","NA","uniform","65240","1000","0.0153280196199","0","undefined","0","0","37","37","37","0","37","37","37","NA","37","37","0","37","NA","37","37","0","37","NA","37","NA","37","0","0","37","37","0","37","37","38","z","11/13/18 16:15:47","The main experiment item","yes","FIN__AB__M21__7%3A10%3A17.osexp","C:\Users\ERP Testing Room\Desktop\Joanna\morph21","no","mono","no","18","no","white","no","yes","1080","legacy","37","37","C:/Users/ERP Testing Room/Desktop/Joanna/morph21/subject-152.csv","xpyriment","Kafkaesque Koffka","3.2.5","0","/","NA","NA","NA","NA","space","/","696","NA","NA","NA","NA","327167","696","2","legacy","1024","2","48000","-16","AB_m21","152","even","FILL_NW","SCURE","1998","468758","467091","460982","329182","NA","NA","NA","NA","465670","467588","NA","466591","NA","466586","468748","2015","469058","NA","NA","467758","1998","1998","468150","466585","1998","467758","469058","morph21_Oliver/Morris","30","26504","38","yes","1280","41"
"200","79.4871794872","79.4871794872","694.717948718","694.717948718","black","no","xpyriment","legacy","legacy","0","201","NA","uniform","63438","1000","0.0157634225543","1","undefined","1","0","38","38","38","0","38","38","38","NA","38","38","0","38","NA","38","38","0","38","NA","38","NA","38","0","0","38","38","0","38","38","39","/","11/13/18 16:15:47","The main experiment item","yes","FIN__AB__M21__7%3A10%3A17.osexp","C:\Users\ERP Testing Room\Desktop\Joanna\morph21","no","mono","no","18","no","white","no","yes","1080","legacy","38","38","C:/Users/ERP Testing Room/Desktop/Joanna/morph21/subject-152.csv","xpyriment","Kafkaesque Koffka","3.2.5","0","/","NA","NA","NA","NA","space","/","590","NA","NA","NA","NA","327167","590","2","legacy","1024","2","48000","-16","AB_m21","152","even","CW_S","THRUSTER","1998","473516","470308","472008","329182","NA","NA","NA","NA","472002","470805","NA","469808","NA","469797","472002","2015","473717","NA","NA","471008","1998","1998","471400","469797","1998","471008","473717","morph21_Oliver/Morris","31","27094","39","yes","1280","24"
"350","77.5","77.5","702.075","702.075","black","no","xpyriment","legacy","legacy","0","203","NA","uniform","50796","1000","0.0196865894952","0","undefined","0","0","39","39","39","0","39","39","39","NA","39","39","0","39","NA","39","39","0","39","NA","39","NA","39","0","0","39","39","0","39","39","40","z","11/13/18 16:15:47","The main experiment item","yes","FIN__AB__M21__7%3A10%3A17.osexp","C:\Users\ERP Testing Room\Desktop\Joanna\morph21","no","mono","no","18","no","white","no","yes","1080","legacy","39","39","C:/Users/ERP Testing Room/Desktop/Joanna/morph21/subject-152.csv","xpyriment","Kafkaesque Koffka","3.2.5","0","None","NA","NA","NA","NA","space","None","989","NA","NA","NA","NA","327167","989","2","legacy","1024","2","48000","-16","AB_m21","152","even","NW_S_COMP","FIENDISM","1998","476551","474892","472008","329182","NA","NA","NA","NA","472002","475389","NA","474391","NA","474388","476548","2015","476901","NA","NA","475559","1998","1998","475951","474388","1998","475559","476901","morph21_Oliver/Morris","31","28083","40","yes","1280","24"
"200","75.6097560976","75.6097560976","709.146341463","709.146341463","black","no","xpyriment","legacy","legacy","0","203","NA","uniform","53317","1000","0.0187557439466","0","undefined","0","0","40","40","40","0","40","40","40","NA","40","40","0","40","NA","40","40","0","40","NA","40","NA","40","0","0","40","40","0","40","40","41","z","11/13/18 16:15:47","The main experiment item","yes","FIN__AB__M21__7%3A10%3A17.osexp","C:\Users\ERP Testing Room\Desktop\Joanna\morph21","no","mono","no","18","no","white","no","yes","1080","legacy","40","40","C:/Users/ERP Testing Room/Desktop/Joanna/morph21/subject-152.csv","xpyriment","Kafkaesque Koffka","3.2.5","0","None","NA","NA","NA","NA","space","None","992","NA","NA","NA","NA","327167","992","2","legacy","1024","2","48000","-16","AB_m21","152","even","NW_S_COMP","HAPPENANCE","1998","479784","478093","472008","329182","NA","NA","NA","NA","472002","478590","NA","477593","NA","477588","479776","2015","479984","NA","NA","478784","1998","1998","479176","477588","1998","478784","479984","morph21_Oliver/Morris","31","29075","41","yes","1280","2"
"400","76.1904761905","76.1904761905","713.238095238","713.238095238","black","no","xpyriment","legacy","legacy","0","208","NA","uniform","60021","1000","0.0166608353743","1","undefined","1","0","41","41","41","0","41","41","41","NA","41","41","0","41","NA","41","41","0","41","NA","41","NA","41","0","0","41","41","0","41","41","42","z","11/13/18 16:15:47","The main experiment item","yes","FIN__AB__M21__7%3A10%3A17.osexp","C:\Users\ERP Testing Room\Desktop\Joanna\morph21","no","mono","no","18","no","white","no","yes","1080","legacy","41","41","C:/Users/ERP Testing Room/Desktop/Joanna/morph21/subject-152.csv","xpyriment","Kafkaesque Koffka","3.2.5","0","z","NA","NA","NA","NA","space","z","881","NA","NA","NA","NA","327167","881","2","legacy","1024","2","48000","-16","AB_m21","152","even","FILL_NW","BORMS","1998","484410","481201","482901","329182","NA","NA","NA","NA","482893","481698","NA","480701","NA","480697","482893","2015","484810","NA","NA","481901","1998","1998","482293","480697","1998","481901","484810","morph21_Oliver/Morris","32","29956","42","yes","1280","50"
"350","74.4186046512","74.4186046512","719.790697674","719.790697674","black","no","xpyriment","legacy","legacy","0","208","NA","uniform","52636","1000","0.0189984041341","0","undefined","0","0","42","42","42","0","42","42","42","NA","42","42","0","42","NA","42","42","0","42","NA","42","NA","42","0","0","42","42","0","42","42","43","z","11/13/18 16:15:47","The main experiment item","yes","FIN__AB__M21__7%3A10%3A17.osexp","C:\Users\ERP Testing Room\Desktop\Joanna\morph21","no","mono","no","18","no","white","no","yes","1080","legacy","42","42","C:/Users/ERP Testing Room/Desktop/Joanna/morph21/subject-152.csv","xpyriment","Kafkaesque Koffka","3.2.5","0","None","NA","NA","NA","NA","space","None","995","NA","NA","NA","NA","327167","995","2","legacy","1024","2","48000","-16","AB_m21","152","even","FILL_NW","DARF","1998","487735","486085","482901","329182","NA","NA","NA","NA","482893","486582","NA","485585","NA","485578","487730","2015","488085","NA","NA","486735","1998","1998","487135","485578","1998","486735","488085","morph21_Oliver/Morris","32","30951","43","yes","1280","10"
"200","72.7272727273","72.7272727273","725.954545455","725.954545455","black","no","xpyriment","legacy","legacy","0","201","NA","uniform","48590","1000","0.0205803663305","0","undefined","0","0","43","43","43","0","43","43","43","NA","43","43","0","43","NA","43","43","0","43","NA","43","NA","43","0","0","43","43","0","43","43","44","/","11/13/18 16:15:47","The main experiment item","yes","FIN__AB__M21__7%3A10%3A17.osexp","C:\Users\ERP Testing Room\Desktop\Joanna\morph21","no","mono","no","18","no","white","no","yes","1080","legacy","43","43","C:/Users/ERP Testing Room/Desktop/Joanna/morph21/subject-152.csv","xpyriment","Kafkaesque Koffka","3.2.5","0","None","NA","NA","NA","NA","space","None","991","NA","NA","NA","NA","327167","991","2","legacy","1024","2","48000","-16","AB_m21","152","even","CW_S","CAMPAIGNER","1998","490918","489193","482901","329182","NA","NA","NA","NA","482893","489690","NA","488693","NA","488687","490909","2015","491118","NA","NA","489918","1998","1998","490310","488687","1998","489918","491118","morph21_Oliver/Morris","32","31942","44","yes","1280","15"
"200","73.3333333333","73.3333333333","729.555555556","729.555555556","black","no","xpyriment","legacy","legacy","0","202","NA","uniform","57659","1000","0.0173433462252","1","undefined","1","0","44","44","44","0","44","44","44","NA","44","44","0","44","NA","44","44","0","44","NA","44","NA","44","0","0","44","44","0","44","44","45","/","11/13/18 16:15:47","The main experiment item","yes","FIN__AB__M21__7%3A10%3A17.osexp","C:\Users\ERP Testing Room\Desktop\Joanna\morph21","no","mono","no","18","no","white","no","yes","1080","legacy","44","44","C:/Users/ERP Testing Room/Desktop/Joanna/morph21/subject-152.csv","xpyriment","Kafkaesque Koffka","3.2.5","0","/","NA","NA","NA","NA","space","/","888","NA","NA","NA","NA","327167","888","2","legacy","1024","2","48000","-16","AB_m21","152","even","CW_L","COLLECTOR","1998","495586","492393","494078","329182","NA","NA","NA","NA","494070","492890","NA","491893","NA","491882","494070","2015","495786","NA","NA","493078","1998","1998","493469","491882","1998","493078","495786","morph21_Oliver/Morris","33","32830","45","yes","1280","46"
"300","73.9130434783","73.9130434783","731.956521739","731.956521739","black","no","xpyriment","legacy","legacy","0","204","NA","uniform","64444","1000","0.0155173483955","1","undefined","1","0","45","45","45","0","45","45","45","NA","45","45","0","45","NA","45","45","0","45","NA","45","NA","45","0","0","45","45","0","45","45","46","z","11/13/18 16:15:47","The main experiment item","yes","FIN__AB__M21__7%3A10%3A17.osexp","C:\Users\ERP Testing Room\Desktop\Joanna\morph21","no","mono","no","18","no","white","no","yes","1080","legacy","45","45","C:/Users/ERP Testing Room/Desktop/Joanna/morph21/subject-152.csv","xpyriment","Kafkaesque Koffka","3.2.5","0","z","NA","NA","NA","NA","space","z","840","NA","NA","NA","NA","327167","840","2","legacy","1024","2","48000","-16","AB_m21","152","even","NW_L_COMP","FELLOWOUS","1998","498686","497003","494078","329182","NA","NA","NA","NA","498680","497500","NA","496503","NA","496495","498680","2015","498986","NA","NA","497686","1998","1998","498078","496495","1998","497686","498986","morph21_Oliver/Morris","34","33670","46","yes","1280","17"
"400","74.4680851064","74.4680851064","734.978723404","734.978723404","black","no","xpyriment","legacy","legacy","0","202","NA","uniform","58912","1000","0.0169744703965","1","undefined","1","0","46","46","46","0","46","46","46","NA","46","46","0","46","NA","46","46","0","46","NA","46","NA","46","0","0","46","46","0","46","46","47","/","11/13/18 16:15:47","The main experiment item","yes","FIN__AB__M21__7%3A10%3A17.osexp","C:\Users\ERP Testing Room\Desktop\Joanna\morph21","no","mono","no","18","no","white","no","yes","1080","legacy","46","46","C:/Users/ERP Testing Room/Desktop/Joanna/morph21/subject-152.csv","xpyriment","Kafkaesque Koffka","3.2.5","0","/","NA","NA","NA","NA","space","/","874","NA","NA","NA","NA","327167","874","2","legacy","1024","2","48000","-16","AB_m21","152","even","CW_L","COOLING","1998","501820","500136","494078","329182","NA","NA","NA","NA","501811","500633","NA","499636","NA","499629","501811","2015","502220","NA","NA","500820","1998","1998","501211","499629","1998","500820","502220","morph21_Oliver/Morris","35","34544","47","yes","1280","24"
"400","75","75","737.145833333","737.145833333","black","no","xpyriment","legacy","legacy","0","206","NA","uniform","57804","1000","0.0172998408415","1","undefined","1","0","47","47","47","0","47","47","47","NA","47","47","0","47","NA","47","47","0","47","NA","47","NA","47","0","0","47","47","0","47","47","48","z","11/13/18 16:15:47","The main experiment item","yes","FIN__AB__M21__7%3A10%3A17.osexp","C:\Users\ERP Testing Room\Desktop\Joanna\morph21","no","mono","no","18","no","white","no","yes","1080","legacy","47","47","C:/Users/ERP Testing Room/Desktop/Joanna/morph21/subject-152.csv","xpyriment","Kafkaesque Koffka","3.2.5","0","z","NA","NA","NA","NA","space","z","839","NA","NA","NA","NA","327167","839","2","legacy","1024","2","48000","-16","AB_m21","152","even","NW_L_SIMP","CLASSOES","1998","506587","503420","505078","329182","NA","NA","NA","NA","505075","503917","NA","502920","NA","502909","505075","2015","506987","NA","NA","504087","1998","1998","504478","502909","1998","504086","506987","morph21_Oliver/Morris","36","35383","48","yes","1280","18"
"200","75.5102040816","75.5102040816","733.979591837","733.979591837","black","no","xpyriment","legacy","legacy","0","207","NA","uniform","65602","1000","0.0152434377001","1","undefined","1","0","48","48","48","0","48","48","48","NA","48","48","0","48","NA","48","48","0","48","NA","48","NA","48","0","0","48","48","0","48","48","49","/","11/13/18 16:15:47","The main experiment item","yes","FIN__AB__M21__7%3A10%3A17.osexp","C:\Users\ERP Testing Room\Desktop\Joanna\morph21","no","mono","no","18","no","white","no","yes","1080","legacy","48","48","C:/Users/ERP Testing Room/Desktop/Joanna/morph21/subject-152.csv","xpyriment","Kafkaesque Koffka","3.2.5","0","/","NA","NA","NA","NA","space","/","582","NA","NA","NA","NA","327167","582","2","legacy","1024","2","48000","-16","AB_m21","152","even","FILL_W","BRASS","1998","509903","508220","505078","329182","NA","NA","NA","NA","509893","508717","NA","507720","NA","507710","509893","2015","510103","NA","NA","508903","1998","1998","509295","507710","1998","508903","510103","morph21_Oliver/Morris","37","35965","49","yes","1280","10"
"250","76","76","733.64","733.64","black","no","xpyriment","legacy","legacy","0","208","NA","uniform","63591","1000","0.0157254957463","1","undefined","1","0","49","49","49","0","49","49","49","NA","49","49","0","49","NA","49","49","0","49","NA","49","NA","49","0","0","49","49","0","49","49","50","z","11/13/18 16:15:47","The main experiment item","yes","FIN__AB__M21__7%3A10%3A17.osexp","C:\Users\ERP Testing Room\Desktop\Joanna\morph21","no","mono","no","18","no","white","no","yes","1080","legacy","49","49","C:/Users/ERP Testing Room/Desktop/Joanna/morph21/subject-152.csv","xpyriment","Kafkaesque Koffka","3.2.5","0","z","NA","NA","NA","NA","space","z","717","NA","NA","NA","NA","327167","717","2","legacy","1024","2","48000","-16","AB_m21","152","even","FILL_NW","PLAODS","1998","513113","511429","505078","329182","NA","NA","NA","NA","513106","511927","NA","510929","NA","510920","513106","2015","513363","NA","NA","512113","1998","1998","512504","510920","1998","512113","513363","morph21_Oliver/Morris","38","36682","50","yes","1280","37"
"300","76.4705882353","76.4705882353","731.039215686","731.039215686","black","no","xpyriment","legacy","legacy","0","201","NA","uniform","64627","1000","0.0154734089467","1","undefined","1","0","50","50","50","0","50","50","50","NA","50","50","0","50","NA","50","50","0","50","NA","50","NA","50","0","0","50","50","0","50","50","51","/","11/13/18 16:15:47","The main experiment item","yes","FIN__AB__M21__7%3A10%3A17.osexp","C:\Users\ERP Testing Room\Desktop\Joanna\morph21","no","mono","no","18","no","white","no","yes","1080","legacy","50","50","C:/Users/ERP Testing Room/Desktop/Joanna/morph21/subject-152.csv","xpyriment","Kafkaesque Koffka","3.2.5","0","/","NA","NA","NA","NA","space","/","601","NA","NA","NA","NA","327167","601","2","legacy","1024","2","48000","-16","AB_m21","152","even","CW_S","DESTROYER","1998","517730","514521","516221","329182","NA","NA","NA","NA","516216","515018","NA","514021","NA","514013","516216","2015","518030","NA","NA","515221","1998","1998","515621","514013","1998","515221","518030","morph21_Oliver/Morris","39","37283","51","yes","1280","14"
"200","76.9230769231","76.9230769231","730.307692308","730.307692308","black","no","xpyriment","legacy","legacy","0","208","NA","uniform","61818","1000","0.0161765181662","1","undefined","1","0","51","51","51","0","51","51","51","NA","51","51","0","51","NA","51","51","0","51","NA","51","NA","51","0","0","51","51","0","51","51","52","z","11/13/18 16:15:47","The main experiment item","yes","FIN__AB__M21__7%3A10%3A17.osexp","C:\Users\ERP Testing Room\Desktop\Joanna\morph21","no","mono","no","18","no","white","no","yes","1080","legacy","51","51","C:/Users/ERP Testing Room/Desktop/Joanna/morph21/subject-152.csv","xpyriment","Kafkaesque Koffka","3.2.5","0","z","NA","NA","NA","NA","space","z","693","NA","NA","NA","NA","327167","693","2","legacy","1024","2","48000","-16","AB_m21","152","even","FILL_NW","TUEER","1998","520905","519205","516221","329182","NA","NA","NA","NA","520901","519702","NA","518705","NA","518694","520901","2015","521105","NA","NA","519913","1998","1998","520305","518694","1998","519913","521105","morph21_Oliver/Morris","40","37976","52","yes","1280","44"
"250","77.358490566","77.358490566","728.528301887","728.528301887","black","no","xpyriment","legacy","legacy","0","207","NA","uniform","69094","1000","0.0144730367326","1","undefined","1","0","52","52","52","0","52","52","52","NA","52","52","0","52","NA","52","52","0","52","NA","52","NA","52","0","0","52","52","0","52","52","53","/","11/13/18 16:15:47","The main experiment item","yes","FIN__AB__M21__7%3A10%3A17.osexp","C:\Users\ERP Testing Room\Desktop\Joanna\morph21","no","mono","no","18","no","white","no","yes","1080","legacy","52","52","C:/Users/ERP Testing Room/Desktop/Joanna/morph21/subject-152.csv","xpyriment","Kafkaesque Koffka","3.2.5","0","/","NA","NA","NA","NA","space","/","636","NA","NA","NA","NA","327167","636","2","legacy","1024","2","48000","-16","AB_m21","152","even","FILL_W","SLIM","1998","523938","522230","516221","329182","NA","NA","NA","NA","523933","522727","NA","521722","NA","521711","523933","2015","524188","NA","NA","522938","1998","1998","523338","521711","1998","522938","524188","morph21_Oliver/Morris","41","38612","53","yes","1280","6"
"300","77.7777777778","77.7777777778","729.222222222","729.222222222","black","no","xpyriment","legacy","legacy","0","202","NA","uniform","59748","1000","0.0167369619067","1","undefined","1","0","53","53","53","0","53","53","53","NA","53","53","0","53","NA","53","53","0","53","NA","53","NA","53","0","0","53","53","0","53","53","54","/","11/13/18 16:15:47","The main experiment item","yes","FIN__AB__M21__7%3A10%3A17.osexp","C:\Users\ERP Testing Room\Desktop\Joanna\morph21","no","mono","no","18","no","white","no","yes","1080","legacy","53","53","C:/Users/ERP Testing Room/Desktop/Joanna/morph21/subject-152.csv","xpyriment","Kafkaesque Koffka","3.2.5","0","/","NA","NA","NA","NA","space","/","766","NA","NA","NA","NA","327167","766","2","legacy","1024","2","48000","-16","AB_m21","152","even","CW_L","COMPOSER","1998","528565","525405","527055","329182","NA","NA","NA","NA","527049","525902","NA","524905","NA","524897","527049","2015","528865","NA","NA","526055","1998","1998","526447","524897","1998","526055","528865","morph21_Oliver/Morris","42","39378","54","yes","1280","6"
"400","78.1818181818","78.1818181818","727.363636364","727.363636364","black","no","xpyriment","legacy","legacy","0","208","NA","uniform","69145","1000","0.0144623617037","1","undefined","1","0","54","54","54","0","54","54","54","NA","54","54","0","54","NA","54","54","0","54","NA","54","NA","54","0","0","54","54","0","54","54","55","z","11/13/18 16:15:47","The main experiment item","yes","FIN__AB__M21__7%3A10%3A17.osexp","C:\Users\ERP Testing Room\Desktop\Joanna\morph21","no","mono","no","18","no","white","no","yes","1080","legacy","54","54","C:/Users/ERP Testing Room/Desktop/Joanna/morph21/subject-152.csv","xpyriment","Kafkaesque Koffka","3.2.5","0","z","NA","NA","NA","NA","space","z","627","NA","NA","NA","NA","327167","627","2","legacy","1024","2","48000","-16","AB_m21","152","even","FILL_NW","CORG","1998","531731","530081","527055","329182","NA","NA","NA","NA","531727","530578","NA","529581","NA","529576","531727","2015","532131","NA","NA","530731","1998","1998","531131","529576","1998","530731","532131","morph21_Oliver/Morris","43","40005","55","yes","1280","7"
"350","78.5714285714","78.5714285714","724.571428571","724.571428571","black","no","xpyriment","legacy","legacy","0","202","NA","uniform","63412","1000","0.015769885826","1","undefined","1","0","55","55","55","0","55","55","55","NA","55","55","0","55","NA","55","55","0","55","NA","55","NA","55","0","0","55","55","0","55","55","56","/","11/13/18 16:15:47","The main experiment item","yes","FIN__AB__M21__7%3A10%3A17.osexp","C:\Users\ERP Testing Room\Desktop\Joanna\morph21","no","mono","no","18","no","white","no","yes","1080","legacy","55","55","C:/Users/ERP Testing Room/Desktop/Joanna/morph21/subject-152.csv","xpyriment","Kafkaesque Koffka","3.2.5","0","/","NA","NA","NA","NA","space","/","571","NA","NA","NA","NA","327167","571","2","legacy","1024","2","48000","-16","AB_m21","152","even","CW_L","KICKING","1998","534931","533248","527055","329182","NA","NA","NA","NA","534924","533745","NA","532748","NA","532743","534924","2015","535282","NA","NA","533931","1998","1998","534323","532743","1998","533931","535282","morph21_Oliver/Morris","44","40576","56","yes","1280","23"
"300","78.9473684211","78.9473684211","723.052631579","723.052631579","black","no","xpyriment","legacy","legacy","0","204","NA","uniform","68898","1000","0.014514209411","1","undefined","1","0","56","56","56","0","56","56","56","NA","56","56","0","56","NA","56","56","0","56","NA","56","NA","56","0","0","56","56","0","56","56","57","z","11/13/18 16:15:47","The main experiment item","yes","FIN__AB__M21__7%3A10%3A17.osexp","C:\Users\ERP Testing Room\Desktop\Joanna\morph21","no","mono","no","18","no","white","no","yes","1080","legacy","56","56","C:/Users/ERP Testing Room/Desktop/Joanna/morph21/subject-152.csv","xpyriment","Kafkaesque Koffka","3.2.5","0","z","NA","NA","NA","NA","space","z","638","NA","NA","NA","NA","327167","638","2","legacy","1024","2","48000","-16","AB_m21","152","even","NW_L_COMP","NORTHIZE","1998","539748","536548","538240","329182","NA","NA","NA","NA","538236","537045","NA","536048","NA","536040","538236","2015","540049","NA","NA","537240","1998","1998","537640","536040","1998","537240","540049","morph21_Oliver/Morris","45","41214","57","yes","1280","20"
"350","77.5862068966","77.5862068966","719.620689655","719.620689655","black","no","xpyriment","legacy","legacy","0","204","NA","uniform","62300","1000","0.016051364366","0","undefined","0","0","57","57","57","0","57","57","57","NA","57","57","0","57","NA","57","57","0","57","NA","57","NA","57","0","0","57","57","0","57","57","58","z","11/13/18 16:15:47","The main experiment item","yes","FIN__AB__M21__7%3A10%3A17.osexp","C:\Users\ERP Testing Room\Desktop\Joanna\morph21","no","mono","no","18","no","white","no","yes","1080","legacy","57","57","C:/Users/ERP Testing Room/Desktop/Joanna/morph21/subject-152.csv","xpyriment","Kafkaesque Koffka","3.2.5","0","/","NA","NA","NA","NA","space","/","524","NA","NA","NA","NA","327167","524","2","legacy","1024","2","48000","-16","AB_m21","152","even","NW_L_COMP","INKISM","1998","542898","541198","538240","329182","NA","NA","NA","NA","538236","541695","NA","540698","NA","540690","542891","2015","543249","NA","NA","541898","1998","1998","542290","540690","1998","541898","543249","morph21_Oliver/Morris","45","41738","58","yes","1280","8"
"350","77.9661016949","77.9661016949","717.101694915","717.101694915","black","no","xpyriment","legacy","legacy","0","207","NA","uniform","74060","1000","0.0135025654874","1","undefined","1","0","58","58","58","0","58","58","58","NA","58","58","0","58","NA","58","58","0","58","NA","58","NA","58","0","0","58","58","0","58","58","59","/","11/13/18 16:15:47","The main experiment item","yes","FIN__AB__M21__7%3A10%3A17.osexp","C:\Users\ERP Testing Room\Desktop\Joanna\morph21","no","mono","no","18","no","white","no","yes","1080","legacy","58","58","C:/Users/ERP Testing Room/Desktop/Joanna/morph21/subject-152.csv","xpyriment","Kafkaesque Koffka","3.2.5","0","/","NA","NA","NA","NA","space","/","571","NA","NA","NA","NA","327167","571","2","legacy","1024","2","48000","-16","AB_m21","152","even","FILL_W","LIFT","1998","546316","544615","538240","329182","NA","NA","NA","NA","546306","545112","NA","544115","NA","544111","546306","2015","546666","NA","NA","545315","1998","1998","545708","544111","1998","545315","546666","morph21_Oliver/Morris","46","42309","59","yes","1280","39"
"300","78.3333333333","78.3333333333","715.866666667","715.866666667","black","no","xpyriment","legacy","legacy","0","208","NA","uniform","62908","1000","0.0158962294144","1","undefined","1","0","59","59","59","0","59","59","59","NA","59","59","0","59","NA","59","59","0","59","NA","59","NA","59","0","0","59","59","0","59","59","60","z","11/13/18 16:15:47","The main experiment item","yes","FIN__AB__M21__7%3A10%3A17.osexp","C:\Users\ERP Testing Room\Desktop\Joanna\morph21","no","mono","no","18","no","white","no","yes","1080","legacy","59","59","C:/Users/ERP Testing Room/Desktop/Joanna/morph21/subject-152.csv","xpyriment","Kafkaesque Koffka","3.2.5","0","z","NA","NA","NA","NA","space","z","643","NA","NA","NA","NA","327167","643","2","legacy","1024","2","48000","-16","AB_m21","152","even","FILL_NW","DULKS","1998","551192","547958","549683","329182","NA","NA","NA","NA","549678","548455","NA","547458","NA","547448","549678","2015","551492","NA","NA","548691","1998","1998","549083","547448","1998","548691","551492","morph21_Oliver/Morris","47","42952","60","yes","1280","18"
"250","78.6885245902","78.6885245902","713.606557377","713.606557377","black","no","xpyriment","legacy","legacy","0","201","NA","uniform","65702","1000","0.0152202368269","1","undefined","1","0","60","60","60","0","60","60","60","NA","60","60","0","60","NA","60","60","0","60","NA","60","NA","60","0","0","60","60","0","60","60","61","/","11/13/18 16:15:47","The main experiment item","yes","FIN__AB__M21__7%3A10%3A17.osexp","C:\Users\ERP Testing Room\Desktop\Joanna\morph21","no","mono","no","18","no","white","no","yes","1080","legacy","60","60","C:/Users/ERP Testing Room/Desktop/Joanna/morph21/subject-152.csv","xpyriment","Kafkaesque Koffka","3.2.5","0","/","NA","NA","NA","NA","space","/","578","NA","NA","NA","NA","327167","578","2","legacy","1024","2","48000","-16","AB_m21","152","even","CW_S","TOSSING","1998","554500","552775","549683","329182","NA","NA","NA","NA","554497","553272","NA","552275","NA","552264","554497","2015","554750","NA","NA","553508","1998","1998","553900","552264","1998","553508","554750","morph21_Oliver/Morris","48","43530","61","yes","1280","26"
"300","79.0322580645","79.0322580645","716.983870968","716.983870968","black","no","xpyriment","legacy","legacy","0","208","NA","uniform","54663","1000","0.0182939099574","1","undefined","1","0","61","61","61","0","61","61","61","NA","61","61","0","61","NA","61","61","0","61","NA","61","NA","61","0","0","61","61","0","61","61","62","z","11/13/18 16:15:47","The main experiment item","yes","FIN__AB__M21__7%3A10%3A17.osexp","C:\Users\ERP Testing Room\Desktop\Joanna\morph21","no","mono","no","18","no","white","no","yes","1080","legacy","61","61","C:/Users/ERP Testing Room/Desktop/Joanna/morph21/subject-152.csv","xpyriment","Kafkaesque Koffka","3.2.5","0","z","NA","NA","NA","NA","space","z","923","NA","NA","NA","NA","327167","923","2","legacy","1024","2","48000","-16","AB_m21","152","even","FILL_NW","KEMT","1998","557675","555967","549683","329182","NA","NA","NA","NA","557665","556464","NA","555467","NA","555461","557665","2015","557975","NA","NA","556675","1998","1998","557067","555461","1998","556675","557975","morph21_Oliver/Morris","49","44453","62","yes","1280","32"
"300","79.3650793651","79.3650793651","719.873015873","719.873015873","black","no","xpyriment","legacy","legacy","0","207","NA","uniform","56746","1000","0.0176223874811","1","undefined","1","0","62","62","62","0","62","62","62","NA","62","62","0","62","NA","62","62","0","62","NA","62","NA","62","0","0","62","62","0","62","62","63","/","11/13/18 16:15:47","The main experiment item","yes","FIN__AB__M21__7%3A10%3A17.osexp","C:\Users\ERP Testing Room\Desktop\Joanna\morph21","no","mono","no","18","no","white","no","yes","1080","legacy","62","62","C:/Users/ERP Testing Room/Desktop/Joanna/morph21/subject-152.csv","xpyriment","Kafkaesque Koffka","3.2.5","0","/","NA","NA","NA","NA","space","/","899","NA","NA","NA","NA","327167","899","2","legacy","1024","2","48000","-16","AB_m21","152","even","FILL_W","BLUNT","1998","562542","559317","561034","329182","NA","NA","NA","NA","561030","559814","NA","558817","NA","558809","561030","2015","562842","NA","NA","560042","1998","1998","560433","558809","1998","560042","562842","morph21_Oliver/Morris","50","45352","63","yes","1280","4"
"400","79.6875","79.6875","719.90625","719.90625","black","no","xpyriment","legacy","legacy","0","208","NA","uniform","58884","1000","0.0169825419469","1","undefined","1","0","63","63","63","0","63","63","63","NA","63","63","0","63","NA","63","63","0","63","NA","63","NA","63","0","0","63","63","0","63","63","64","z","11/13/18 16:15:47","The main experiment item","yes","FIN__AB__M21__7%3A10%3A17.osexp","C:\Users\ERP Testing Room\Desktop\Joanna\morph21","no","mono","no","18","no","white","no","yes","1080","legacy","63","63","C:/Users/ERP Testing Room/Desktop/Joanna/morph21/subject-152.csv","xpyriment","Kafkaesque Koffka","3.2.5","0","z","NA","NA","NA","NA","space","z","722","NA","NA","NA","NA","327167","722","2","legacy","1024","2","48000","-16","AB_m21","152","even","FILL_NW","ULNS","1998","565843","564101","561034","329182","NA","NA","NA","NA","565840","564599","NA","563601","NA","563595","565840","2015","566243","NA","NA","564852","1998","1998","565243","563595","1998","564851","566243","morph21_Oliver/Morris","51","46074","64","yes","1280","45"
"250","80","80","718.630769231","718.630769231","black","no","xpyriment","legacy","legacy","0","201","NA","uniform","70178","1000","0.014249479894","1","undefined","1","0","64","64","64","0","64","64","64","NA","64","64","0","64","NA","64","64","0","64","NA","64","NA","64","0","0","64","64","0","64","64","65","/","11/13/18 16:15:47","The main experiment item","yes","FIN__AB__M21__7%3A10%3A17.osexp","C:\Users\ERP Testing Room\Desktop\Joanna\morph21","no","mono","no","18","no","white","no","yes","1080","legacy","64","64","C:/Users/ERP Testing Room/Desktop/Joanna/morph21/subject-152.csv","xpyriment","Kafkaesque Koffka","3.2.5","0","/","NA","NA","NA","NA","space","/","637","NA","NA","NA","NA","327167","637","2","legacy","1024","2","48000","-16","AB_m21","152","even","CW_S","SEEKER","1998","569185","567485","561034","329182","NA","NA","NA","NA","569175","567982","NA","566985","NA","566979","569175","2015","569435","NA","NA","568185","1998","1998","568577","566979","1998","568185","569435","morph21_Oliver/Morris","52","46711","65","yes","1280","16"
"300","80.303030303","80.303030303","716.484848485","716.484848485","black","no","xpyriment","legacy","legacy","0","207","NA","uniform","65990","1000","0.0151538111835","1","undefined","1","0","65","65","65","0","65","65","65","NA","65","65","0","65","NA","65","65","0","65","NA","65","NA","65","0","0","65","65","0","65","65","66","/","11/13/18 16:15:47","The main experiment item","yes","FIN__AB__M21__7%3A10%3A17.osexp","C:\Users\ERP Testing Room\Desktop\Joanna\morph21","no","mono","no","18","no","white","no","yes","1080","legacy","65","65","C:/Users/ERP Testing Room/Desktop/Joanna/morph21/subject-152.csv","xpyriment","Kafkaesque Koffka","3.2.5","0","/","NA","NA","NA","NA","space","/","577","NA","NA","NA","NA","327167","577","2","legacy","1024","2","48000","-16","AB_m21","152","even","FILL_W","MOURN","1998","573802","570635","572293","329182","NA","NA","NA","NA","572285","571132","NA","570135","NA","570123","572285","2015","574102","NA","NA","571293","1998","1998","571685","570123","1998","571293","574102","morph21_Oliver/Morris","53","47288","66","yes","1280","26"
"300","80.5970149254","80.5970149254","718.47761194","718.47761194","black","no","xpyriment","legacy","legacy","0","205","NA","uniform","56288","1000","0.0177657760091","1","undefined","1","0","66","66","66","0","66","66","66","NA","66","66","0","66","NA","66","66","0","66","NA","66","NA","66","0","0","66","66","0","66","66","67","z","11/13/18 16:15:47","The main experiment item","yes","FIN__AB__M21__7%3A10%3A17.osexp","C:\Users\ERP Testing Room\Desktop\Joanna\morph21","no","mono","no","18","no","white","no","yes","1080","legacy","66","66","C:/Users/ERP Testing Room/Desktop/Joanna/morph21/subject-152.csv","xpyriment","Kafkaesque Koffka","3.2.5","0","z","NA","NA","NA","NA","space","z","850","NA","NA","NA","NA","327167","850","2","legacy","1024","2","48000","-16","AB_m21","152","even","NW_S_SIMP","WINKIDY","1998","577060","575402","572293","329182","NA","NA","NA","NA","577054","575899","NA","574902","NA","574892","577054","2015","577360","NA","NA","576060","1998","1998","576452","574892","1998","576060","577360","morph21_Oliver/Morris","54","48138","67","yes","1280","21"
"300","80.8823529412","80.8823529412","719.102941176","719.102941176","black","no","xpyriment","legacy","legacy","0","206","NA","uniform","62795","1000","0.0159248347798","1","undefined","1","0","67","67","67","0","67","67","67","NA","67","67","0","67","NA","67","67","0","67","NA","67","NA","67","0","0","67","67","0","67","67","68","z","11/13/18 16:15:47","The main experiment item","yes","FIN__AB__M21__7%3A10%3A17.osexp","C:\Users\ERP Testing Room\Desktop\Joanna\morph21","no","mono","no","18","no","white","no","yes","1080","legacy","67","67","C:/Users/ERP Testing Room/Desktop/Joanna/morph21/subject-152.csv","xpyriment","Kafkaesque Koffka","3.2.5","0","z","NA","NA","NA","NA","space","z","761","NA","NA","NA","NA","327167","761","2","legacy","1024","2","48000","-16","AB_m21","152","even","NW_L_SIMP","LONGNELS","1998","580244","578552","572293","329182","NA","NA","NA","NA","580236","579049","NA","578052","NA","578044","580236","2015","580544","NA","NA","579244","1998","1998","579635","578044","1998","579244","580544","morph21_Oliver/Morris","55","48899","68","yes","1280","17"
"250","81.1594202899","81.1594202899","721.507246377","721.507246377","black","no","xpyriment","legacy","legacy","0","202","NA","uniform","56516","1000","0.0176941043244","1","undefined","1","0","68","68","68","0","68","68","68","NA","68","68","0","68","NA","68","68","0","68","NA","68","NA","68","0","0","68","68","0","68","68","69","/","11/13/18 16:15:47","The main experiment item","yes","FIN__AB__M21__7%3A10%3A17.osexp","C:\Users\ERP Testing Room\Desktop\Joanna\morph21","no","mono","no","18","no","white","no","yes","1080","legacy","68","68","C:/Users/ERP Testing Room/Desktop/Joanna/morph21/subject-152.csv","xpyriment","Kafkaesque Koffka","3.2.5","0","/","NA","NA","NA","NA","space","/","885","NA","NA","NA","NA","327167","885","2","legacy","1024","2","48000","-16","AB_m21","152","even","CW_L","STRIKER","1998","584862","581670","583353","329182","NA","NA","NA","NA","583346","582167","NA","581170","NA","581161","583346","2015","585112","NA","NA","582353","1998","1998","582745","581161","1998","582353","585112","morph21_Oliver/Morris","56","49784","69","yes","1280","17"
"250","81.4285714286","81.4285714286","724.171428571","724.171428571","black","no","xpyriment","legacy","legacy","0","206","NA","uniform","54994","1000","0.0181838018693","1","undefined","1","0","69","69","69","0","69","69","69","NA","69","69","0","69","NA","69","69","0","69","NA","69","NA","69","0","0","69","69","0","69","69","70","z","11/13/18 16:15:47","The main experiment item","yes","FIN__AB__M21__7%3A10%3A17.osexp","C:\Users\ERP Testing Room\Desktop\Joanna\morph21","no","mono","no","18","no","white","no","yes","1080","legacy","69","69","C:/Users/ERP Testing Room/Desktop/Joanna/morph21/subject-152.csv","xpyriment","Kafkaesque Koffka","3.2.5","0","z","NA","NA","NA","NA","space","z","908","NA","NA","NA","NA","327167","908","2","legacy","1024","2","48000","-16","AB_m21","152","even","NW_L_SIMP","SMOOTHFIL","1998","587978","586320","583353","329182","NA","NA","NA","NA","587973","586817","NA","585820","NA","585815","587973","2015","588228","NA","NA","586978","1998","1998","587378","585814","1998","586978","588228","morph21_Oliver/Morris","57","50692","70","yes","1280","19"
"350","80.2816901408","80.2816901408","726.323943662","726.323943662","black","no","xpyriment","legacy","legacy","0","203","NA","uniform","52771","1000","0.0189498019746","0","undefined","0","0","70","70","70","0","70","70","70","NA","70","70","0","70","NA","70","70","0","70","NA","70","NA","70","0","0","70","70","0","70","70","71","z","11/13/18 16:15:47","The main experiment item","yes","FIN__AB__M21__7%3A10%3A17.osexp","C:\Users\ERP Testing Room\Desktop\Joanna\morph21","no","mono","no","18","no","white","no","yes","1080","legacy","70","70","C:/Users/ERP Testing Room/Desktop/Joanna/morph21/subject-152.csv","xpyriment","Kafkaesque Koffka","3.2.5","0","/","NA","NA","NA","NA","space","/","877","NA","NA","NA","NA","327167","877","2","legacy","1024","2","48000","-16","AB_m21","152","even","NW_S_COMP","HUMIDOUS","1998","591137","589478","583353","329182","NA","NA","NA","NA","587973","589976","NA","588978","NA","588974","591126","2015","591487","NA","NA","590137","1998","1998","590528","588974","1998","590137","591487","morph21_Oliver/Morris","57","51569","71","yes","1280","25"
"350","80.5555555556","80.5555555556","725.486111111","725.486111111","black","no","xpyriment","legacy","legacy","0","207","NA","uniform","67267","1000","0.0148661304949","1","undefined","1","0","71","71","71","0","71","71","71","NA","71","71","0","71","NA","71","71","0","71","NA","71","NA","71","0","0","71","71","0","71","71","72","/","11/13/18 16:15:47","The main experiment item","yes","FIN__AB__M21__7%3A10%3A17.osexp","C:\Users\ERP Testing Room\Desktop\Joanna\morph21","no","mono","no","18","no","white","no","yes","1080","legacy","71","71","C:/Users/ERP Testing Room/Desktop/Joanna/morph21/subject-152.csv","xpyriment","Kafkaesque Koffka","3.2.5","0","/","NA","NA","NA","NA","space","/","666","NA","NA","NA","NA","327167","666","2","legacy","1024","2","48000","-16","AB_m21","152","even","FILL_W","LEAK","1998","595912","592695","594404","329182","NA","NA","NA","NA","594394","593192","NA","592195","NA","592189","594394","2015","596262","NA","NA","593404","1998","1998","593795","592189","1998","593404","596262","morph21_Oliver/Morris","58","52235","72","yes","1280","9"
"250","80.8219178082","80.8219178082","728.630136986","728.630136986","black","no","xpyriment","legacy","legacy","0","204","NA","uniform","53552","1000","0.0186734389005","1","undefined","1","0","72","72","72","0","72","72","72","NA","72","72","0","72","NA","72","72","0","72","NA","72","NA","72","0","0","72","72","0","72","72","73","z","11/13/18 16:15:47","The main experiment item","yes","FIN__AB__M21__7%3A10%3A17.osexp","C:\Users\ERP Testing Room\Desktop\Joanna\morph21","no","mono","no","18","no","white","no","yes","1080","legacy","72","72","C:/Users/ERP Testing Room/Desktop/Joanna/morph21/subject-152.csv","xpyriment","Kafkaesque Koffka","3.2.5","0","z","NA","NA","NA","NA","space","z","955","NA","NA","NA","NA","327167","955","2","legacy","1024","2","48000","-16","AB_m21","152","even","NW_L_COMP","BREAKITY","1998","599147","597487","594404","329182","NA","NA","NA","NA","599136","597984","NA","596987","NA","596982","599136","2015","599397","NA","NA","598147","1998","1998","598538","596982","1998","598146","599397","morph21_Oliver/Morris","59","53190","73","yes","1280","23"
"350","79.7297297297","79.7297297297","732.216216216","732.216216216","black","no","xpyriment","legacy","legacy","0","201","NA","uniform","50952","1000","0.0196263149631","0","undefined","0","0","73","73","73","0","73","73","73","NA","73","73","0","73","NA","73","73","0","73","NA","73","NA","73","0","0","73","73","0","73","73","74","/","11/13/18 16:15:47","The main experiment item","yes","FIN__AB__M21__7%3A10%3A17.osexp","C:\Users\ERP Testing Room\Desktop\Joanna\morph21","no","mono","no","18","no","white","no","yes","1080","legacy","73","73","C:/Users/ERP Testing Room/Desktop/Joanna/morph21/subject-152.csv","xpyriment","Kafkaesque Koffka","3.2.5","0","None","NA","NA","NA","NA","space","None","994","NA","NA","NA","NA","327167","994","2","legacy","1024","2","48000","-16","AB_m21","152","even","CW_S","AMAZEMENT","1998","602238","600530","594404","329182","NA","NA","NA","NA","599136","601027","NA","600030","NA","600020","602232","2015","602588","NA","NA","601238","1998","1998","601630","600020","1998","601238","602588","morph21_Oliver/Morris","59","54184","74","yes","1280","39"
"400","80","80","729.333333333","729.333333333","black","no","xpyriment","legacy","legacy","0","201","NA","uniform","69298","1000","0.0144304308927","undefined","undefined","1","0","74","74","74","0","74","74","74","NA","74","74","0","74","NA","74","74","0","74","NA","74","NA","74","0","0","74","74","0","74","74","75","/","11/13/18 16:15:47","The main experiment item","yes","FIN__AB__M21__7%3A10%3A17.osexp","C:\Users\ERP Testing Room\Desktop\Joanna\morph21","no","mono","no","18","no","white","no","yes","1080","legacy","74","74","C:/Users/ERP Testing Room/Desktop/Joanna/morph21/subject-152.csv","xpyriment","Kafkaesque Koffka","3.2.5","0","space","space","NA","NA","NA","space","/","26095","26095","NA","NA","NA","327167","516","2","legacy","1024","2","48000","-16","AB_m21","152","even","CW_S","RAIDER","1998","607039","603880","605530","329182","607447","NA","NA","NA","605527","604377","NA","603380","NA","603373","605527","2015","633543","NA","NA","604538","1998","1998","604930","603373","1998","604538","607439","morph21_Oliver/Morris","60","54700","75","yes","1280","12"
"300","80.2631578947","80.2631578947","729.5","729.5","black","no","xpyriment","legacy","legacy","0","202","NA","uniform","54968","1000","0.0181924028526","1","undefined","1","0","75","75","75","0","75","75","75","NA","75","75","0","75","NA","75","75","0","75","NA","75","NA","75","0","0","75","75","0","75","75","76","/","11/13/18 16:15:47","The main experiment item","yes","FIN__AB__M21__7%3A10%3A17.osexp","C:\Users\ERP Testing Room\Desktop\Joanna\morph21","no","mono","no","18","no","white","no","yes","1080","legacy","75","75","C:/Users/ERP Testing Room/Desktop/Joanna/morph21/subject-152.csv","xpyriment","Kafkaesque Koffka","3.2.5","0","/","space","NA","NA","NA","space","/","742","26095","NA","NA","NA","327167","742","2","legacy","1024","2","48000","-16","AB_m21","152","even","CW_L","DOUBTFUL","1998","636383","634717","605530","329182","607447","NA","NA","NA","636381","635214","NA","634217","NA","634210","636381","2015","636684","NA","NA","635392","1998","1998","635783","634210","1998","635392","636684","morph21_Oliver/Morris","61","55442","76","yes","1280","21"
"400","80.5194805195","80.5194805195","727.649350649","727.649350649","black","no","xpyriment","legacy","legacy","0","202","NA","uniform","67847","1000","0.0147390452047","1","undefined","1","0","76","76","76","0","76","76","76","NA","76","76","0","76","NA","76","76","0","76","NA","76","NA","76","0","0","76","76","0","76","76","77","/","11/13/18 16:15:47","The main experiment item","yes","FIN__AB__M21__7%3A10%3A17.osexp","C:\Users\ERP Testing Room\Desktop\Joanna\morph21","no","mono","no","18","no","white","no","yes","1080","legacy","76","76","C:/Users/ERP Testing Room/Desktop/Joanna/morph21/subject-152.csv","xpyriment","Kafkaesque Koffka","3.2.5","0","/","space","NA","NA","NA","space","/","587","26095","NA","NA","NA","327167","587","2","legacy","1024","2","48000","-16","AB_m21","152","even","CW_L","WRONGLY","1998","639675","638017","605530","329182","607447","NA","NA","NA","639671","638514","NA","637517","NA","637507","639671","2015","640075","NA","NA","638675","1998","1998","639075","637507","1998","638675","640075","morph21_Oliver/Morris","62","56029","77","yes","1280","37"
"250","80.7692307692","80.7692307692","725.692307692","725.692307692","black","no","xpyriment","legacy","legacy","0","201","NA","uniform","75322","1000","0.0132763336077","1","undefined","1","0","77","77","77","0","77","77","77","NA","77","77","0","77","NA","77","77","0","77","NA","77","NA","77","0","0","77","77","0","77","77","78","/","11/13/18 16:15:47","The main experiment item","yes","FIN__AB__M21__7%3A10%3A17.osexp","C:\Users\ERP Testing Room\Desktop\Joanna\morph21","no","mono","no","18","no","white","no","yes","1080","legacy","77","77","C:/Users/ERP Testing Room/Desktop/Joanna/morph21/subject-152.csv","xpyriment","Kafkaesque Koffka","3.2.5","0","/","space","NA","NA","NA","space","/","575","26095","NA","NA","NA","327167","575","2","legacy","1024","2","48000","-16","AB_m21","152","even","CW_S","HARMLESS","1998","644476","641300","642967","329182","607447","NA","NA","NA","642961","641798","NA","640800","NA","640789","642961","2015","644726","NA","NA","641967","1998","1998","642359","640789","1998","641967","644726","morph21_Oliver/Morris","63","56604","78","yes","1280","29"
"400","81.0126582278","81.0126582278","724.126582278","724.126582278","black","no","xpyriment","legacy","legacy","0","207","NA","uniform","68023","1000","0.0147009099863","1","undefined","1","0","78","78","78","0","78","78","78","NA","78","78","0","78","NA","78","78","0","78","NA","78","NA","78","0","0","78","78","0","78","78","79","/","11/13/18 16:15:47","The main experiment item","yes","FIN__AB__M21__7%3A10%3A17.osexp","C:\Users\ERP Testing Room\Desktop\Joanna\morph21","no","mono","no","18","no","white","no","yes","1080","legacy","78","78","C:/Users/ERP Testing Room/Desktop/Joanna/morph21/subject-152.csv","xpyriment","Kafkaesque Koffka","3.2.5","0","/","space","NA","NA","NA","space","/","602","26095","NA","NA","NA","327167","602","2","legacy","1024","2","48000","-16","AB_m21","152","even","FILL_W","STEEP","1998","647676","645992","642967","329182","607447","NA","NA","NA","647667","646489","NA","645492","NA","645484","647667","2015","648076","NA","NA","646676","1998","1998","647067","645484","1998","646676","648076","morph21_Oliver/Morris","64","57206","79","yes","1280","16"
"400","81.25","81.25","721.4125","721.4125","black","no","xpyriment","legacy","legacy","0","202","NA","uniform","72826","1000","0.0137313596792","1","undefined","1","0","79","79","79","0","79","79","79","NA","79","79","0","79","NA","79","79","0","79","NA","79","NA","79","0","0","79","79","0","79","79","80","/","11/13/18 16:15:47","The main experiment item","yes","FIN__AB__M21__7%3A10%3A17.osexp","C:\Users\ERP Testing Room\Desktop\Joanna\morph21","no","mono","no","18","no","white","no","yes","1080","legacy","79","79","C:/Users/ERP Testing Room/Desktop/Joanna/morph21/subject-152.csv","xpyriment","Kafkaesque Koffka","3.2.5","0","/","space","NA","NA","NA","space","/","507","26095","NA","NA","NA","327167","507","2","legacy","1024","2","48000","-16","AB_m21","152","even","CW_L","SPELLER","1998","651060","649334","642967","329182","607447","NA","NA","NA","651052","649831","NA","648834","NA","648827","651052","2015","651460","NA","NA","650059","1998","1998","650452","648827","1998","650059","651460","morph21_Oliver/Morris","65","57713","80","yes","1280","3"
"300","81.4814814815","81.4814814815","719.283950617","719.283950617","black","no","xpyriment","legacy","legacy","0","208","NA","uniform","69764","1000","0.0143340404793","1","undefined","1","0","80","80","80","0","80","80","80","NA","80","80","0","80","NA","80","80","0","80","NA","80","NA","80","0","0","80","80","0","80","80","81","z","11/13/18 16:15:47","The main experiment item","yes","FIN__AB__M21__7%3A10%3A17.osexp","C:\Users\ERP Testing Room\Desktop\Joanna\morph21","no","mono","no","18","no","white","no","yes","1080","legacy","80","80","C:/Users/ERP Testing Room/Desktop/Joanna/morph21/subject-152.csv","xpyriment","Kafkaesque Koffka","3.2.5","0","z","space","NA","NA","NA","space","z","549","26095","NA","NA","NA","327167","549","2","legacy","1024","2","48000","-16","AB_m21","152","even","FILL_NW","VOOFS","1998","655877","652652","654369","329182","607447","NA","NA","NA","654359","653149","NA","652152","NA","652147","654359","2015","656177","NA","NA","653369","1998","1998","653760","652147","1998","653369","656177","morph21_Oliver/Morris","66","58262","81","yes","1280","48"
"400","81.7073170732","81.7073170732","720.536585366","720.536585366","black","no","xpyriment","legacy","legacy","0","208","NA","uniform","62339","1000","0.0160413224466","1","undefined","1","0","81","81","81","0","81","81","81","NA","81","81","0","81","NA","81","81","0","81","NA","81","NA","81","0","0","81","81","0","81","81","82","z","11/13/18 16:15:47","The main experiment item","yes","FIN__AB__M21__7%3A10%3A17.osexp","C:\Users\ERP Testing Room\Desktop\Joanna\morph21","no","mono","no","18","no","white","no","yes","1080","legacy","81","81","C:/Users/ERP Testing Room/Desktop/Joanna/morph21/subject-152.csv","xpyriment","Kafkaesque Koffka","3.2.5","0","z","space","NA","NA","NA","space","z","822","26095","NA","NA","NA","327167","822","2","legacy","1024","2","48000","-16","AB_m21","152","even","FILL_NW","FROES","1998","658944","657269","654369","329182","607447","NA","NA","NA","658936","657766","NA","656769","NA","656758","658936","2015","659344","NA","NA","657944","1998","1998","658335","656758","1998","657944","659344","morph21_Oliver/Morris","67","59084","82","yes","1280","21"
"200","81.9277108434","81.9277108434","722.325301205","722.325301205","black","no","xpyriment","legacy","legacy","0","204","NA","uniform","63145","1000","0.0158365666324","1","undefined","1","0","82","82","82","0","82","82","82","NA","82","82","0","82","NA","82","82","0","82","NA","82","NA","82","0","0","82","82","0","82","82","83","z","11/13/18 16:15:47","The main experiment item","yes","FIN__AB__M21__7%3A10%3A17.osexp","C:\Users\ERP Testing Room\Desktop\Joanna\morph21","no","mono","no","18","no","white","no","yes","1080","legacy","82","82","C:/Users/ERP Testing Room/Desktop/Joanna/morph21/subject-152.csv","xpyriment","Kafkaesque Koffka","3.2.5","0","z","space","NA","NA","NA","space","z","869","26095","NA","NA","NA","327167","869","2","legacy","1024","2","48000","-16","AB_m21","152","even","NW_L_COMP","PITCHORY","1998","662361","660644","654369","329182","607447","NA","NA","NA","662354","661141","NA","660144","NA","660139","662354","2015","662561","NA","NA","661361","1998","1998","661752","660139","1998","661361","662561","morph21_Oliver/Morris","68","59953","83","yes","1280","25"
"350","82.1428571429","82.1428571429","722.285714286","722.285714286","black","no","xpyriment","legacy","legacy","0","202","NA","uniform","63360","1000","0.0157828282828","1","undefined","1","0","83","83","83","0","83","83","83","NA","83","83","0","83","NA","83","83","0","83","NA","83","NA","83","0","0","83","83","0","83","83","84","/","11/13/18 16:15:47","The main experiment item","yes","FIN__AB__M21__7%3A10%3A17.osexp","C:\Users\ERP Testing Room\Desktop\Joanna\morph21","no","mono","no","18","no","white","no","yes","1080","legacy","83","83","C:/Users/ERP Testing Room/Desktop/Joanna/morph21/subject-152.csv","xpyriment","Kafkaesque Koffka","3.2.5","0","/","space","NA","NA","NA","space","/","719","26095","NA","NA","NA","327167","719","2","legacy","1024","2","48000","-16","AB_m21","152","even","CW_L","EDITOR","1998","667019","663811","665511","329182","607447","NA","NA","NA","665506","664308","NA","663311","NA","663302","665506","2015","667369","NA","NA","664511","1998","1998","664911","663302","1998","664511","667369","morph21_Oliver/Morris","69","60672","84","yes","1280","45"
"400","82.3529411765","82.3529411765","723.729411765","723.729411765","black","no","xpyriment","legacy","legacy","0","201","NA","uniform","58291","1000","0.0171553069942","1","undefined","1","0","84","84","84","0","84","84","84","NA","84","84","0","84","NA","84","84","0","84","NA","84","NA","84","0","0","84","84","0","84","84","85","/","11/13/18 16:15:47","The main experiment item","yes","FIN__AB__M21__7%3A10%3A17.osexp","C:\Users\ERP Testing Room\Desktop\Joanna\morph21","no","mono","no","18","no","white","no","yes","1080","legacy","84","84","C:/Users/ERP Testing Room/Desktop/Joanna/morph21/subject-152.csv","xpyriment","Kafkaesque Koffka","3.2.5","0","/","space","NA","NA","NA","space","/","845","26095","NA","NA","NA","327167","845","2","legacy","1024","2","48000","-16","AB_m21","152","even","CW_S","WIDOWED","1998","670329","668645","665511","329182","607447","NA","NA","NA","670326","669142","NA","668145","NA","668132","670326","2015","670729","NA","NA","669337","1998","1998","669729","668132","1998","669337","670729","morph21_Oliver/Morris","70","61517","85","yes","1280","7"
"200","82.5581395349","82.5581395349","723.476744186","723.476744186","black","no","xpyriment","legacy","legacy","0","208","NA","uniform","60896","1000","0.0164214398318","1","undefined","1","0","85","85","85","0","85","85","85","NA","85","85","0","85","NA","85","85","0","85","NA","85","NA","85","0","0","85","85","0","85","85","86","z","11/13/18 16:15:47","The main experiment item","yes","FIN__AB__M21__7%3A10%3A17.osexp","C:\Users\ERP Testing Room\Desktop\Joanna\morph21","no","mono","no","18","no","white","no","yes","1080","legacy","85","85","C:/Users/ERP Testing Room/Desktop/Joanna/morph21/subject-152.csv","xpyriment","Kafkaesque Koffka","3.2.5","0","z","space","NA","NA","NA","space","z","702","26095","NA","NA","NA","327167","702","2","legacy","1024","2","48000","-16","AB_m21","152","even","FILL_NW","VUNKS","1998","673512","671829","665511","329182","607447","NA","NA","NA","673508","672326","NA","671329","NA","671324","673508","2015","673712","NA","NA","672512","1998","1998","672912","671324","1998","672512","673712","morph21_Oliver/Morris","71","62219","86","yes","1280","49"
"350","82.7586206897","82.7586206897","722.091954023","722.091954023","black","no","xpyriment","legacy","legacy","0","207","NA","uniform","64445","1000","0.0155171076111","1","undefined","1","0","86","86","86","0","86","86","86","NA","86","86","0","86","NA","86","86","0","86","NA","86","NA","86","0","0","86","86","0","86","86","87","/","11/13/18 16:15:47","The main experiment item","yes","FIN__AB__M21__7%3A10%3A17.osexp","C:\Users\ERP Testing Room\Desktop\Joanna\morph21","no","mono","no","18","no","white","no","yes","1080","legacy","86","86","C:/Users/ERP Testing Room/Desktop/Joanna/morph21/subject-152.csv","xpyriment","Kafkaesque Koffka","3.2.5","0","/","space","NA","NA","NA","space","/","603","26095","NA","NA","NA","327167","603","2","legacy","1024","2","48000","-16","AB_m21","152","even","FILL_W","GLOOM","1998","678296","675054","676787","329182","607447","NA","NA","NA","676778","675551","NA","674554","NA","674542","676778","2015","678646","NA","NA","675787","1998","1998","676179","674542","1998","675787","678646","morph21_Oliver/Morris","72","62822","87","yes","1280","14"
"400","82.9545454545","82.9545454545","724.943181818","724.943181818","black","no","xpyriment","legacy","legacy","0","205","NA","uniform","53088","1000","0.0188366485835","1","undefined","1","0","87","87","87","0","87","87","87","NA","87","87","0","87","NA","87","87","0","87","NA","87","NA","87","0","0","87","87","0","87","87","88","z","11/13/18 16:15:47","The main experiment item","yes","FIN__AB__M21__7%3A10%3A17.osexp","C:\Users\ERP Testing Room\Desktop\Joanna\morph21","no","mono","no","18","no","white","no","yes","1080","legacy","87","87","C:/Users/ERP Testing Room/Desktop/Joanna/morph21/subject-152.csv","xpyriment","Kafkaesque Koffka","3.2.5","0","z","space","NA","NA","NA","space","z","973","26095","NA","NA","NA","327167","973","2","legacy","1024","2","48000","-16","AB_m21","152","even","NW_S_SIMP","RAMPIME","1998","681529","679846","676787","329182","607447","NA","NA","NA","681519","680343","NA","679346","NA","679340","681519","2015","681929","NA","NA","680529","1998","1998","680921","679340","1998","680529","681929","morph21_Oliver/Morris","73","63795","88","yes","1280","6"
"400","83.1460674157","83.1460674157","724.056179775","724.056179775","black","no","xpyriment","legacy","legacy","0","207","NA","uniform","63251","1000","0.0158100267189","1","undefined","1","0","88","88","88","0","88","88","88","NA","88","88","0","88","NA","88","88","0","88","NA","88","NA","88","0","0","88","88","0","88","88","89","/","11/13/18 16:15:47","The main experiment item","yes","FIN__AB__M21__7%3A10%3A17.osexp","C:\Users\ERP Testing Room\Desktop\Joanna\morph21","no","mono","no","18","no","white","no","yes","1080","legacy","88","88","C:/Users/ERP Testing Room/Desktop/Joanna/morph21/subject-152.csv","xpyriment","Kafkaesque Koffka","3.2.5","0","/","space","NA","NA","NA","space","/","646","26095","NA","NA","NA","327167","646","2","legacy","1024","2","48000","-16","AB_m21","152","even","FILL_W","CRUNCH","1998","684904","683229","676787","329182","607447","NA","NA","NA","684896","683726","NA","682729","NA","682721","684896","2015","685304","NA","NA","683904","1998","1998","684296","682721","1998","683904","685304","morph21_Oliver/Morris","74","64441","89","yes","1280","20"
"400","83.3333333333","83.3333333333","724.488888889","724.488888889","black","no","xpyriment","legacy","legacy","0","208","NA","uniform","65138","1000","0.0153520218613","1","undefined","1","0","89","89","89","0","89","89","89","NA","89","89","0","89","NA","89","89","0","89","NA","89","NA","89","0","0","89","89","0","89","89","90","z","11/13/18 16:15:47","The main experiment item","yes","FIN__AB__M21__7%3A10%3A17.osexp","C:\Users\ERP Testing Room\Desktop\Joanna\morph21","no","mono","no","18","no","white","no","yes","1080","legacy","89","89","C:/Users/ERP Testing Room/Desktop/Joanna/morph21/subject-152.csv","xpyriment","Kafkaesque Koffka","3.2.5","0","z","space","NA","NA","NA","space","z","763","26095","NA","NA","NA","327167","763","2","legacy","1024","2","48000","-16","AB_m21","152","even","FILL_NW","DROES","1998","689864","686655","688355","329182","607447","NA","NA","NA","688349","687152","NA","686155","NA","686144","688349","2015","690264","NA","NA","687355","1998","1998","687747","686144","1998","687355","690264","morph21_Oliver/Morris","75","65204","90","yes","1280","17"
