"ITI","acc","accuracy","average_response_time","avg_rt","background","bidi","canvas_backend","clock_backend","color_backend","compensation","cond_trig","condtrigtime","coordinates","coroutines_cycles","coroutines_duration","coroutines_mean_cycle_duration","correct","correct_instructions_1","correct_new_keyboard_response_1","count_AB_m21","count_ITI","count_blank_screen","count_blink_screen","count_block1","count_break1","count_break2","count_break3_1","count_canvas","count_correct_trigger","count_def_chain","count_end_screen","count_fixation_1","count_getting_started","count_inc_counter","count_incorrect_trigger","count_instructions_1","count_logger","count_logscript","count_new_coroutines","count_new_inline_script","count_new_keyboard_response_1","count_reset_counter_prep","count_reset_counter_run","count_responsescreen","count_sequence","count_start_trigger","count_target_present","count_word_trigger","counter","cresp","datetime","description","disable_garbage_collection","experiment_file","experiment_path","font_bold","font_family","font_italic","font_size","font_underline","foreground","form_clicks","fullscreen","height","keyboard_backend","live_row","live_row_block1","logfile","mouse_backend","opensesame_codename","opensesame_version","repeat_cycle","response","response_break1","response_break2","response_break3_1","response_end_screen","response_instructions_1","response_new_keyboard_response_1","response_time","response_time_break1","response_time_break2","response_time_break3_1","response_time_end_screen","response_time_instructions_1","response_time_new_keyboard_response_1","round_decimals","sampler_backend","sound_buf_size","sound_channels","sound_freq","sound_sample_size","start","subject_nr","subject_parity","targ_type","target","time_AB_m21","time_ITI","time_blank_screen","time_blink_screen","time_block1","time_break1","time_break2","time_break3_1","time_canvas","time_correct_trigger","time_def_chain","time_end_screen","time_fixation_1","time_getting_started","time_inc_counter","time_incorrect_trigger","time_instructions_1","time_logger","time_logscript","time_new_inline_script","time_new_keyboard_response_1","time_reset_counter_prep","time_reset_counter_run","time_responsescreen","time_sequence","time_start_trigger","time_target_present","time_word_trigger","title","total_correct","total_response_time","total_responses","uniform_coordinates","width","word_trig"
"300","0","0","991","991","black","no","xpyriment","legacy","legacy","0","208","NA","uniform","62431","1000","0.0160176835226","0","undefined","0","0","0","0","0","0","0","0","0","NA","0","0","0","0","NA","0","0","0","0","NA","0","NA","0","0","0","0","0","0","0","0","1","z","10/09/18 16:23:53","The main experiment item","yes","FIN__AB__M21__7%3A10%3A17.osexp","C:\Users\ERP Testing Room\Desktop\Joanna\morph21","no","mono","no","18","no","white","no","yes","1080","legacy","0","0","C:/Users/ERP Testing Room/Desktop/Joanna/morph21/subject-139.csv","xpyriment","Jazzy James","3.1.4","0","None","NA","NA","NA","NA","space","None","991","NA","NA","NA","NA","155016","991","2","legacy","1024","2","48000","-16","AB_m21","139","odd","FILL_NW","SCURE","2249","160129","158529","NA","157275","NA","NA","NA","NA","NA","159026","NA","158024","NA","157961","160120","2258","160429","NA","NA","159129","2249","2249","159521","157961","2249","159129","160429","morph21_Oliver/Morris","0","991","1","yes","1280","41"
"250","50","50","780","780","black","no","xpyriment","legacy","legacy","0","201","NA","uniform","74625","1000","0.0134003350084","1","undefined","1","0","1","1","1","0","1","1","1","NA","1","1","0","1","NA","1","1","0","1","NA","1","NA","1","0","0","1","1","0","1","1","2","/","10/09/18 16:23:53","The main experiment item","yes","FIN__AB__M21__7%3A10%3A17.osexp","C:\Users\ERP Testing Room\Desktop\Joanna\morph21","no","mono","no","18","no","white","no","yes","1080","legacy","1","1","C:/Users/ERP Testing Room/Desktop/Joanna/morph21/subject-139.csv","xpyriment","Jazzy James","3.1.4","0","/","NA","NA","NA","NA","space","/","569","NA","NA","NA","NA","155016","569","2","legacy","1024","2","48000","-16","AB_m21","139","odd","CW_S","MOSSY","2249","163330","161738","NA","157275","NA","NA","NA","NA","163323","162236","NA","161238","NA","161231","163323","2258","163580","NA","NA","162330","2249","2249","162722","161231","2249","162330","163580","morph21_Oliver/Morris","1","1560","2","yes","1280","47"
"400","66.6666666667","66.6666666667","725.666666667","725.666666667","black","no","xpyriment","legacy","legacy","0","207","NA","uniform","74258","1000","0.0134665625252","1","undefined","1","0","2","2","2","0","2","2","2","NA","2","2","0","2","NA","2","2","0","2","NA","2","NA","2","0","0","2","2","0","2","2","3","/","10/09/18 16:23:53","The main experiment item","yes","FIN__AB__M21__7%3A10%3A17.osexp","C:\Users\ERP Testing Room\Desktop\Joanna\morph21","no","mono","no","18","no","white","no","yes","1080","legacy","2","2","C:/Users/ERP Testing Room/Desktop/Joanna/morph21/subject-139.csv","xpyriment","Jazzy James","3.1.4","0","/","NA","NA","NA","NA","space","/","617","NA","NA","NA","NA","155016","617","2","legacy","1024","2","48000","-16","AB_m21","139","odd","FILL_W","CHIP","2249","168039","164922","166530","157275","NA","NA","NA","NA","166521","165419","NA","164422","NA","164411","166521","2258","168439","NA","NA","165530","2249","2249","165922","164411","2249","165530","168439","morph21_Oliver/Morris","2","2177","3","yes","1280","11"
"200","75","75","681.25","681.25","black","no","xpyriment","legacy","legacy","0","202","NA","uniform","75655","1000","0.0132178970326","1","undefined","1","0","3","3","3","0","3","3","3","NA","3","3","0","3","NA","3","3","0","3","NA","3","NA","3","0","0","3","3","0","3","3","4","/","10/09/18 16:23:53","The main experiment item","yes","FIN__AB__M21__7%3A10%3A17.osexp","C:\Users\ERP Testing Room\Desktop\Joanna\morph21","no","mono","no","18","no","white","no","yes","1080","legacy","3","3","C:/Users/ERP Testing Room/Desktop/Joanna/morph21/subject-139.csv","xpyriment","Jazzy James","3.1.4","0","/","NA","NA","NA","NA","space","/","548","NA","NA","NA","NA","155016","548","2","legacy","1024","2","48000","-16","AB_m21","139","odd","CW_L","SHAMEFUL","2249","171222","169630","166530","157275","NA","NA","NA","NA","171214","170128","NA","169130","NA","169123","171214","2258","171422","NA","NA","170222","2249","2249","170614","169123","2249","170222","171422","morph21_Oliver/Morris","3","2725","4","yes","1280","19"
"250","80","80","691.4","691.4","black","no","xpyriment","legacy","legacy","0","204","NA","uniform","65490","1000","0.0152695067949","1","undefined","1","0","4","4","4","0","4","4","4","NA","4","4","0","4","NA","4","4","0","4","NA","4","NA","4","0","0","4","4","0","4","4","5","z","10/09/18 16:23:53","The main experiment item","yes","FIN__AB__M21__7%3A10%3A17.osexp","C:\Users\ERP Testing Room\Desktop\Joanna\morph21","no","mono","no","18","no","white","no","yes","1080","legacy","4","4","C:/Users/ERP Testing Room/Desktop/Joanna/morph21/subject-139.csv","xpyriment","Jazzy James","3.1.4","0","z","NA","NA","NA","NA","space","z","732","NA","NA","NA","NA","155016","732","2","legacy","1024","2","48000","-16","AB_m21","139","odd","NW_L_COMP","STIRANCE","2249","174397","172789","166530","157275","NA","NA","NA","NA","174395","173286","NA","172289","NA","172285","174395","2258","174647","NA","NA","173406","2249","2249","173797","172285","2249","173406","174647","morph21_Oliver/Morris","4","3457","5","yes","1280","1"
"350","83.3333333333","83.3333333333","653.666666667","653.666666667","black","no","xpyriment","legacy","legacy","0","201","NA","uniform","75634","1000","0.0132215670201","1","undefined","1","0","5","5","5","0","5","5","5","NA","5","5","0","5","NA","5","5","0","5","NA","5","NA","5","0","0","5","5","0","5","5","6","/","10/09/18 16:23:53","The main experiment item","yes","FIN__AB__M21__7%3A10%3A17.osexp","C:\Users\ERP Testing Room\Desktop\Joanna\morph21","no","mono","no","18","no","white","no","yes","1080","legacy","5","5","C:/Users/ERP Testing Room/Desktop/Joanna/morph21/subject-139.csv","xpyriment","Jazzy James","3.1.4","0","/","NA","NA","NA","NA","space","/","465","NA","NA","NA","NA","155016","465","2","legacy","1024","2","48000","-16","AB_m21","139","odd","CW_S","DULLNESS","2249","179007","175897","177497","157275","NA","NA","NA","NA","177494","176394","NA","175397","NA","175387","177494","2258","179357","NA","NA","176497","2249","2249","176897","175387","2249","176497","179357","morph21_Oliver/Morris","5","3922","6","yes","1280","43"
"200","85.7142857143","85.7142857143","631.714285714","631.714285714","black","no","xpyriment","legacy","legacy","0","207","NA","uniform","74429","1000","0.0134356232114","1","undefined","1","0","6","6","6","0","6","6","6","NA","6","6","0","6","NA","6","6","0","6","NA","6","NA","6","0","0","6","6","0","6","6","7","/","10/09/18 16:23:53","The main experiment item","yes","FIN__AB__M21__7%3A10%3A17.osexp","C:\Users\ERP Testing Room\Desktop\Joanna\morph21","no","mono","no","18","no","white","no","yes","1080","legacy","6","6","C:/Users/ERP Testing Room/Desktop/Joanna/morph21/subject-139.csv","xpyriment","Jazzy James","3.1.4","0","/","NA","NA","NA","NA","space","/","500","NA","NA","NA","NA","155016","500","2","legacy","1024","2","48000","-16","AB_m21","139","odd","FILL_W","STALK","2249","182215","180582","177497","157275","NA","NA","NA","NA","182205","181079","NA","180082","NA","180074","182205","2258","182415","NA","NA","181215","2249","2249","181607","180074","2249","181215","182415","morph21_Oliver/Morris","6","4422","7","yes","1280","27"
"300","87.5","87.5","647","647","black","no","xpyriment","legacy","legacy","0","208","NA","uniform","65999","1000","0.0151517447234","1","undefined","1","0","7","7","7","0","7","7","7","NA","7","7","0","7","NA","7","7","0","7","NA","7","NA","7","0","0","7","7","0","7","7","8","z","10/09/18 16:23:53","The main experiment item","yes","FIN__AB__M21__7%3A10%3A17.osexp","C:\Users\ERP Testing Room\Desktop\Joanna\morph21","no","mono","no","18","no","white","no","yes","1080","legacy","7","7","C:/Users/ERP Testing Room/Desktop/Joanna/morph21/subject-139.csv","xpyriment","Jazzy James","3.1.4","0","z","NA","NA","NA","NA","space","z","754","NA","NA","NA","NA","155016","754","2","legacy","1024","2","48000","-16","AB_m21","139","odd","FILL_NW","TREMP","2249","185265","183657","177497","157275","NA","NA","NA","NA","185257","184154","NA","183157","NA","183146","185257","2258","185565","NA","NA","184265","2249","2249","184657","183146","2249","184265","185565","morph21_Oliver/Morris","7","5176","8","yes","1280","20"
"300","88.8888888889","88.8888888889","677.444444444","677.444444444","black","no","xpyriment","legacy","legacy","0","206","NA","uniform","65623","1000","0.0152385596513","1","undefined","1","0","8","8","8","0","8","8","8","NA","8","8","0","8","NA","8","8","0","8","NA","8","NA","8","0","0","8","8","0","8","8","9","z","10/09/18 16:23:53","The main experiment item","yes","FIN__AB__M21__7%3A10%3A17.osexp","C:\Users\ERP Testing Room\Desktop\Joanna\morph21","no","mono","no","18","no","white","no","yes","1080","legacy","8","8","C:/Users/ERP Testing Room/Desktop/Joanna/morph21/subject-139.csv","xpyriment","Jazzy James","3.1.4","0","z","NA","NA","NA","NA","space","z","921","NA","NA","NA","NA","155016","921","2","legacy","1024","2","48000","-16","AB_m21","139","odd","NW_L_SIMP","PRAYANGE","2249","189949","186857","188441","157275","NA","NA","NA","NA","188437","187354","NA","186357","NA","186346","188437","2258","190249","NA","NA","187441","2249","2249","187841","186346","2249","187441","190249","morph21_Oliver/Morris","8","6097","9","yes","1280","1"
"350","90","90","686.5","686.5","black","no","xpyriment","legacy","legacy","0","203","NA","uniform","64979","1000","0.0153895874052","1","undefined","1","0","9","9","9","0","9","9","9","NA","9","9","0","9","NA","9","9","0","9","NA","9","NA","9","0","0","9","9","0","9","9","10","z","10/09/18 16:23:53","The main experiment item","yes","FIN__AB__M21__7%3A10%3A17.osexp","C:\Users\ERP Testing Room\Desktop\Joanna\morph21","no","mono","no","18","no","white","no","yes","1080","legacy","9","9","C:/Users/ERP Testing Room/Desktop/Joanna/morph21/subject-139.csv","xpyriment","Jazzy James","3.1.4","0","z","NA","NA","NA","NA","space","z","768","NA","NA","NA","NA","155016","768","2","legacy","1024","2","48000","-16","AB_m21","139","odd","NW_S_COMP","FIENDISM","2249","193074","191491","188441","157275","NA","NA","NA","NA","193069","191988","NA","190991","NA","190984","193069","2258","193424","NA","NA","192074","2249","2249","192474","190984","2249","192074","193424","morph21_Oliver/Morris","9","6865","10","yes","1280","24"
"350","90.9090909091","90.9090909091","696.090909091","696.090909091","black","no","xpyriment","legacy","legacy","0","202","NA","uniform","64610","1000","0.0154774802662","1","undefined","1","0","10","10","10","0","10","10","10","NA","10","10","0","10","NA","10","10","0","10","NA","10","NA","10","0","0","10","10","0","10","10","11","/","10/09/18 16:23:53","The main experiment item","yes","FIN__AB__M21__7%3A10%3A17.osexp","C:\Users\ERP Testing Room\Desktop\Joanna\morph21","no","mono","no","18","no","white","no","yes","1080","legacy","10","10","C:/Users/ERP Testing Room/Desktop/Joanna/morph21/subject-139.csv","xpyriment","Jazzy James","3.1.4","0","/","NA","NA","NA","NA","space","/","792","NA","NA","NA","NA","155016","792","2","legacy","1024","2","48000","-16","AB_m21","139","odd","CW_L","SWIMMER","2249","196284","194699","188441","157275","NA","NA","NA","NA","196276","195196","NA","194199","NA","194193","196276","2258","196634","NA","NA","195283","2249","2249","195674","194193","2249","195283","196634","morph21_Oliver/Morris","10","7657","11","yes","1280","5"
"350","91.6666666667","91.6666666667","698.5","698.5","black","no","xpyriment","legacy","legacy","0","201","NA","uniform","64962","1000","0.0153936147286","1","undefined","1","0","11","11","11","0","11","11","11","NA","11","11","0","11","NA","11","11","0","11","NA","11","NA","11","0","0","11","11","0","11","11","12","/","10/09/18 16:23:53","The main experiment item","yes","FIN__AB__M21__7%3A10%3A17.osexp","C:\Users\ERP Testing Room\Desktop\Joanna\morph21","no","mono","no","18","no","white","no","yes","1080","legacy","11","11","C:/Users/ERP Testing Room/Desktop/Joanna/morph21/subject-139.csv","xpyriment","Jazzy James","3.1.4","0","/","NA","NA","NA","NA","space","/","725","NA","NA","NA","NA","155016","725","2","legacy","1024","2","48000","-16","AB_m21","139","odd","CW_S","DENSELY","2249","201042","197934","199534","157275","NA","NA","NA","NA","199526","198431","NA","197434","NA","197427","199526","2258","201392","NA","NA","198534","2249","2249","198925","197427","2249","198534","201392","morph21_Oliver/Morris","11","8382","12","yes","1280","32"
"200","92.3076923077","92.3076923077","691.923076923","691.923076923","black","no","xpyriment","legacy","legacy","0","207","NA","uniform","70300","1000","0.0142247510669","1","undefined","1","0","12","12","12","0","12","12","12","NA","12","12","0","12","NA","12","12","0","12","NA","12","NA","12","0","0","12","12","0","12","12","13","/","10/09/18 16:23:53","The main experiment item","yes","FIN__AB__M21__7%3A10%3A17.osexp","C:\Users\ERP Testing Room\Desktop\Joanna\morph21","no","mono","no","18","no","white","no","yes","1080","legacy","12","12","C:/Users/ERP Testing Room/Desktop/Joanna/morph21/subject-139.csv","xpyriment","Jazzy James","3.1.4","0","/","NA","NA","NA","NA","space","/","613","NA","NA","NA","NA","155016","613","2","legacy","1024","2","48000","-16","AB_m21","139","odd","FILL_W","BRASS","2249","204301","202701","199534","157275","NA","NA","NA","NA","204298","203198","NA","202201","NA","202189","204298","2258","204501","NA","NA","203309","2249","2249","203701","202189","2249","203309","204501","morph21_Oliver/Morris","12","8995","13","yes","1280","10"
"350","92.8571428571","92.8571428571","687.071428571","687.071428571","black","no","xpyriment","legacy","legacy","0","206","NA","uniform","75863","1000","0.0131816564069","1","undefined","1","0","13","13","13","0","13","13","13","NA","13","13","0","13","NA","13","13","0","13","NA","13","NA","13","0","0","13","13","0","13","13","14","z","10/09/18 16:23:53","The main experiment item","yes","FIN__AB__M21__7%3A10%3A17.osexp","C:\Users\ERP Testing Room\Desktop\Joanna\morph21","no","mono","no","18","no","white","no","yes","1080","legacy","13","13","C:/Users/ERP Testing Room/Desktop/Joanna/morph21/subject-139.csv","xpyriment","Jazzy James","3.1.4","0","z","NA","NA","NA","NA","space","z","624","NA","NA","NA","NA","155016","624","2","legacy","1024","2","48000","-16","AB_m21","139","odd","NW_L_SIMP","CRITICANGE","2249","207434","205842","199534","157275","NA","NA","NA","NA","207425","206340","NA","205342","NA","205332","207425","2258","207784","NA","NA","206434","2249","2249","206826","205332","2249","206434","207784","morph21_Oliver/Morris","13","9619","14","yes","1280","22"
"400","86.6666666667","86.6666666667","694.533333333","694.533333333","black","no","xpyriment","legacy","legacy","0","204","NA","uniform","66401","1000","0.0150600141564","0","undefined","0","0","14","14","14","0","14","14","14","NA","14","14","0","14","NA","14","14","0","14","NA","14","NA","14","0","0","14","14","0","14","14","15","z","10/09/18 16:23:53","The main experiment item","yes","FIN__AB__M21__7%3A10%3A17.osexp","C:\Users\ERP Testing Room\Desktop\Joanna\morph21","no","mono","no","18","no","white","no","yes","1080","legacy","14","14","C:/Users/ERP Testing Room/Desktop/Joanna/morph21/subject-139.csv","xpyriment","Jazzy James","3.1.4","0","/","NA","NA","NA","NA","space","/","799","NA","NA","NA","NA","155016","799","2","legacy","1024","2","48000","-16","AB_m21","139","odd","NW_L_COMP","RIPENCE","2249","212168","209051","210659","157275","NA","NA","NA","NA","207425","209548","NA","208551","NA","208543","210651","2258","212568","NA","NA","209659","2249","2249","210051","208543","2249","209659","212568","morph21_Oliver/Morris","13","10418","15","yes","1280","4"
"250","87.5","87.5","685.1875","685.1875","black","no","xpyriment","legacy","legacy","0","201","NA","uniform","66864","1000","0.0149557310361","1","undefined","1","0","15","15","15","0","15","15","15","NA","15","15","0","15","NA","15","15","0","15","NA","15","NA","15","0","0","15","15","0","15","15","16","/","10/09/18 16:23:53","The main experiment item","yes","FIN__AB__M21__7%3A10%3A17.osexp","C:\Users\ERP Testing Room\Desktop\Joanna\morph21","no","mono","no","18","no","white","no","yes","1080","legacy","15","15","C:/Users/ERP Testing Room/Desktop/Joanna/morph21/subject-139.csv","xpyriment","Jazzy James","3.1.4","0","/","NA","NA","NA","NA","space","/","545","NA","NA","NA","NA","155016","545","2","legacy","1024","2","48000","-16","AB_m21","139","odd","CW_S","PLANNER","2249","215410","213819","210659","157275","NA","NA","NA","NA","215403","214316","NA","213310","NA","213304","215403","2258","215660","NA","NA","214410","2249","2249","214802","213304","2249","214410","215660","morph21_Oliver/Morris","14","10963","16","yes","1280","22"
"300","88.2352941176","88.2352941176","675.470588235","675.470588235","black","no","xpyriment","legacy","legacy","0","202","NA","uniform","68329","1000","0.0146350744194","1","undefined","1","0","16","16","16","0","16","16","16","NA","16","16","0","16","NA","16","16","0","16","NA","16","NA","16","0","0","16","16","0","16","16","17","/","10/09/18 16:23:53","The main experiment item","yes","FIN__AB__M21__7%3A10%3A17.osexp","C:\Users\ERP Testing Room\Desktop\Joanna\morph21","no","mono","no","18","no","white","no","yes","1080","legacy","16","16","C:/Users/ERP Testing Room/Desktop/Joanna/morph21/subject-139.csv","xpyriment","Jazzy James","3.1.4","0","/","NA","NA","NA","NA","space","/","520","NA","NA","NA","NA","155016","520","2","legacy","1024","2","48000","-16","AB_m21","139","odd","CW_L","PROFESSOR","2249","218611","217002","210659","157275","NA","NA","NA","NA","218600","217499","NA","216502","NA","216494","218600","2258","218911","NA","NA","217611","2249","2249","218002","216494","2249","217611","218911","morph21_Oliver/Morris","15","11483","17","yes","1280","47"
"200","83.3333333333","83.3333333333","670.944444444","670.944444444","black","no","xpyriment","legacy","legacy","0","203","NA","uniform","73033","1000","0.0136924404037","0","undefined","0","0","17","17","17","0","17","17","17","NA","17","17","0","17","NA","17","17","0","17","NA","17","NA","17","0","0","17","17","0","17","17","18","z","10/09/18 16:23:53","The main experiment item","yes","FIN__AB__M21__7%3A10%3A17.osexp","C:\Users\ERP Testing Room\Desktop\Joanna\morph21","no","mono","no","18","no","white","no","yes","1080","legacy","17","17","C:/Users/ERP Testing Room/Desktop/Joanna/morph21/subject-139.csv","xpyriment","Jazzy James","3.1.4","0","/","NA","NA","NA","NA","space","/","594","NA","NA","NA","NA","155016","594","2","legacy","1024","2","48000","-16","AB_m21","139","odd","NW_S_COMP","ADOPTISH","2249","223244","220144","221736","157275","NA","NA","NA","NA","218600","220641","NA","219644","NA","219641","221730","2258","223444","NA","NA","220736","2249","2249","221127","219641","2249","220736","223444","morph21_Oliver/Morris","15","12077","18","yes","1280","19"
"350","84.2105263158","84.2105263158","658.947368421","658.947368421","black","no","xpyriment","legacy","legacy","0","207","NA","uniform","71619","1000","0.0139627752412","1","undefined","1","0","18","18","18","0","18","18","18","NA","18","18","0","18","NA","18","18","0","18","NA","18","NA","18","0","0","18","18","0","18","18","19","/","10/09/18 16:23:53","The main experiment item","yes","FIN__AB__M21__7%3A10%3A17.osexp","C:\Users\ERP Testing Room\Desktop\Joanna\morph21","no","mono","no","18","no","white","no","yes","1080","legacy","18","18","C:/Users/ERP Testing Room/Desktop/Joanna/morph21/subject-139.csv","xpyriment","Jazzy James","3.1.4","0","/","NA","NA","NA","NA","space","/","443","NA","NA","NA","NA","155016","443","2","legacy","1024","2","48000","-16","AB_m21","139","odd","FILL_W","GLOOM","2249","226303","224719","221736","157275","NA","NA","NA","NA","226295","225216","NA","224219","NA","224213","226295","2258","226653","NA","NA","225303","2249","2249","225694","224213","2249","225303","226653","morph21_Oliver/Morris","16","12520","19","yes","1280","14"
"350","85","85","650.15","650.15","black","no","xpyriment","legacy","legacy","0","202","NA","uniform","72544","1000","0.0137847375386","1","undefined","1","0","19","19","19","0","19","19","19","NA","19","19","0","19","NA","19","19","0","19","NA","19","NA","19","0","0","19","19","0","19","19","20","/","10/09/18 16:23:53","The main experiment item","yes","FIN__AB__M21__7%3A10%3A17.osexp","C:\Users\ERP Testing Room\Desktop\Joanna\morph21","no","mono","no","18","no","white","no","yes","1080","legacy","19","19","C:/Users/ERP Testing Room/Desktop/Joanna/morph21/subject-139.csv","xpyriment","Jazzy James","3.1.4","0","/","NA","NA","NA","NA","space","/","483","NA","NA","NA","NA","155016","483","2","legacy","1024","2","48000","-16","AB_m21","139","odd","CW_L","PARKING","2249","229519","227894","221736","157275","NA","NA","NA","NA","229515","228392","NA","227394","NA","227386","229515","2258","229869","NA","NA","228519","2249","2249","228919","227386","2249","228519","229869","morph21_Oliver/Morris","17","13003","20","yes","1280","25"
"300","85.7142857143","85.7142857143","655.047619048","655.047619048","black","no","xpyriment","legacy","legacy","0","205","NA","uniform","66754","1000","0.0149803757078","1","undefined","1","0","20","20","20","0","20","20","20","NA","20","20","0","20","NA","20","20","0","20","NA","20","NA","20","0","0","20","20","0","20","20","21","z","10/09/18 16:23:53","The main experiment item","yes","FIN__AB__M21__7%3A10%3A17.osexp","C:\Users\ERP Testing Room\Desktop\Joanna\morph21","no","mono","no","18","no","white","no","yes","1080","legacy","20","20","C:/Users/ERP Testing Room/Desktop/Joanna/morph21/subject-139.csv","xpyriment","Jazzy James","3.1.4","0","z","NA","NA","NA","NA","space","z","753","NA","NA","NA","NA","155016","753","2","legacy","1024","2","48000","-16","AB_m21","139","odd","NW_S_SIMP","HELMETOES","2249","234254","231154","232746","157275","NA","NA","NA","NA","232742","231651","NA","230653","NA","230644","232742","2258","234554","NA","NA","231754","2249","2249","232145","230644","2249","231754","234554","morph21_Oliver/Morris","18","13756","21","yes","1280","14"
"350","86.3636363636","86.3636363636","648.227272727","648.227272727","black","no","xpyriment","legacy","legacy","0","202","NA","uniform","74715","1000","0.0133841932678","1","undefined","1","0","21","21","21","0","21","21","21","NA","21","21","0","21","NA","21","21","0","21","NA","21","NA","21","0","0","21","21","0","21","21","22","/","10/09/18 16:23:53","The main experiment item","yes","FIN__AB__M21__7%3A10%3A17.osexp","C:\Users\ERP Testing Room\Desktop\Joanna\morph21","no","mono","no","18","no","white","no","yes","1080","legacy","21","21","C:/Users/ERP Testing Room/Desktop/Joanna/morph21/subject-139.csv","xpyriment","Jazzy James","3.1.4","0","/","NA","NA","NA","NA","space","/","505","NA","NA","NA","NA","155016","505","2","legacy","1024","2","48000","-16","AB_m21","139","odd","CW_L","GUILELESS","2249","237346","235762","232746","157275","NA","NA","NA","NA","237342","236260","NA","235262","NA","235252","237342","2258","237696","NA","NA","236346","2249","2249","236746","235252","2249","236346","237696","morph21_Oliver/Morris","19","14261","22","yes","1280","31"
"200","86.9565217391","86.9565217391","639.347826087","639.347826087","black","no","xpyriment","legacy","legacy","0","202","NA","uniform","76383","1000","0.0130919183588","1","undefined","1","0","22","22","22","0","22","22","22","NA","22","22","0","22","NA","22","22","0","22","NA","22","NA","22","0","0","22","22","0","22","22","23","/","10/09/18 16:23:53","The main experiment item","yes","FIN__AB__M21__7%3A10%3A17.osexp","C:\Users\ERP Testing Room\Desktop\Joanna\morph21","no","mono","no","18","no","white","no","yes","1080","legacy","22","22","C:/Users/ERP Testing Room/Desktop/Joanna/morph21/subject-139.csv","xpyriment","Jazzy James","3.1.4","0","/","NA","NA","NA","NA","space","/","444","NA","NA","NA","NA","155016","444","2","legacy","1024","2","48000","-16","AB_m21","139","odd","CW_L","COLLECTOR","2249","240638","239046","232746","157275","NA","NA","NA","NA","240630","239543","NA","238546","NA","238536","240630","2258","240838","NA","NA","239638","2249","2249","240029","238536","2249","239638","240838","morph21_Oliver/Morris","20","14705","23","yes","1280","46"
"350","87.5","87.5","630.583333333","630.583333333","black","no","xpyriment","legacy","legacy","0","201","NA","uniform","82784","1000","0.0120796289138","1","undefined","1","0","23","23","23","0","23","23","23","NA","23","23","0","23","NA","23","23","0","23","NA","23","NA","23","0","0","23","23","0","23","23","24","/","10/09/18 16:23:53","The main experiment item","yes","FIN__AB__M21__7%3A10%3A17.osexp","C:\Users\ERP Testing Room\Desktop\Joanna\morph21","no","mono","no","18","no","white","no","yes","1080","legacy","23","23","C:/Users/ERP Testing Room/Desktop/Joanna/morph21/subject-139.csv","xpyriment","Jazzy James","3.1.4","0","/","NA","NA","NA","NA","space","/","429","NA","NA","NA","NA","155016","429","2","legacy","1024","2","48000","-16","AB_m21","139","odd","CW_S","BOSSY","2249","245321","242204","243813","157275","NA","NA","NA","NA","243803","242701","NA","241704","NA","241700","243803","2258","245671","NA","NA","242813","2249","2249","243204","241700","2249","242813","245671","morph21_Oliver/Morris","21","15134","24","yes","1280","49"
"250","88","88","631.4","631.4","black","no","xpyriment","legacy","legacy","0","202","NA","uniform","70274","1000","0.0142300139454","1","undefined","1","0","24","24","24","0","24","24","24","NA","24","24","0","24","NA","24","24","0","24","NA","24","NA","24","0","0","24","24","0","24","24","25","/","10/09/18 16:23:53","The main experiment item","yes","FIN__AB__M21__7%3A10%3A17.osexp","C:\Users\ERP Testing Room\Desktop\Joanna\morph21","no","mono","no","18","no","white","no","yes","1080","legacy","24","24","C:/Users/ERP Testing Room/Desktop/Joanna/morph21/subject-139.csv","xpyriment","Jazzy James","3.1.4","0","/","NA","NA","NA","NA","space","/","651","NA","NA","NA","NA","155016","651","2","legacy","1024","2","48000","-16","AB_m21","139","odd","CW_L","PUSHER","2249","248456","246846","243813","157275","NA","NA","NA","NA","248448","247343","NA","246346","NA","246342","248448","2258","248706","NA","NA","247455","2249","2249","247846","246342","2249","247455","248706","morph21_Oliver/Morris","22","15785","25","yes","1280","13"
"350","84.6153846154","84.6153846154","621.730769231","621.730769231","black","no","xpyriment","legacy","legacy","0","208","NA","uniform","79128","1000","0.0126377514913","0","undefined","0","0","25","25","25","0","25","25","25","NA","25","25","0","25","NA","25","25","0","25","NA","25","NA","25","0","0","25","25","0","25","25","26","z","10/09/18 16:23:53","The main experiment item","yes","FIN__AB__M21__7%3A10%3A17.osexp","C:\Users\ERP Testing Room\Desktop\Joanna\morph21","no","mono","no","18","no","white","no","yes","1080","legacy","25","25","C:/Users/ERP Testing Room/Desktop/Joanna/morph21/subject-139.csv","xpyriment","Jazzy James","3.1.4","0","/","NA","NA","NA","NA","space","/","380","NA","NA","NA","NA","155016","380","2","legacy","1024","2","48000","-16","AB_m21","139","odd","FILL_NW","BLANTH","2249","251639","250031","243813","157275","NA","NA","NA","NA","248448","250528","NA","249531","NA","249527","251633","2258","251989","NA","NA","250639","2249","2249","251031","249526","2249","250639","251989","morph21_Oliver/Morris","22","16165","26","yes","1280","3"
"350","85.1851851852","85.1851851852","619.962962963","619.962962963","black","no","xpyriment","legacy","legacy","0","202","NA","uniform","69776","1000","0.0143315753268","1","undefined","1","0","26","26","26","0","26","26","26","NA","26","26","0","26","NA","26","26","0","26","NA","26","NA","26","0","0","26","26","0","26","26","27","/","10/09/18 16:23:53","The main experiment item","yes","FIN__AB__M21__7%3A10%3A17.osexp","C:\Users\ERP Testing Room\Desktop\Joanna\morph21","no","mono","no","18","no","white","no","yes","1080","legacy","26","26","C:/Users/ERP Testing Room/Desktop/Joanna/morph21/subject-139.csv","xpyriment","Jazzy James","3.1.4","0","/","NA","NA","NA","NA","space","/","574","NA","NA","NA","NA","155016","574","2","legacy","1024","2","48000","-16","AB_m21","139","odd","CW_L","GUARDING","2249","256489","253389","254981","157275","NA","NA","NA","NA","254972","253886","NA","252889","NA","252879","254972","2258","256839","NA","NA","253981","2249","2249","254372","252879","2249","253981","256839","morph21_Oliver/Morris","23","16739","27","yes","1280","26"
"300","85.7142857143","85.7142857143","620.75","620.75","black","no","xpyriment","legacy","legacy","0","208","NA","uniform","70245","1000","0.0142358886754","1","undefined","1","0","27","27","27","0","27","27","27","NA","27","27","0","27","NA","27","27","0","27","NA","27","NA","27","0","0","27","27","0","27","27","28","z","10/09/18 16:23:53","The main experiment item","yes","FIN__AB__M21__7%3A10%3A17.osexp","C:\Users\ERP Testing Room\Desktop\Joanna\morph21","no","mono","no","18","no","white","no","yes","1080","legacy","27","27","C:/Users/ERP Testing Room/Desktop/Joanna/morph21/subject-139.csv","xpyriment","Jazzy James","3.1.4","0","z","NA","NA","NA","NA","space","z","642","NA","NA","NA","NA","155016","642","2","legacy","1024","2","48000","-16","AB_m21","139","odd","FILL_NW","BAFED","2249","259648","258048","254981","157275","NA","NA","NA","NA","259638","258545","NA","257548","NA","257540","259638","2258","259948","NA","NA","258648","2249","2249","259039","257540","2249","258648","259948","morph21_Oliver/Morris","24","17381","28","yes","1280","1"
"350","86.2068965517","86.2068965517","631.793103448","631.793103448","black","no","xpyriment","legacy","legacy","0","208","NA","uniform","61870","1000","0.0161629222563","1","undefined","1","0","28","28","28","0","28","28","28","NA","28","28","0","28","NA","28","28","0","28","NA","28","NA","28","0","0","28","28","0","28","28","29","z","10/09/18 16:23:53","The main experiment item","yes","FIN__AB__M21__7%3A10%3A17.osexp","C:\Users\ERP Testing Room\Desktop\Joanna\morph21","no","mono","no","18","no","white","no","yes","1080","legacy","28","28","C:/Users/ERP Testing Room/Desktop/Joanna/morph21/subject-139.csv","xpyriment","Jazzy James","3.1.4","0","z","NA","NA","NA","NA","space","z","941","NA","NA","NA","NA","155016","941","2","legacy","1024","2","48000","-16","AB_m21","139","odd","FILL_NW","DARF","2249","262773","261165","254981","157275","NA","NA","NA","NA","262764","261662","NA","260664","NA","260661","262764","2258","263123","NA","NA","261773","2249","2249","262165","260661","2249","261773","263123","morph21_Oliver/Morris","25","18322","29","yes","1280","10"
"400","83.3333333333","83.3333333333","643.866666667","643.866666667","black","no","xpyriment","legacy","legacy","0","205","NA","uniform","57368","1000","0.0174313205968","0","undefined","0","0","29","29","29","0","29","29","29","NA","29","29","0","29","NA","29","29","0","29","NA","29","NA","29","0","0","29","29","0","29","29","30","z","10/09/18 16:23:53","The main experiment item","yes","FIN__AB__M21__7%3A10%3A17.osexp","C:\Users\ERP Testing Room\Desktop\Joanna\morph21","no","mono","no","18","no","white","no","yes","1080","legacy","29","29","C:/Users/ERP Testing Room/Desktop/Joanna/morph21/subject-139.csv","xpyriment","Jazzy James","3.1.4","0","None","NA","NA","NA","NA","space","None","994","NA","NA","NA","NA","155016","994","2","legacy","1024","2","48000","-16","AB_m21","139","odd","NW_S_SIMP","ADVERTISELA","2249","267557","264431","266049","157275","NA","NA","NA","NA","262764","264929","NA","263931","NA","263920","266042","2258","267958","NA","NA","265048","2249","2249","265440","263920","2249","265048","267958","morph21_Oliver/Morris","25","19316","30","yes","1280","25"
"300","83.8709677419","83.8709677419","645.64516129","645.64516129","black","no","xpyriment","legacy","legacy","0","207","NA","uniform","62054","1000","0.0161149966159","1","undefined","1","0","30","30","30","0","30","30","30","NA","30","30","0","30","NA","30","30","0","30","NA","30","NA","30","0","0","30","30","0","30","30","31","/","10/09/18 16:23:53","The main experiment item","yes","FIN__AB__M21__7%3A10%3A17.osexp","C:\Users\ERP Testing Room\Desktop\Joanna\morph21","no","mono","no","18","no","white","no","yes","1080","legacy","30","30","C:/Users/ERP Testing Room/Desktop/Joanna/morph21/subject-139.csv","xpyriment","Jazzy James","3.1.4","0","/","NA","NA","NA","NA","space","/","699","NA","NA","NA","NA","155016","699","2","legacy","1024","2","48000","-16","AB_m21","139","odd","FILL_W","MOURN","2249","270824","269216","266049","157275","NA","NA","NA","NA","270816","269713","NA","268716","NA","268708","270816","2258","271124","NA","NA","269824","2249","2249","270216","268708","2249","269824","271124","morph21_Oliver/Morris","26","20015","31","yes","1280","26"
"400","84.375","84.375","653.4375","653.4375","black","no","xpyriment","legacy","legacy","0","203","NA","uniform","55172","1000","0.0181251359385","1","undefined","1","0","31","31","31","0","31","31","31","NA","31","31","0","31","NA","31","31","0","31","NA","31","NA","31","0","0","31","31","0","31","31","32","z","10/09/18 16:23:53","The main experiment item","yes","FIN__AB__M21__7%3A10%3A17.osexp","C:\Users\ERP Testing Room\Desktop\Joanna\morph21","no","mono","no","18","no","white","no","yes","1080","legacy","31","31","C:/Users/ERP Testing Room/Desktop/Joanna/morph21/subject-139.csv","xpyriment","Jazzy James","3.1.4","0","z","NA","NA","NA","NA","space","z","895","NA","NA","NA","NA","155016","895","2","legacy","1024","2","48000","-16","AB_m21","139","odd","NW_S_COMP","ALTARIC","2249","273924","272324","266049","157275","NA","NA","NA","NA","273915","272821","NA","271824","NA","271817","273915","2258","274325","NA","NA","272924","2249","2249","273316","271817","2249","272924","274325","morph21_Oliver/Morris","27","20910","32","yes","1280","7"
"400","84.8484848485","84.8484848485","653.424242424","653.424242424","black","no","xpyriment","legacy","legacy","0","202","NA","uniform","62723","1000","0.0159431149658","1","undefined","1","0","32","32","32","0","32","32","32","NA","32","32","0","32","NA","32","32","0","32","NA","32","NA","32","0","0","32","32","0","32","32","33","/","10/09/18 16:23:53","The main experiment item","yes","FIN__AB__M21__7%3A10%3A17.osexp","C:\Users\ERP Testing Room\Desktop\Joanna\morph21","no","mono","no","18","no","white","no","yes","1080","legacy","32","32","C:/Users/ERP Testing Room/Desktop/Joanna/morph21/subject-139.csv","xpyriment","Jazzy James","3.1.4","0","/","NA","NA","NA","NA","space","/","653","NA","NA","NA","NA","155016","653","2","legacy","1024","2","48000","-16","AB_m21","139","odd","CW_L","WRONGLY","2249","278650","275558","277141","157275","NA","NA","NA","NA","277138","276055","NA","275058","NA","275050","277138","2258","279050","NA","NA","276141","2249","2249","276541","275050","2249","276141","279050","morph21_Oliver/Morris","28","21563","33","yes","1280","37"
"200","85.2941176471","85.2941176471","650","650","black","no","xpyriment","legacy","legacy","0","207","NA","uniform","69173","1000","0.0144565075969","1","undefined","1","0","33","33","33","0","33","33","33","NA","33","33","0","33","NA","33","33","0","33","NA","33","NA","33","0","0","33","33","0","33","33","34","/","10/09/18 16:23:53","The main experiment item","yes","FIN__AB__M21__7%3A10%3A17.osexp","C:\Users\ERP Testing Room\Desktop\Joanna\morph21","no","mono","no","18","no","white","no","yes","1080","legacy","33","33","C:/Users/ERP Testing Room/Desktop/Joanna/morph21/subject-139.csv","xpyriment","Jazzy James","3.1.4","0","/","NA","NA","NA","NA","space","/","537","NA","NA","NA","NA","155016","537","2","legacy","1024","2","48000","-16","AB_m21","139","odd","FILL_W","TAX","2249","281841","280258","277141","157275","NA","NA","NA","NA","281834","280755","NA","279758","NA","279750","281834","2258","282041","NA","NA","280841","2249","2249","281233","279750","2249","280841","282041","morph21_Oliver/Morris","29","22100","34","yes","1280","45"
"300","85.7142857143","85.7142857143","656.285714286","656.285714286","black","no","xpyriment","legacy","legacy","0","205","NA","uniform","61293","1000","0.0163150767624","1","undefined","1","0","34","34","34","0","34","34","34","NA","34","34","0","34","NA","34","34","0","34","NA","34","NA","34","0","0","34","34","0","34","34","35","z","10/09/18 16:23:53","The main experiment item","yes","FIN__AB__M21__7%3A10%3A17.osexp","C:\Users\ERP Testing Room\Desktop\Joanna\morph21","no","mono","no","18","no","white","no","yes","1080","legacy","34","34","C:/Users/ERP Testing Room/Desktop/Joanna/morph21/subject-139.csv","xpyriment","Jazzy James","3.1.4","0","z","NA","NA","NA","NA","space","z","870","NA","NA","NA","NA","155016","870","2","legacy","1024","2","48000","-16","AB_m21","139","odd","NW_S_SIMP","WINKIDY","2249","284901","283276","277141","157275","NA","NA","NA","NA","284898","283773","NA","282775","NA","282768","284898","2258","285201","NA","NA","283901","2249","2249","284301","282768","2249","283901","285201","morph21_Oliver/Morris","30","22970","35","yes","1280","21"
"300","86.1111111111","86.1111111111","661.861111111","661.861111111","black","no","xpyriment","legacy","legacy","0","204","NA","uniform","60543","1000","0.0165171861322","1","undefined","1","0","35","35","35","0","35","35","35","NA","35","35","0","35","NA","35","35","0","35","NA","35","NA","35","0","0","35","35","0","35","35","36","z","10/09/18 16:23:53","The main experiment item","yes","FIN__AB__M21__7%3A10%3A17.osexp","C:\Users\ERP Testing Room\Desktop\Joanna\morph21","no","mono","no","18","no","white","no","yes","1080","legacy","35","35","C:/Users/ERP Testing Room/Desktop/Joanna/morph21/subject-139.csv","xpyriment","Jazzy James","3.1.4","0","z","NA","NA","NA","NA","space","z","857","NA","NA","NA","NA","155016","857","2","legacy","1024","2","48000","-16","AB_m21","139","odd","NW_L_COMP","ADDMENT","2249","289534","286443","288026","157275","NA","NA","NA","NA","288020","286940","NA","285943","NA","285936","288020","2258","289835","NA","NA","287026","2249","2249","287418","285935","2249","287026","289835","morph21_Oliver/Morris","31","23827","36","yes","1280","13"
"250","86.4864864865","86.4864864865","657.72972973","657.72972973","black","no","xpyriment","legacy","legacy","0","207","NA","uniform","74171","1000","0.0134823583341","1","undefined","1","0","36","36","36","0","36","36","36","NA","36","36","0","36","NA","36","36","0","36","NA","36","NA","36","0","0","36","36","0","36","36","37","/","10/09/18 16:23:53","The main experiment item","yes","FIN__AB__M21__7%3A10%3A17.osexp","C:\Users\ERP Testing Room\Desktop\Joanna\morph21","no","mono","no","18","no","white","no","yes","1080","legacy","36","36","C:/Users/ERP Testing Room/Desktop/Joanna/morph21/subject-139.csv","xpyriment","Jazzy James","3.1.4","0","/","NA","NA","NA","NA","space","/","509","NA","NA","NA","NA","155016","509","2","legacy","1024","2","48000","-16","AB_m21","139","odd","FILL_W","STARVE","2249","292693","291093","288026","157275","NA","NA","NA","NA","292688","291590","NA","290593","NA","290588","292688","2258","292943","NA","NA","291693","2249","2249","292093","290588","2249","291693","292943","morph21_Oliver/Morris","32","24336","37","yes","1280","15"
"300","86.8421052632","86.8421052632","657.868421053","657.868421053","black","no","xpyriment","legacy","legacy","0","205","NA","uniform","74727","1000","0.0133820439734","1","undefined","1","0","37","37","37","0","37","37","37","NA","37","37","0","37","NA","37","37","0","37","NA","37","NA","37","0","0","37","37","0","37","37","38","z","10/09/18 16:23:53","The main experiment item","yes","FIN__AB__M21__7%3A10%3A17.osexp","C:\Users\ERP Testing Room\Desktop\Joanna\morph21","no","mono","no","18","no","white","no","yes","1080","legacy","37","37","C:/Users/ERP Testing Room/Desktop/Joanna/morph21/subject-139.csv","xpyriment","Jazzy James","3.1.4","0","z","NA","NA","NA","NA","space","z","663","NA","NA","NA","NA","155016","663","2","legacy","1024","2","48000","-16","AB_m21","139","odd","NW_S_SIMP","SOCKETEL","2249","295843","294260","288026","157275","NA","NA","NA","NA","295837","294757","NA","293760","NA","293755","295837","2258","296143","NA","NA","294843","2249","2249","295235","293755","2249","294843","296143","morph21_Oliver/Morris","33","24999","38","yes","1280","1"
"200","87.1794871795","87.1794871795","655","655","black","no","xpyriment","legacy","legacy","0","201","NA","uniform","74901","1000","0.013350956596","1","undefined","1","0","38","38","38","0","38","38","38","NA","38","38","0","38","NA","38","38","0","38","NA","38","NA","38","0","0","38","38","0","38","38","39","/","10/09/18 16:23:53","The main experiment item","yes","FIN__AB__M21__7%3A10%3A17.osexp","C:\Users\ERP Testing Room\Desktop\Joanna\morph21","no","mono","no","18","no","white","no","yes","1080","legacy","38","38","C:/Users/ERP Testing Room/Desktop/Joanna/morph21/subject-139.csv","xpyriment","Jazzy James","3.1.4","0","/","NA","NA","NA","NA","space","/","546","NA","NA","NA","NA","155016","546","2","legacy","1024","2","48000","-16","AB_m21","139","odd","CW_S","AMUSEMENT","2249","300477","297385","298968","157275","NA","NA","NA","NA","298963","297882","NA","296885","NA","296875","298963","2258","300677","NA","NA","297968","2249","2249","298368","296875","2249","297968","300677","morph21_Oliver/Morris","34","25545","39","yes","1280","38"
"250","87.5","87.5","655.925","655.925","black","no","xpyriment","legacy","legacy","0","203","NA","uniform","66415","1000","0.0150568395694","1","undefined","1","0","39","39","39","0","39","39","39","NA","39","39","0","39","NA","39","39","0","39","NA","39","NA","39","0","0","39","39","0","39","39","40","z","10/09/18 16:23:53","The main experiment item","yes","FIN__AB__M21__7%3A10%3A17.osexp","C:\Users\ERP Testing Room\Desktop\Joanna\morph21","no","mono","no","18","no","white","no","yes","1080","legacy","39","39","C:/Users/ERP Testing Room/Desktop/Joanna/morph21/subject-139.csv","xpyriment","Jazzy James","3.1.4","0","z","NA","NA","NA","NA","space","z","692","NA","NA","NA","NA","155016","692","2","legacy","1024","2","48000","-16","AB_m21","139","odd","NW_S_COMP","LIDARY","2249","303503","301911","298968","157275","NA","NA","NA","NA","303499","302408","NA","301411","NA","301402","303499","2258","303753","NA","NA","302503","2249","2249","302903","301402","2249","302503","303753","morph21_Oliver/Morris","35","26237","40","yes","1280","3"
"300","85.3658536585","85.3658536585","654.146341463","654.146341463","black","no","xpyriment","legacy","legacy","0","205","NA","uniform","72171","1000","0.0138559809342","0","undefined","0","0","40","40","40","0","40","40","40","NA","40","40","0","40","NA","40","40","0","40","NA","40","NA","40","0","0","40","40","0","40","40","41","z","10/09/18 16:23:53","The main experiment item","yes","FIN__AB__M21__7%3A10%3A17.osexp","C:\Users\ERP Testing Room\Desktop\Joanna\morph21","no","mono","no","18","no","white","no","yes","1080","legacy","40","40","C:/Users/ERP Testing Room/Desktop/Joanna/morph21/subject-139.csv","xpyriment","Jazzy James","3.1.4","0","/","NA","NA","NA","NA","space","/","583","NA","NA","NA","NA","155016","583","2","legacy","1024","2","48000","-16","AB_m21","139","odd","NW_S_SIMP","FEVERIME","2249","306636","305036","298968","157275","NA","NA","NA","NA","303499","305533","NA","304536","NA","304527","306627","2258","306936","NA","NA","305636","2249","2249","306028","304527","2249","305636","306936","morph21_Oliver/Morris","35","26820","41","yes","1280","24"
"250","85.7142857143","85.7142857143","654.880952381","654.880952381","black","no","xpyriment","legacy","legacy","0","201","NA","uniform","68722","1000","0.014551380926","1","undefined","1","0","41","41","41","0","41","41","41","NA","41","41","0","41","NA","41","41","0","41","NA","41","NA","41","0","0","41","41","0","41","41","42","/","10/09/18 16:23:53","The main experiment item","yes","FIN__AB__M21__7%3A10%3A17.osexp","C:\Users\ERP Testing Room\Desktop\Joanna\morph21","no","mono","no","18","no","white","no","yes","1080","legacy","41","41","C:/Users/ERP Testing Room/Desktop/Joanna/morph21/subject-139.csv","xpyriment","Jazzy James","3.1.4","0","/","NA","NA","NA","NA","space","/","685","NA","NA","NA","NA","155016","685","2","legacy","1024","2","48000","-16","AB_m21","139","odd","CW_S","PEAKING","2249","311386","308270","309878","157275","NA","NA","NA","NA","309871","308767","NA","307770","NA","307762","309871","2258","311637","NA","NA","308878","2249","2249","309270","307762","2249","308878","311637","morph21_Oliver/Morris","36","27505","42","yes","1280","28"
"200","86.0465116279","86.0465116279","655.255813953","655.255813953","black","no","xpyriment","legacy","legacy","0","201","NA","uniform","74613","1000","0.0134024901827","1","undefined","1","0","42","42","42","0","42","42","42","NA","42","42","0","42","NA","42","42","0","42","NA","42","NA","42","0","0","42","42","0","42","42","43","/","10/09/18 16:23:53","The main experiment item","yes","FIN__AB__M21__7%3A10%3A17.osexp","C:\Users\ERP Testing Room\Desktop\Joanna\morph21","no","mono","no","18","no","white","no","yes","1080","legacy","42","42","C:/Users/ERP Testing Room/Desktop/Joanna/morph21/subject-139.csv","xpyriment","Jazzy James","3.1.4","0","/","NA","NA","NA","NA","space","/","671","NA","NA","NA","NA","155016","671","2","legacy","1024","2","48000","-16","AB_m21","139","odd","CW_S","THRUSTER","2249","314411","312828","309878","157275","NA","NA","NA","NA","314406","313325","NA","312328","NA","312319","314406","2258","314612","NA","NA","313411","2249","2249","313803","312319","2249","313411","314612","morph21_Oliver/Morris","37","28176","43","yes","1280","24"
"250","86.3636363636","86.3636363636","652.681818182","652.681818182","black","no","xpyriment","legacy","legacy","0","202","NA","uniform","73489","1000","0.0136074786703","1","undefined","1","0","43","43","43","0","43","43","43","NA","43","43","0","43","NA","43","43","0","43","NA","43","NA","43","0","0","43","43","0","43","43","44","/","10/09/18 16:23:53","The main experiment item","yes","FIN__AB__M21__7%3A10%3A17.osexp","C:\Users\ERP Testing Room\Desktop\Joanna\morph21","no","mono","no","18","no","white","no","yes","1080","legacy","43","43","C:/Users/ERP Testing Room/Desktop/Joanna/morph21/subject-139.csv","xpyriment","Jazzy James","3.1.4","0","/","NA","NA","NA","NA","space","/","542","NA","NA","NA","NA","155016","542","2","legacy","1024","2","48000","-16","AB_m21","139","odd","CW_L","LAUGHING","2249","317620","316037","309878","157275","NA","NA","NA","NA","317615","316534","NA","315537","NA","315532","317615","2258","317870","NA","NA","316620","2249","2249","317020","315532","2249","316620","317870","morph21_Oliver/Morris","38","28718","44","yes","1280","27"
"250","86.6666666667","86.6666666667","651.8","651.8","black","no","xpyriment","legacy","legacy","0","207","NA","uniform","69282","1000","0.0144337634595","1","undefined","1","0","44","44","44","0","44","44","44","NA","44","44","0","44","NA","44","44","0","44","NA","44","NA","44","0","0","44","44","0","44","44","45","/","10/09/18 16:23:53","The main experiment item","yes","FIN__AB__M21__7%3A10%3A17.osexp","C:\Users\ERP Testing Room\Desktop\Joanna\morph21","no","mono","no","18","no","white","no","yes","1080","legacy","44","44","C:/Users/ERP Testing Room/Desktop/Joanna/morph21/subject-139.csv","xpyriment","Jazzy James","3.1.4","0","/","NA","NA","NA","NA","space","/","613","NA","NA","NA","NA","155016","613","2","legacy","1024","2","48000","-16","AB_m21","139","odd","FILL_W","TASTE","2249","322163","319071","320654","157275","NA","NA","NA","NA","320647","319568","NA","318571","NA","318561","320647","2258","322413","NA","NA","319654","2249","2249","320046","318561","2249","319654","322413","morph21_Oliver/Morris","39","29331","45","yes","1280","34"
"400","86.9565217391","86.9565217391","651.282608696","651.282608696","black","no","xpyriment","legacy","legacy","0","208","NA","uniform","67273","1000","0.0148648046021","1","undefined","1","0","45","45","45","0","45","45","45","NA","45","45","0","45","NA","45","45","0","45","NA","45","NA","45","0","0","45","45","0","45","45","46","z","10/09/18 16:23:53","The main experiment item","yes","FIN__AB__M21__7%3A10%3A17.osexp","C:\Users\ERP Testing Room\Desktop\Joanna\morph21","no","mono","no","18","no","white","no","yes","1080","legacy","45","45","C:/Users/ERP Testing Room/Desktop/Joanna/morph21/subject-139.csv","xpyriment","Jazzy James","3.1.4","0","z","NA","NA","NA","NA","space","z","628","NA","NA","NA","NA","155016","628","2","legacy","1024","2","48000","-16","AB_m21","139","odd","FILL_NW","ULNS","2249","325271","323688","320654","157275","NA","NA","NA","NA","325266","324185","NA","323180","NA","323170","325266","2258","325671","NA","NA","324271","2249","2249","324671","323170","2249","324271","325671","morph21_Oliver/Morris","40","29959","46","yes","1280","45"
"350","85.1063829787","85.1063829787","647.234042553","647.234042553","black","no","xpyriment","legacy","legacy","0","204","NA","uniform","73484","1000","0.0136084045507","0","undefined","0","0","46","46","46","0","46","46","46","NA","46","46","0","46","NA","46","46","0","46","NA","46","NA","46","0","0","46","46","0","46","46","47","z","10/09/18 16:23:53","The main experiment item","yes","FIN__AB__M21__7%3A10%3A17.osexp","C:\Users\ERP Testing Room\Desktop\Joanna\morph21","no","mono","no","18","no","white","no","yes","1080","legacy","46","46","C:/Users/ERP Testing Room/Desktop/Joanna/morph21/subject-139.csv","xpyriment","Jazzy James","3.1.4","0","/","NA","NA","NA","NA","space","/","461","NA","NA","NA","NA","155016","461","2","legacy","1024","2","48000","-16","AB_m21","139","odd","NW_L_COMP","AGREELY","2249","328605","327021","320654","157275","NA","NA","NA","NA","325266","327519","NA","326521","NA","326509","328598","2258","328955","NA","NA","327605","2249","2249","327996","326509","2249","327605","328955","morph21_Oliver/Morris","40","30420","47","yes","1280","24"
"350","85.4166666667","85.4166666667","649.270833333","649.270833333","black","no","xpyriment","legacy","legacy","0","202","NA","uniform","65053","1000","0.0153720812261","1","undefined","1","0","47","47","47","0","47","47","47","NA","47","47","0","47","NA","47","47","0","47","NA","47","NA","47","0","0","47","47","0","47","47","48","/","10/09/18 16:23:53","The main experiment item","yes","FIN__AB__M21__7%3A10%3A17.osexp","C:\Users\ERP Testing Room\Desktop\Joanna\morph21","no","mono","no","18","no","white","no","yes","1080","legacy","47","47","C:/Users/ERP Testing Room/Desktop/Joanna/morph21/subject-139.csv","xpyriment","Jazzy James","3.1.4","0","/","NA","NA","NA","NA","space","/","745","NA","NA","NA","NA","155016","745","2","legacy","1024","2","48000","-16","AB_m21","139","odd","CW_L","RENTER","2249","333413","330280","331905","157275","NA","NA","NA","NA","331897","330777","NA","329772","NA","329766","331897","2258","333764","NA","NA","330905","2249","2249","331297","329766","2249","330905","333764","morph21_Oliver/Morris","41","31165","48","yes","1280","9"
"300","85.7142857143","85.7142857143","651.06122449","651.06122449","black","no","xpyriment","legacy","legacy","0","205","NA","uniform","57893","1000","0.0172732454701","1","undefined","1","0","48","48","48","0","48","48","48","NA","48","48","0","48","NA","48","48","0","48","NA","48","NA","48","0","0","48","48","0","48","48","49","z","10/09/18 16:23:53","The main experiment item","yes","FIN__AB__M21__7%3A10%3A17.osexp","C:\Users\ERP Testing Room\Desktop\Joanna\morph21","no","mono","no","18","no","white","no","yes","1080","legacy","48","48","C:/Users/ERP Testing Room/Desktop/Joanna/morph21/subject-139.csv","xpyriment","Jazzy James","3.1.4","0","z","NA","NA","NA","NA","space","z","737","NA","NA","NA","NA","155016","737","2","legacy","1024","2","48000","-16","AB_m21","139","odd","NW_S_SIMP","YIELDILT","2249","336698","335097","331905","157275","NA","NA","NA","NA","336689","335594","NA","334597","NA","334590","336689","2258","336998","NA","NA","335698","2249","2249","336089","334590","2249","335698","336998","morph21_Oliver/Morris","42","31902","49","yes","1280","20"
"350","86","86","647.66","647.66","black","no","xpyriment","legacy","legacy","0","202","NA","uniform","66967","1000","0.0149327280601","1","undefined","1","0","49","49","49","0","49","49","49","NA","49","49","0","49","NA","49","49","0","49","NA","49","NA","49","0","0","49","49","0","49","49","50","/","10/09/18 16:23:53","The main experiment item","yes","FIN__AB__M21__7%3A10%3A17.osexp","C:\Users\ERP Testing Room\Desktop\Joanna\morph21","no","mono","no","18","no","white","no","yes","1080","legacy","49","49","C:/Users/ERP Testing Room/Desktop/Joanna/morph21/subject-139.csv","xpyriment","Jazzy James","3.1.4","0","/","NA","NA","NA","NA","space","/","481","NA","NA","NA","NA","155016","481","2","legacy","1024","2","48000","-16","AB_m21","139","odd","CW_L","HUNTER","2249","339906","338298","331905","157275","NA","NA","NA","NA","339901","338795","NA","337798","NA","337795","339901","2258","340256","NA","NA","338906","2249","2249","339306","337795","2249","338906","340256","morph21_Oliver/Morris","43","32383","50","yes","1280","10"
"350","86.2745098039","86.2745098039","648.235294118","648.235294118","black","no","xpyriment","legacy","legacy","0","201","NA","uniform","64168","1000","0.0155840917591","1","undefined","1","0","50","50","50","0","50","50","50","NA","50","50","0","50","NA","50","50","0","50","NA","50","NA","50","0","0","50","50","0","50","50","51","/","10/09/18 16:23:53","The main experiment item","yes","FIN__AB__M21__7%3A10%3A17.osexp","C:\Users\ERP Testing Room\Desktop\Joanna\morph21","no","mono","no","18","no","white","no","yes","1080","legacy","50","50","C:/Users/ERP Testing Room/Desktop/Joanna/morph21/subject-139.csv","xpyriment","Jazzy James","3.1.4","0","/","NA","NA","NA","NA","space","/","677","NA","NA","NA","NA","155016","677","2","legacy","1024","2","48000","-16","AB_m21","139","odd","CW_S","SINGER","2249","344715","341606","343206","157275","NA","NA","NA","NA","343200","342104","NA","341106","NA","341098","343200","2258","345065","NA","NA","342206","2249","2249","342598","341097","2249","342206","345065","morph21_Oliver/Morris","44","33060","51","yes","1280","17"
"200","84.6153846154","84.6153846154","654.826923077","654.826923077","black","no","xpyriment","legacy","legacy","0","208","NA","uniform","55719","1000","0.0179471993395","0","undefined","0","0","51","51","51","0","51","51","51","NA","51","51","0","51","NA","51","51","0","51","NA","51","NA","51","0","0","51","51","0","51","51","52","z","10/09/18 16:23:53","The main experiment item","yes","FIN__AB__M21__7%3A10%3A17.osexp","C:\Users\ERP Testing Room\Desktop\Joanna\morph21","no","mono","no","18","no","white","no","yes","1080","legacy","51","51","C:/Users/ERP Testing Room/Desktop/Joanna/morph21/subject-139.csv","xpyriment","Jazzy James","3.1.4","0","None","NA","NA","NA","NA","space","None","991","NA","NA","NA","NA","155016","991","2","legacy","1024","2","48000","-16","AB_m21","139","odd","FILL_NW","BLAYS","2249","347865","346273","343206","157275","NA","NA","NA","NA","343200","346770","NA","345773","NA","345763","347856","2258","348065","NA","NA","346865","2249","2249","347257","345763","2249","346865","348065","morph21_Oliver/Morris","44","34051","52","yes","1280","8"
"250","84.9056603774","84.9056603774","652.452830189","652.452830189","black","no","xpyriment","legacy","legacy","0","207","NA","uniform","73241","1000","0.013653554703","1","undefined","1","0","52","52","52","0","52","52","52","NA","52","52","0","52","NA","52","52","0","52","NA","52","NA","52","0","0","52","52","0","52","52","53","/","10/09/18 16:23:53","The main experiment item","yes","FIN__AB__M21__7%3A10%3A17.osexp","C:\Users\ERP Testing Room\Desktop\Joanna\morph21","no","mono","no","18","no","white","no","yes","1080","legacy","52","52","C:/Users/ERP Testing Room/Desktop/Joanna/morph21/subject-139.csv","xpyriment","Jazzy James","3.1.4","0","/","NA","NA","NA","NA","space","/","529","NA","NA","NA","NA","155016","529","2","legacy","1024","2","48000","-16","AB_m21","139","odd","FILL_W","SPLICE","2249","350873","349290","343206","157275","NA","NA","NA","NA","350867","349787","NA","348790","NA","348783","350867","2258","351124","NA","NA","349873","2249","2249","350265","348783","2249","349873","351124","morph21_Oliver/Morris","45","34580","53","yes","1280","22"
"350","83.3333333333","83.3333333333","651.092592593","651.092592593","black","no","xpyriment","legacy","legacy","0","203","NA","uniform","79209","1000","0.0126248279867","0","undefined","0","0","53","53","53","0","53","53","53","NA","53","53","0","53","NA","53","53","0","53","NA","53","NA","53","0","0","53","53","0","53","53","54","z","10/09/18 16:23:53","The main experiment item","yes","FIN__AB__M21__7%3A10%3A17.osexp","C:\Users\ERP Testing Room\Desktop\Joanna\morph21","no","mono","no","18","no","white","no","yes","1080","legacy","53","53","C:/Users/ERP Testing Room/Desktop/Joanna/morph21/subject-139.csv","xpyriment","Jazzy James","3.1.4","0","/","NA","NA","NA","NA","space","/","579","NA","NA","NA","NA","155016","579","2","legacy","1024","2","48000","-16","AB_m21","139","odd","NW_S_COMP","DEBTISH","2249","355550","352432","354041","157275","NA","NA","NA","NA","350867","352929","NA","351932","NA","351924","354032","2258","355900","NA","NA","353040","2249","2249","353433","351924","2249","353040","355900","morph21_Oliver/Morris","45","35159","54","yes","1280","22"
"400","83.6363636364","83.6363636364","654.345454545","654.345454545","black","no","xpyriment","legacy","legacy","0","206","NA","uniform","68944","1000","0.0145045254119","1","undefined","1","0","54","54","54","0","54","54","54","NA","54","54","0","54","NA","54","54","0","54","NA","54","NA","54","0","0","54","54","0","54","54","55","z","10/09/18 16:23:53","The main experiment item","yes","FIN__AB__M21__7%3A10%3A17.osexp","C:\Users\ERP Testing Room\Desktop\Joanna\morph21","no","mono","no","18","no","white","no","yes","1080","legacy","54","54","C:/Users/ERP Testing Room/Desktop/Joanna/morph21/subject-139.csv","xpyriment","Jazzy James","3.1.4","0","z","NA","NA","NA","NA","space","z","830","NA","NA","NA","NA","155016","830","2","legacy","1024","2","48000","-16","AB_m21","139","odd","NW_L_SIMP","BLOODEL","2249","358725","357141","354041","157275","NA","NA","NA","NA","358717","357639","NA","356641","NA","356633","358717","2258","359125","NA","NA","357725","2249","2249","358116","356633","2249","357725","359125","morph21_Oliver/Morris","46","35989","55","yes","1280","24"
"400","83.9285714286","83.9285714286","654.875","654.875","black","no","xpyriment","legacy","legacy","0","205","NA","uniform","72248","1000","0.0138412135976","1","undefined","1","0","55","55","55","0","55","55","55","NA","55","55","0","55","NA","55","55","0","55","NA","55","NA","55","0","0","55","55","0","55","55","56","z","10/09/18 16:23:53","The main experiment item","yes","FIN__AB__M21__7%3A10%3A17.osexp","C:\Users\ERP Testing Room\Desktop\Joanna\morph21","no","mono","no","18","no","white","no","yes","1080","legacy","55","55","C:/Users/ERP Testing Room/Desktop/Joanna/morph21/subject-139.csv","xpyriment","Jazzy James","3.1.4","0","z","NA","NA","NA","NA","space","z","684","NA","NA","NA","NA","155016","684","2","legacy","1024","2","48000","-16","AB_m21","139","odd","NW_S_SIMP","AIDIG","2249","361975","360392","354041","157275","NA","NA","NA","NA","361969","360889","NA","359892","NA","359882","361969","2258","362375","NA","NA","360975","2249","2249","361367","359882","2249","360975","362375","morph21_Oliver/Morris","47","36673","56","yes","1280","4"
"300","84.2105263158","84.2105263158","655.385964912","655.385964912","black","no","xpyriment","legacy","legacy","0","208","NA","uniform","69056","1000","0.0144810009268","1","undefined","1","0","56","56","56","0","56","56","56","NA","56","56","0","56","NA","56","56","0","56","NA","56","NA","56","0","0","56","56","0","56","56","57","z","10/09/18 16:23:53","The main experiment item","yes","FIN__AB__M21__7%3A10%3A17.osexp","C:\Users\ERP Testing Room\Desktop\Joanna\morph21","no","mono","no","18","no","white","no","yes","1080","legacy","56","56","C:/Users/ERP Testing Room/Desktop/Joanna/morph21/subject-139.csv","xpyriment","Jazzy James","3.1.4","0","z","NA","NA","NA","NA","space","z","684","NA","NA","NA","NA","155016","684","2","legacy","1024","2","48000","-16","AB_m21","139","odd","FILL_NW","HEEM","2249","366867","363775","365358","157275","NA","NA","NA","NA","365351","364272","NA","363275","NA","363264","365351","2258","367167","NA","NA","364358","2249","2249","364750","363264","2249","364358","367167","morph21_Oliver/Morris","48","37357","57","yes","1280","27"
"250","84.4827586207","84.4827586207","652.896551724","652.896551724","black","no","xpyriment","legacy","legacy","0","201","NA","uniform","73642","1000","0.0135792075174","1","undefined","1","0","57","57","57","0","57","57","57","NA","57","57","0","57","NA","57","57","0","57","NA","57","NA","57","0","0","57","57","0","57","57","58","/","10/09/18 16:23:53","The main experiment item","yes","FIN__AB__M21__7%3A10%3A17.osexp","C:\Users\ERP Testing Room\Desktop\Joanna\morph21","no","mono","no","18","no","white","no","yes","1080","legacy","57","57","C:/Users/ERP Testing Room/Desktop/Joanna/morph21/subject-139.csv","xpyriment","Jazzy James","3.1.4","0","/","NA","NA","NA","NA","space","/","511","NA","NA","NA","NA","155016","511","2","legacy","1024","2","48000","-16","AB_m21","139","odd","CW_S","GRIMLY","2249","370075","368467","365358","157275","NA","NA","NA","NA","370065","368964","NA","367967","NA","367956","370065","2258","370325","NA","NA","369075","2249","2249","369467","367956","2249","369075","370325","morph21_Oliver/Morris","49","37868","58","yes","1280","31"
"350","83.0508474576","83.0508474576","652.288135593","652.288135593","black","no","xpyriment","legacy","legacy","0","207","NA","uniform","76196","1000","0.0131240485065","0","undefined","0","0","58","58","58","0","58","58","58","NA","58","58","0","58","NA","58","58","0","58","NA","58","NA","58","0","0","58","58","0","58","58","59","/","10/09/18 16:23:53","The main experiment item","yes","FIN__AB__M21__7%3A10%3A17.osexp","C:\Users\ERP Testing Room\Desktop\Joanna\morph21","no","mono","no","18","no","white","no","yes","1080","legacy","58","58","C:/Users/ERP Testing Room/Desktop/Joanna/morph21/subject-139.csv","xpyriment","Jazzy James","3.1.4","0","z","NA","NA","NA","NA","space","z","617","NA","NA","NA","NA","155016","617","2","legacy","1024","2","48000","-16","AB_m21","139","odd","FILL_W","BRISK","2249","373218","371610","365358","157275","NA","NA","NA","NA","370065","372107","NA","371101","NA","371094","373208","2258","373568","NA","NA","372218","2249","2249","372610","371094","2249","372218","373568","morph21_Oliver/Morris","49","38485","59","yes","1280","8"
"350","83.3333333333","83.3333333333","651.05","651.05","black","no","xpyriment","legacy","legacy","0","207","NA","uniform","70443","1000","0.0141958746788","1","undefined","1","0","59","59","59","0","59","59","59","NA","59","59","0","59","NA","59","59","0","59","NA","59","NA","59","0","0","59","59","0","59","59","60","/","10/09/18 16:23:53","The main experiment item","yes","FIN__AB__M21__7%3A10%3A17.osexp","C:\Users\ERP Testing Room\Desktop\Joanna\morph21","no","mono","no","18","no","white","no","yes","1080","legacy","59","59","C:/Users/ERP Testing Room/Desktop/Joanna/morph21/subject-139.csv","xpyriment","Jazzy James","3.1.4","0","/","NA","NA","NA","NA","space","/","578","NA","NA","NA","NA","155016","578","2","legacy","1024","2","48000","-16","AB_m21","139","odd","FILL_W","FOLLOW","2249","377902","374810","376393","157275","NA","NA","NA","NA","376386","375307","NA","374302","NA","374298","376386","2258","378252","NA","NA","375393","2249","2249","375785","374298","2249","375393","378252","morph21_Oliver/Morris","50","39063","60","yes","1280","17"
"350","81.9672131148","81.9672131148","656.672131148","656.672131148","black","no","xpyriment","legacy","legacy","0","206","NA","uniform","56749","1000","0.0176214558847","0","undefined","0","0","60","60","60","0","60","60","60","NA","60","60","0","60","NA","60","60","0","60","NA","60","NA","60","0","0","60","60","0","60","60","61","z","10/09/18 16:23:53","The main experiment item","yes","FIN__AB__M21__7%3A10%3A17.osexp","C:\Users\ERP Testing Room\Desktop\Joanna\morph21","no","mono","no","18","no","white","no","yes","1080","legacy","60","60","C:/Users/ERP Testing Room/Desktop/Joanna/morph21/subject-139.csv","xpyriment","Jazzy James","3.1.4","0","None","NA","NA","NA","NA","space","None","994","NA","NA","NA","NA","155016","994","2","legacy","1024","2","48000","-16","AB_m21","139","odd","NW_L_SIMP","PICKENGE","2249","381068","379460","376393","157275","NA","NA","NA","NA","376386","379957","NA","378960","NA","378951","381062","2258","381418","NA","NA","380068","2249","2249","380460","378951","2249","380068","381418","morph21_Oliver/Morris","50","40057","61","yes","1280","5"
"300","82.2580645161","82.2580645161","657.758064516","657.758064516","black","no","xpyriment","legacy","legacy","0","208","NA","uniform","64671","1000","0.0154628813533","1","undefined","1","0","61","61","61","0","61","61","61","NA","61","61","0","61","NA","61","61","0","61","NA","61","NA","61","0","0","61","61","0","61","61","62","z","10/09/18 16:23:53","The main experiment item","yes","FIN__AB__M21__7%3A10%3A17.osexp","C:\Users\ERP Testing Room\Desktop\Joanna\morph21","no","mono","no","18","no","white","no","yes","1080","legacy","61","61","C:/Users/ERP Testing Room/Desktop/Joanna/morph21/subject-139.csv","xpyriment","Jazzy James","3.1.4","0","z","NA","NA","NA","NA","space","z","724","NA","NA","NA","NA","155016","724","2","legacy","1024","2","48000","-16","AB_m21","139","odd","FILL_NW","KEMT","2249","384310","382710","376393","157275","NA","NA","NA","NA","384306","383207","NA","382210","NA","382202","384306","2258","384610","NA","NA","383310","2249","2249","383710","382202","2249","383310","384610","morph21_Oliver/Morris","51","40781","62","yes","1280","32"
"300","82.5396825397","82.5396825397","657.650793651","657.650793651","black","no","xpyriment","legacy","legacy","0","201","NA","uniform","71743","1000","0.0139386420975","1","undefined","1","0","62","62","62","0","62","62","62","NA","62","62","0","62","NA","62","62","0","62","NA","62","NA","62","0","0","62","62","0","62","62","63","/","10/09/18 16:23:53","The main experiment item","yes","FIN__AB__M21__7%3A10%3A17.osexp","C:\Users\ERP Testing Room\Desktop\Joanna\morph21","no","mono","no","18","no","white","no","yes","1080","legacy","62","62","C:/Users/ERP Testing Room/Desktop/Joanna/morph21/subject-139.csv","xpyriment","Jazzy James","3.1.4","0","/","NA","NA","NA","NA","space","/","651","NA","NA","NA","NA","155016","651","2","legacy","1024","2","48000","-16","AB_m21","139","odd","CW_S","DETECTABLE","2249","389036","385919","387527","157275","NA","NA","NA","NA","387520","386416","NA","385419","NA","385411","387520","2258","389337","NA","NA","386527","2249","2249","386919","385411","2249","386527","389337","morph21_Oliver/Morris","52","41432","63","yes","1280","1"
"400","82.8125","82.8125","659.546875","659.546875","black","no","xpyriment","legacy","legacy","0","208","NA","uniform","67165","1000","0.0148887069158","1","undefined","1","0","63","63","63","0","63","63","63","NA","63","63","0","63","NA","63","63","0","63","NA","63","NA","63","0","0","63","63","0","63","63","64","z","10/09/18 16:23:53","The main experiment item","yes","FIN__AB__M21__7%3A10%3A17.osexp","C:\Users\ERP Testing Room\Desktop\Joanna\morph21","no","mono","no","18","no","white","no","yes","1080","legacy","63","63","C:/Users/ERP Testing Room/Desktop/Joanna/morph21/subject-139.csv","xpyriment","Jazzy James","3.1.4","0","z","NA","NA","NA","NA","space","z","779","NA","NA","NA","NA","155016","779","2","legacy","1024","2","48000","-16","AB_m21","139","odd","FILL_NW","CORG","2249","392112","390528","387527","157275","NA","NA","NA","NA","392106","391025","NA","390028","NA","390018","392106","2258","392512","NA","NA","391112","2249","2249","391503","390018","2249","391112","392512","morph21_Oliver/Morris","53","42211","64","yes","1280","7"
"400","81.5384615385","81.5384615385","664.676923077","664.676923077","black","no","xpyriment","legacy","legacy","0","208","NA","uniform","54789","1000","0.0182518388728","0","undefined","0","0","64","64","64","0","64","64","64","NA","64","64","0","64","NA","64","64","0","64","NA","64","NA","64","0","0","64","64","0","64","64","65","z","10/09/18 16:23:53","The main experiment item","yes","FIN__AB__M21__7%3A10%3A17.osexp","C:\Users\ERP Testing Room\Desktop\Joanna\morph21","no","mono","no","18","no","white","no","yes","1080","legacy","64","64","C:/Users/ERP Testing Room/Desktop/Joanna/morph21/subject-139.csv","xpyriment","Jazzy James","3.1.4","0","None","NA","NA","NA","NA","space","None","993","NA","NA","NA","NA","155016","993","2","legacy","1024","2","48000","-16","AB_m21","139","odd","FILL_NW","BUTE","2249","395345","393745","387527","157275","NA","NA","NA","NA","392106","394242","NA","393245","NA","393241","395339","2258","395745","NA","NA","394345","2249","2249","394737","393241","2249","394345","395745","morph21_Oliver/Morris","53","43204","65","yes","1280","5"
"400","80.303030303","80.303030303","669.590909091","669.590909091","black","no","xpyriment","legacy","legacy","0","208","NA","uniform","58811","1000","0.0170036217714","0","undefined","0","0","65","65","65","0","65","65","65","NA","65","65","0","65","NA","65","65","0","65","NA","65","NA","65","0","0","65","65","0","65","65","66","z","10/09/18 16:23:53","The main experiment item","yes","FIN__AB__M21__7%3A10%3A17.osexp","C:\Users\ERP Testing Room\Desktop\Joanna\morph21","no","mono","no","18","no","white","no","yes","1080","legacy","65","65","C:/Users/ERP Testing Room/Desktop/Joanna/morph21/subject-139.csv","xpyriment","Jazzy James","3.1.4","0","None","NA","NA","NA","NA","space","None","989","NA","NA","NA","NA","155016","989","2","legacy","1024","2","48000","-16","AB_m21","139","odd","FILL_NW","DROES","2249","400229","397112","398720","157275","NA","NA","NA","NA","392106","397609","NA","396612","NA","396604","398710","2258","400629","NA","NA","397720","2249","2249","398112","396603","2249","397720","400629","morph21_Oliver/Morris","53","44193","66","yes","1280","17"
"400","79.1044776119","79.1044776119","672.402985075","672.402985075","black","no","xpyriment","legacy","legacy","0","208","NA","uniform","55999","1000","0.0178574617404","0","undefined","0","0","66","66","66","0","66","66","66","NA","66","66","0","66","NA","66","66","0","66","NA","66","NA","66","0","0","66","66","0","66","66","67","z","10/09/18 16:23:53","The main experiment item","yes","FIN__AB__M21__7%3A10%3A17.osexp","C:\Users\ERP Testing Room\Desktop\Joanna\morph21","no","mono","no","18","no","white","no","yes","1080","legacy","66","66","C:/Users/ERP Testing Room/Desktop/Joanna/morph21/subject-139.csv","xpyriment","Jazzy James","3.1.4","0","/","NA","NA","NA","NA","space","/","858","NA","NA","NA","NA","155016","858","2","legacy","1024","2","48000","-16","AB_m21","139","odd","FILL_NW","HEND","2249","403520","401920","398720","157275","NA","NA","NA","NA","392106","402418","NA","401420","NA","401413","403517","2258","403920","NA","NA","402520","2249","2249","402920","401413","2249","402520","403920","morph21_Oliver/Morris","53","45051","67","yes","1280","28"
"350","79.4117647059","79.4117647059","670.602941176","670.602941176","black","no","xpyriment","legacy","legacy","0","201","NA","uniform","76467","1000","0.0130775367152","1","undefined","1","0","67","67","67","0","67","67","67","NA","67","67","0","67","NA","67","67","0","67","NA","67","NA","67","0","0","67","67","0","67","67","68","/","10/09/18 16:23:53","The main experiment item","yes","FIN__AB__M21__7%3A10%3A17.osexp","C:\Users\ERP Testing Room\Desktop\Joanna\morph21","no","mono","no","18","no","white","no","yes","1080","legacy","67","67","C:/Users/ERP Testing Room/Desktop/Joanna/morph21/subject-139.csv","xpyriment","Jazzy James","3.1.4","0","/","NA","NA","NA","NA","space","/","550","NA","NA","NA","NA","155016","550","2","legacy","1024","2","48000","-16","AB_m21","139","odd","CW_S","TEACHER","2249","406788","405195","398720","157275","NA","NA","NA","NA","406785","405693","NA","404695","NA","404686","406785","2258","407138","NA","NA","405797","2249","2249","406188","404686","2249","405796","407138","morph21_Oliver/Morris","54","45601","68","yes","1280","23"
"300","79.7101449275","79.7101449275","668.246376812","668.246376812","black","no","xpyriment","legacy","legacy","0","202","NA","uniform","74820","1000","0.0133654103181","1","undefined","1","0","68","68","68","0","68","68","68","NA","68","68","0","68","NA","68","68","0","68","NA","68","NA","68","0","0","68","68","0","68","68","69","/","10/09/18 16:23:53","The main experiment item","yes","FIN__AB__M21__7%3A10%3A17.osexp","C:\Users\ERP Testing Room\Desktop\Joanna\morph21","no","mono","no","18","no","white","no","yes","1080","legacy","68","68","C:/Users/ERP Testing Room/Desktop/Joanna/morph21/subject-139.csv","xpyriment","Jazzy James","3.1.4","0","/","NA","NA","NA","NA","space","/","508","NA","NA","NA","NA","155016","508","2","legacy","1024","2","48000","-16","AB_m21","139","odd","CW_L","HEATER","2249","411563","408455","410055","157275","NA","NA","NA","NA","410047","408952","NA","407955","NA","407952","410047","2258","411864","NA","NA","409055","2249","2249","409447","407952","2249","409055","411864","morph21_Oliver/Morris","55","46109","69","yes","1280","16"
"300","80","80","672.514285714","672.514285714","black","no","xpyriment","legacy","legacy","0","205","NA","uniform","61386","1000","0.0162903593653","1","undefined","1","0","69","69","69","0","69","69","69","NA","69","69","0","69","NA","69","69","0","69","NA","69","NA","69","0","0","69","69","0","69","69","70","z","10/09/18 16:23:53","The main experiment item","yes","FIN__AB__M21__7%3A10%3A17.osexp","C:\Users\ERP Testing Room\Desktop\Joanna\morph21","no","mono","no","18","no","white","no","yes","1080","legacy","69","69","C:/Users/ERP Testing Room/Desktop/Joanna/morph21/subject-139.csv","xpyriment","Jazzy James","3.1.4","0","z","NA","NA","NA","NA","space","z","967","NA","NA","NA","NA","155016","967","2","legacy","1024","2","48000","-16","AB_m21","139","odd","NW_S_SIMP","NEXTNELS","2249","414764","413155","410055","157275","NA","NA","NA","NA","414756","413652","NA","412655","NA","412648","414756","2258","415064","NA","NA","413764","2249","2249","414155","412648","2249","413764","415064","morph21_Oliver/Morris","56","47076","70","yes","1280","9"
"400","80.2816901408","80.2816901408","675.633802817","675.633802817","black","no","xpyriment","legacy","legacy","0","208","NA","uniform","65720","1000","0.015216068168","1","undefined","1","0","70","70","70","0","70","70","70","NA","70","70","0","70","NA","70","70","0","70","NA","70","NA","70","0","0","70","70","0","70","70","71","z","10/09/18 16:23:53","The main experiment item","yes","FIN__AB__M21__7%3A10%3A17.osexp","C:\Users\ERP Testing Room\Desktop\Joanna\morph21","no","mono","no","18","no","white","no","yes","1080","legacy","70","70","C:/Users/ERP Testing Room/Desktop/Joanna/morph21/subject-139.csv","xpyriment","Jazzy James","3.1.4","0","z","NA","NA","NA","NA","space","z","894","NA","NA","NA","NA","155016","894","2","legacy","1024","2","48000","-16","AB_m21","139","odd","FILL_NW","SOISE","2249","417964","416364","410055","157275","NA","NA","NA","NA","417958","416861","NA","415864","NA","415858","417958","2258","418364","NA","NA","416964","2249","2249","417355","415858","2249","416964","418364","morph21_Oliver/Morris","57","47970","71","yes","1280","43"
"300","80.5555555556","80.5555555556","674.083333333","674.083333333","black","no","xpyriment","legacy","legacy","0","206","NA","uniform","76465","1000","0.0130778787681","1","undefined","1","0","71","71","71","0","71","71","71","NA","71","71","0","71","NA","71","71","0","71","NA","71","NA","71","0","0","71","71","0","71","71","72","z","10/09/18 16:23:53","The main experiment item","yes","FIN__AB__M21__7%3A10%3A17.osexp","C:\Users\ERP Testing Room\Desktop\Joanna\morph21","no","mono","no","18","no","white","no","yes","1080","legacy","71","71","C:/Users/ERP Testing Room/Desktop/Joanna/morph21/subject-139.csv","xpyriment","Jazzy James","3.1.4","0","z","NA","NA","NA","NA","space","z","564","NA","NA","NA","NA","155016","564","2","legacy","1024","2","48000","-16","AB_m21","139","odd","NW_L_SIMP","ELBOWILM","2249","422722","419614","421214","157275","NA","NA","NA","NA","421206","420111","NA","419114","NA","419106","421206","2258","423023","NA","NA","420214","2249","2249","420606","419106","2249","420214","423023","morph21_Oliver/Morris","58","48534","72","yes","1280","10"
"200","80.8219178082","80.8219178082","671.561643836","671.561643836","black","no","xpyriment","legacy","legacy","0","202","NA","uniform","80942","1000","0.0123545254627","1","undefined","1","0","72","72","72","0","72","72","72","NA","72","72","0","72","NA","72","72","0","72","NA","72","NA","72","0","0","72","72","0","72","72","73","/","10/09/18 16:23:53","The main experiment item","yes","FIN__AB__M21__7%3A10%3A17.osexp","C:\Users\ERP Testing Room\Desktop\Joanna\morph21","no","mono","no","18","no","white","no","yes","1080","legacy","72","72","C:/Users/ERP Testing Room/Desktop/Joanna/morph21/subject-139.csv","xpyriment","Jazzy James","3.1.4","0","/","NA","NA","NA","NA","space","/","490","NA","NA","NA","NA","155016","490","2","legacy","1024","2","48000","-16","AB_m21","139","odd","CW_L","BOOTLESS","2249","425865","424257","421214","157275","NA","NA","NA","NA","425861","424754","NA","423757","NA","423748","425861","2258","426065","NA","NA","424865","2249","2249","425265","423748","2249","424865","426065","morph21_Oliver/Morris","59","49024","73","yes","1280","32"
"200","81.0810810811","81.0810810811","668.851351351","668.851351351","black","no","xpyriment","legacy","legacy","0","201","NA","uniform","79516","1000","0.0125760853162","1","undefined","1","0","73","73","73","0","73","73","73","NA","73","73","0","73","NA","73","73","0","73","NA","73","NA","73","0","0","73","73","0","73","73","74","/","10/09/18 16:23:53","The main experiment item","yes","FIN__AB__M21__7%3A10%3A17.osexp","C:\Users\ERP Testing Room\Desktop\Joanna\morph21","no","mono","no","18","no","white","no","yes","1080","legacy","73","73","C:/Users/ERP Testing Room/Desktop/Joanna/morph21/subject-139.csv","xpyriment","Jazzy James","3.1.4","0","/","NA","NA","NA","NA","space","/","471","NA","NA","NA","NA","155016","471","2","legacy","1024","2","48000","-16","AB_m21","139","odd","CW_S","CAMPAIGNER","2249","428924","427340","421214","157275","NA","NA","NA","NA","428915","427837","NA","426840","NA","426834","428915","2258","429124","NA","NA","427924","2249","2249","428315","426834","2249","427924","429124","morph21_Oliver/Morris","60","49495","74","yes","1280","15"
"400","80","80","665.92","665.92","black","no","xpyriment","legacy","legacy","0","202","NA","uniform","71268","1000","0.0140315429085","undefined","undefined","0","0","74","74","74","0","74","74","74","NA","74","74","0","74","NA","74","74","0","74","NA","74","NA","74","0","0","74","74","0","74","74","75","/","10/09/18 16:23:53","The main experiment item","yes","FIN__AB__M21__7%3A10%3A17.osexp","C:\Users\ERP Testing Room\Desktop\Joanna\morph21","no","mono","no","18","no","white","no","yes","1080","legacy","74","74","C:/Users/ERP Testing Room/Desktop/Joanna/morph21/subject-139.csv","xpyriment","Jazzy James","3.1.4","0","space","space","NA","NA","NA","space","z","2092","2092","NA","NA","NA","155016","449","2","legacy","1024","2","48000","-16","AB_m21","139","odd","CW_L","SHAPELY","2249","433582","430482","432074","157275","433990","NA","NA","NA","428915","430979","NA","429982","NA","429974","432064","2258","436083","NA","NA","431074","2249","2249","431465","429974","2249","431074","433982","morph21_Oliver/Morris","60","49944","75","yes","1280","35"
"350","80.2631578947","80.2631578947","667.394736842","667.394736842","black","no","xpyriment","legacy","legacy","0","205","NA","uniform","65897","1000","0.0151751976569","1","undefined","1","0","75","75","75","0","75","75","75","NA","75","75","0","75","NA","75","75","0","75","NA","75","NA","75","0","0","75","75","0","75","75","76","z","10/09/18 16:23:53","The main experiment item","yes","FIN__AB__M21__7%3A10%3A17.osexp","C:\Users\ERP Testing Room\Desktop\Joanna\morph21","no","mono","no","18","no","white","no","yes","1080","legacy","75","75","C:/Users/ERP Testing Room/Desktop/Joanna/morph21/subject-139.csv","xpyriment","Jazzy James","3.1.4","0","z","space","NA","NA","NA","space","z","778","2092","NA","NA","NA","155016","778","2","legacy","1024","2","48000","-16","AB_m21","139","odd","NW_S_SIMP","BASKODY","2249","438824","437216","432074","157275","433990","NA","NA","NA","438815","437713","NA","436716","NA","436709","438815","2258","439174","NA","NA","437824","2249","2249","438216","436709","2249","437824","439174","morph21_Oliver/Morris","61","50722","76","yes","1280","10"
"350","80.5194805195","80.5194805195","668.675324675","668.675324675","black","no","xpyriment","legacy","legacy","0","206","NA","uniform","68514","1000","0.0145955571124","1","undefined","1","0","76","76","76","0","76","76","76","NA","76","76","0","76","NA","76","76","0","76","NA","76","NA","76","0","0","76","76","0","76","76","77","z","10/09/18 16:23:53","The main experiment item","yes","FIN__AB__M21__7%3A10%3A17.osexp","C:\Users\ERP Testing Room\Desktop\Joanna\morph21","no","mono","no","18","no","white","no","yes","1080","legacy","76","76","C:/Users/ERP Testing Room/Desktop/Joanna/morph21/subject-139.csv","xpyriment","Jazzy James","3.1.4","0","z","space","NA","NA","NA","space","z","766","2092","NA","NA","NA","155016","766","2","legacy","1024","2","48000","-16","AB_m21","139","odd","NW_L_SIMP","WIGITH","2249","442125","440499","432074","157275","433990","NA","NA","NA","442115","440996","NA","439999","NA","439992","442115","2258","442475","NA","NA","441125","2249","2249","441517","439992","2249","441125","442475","morph21_Oliver/Morris","62","51488","77","yes","1280","9"
"200","79.4871794872","79.4871794872","666.397435897","666.397435897","black","no","xpyriment","legacy","legacy","0","205","NA","uniform","65400","1000","0.0152905198777","0","undefined","0","0","77","77","77","0","77","77","77","NA","77","77","0","77","NA","77","77","0","77","NA","77","NA","77","0","0","77","77","0","77","77","78","z","10/09/18 16:23:53","The main experiment item","yes","FIN__AB__M21__7%3A10%3A17.osexp","C:\Users\ERP Testing Room\Desktop\Joanna\morph21","no","mono","no","18","no","white","no","yes","1080","legacy","77","77","C:/Users/ERP Testing Room/Desktop/Joanna/morph21/subject-139.csv","xpyriment","Jazzy James","3.1.4","0","/","space","NA","NA","NA","space","/","491","2092","NA","NA","NA","155016","491","2","legacy","1024","2","48000","-16","AB_m21","139","odd","NW_S_SIMP","THRILLANGE","2249","446892","443775","445384","157275","433990","NA","NA","NA","442115","444272","NA","443275","NA","443267","445374","2258","447092","NA","NA","444384","2249","2249","444775","443267","2249","444384","447092","morph21_Oliver/Morris","62","51979","78","yes","1280","22"
"250","79.746835443","79.746835443","666.82278481","666.82278481","black","no","xpyriment","legacy","legacy","0","202","NA","uniform","69467","1000","0.0143953243986","1","undefined","1","0","78","78","78","0","78","78","78","NA","78","78","0","78","NA","78","78","0","78","NA","78","NA","78","0","0","78","78","0","78","78","79","/","10/09/18 16:23:53","The main experiment item","yes","FIN__AB__M21__7%3A10%3A17.osexp","C:\Users\ERP Testing Room\Desktop\Joanna\morph21","no","mono","no","18","no","white","no","yes","1080","legacy","78","78","C:/Users/ERP Testing Room/Desktop/Joanna/morph21/subject-139.csv","xpyriment","Jazzy James","3.1.4","0","/","space","NA","NA","NA","space","/","700","2092","NA","NA","NA","155016","700","2","legacy","1024","2","48000","-16","AB_m21","139","odd","CW_L","CREAMY","2249","449975","448367","445384","157275","433990","NA","NA","NA","449970","448864","NA","447867","NA","447861","449970","2258","450226","NA","NA","448975","2249","2249","449367","447861","2249","448975","450226","morph21_Oliver/Morris","63","52679","79","yes","1280","49"
"250","78.75","78.75","670.95","670.95","black","no","xpyriment","legacy","legacy","0","204","NA","uniform","59420","1000","0.0168293503871","0","undefined","0","0","79","79","79","0","79","79","79","NA","79","79","0","79","NA","79","79","0","79","NA","79","NA","79","0","0","79","79","0","79","79","80","z","10/09/18 16:23:53","The main experiment item","yes","FIN__AB__M21__7%3A10%3A17.osexp","C:\Users\ERP Testing Room\Desktop\Joanna\morph21","no","mono","no","18","no","white","no","yes","1080","legacy","79","79","C:/Users/ERP Testing Room/Desktop/Joanna/morph21/subject-139.csv","xpyriment","Jazzy James","3.1.4","0","None","space","NA","NA","NA","space","None","997","2092","NA","NA","NA","155016","997","2","legacy","1024","2","48000","-16","AB_m21","139","odd","NW_L_COMP","TRIPARY","2249","453067","451467","445384","157275","433990","NA","NA","NA","449970","451964","NA","450967","NA","450960","453064","2258","453317","NA","NA","452067","2249","2249","452467","450960","2249","452067","453317","morph21_Oliver/Morris","63","53676","80","yes","1280","2"
"200","79.012345679","79.012345679","670.827160494","670.827160494","black","no","xpyriment","legacy","legacy","0","207","NA","uniform","65130","1000","0.0153539075695","1","undefined","1","0","80","80","80","0","80","80","80","NA","80","80","0","80","NA","80","80","0","80","NA","80","NA","80","0","0","80","80","0","80","80","81","/","10/09/18 16:23:53","The main experiment item","yes","FIN__AB__M21__7%3A10%3A17.osexp","C:\Users\ERP Testing Room\Desktop\Joanna\morph21","no","mono","no","18","no","white","no","yes","1080","legacy","80","80","C:/Users/ERP Testing Room/Desktop/Joanna/morph21/subject-139.csv","xpyriment","Jazzy James","3.1.4","0","/","space","NA","NA","NA","space","/","661","2092","NA","NA","NA","155016","661","2","legacy","1024","2","48000","-16","AB_m21","139","odd","FILL_W","GOLF","2249","457609","454509","456101","157275","433990","NA","NA","NA","456091","455006","NA","454009","NA","454003","456091","2258","457809","NA","NA","455101","2249","2249","455492","454003","2249","455101","457809","morph21_Oliver/Morris","64","54337","81","yes","1280","28"
"400","79.2682926829","79.2682926829","672.853658537","672.853658537","black","no","xpyriment","legacy","legacy","0","204","NA","uniform","58006","1000","0.0172395959039","1","undefined","1","0","81","81","81","0","81","81","81","NA","81","81","0","81","NA","81","81","0","81","NA","81","NA","81","0","0","81","81","0","81","81","82","z","10/09/18 16:23:53","The main experiment item","yes","FIN__AB__M21__7%3A10%3A17.osexp","C:\Users\ERP Testing Room\Desktop\Joanna\morph21","no","mono","no","18","no","white","no","yes","1080","legacy","81","81","C:/Users/ERP Testing Room/Desktop/Joanna/morph21/subject-139.csv","xpyriment","Jazzy James","3.1.4","0","z","space","NA","NA","NA","space","z","837","2092","NA","NA","NA","155016","837","2","legacy","1024","2","48000","-16","AB_m21","139","odd","NW_L_COMP","FLITENCE","2249","460702","459077","456101","157275","433990","NA","NA","NA","460694","459574","NA","458577","NA","458572","460694","2258","461102","NA","NA","459702","2249","2249","460094","458572","2249","459702","461102","morph21_Oliver/Morris","65","55174","82","yes","1280","3"
"400","79.5180722892","79.5180722892","671.903614458","671.903614458","black","no","xpyriment","legacy","legacy","0","202","NA","uniform","71989","1000","0.0138910111267","1","undefined","1","0","82","82","82","0","82","82","82","NA","82","82","0","82","NA","82","82","0","82","NA","82","NA","82","0","0","82","82","0","82","82","83","/","10/09/18 16:23:53","The main experiment item","yes","FIN__AB__M21__7%3A10%3A17.osexp","C:\Users\ERP Testing Room\Desktop\Joanna\morph21","no","mono","no","18","no","white","no","yes","1080","legacy","82","82","C:/Users/ERP Testing Room/Desktop/Joanna/morph21/subject-139.csv","xpyriment","Jazzy James","3.1.4","0","/","space","NA","NA","NA","space","/","594","2092","NA","NA","NA","155016","594","2","legacy","1024","2","48000","-16","AB_m21","139","odd","CW_L","BLINDNESS","2249","463985","462385","456101","157275","433990","NA","NA","NA","463978","462883","NA","461885","NA","461878","463978","2258","464385","NA","NA","462985","2249","2249","463377","461878","2249","462985","464385","morph21_Oliver/Morris","66","55768","83","yes","1280","40"
"250","78.5714285714","78.5714285714","675.726190476","675.726190476","black","no","xpyriment","legacy","legacy","0","206","NA","uniform","55991","1000","0.0178600132164","0","undefined","0","0","83","83","83","0","83","83","83","NA","83","83","0","83","NA","83","83","0","83","NA","83","NA","83","0","0","83","83","0","83","83","84","z","10/09/18 16:23:53","The main experiment item","yes","FIN__AB__M21__7%3A10%3A17.osexp","C:\Users\ERP Testing Room\Desktop\Joanna\morph21","no","mono","no","18","no","white","no","yes","1080","legacy","83","83","C:/Users/ERP Testing Room/Desktop/Joanna/morph21/subject-139.csv","xpyriment","Jazzy James","3.1.4","0","None","space","NA","NA","NA","space","None","993","2092","NA","NA","NA","155016","993","2","legacy","1024","2","48000","-16","AB_m21","139","odd","NW_L_SIMP","SHOOTMANT","2249","468802","465694","467294","157275","433990","NA","NA","NA","463978","466191","NA","465194","NA","465186","467287","2258","469053","NA","NA","466294","2249","2249","466686","465186","2249","466294","469053","morph21_Oliver/Morris","66","56761","84","yes","1280","16"
"350","78.8235294118","78.8235294118","677.423529412","677.423529412","black","no","xpyriment","legacy","legacy","0","208","NA","uniform","61584","1000","0.0162379838919","1","undefined","1","0","84","84","84","0","84","84","84","NA","84","84","0","84","NA","84","84","0","84","NA","84","NA","84","0","0","84","84","0","84","84","85","z","10/09/18 16:23:53","The main experiment item","yes","FIN__AB__M21__7%3A10%3A17.osexp","C:\Users\ERP Testing Room\Desktop\Joanna\morph21","no","mono","no","18","no","white","no","yes","1080","legacy","84","84","C:/Users/ERP Testing Room/Desktop/Joanna/morph21/subject-139.csv","xpyriment","Jazzy James","3.1.4","0","z","space","NA","NA","NA","space","z","820","2092","NA","NA","NA","155016","820","2","legacy","1024","2","48000","-16","AB_m21","139","odd","FILL_NW","DOADS","2249","471894","470311","467294","157275","433990","NA","NA","NA","471889","470808","NA","469811","NA","469802","471889","2258","472244","NA","NA","470894","2249","2249","471294","469802","2249","470894","472244","morph21_Oliver/Morris","67","57581","85","yes","1280","15"
"200","79.0697674419","79.0697674419","677.651162791","677.651162791","black","no","xpyriment","legacy","legacy","0","207","NA","uniform","67081","1000","0.0149073508147","1","undefined","1","0","85","85","85","0","85","85","85","NA","85","85","0","85","NA","85","85","0","85","NA","85","NA","85","0","0","85","85","0","85","85","86","/","10/09/18 16:23:53","The main experiment item","yes","FIN__AB__M21__7%3A10%3A17.osexp","C:\Users\ERP Testing Room\Desktop\Joanna\morph21","no","mono","no","18","no","white","no","yes","1080","legacy","85","85","C:/Users/ERP Testing Room/Desktop/Joanna/morph21/subject-139.csv","xpyriment","Jazzy James","3.1.4","0","/","space","NA","NA","NA","space","/","697","2092","NA","NA","NA","155016","697","2","legacy","1024","2","48000","-16","AB_m21","139","odd","FILL_W","BLEAK","2249","475161","473569","467294","157275","433990","NA","NA","NA","475158","474066","NA","473069","NA","473060","475158","2258","475361","NA","NA","474161","2249","2249","474561","473060","2249","474161","475361","morph21_Oliver/Morris","68","58278","86","yes","1280","5"
"250","79.3103448276","79.3103448276","676.344827586","676.344827586","black","no","xpyriment","legacy","legacy","0","201","NA","uniform","74095","1000","0.0134961873271","1","undefined","1","0","86","86","86","0","86","86","86","NA","86","86","0","86","NA","86","86","0","86","NA","86","NA","86","0","0","86","86","0","86","86","87","/","10/09/18 16:23:53","The main experiment item","yes","FIN__AB__M21__7%3A10%3A17.osexp","C:\Users\ERP Testing Room\Desktop\Joanna\morph21","no","mono","no","18","no","white","no","yes","1080","legacy","86","86","C:/Users/ERP Testing Room/Desktop/Joanna/morph21/subject-139.csv","xpyriment","Jazzy James","3.1.4","0","/","space","NA","NA","NA","space","/","564","2092","NA","NA","NA","155016","564","2","legacy","1024","2","48000","-16","AB_m21","139","odd","CW_S","TUTORING","2249","479796","476679","478287","157275","433990","NA","NA","NA","478277","477176","NA","476179","NA","476168","478277","2258","480046","NA","NA","477287","2249","2249","477679","476167","2249","477287","480046","morph21_Oliver/Morris","69","58842","87","yes","1280","27"
"400","78.4090909091","78.4090909091","674.340909091","674.340909091","black","no","xpyriment","legacy","legacy","0","208","NA","uniform","72952","1000","0.0137076433819","0","undefined","0","0","87","87","87","0","87","87","87","NA","87","87","0","87","NA","87","87","0","87","NA","87","NA","87","0","0","87","87","0","87","87","88","z","10/09/18 16:23:53","The main experiment item","yes","FIN__AB__M21__7%3A10%3A17.osexp","C:\Users\ERP Testing Room\Desktop\Joanna\morph21","no","mono","no","18","no","white","no","yes","1080","legacy","87","87","C:/Users/ERP Testing Room/Desktop/Joanna/morph21/subject-139.csv","xpyriment","Jazzy James","3.1.4","0","/","space","NA","NA","NA","space","/","500","2092","NA","NA","NA","155016","500","2","legacy","1024","2","48000","-16","AB_m21","139","odd","FILL_NW","VELT","2249","482887","481287","478287","157275","433990","NA","NA","NA","478277","481784","NA","480787","NA","480782","482884","2258","483287","NA","NA","481887","2249","2249","482287","480782","2249","481887","483287","morph21_Oliver/Morris","69","59342","88","yes","1280","46"
"250","78.6516853933","78.6516853933","672.584269663","672.584269663","black","no","xpyriment","legacy","legacy","0","207","NA","uniform","81443","1000","0.0122785260857","1","undefined","1","0","88","88","88","0","88","88","88","NA","88","88","0","88","NA","88","88","0","88","NA","88","NA","88","0","0","88","88","0","88","88","89","/","10/09/18 16:23:53","The main experiment item","yes","FIN__AB__M21__7%3A10%3A17.osexp","C:\Users\ERP Testing Room\Desktop\Joanna\morph21","no","mono","no","18","no","white","no","yes","1080","legacy","88","88","C:/Users/ERP Testing Room/Desktop/Joanna/morph21/subject-139.csv","xpyriment","Jazzy James","3.1.4","0","/","space","NA","NA","NA","space","/","518","2092","NA","NA","NA","155016","518","2","legacy","1024","2","48000","-16","AB_m21","139","odd","FILL_W","SUIT","2249","486237","484629","478287","157275","433990","NA","NA","NA","486232","485126","NA","484129","NA","484124","486232","2258","486487","NA","NA","485237","2249","2249","485629","484124","2249","485237","486487","morph21_Oliver/Morris","70","59860","89","yes","1280","49"
"250","78.8888888889","78.8888888889","672.388888889","672.388888889","black","no","xpyriment","legacy","legacy","0","207","NA","uniform","72724","1000","0.0137506187778","1","undefined","1","0","89","89","89","0","89","89","89","NA","89","89","0","89","NA","89","89","0","89","NA","89","NA","89","0","0","89","89","0","89","89","90","/","10/09/18 16:23:53","The main experiment item","yes","FIN__AB__M21__7%3A10%3A17.osexp","C:\Users\ERP Testing Room\Desktop\Joanna\morph21","no","mono","no","18","no","white","no","yes","1080","legacy","89","89","C:/Users/ERP Testing Room/Desktop/Joanna/morph21/subject-139.csv","xpyriment","Jazzy James","3.1.4","0","/","space","NA","NA","NA","space","/","655","2092","NA","NA","NA","155016","655","2","legacy","1024","2","48000","-16","AB_m21","139","odd","FILL_W","SMOKE","2249","490871","487763","489363","157275","433990","NA","NA","NA","489354","488260","NA","487262","NA","487259","489354","2258","491121","NA","NA","488363","2249","2249","488754","487259","2249","488362","491121","morph21_Oliver/Morris","71","60515","90","yes","1280","50"
"300","78.021978022","78.021978022","673.56043956","673.56043956","black","no","xpyriment","legacy","legacy","0","204","NA","uniform","64424","1000","0.0155221656526","0","undefined","0","0","90","90","90","0","90","90","90","NA","90","90","0","90","NA","90","90","0","90","NA","90","NA","90","0","0","90","90","0","90","90","91","z","10/09/18 16:23:53","The main experiment item","yes","FIN__AB__M21__7%3A10%3A17.osexp","C:\Users\ERP Testing Room\Desktop\Joanna\morph21","no","mono","no","18","no","white","no","yes","1080","legacy","90","90","C:/Users/ERP Testing Room/Desktop/Joanna/morph21/subject-139.csv","xpyriment","Jazzy James","3.1.4","0","/","space","NA","NA","NA","space","/","779","2092","NA","NA","NA","155016","779","2","legacy","1024","2","48000","-16","AB_m21","139","odd","NW_L_COMP","EMPLOYNESS","2249","493905","492296","489363","157275","433990","NA","NA","NA","489354","492793","NA","491796","NA","491787","493895","2258","494205","NA","NA","492904","2249","2249","493297","491787","2249","492904","494205","morph21_Oliver/Morris","71","61294","91","yes","1280","21"
