"ITI","acc","accuracy","average_response_time","avg_rt","background","bidi","canvas_backend","clock_backend","color_backend","compensation","cond_trig","condtrigtime","coordinates","coroutines_cycles","coroutines_duration","coroutines_mean_cycle_duration","correct","correct_instructions_1","correct_new_keyboard_response_1","count_AB_m21","count_ITI","count_blank_screen","count_blink_screen","count_block1","count_break1","count_break2","count_break3_1","count_canvas","count_correct_trigger","count_def_chain","count_end_screen","count_fixation_1","count_getting_started","count_inc_counter","count_incorrect_trigger","count_instructions_1","count_logger","count_logscript","count_new_coroutines","count_new_inline_script","count_new_keyboard_response_1","count_reset_counter_prep","count_reset_counter_run","count_responsescreen","count_sequence","count_start_trigger","count_target_present","count_word_trigger","counter","cresp","datetime","description","disable_garbage_collection","experiment_file","experiment_path","font_bold","font_family","font_italic","font_size","font_underline","foreground","form_clicks","fullscreen","height","keyboard_backend","live_row","live_row_block1","logfile","mouse_backend","opensesame_codename","opensesame_version","repeat_cycle","response","response_break1","response_break2","response_break3_1","response_end_screen","response_instructions_1","response_new_keyboard_response_1","response_time","response_time_break1","response_time_break2","response_time_break3_1","response_time_end_screen","response_time_instructions_1","response_time_new_keyboard_response_1","round_decimals","sampler_backend","sound_buf_size","sound_channels","sound_freq","sound_sample_size","start","subject_nr","subject_parity","targ_type","target","time_AB_m21","time_ITI","time_blank_screen","time_blink_screen","time_block1","time_break1","time_break2","time_break3_1","time_canvas","time_correct_trigger","time_def_chain","time_end_screen","time_fixation_1","time_getting_started","time_inc_counter","time_incorrect_trigger","time_instructions_1","time_logger","time_logscript","time_new_inline_script","time_new_keyboard_response_1","time_reset_counter_prep","time_reset_counter_run","time_responsescreen","time_sequence","time_start_trigger","time_target_present","time_word_trigger","title","total_correct","total_response_time","total_responses","uniform_coordinates","width","word_trig"
"400","0","0","989","989","black","no","xpyriment","legacy","legacy","0","201","NA","uniform","53010","1000","0.0188643652141","0","undefined","0","0","0","0","0","0","0","0","0","NA","0","0","0","0","NA","0","0","0","0","NA","0","NA","0","0","0","0","0","0","0","0","1","/","04/11/19 12:30:58","The main experiment item","yes","FIN__AB__M21__7%3A10%3A17.osexp","C:\Users\ERP Testing Room\Desktop\Joanna\morph21","no","mono","no","18","no","white","no","yes","1080","legacy","0","0","C:/Users/ERP Testing Room/Desktop/Joanna/morph21/subject-172.csv","xpyriment","Kafkaesque Koffka","3.2.5","0","None","NA","NA","NA","NA","space","None","989","NA","NA","NA","NA","172077","989","2","legacy","1024","2","48000","-16","AB_m21","172","even","CW_S","WIDOWED","1841","176875","175200","NA","173931","NA","NA","NA","NA","NA","175697","NA","174695","NA","174621","176872","1853","177275","NA","NA","175883","1841","1841","176275","174621","1841","175883","177275","morph21_Oliver/Morris","0","989","1","yes","1280","7"
"200","0","0","991.5","991.5","black","no","xpyriment","legacy","legacy","0","201","NA","uniform","52374","1000","0.0190934433116","0","undefined","0","0","1","1","1","0","1","1","1","NA","1","1","0","1","NA","1","1","0","1","NA","1","NA","1","0","0","1","1","0","1","1","2","/","04/11/19 12:30:58","The main experiment item","yes","FIN__AB__M21__7%3A10%3A17.osexp","C:\Users\ERP Testing Room\Desktop\Joanna\morph21","no","mono","no","18","no","white","no","yes","1080","legacy","1","1","C:/Users/ERP Testing Room/Desktop/Joanna/morph21/subject-172.csv","xpyriment","Kafkaesque Koffka","3.2.5","0","None","NA","NA","NA","NA","space","None","994","NA","NA","NA","NA","172077","994","2","legacy","1024","2","48000","-16","AB_m21","172","even","CW_S","LISTENER","1841","180142","178492","NA","173931","NA","NA","NA","NA","NA","178989","NA","177992","NA","177980","180136","1853","180342","NA","NA","179142","1841","1841","179533","177980","1841","179142","180342","morph21_Oliver/Morris","0","1983","2","yes","1280","18"
"350","0","0","991.666666667","991.666666667","black","no","xpyriment","legacy","legacy","0","202","NA","uniform","54382","1000","0.0183884373506","0","undefined","0","0","2","2","2","0","2","2","2","NA","2","2","0","2","NA","2","2","0","2","NA","2","NA","2","0","0","2","2","0","2","2","3","/","04/11/19 12:30:58","The main experiment item","yes","FIN__AB__M21__7%3A10%3A17.osexp","C:\Users\ERP Testing Room\Desktop\Joanna\morph21","no","mono","no","18","no","white","no","yes","1080","legacy","2","2","C:/Users/ERP Testing Room/Desktop/Joanna/morph21/subject-172.csv","xpyriment","Kafkaesque Koffka","3.2.5","0","None","NA","NA","NA","NA","space","None","992","NA","NA","NA","NA","172077","992","2","legacy","1024","2","48000","-16","AB_m21","172","even","CW_L","BOMBER","1841","184792","181608","183283","173931","NA","NA","NA","NA","NA","182106","NA","181108","NA","181098","183275","1853","185142","NA","NA","182283","1841","1841","182675","181098","1841","182283","185142","morph21_Oliver/Morris","0","2975","3","yes","1280","7"
"250","25","25","959","959","black","no","xpyriment","legacy","legacy","0","207","NA","uniform","57252","1000","0.01746663872","1","undefined","1","0","3","3","3","0","3","3","3","NA","3","3","0","3","NA","3","3","0","3","NA","3","NA","3","0","0","3","3","0","3","3","4","/","04/11/19 12:30:58","The main experiment item","yes","FIN__AB__M21__7%3A10%3A17.osexp","C:\Users\ERP Testing Room\Desktop\Joanna\morph21","no","mono","no","18","no","white","no","yes","1080","legacy","3","3","C:/Users/ERP Testing Room/Desktop/Joanna/morph21/subject-172.csv","xpyriment","Kafkaesque Koffka","3.2.5","0","/","NA","NA","NA","NA","space","/","861","NA","NA","NA","NA","172077","861","2","legacy","1024","2","48000","-16","AB_m21","172","even","FILL_W","WEAVE","1841","187910","186251","183283","173931","NA","NA","NA","NA","187906","186748","NA","185751","NA","185741","187906","1853","188160","NA","NA","186918","1841","1841","187310","185741","1841","186918","188160","morph21_Oliver/Morris","1","3836","4","yes","1280","12"
"300","20","20","965","965","black","no","xpyriment","legacy","legacy","0","207","NA","uniform","52432","1000","0.019072322246","0","undefined","0","0","4","4","4","0","4","4","4","NA","4","4","0","4","NA","4","4","0","4","NA","4","NA","4","0","0","4","4","0","4","4","5","/","04/11/19 12:30:58","The main experiment item","yes","FIN__AB__M21__7%3A10%3A17.osexp","C:\Users\ERP Testing Room\Desktop\Joanna\morph21","no","mono","no","18","no","white","no","yes","1080","legacy","4","4","C:/Users/ERP Testing Room/Desktop/Joanna/morph21/subject-172.csv","xpyriment","Kafkaesque Koffka","3.2.5","0","None","NA","NA","NA","NA","space","None","989","NA","NA","NA","NA","172077","989","2","legacy","1024","2","48000","-16","AB_m21","172","even","FILL_W","BOX","1841","191060","189360","183283","173931","NA","NA","NA","NA","187906","189857","NA","188860","NA","188852","191057","1853","191360","NA","NA","190068","1841","1841","190460","188852","1841","190068","191360","morph21_Oliver/Morris","1","4825","5","yes","1280","42"
"200","16.6666666667","16.6666666667","970.166666667","970.166666667","black","no","xpyriment","legacy","legacy","0","208","NA","uniform","52271","1000","0.0191310669396","0","undefined","0","0","5","5","5","0","5","5","5","NA","5","5","0","5","NA","5","5","0","5","NA","5","NA","5","0","0","5","5","0","5","5","6","z","04/11/19 12:30:58","The main experiment item","yes","FIN__AB__M21__7%3A10%3A17.osexp","C:\Users\ERP Testing Room\Desktop\Joanna\morph21","no","mono","no","18","no","white","no","yes","1080","legacy","5","5","C:/Users/ERP Testing Room/Desktop/Joanna/morph21/subject-172.csv","xpyriment","Kafkaesque Koffka","3.2.5","0","None","NA","NA","NA","NA","space","None","996","NA","NA","NA","NA","172077","996","2","legacy","1024","2","48000","-16","AB_m21","172","even","FILL_NW","GAIRS","1841","195735","192577","194227","173931","NA","NA","NA","NA","187906","193074","NA","192077","NA","192073","194223","1853","195935","NA","NA","193227","1841","1841","193627","192072","1841","193227","195935","morph21_Oliver/Morris","1","5821","6","yes","1280","23"
"400","14.2857142857","14.2857142857","973","973","black","no","xpyriment","legacy","legacy","0","207","NA","uniform","58413","1000","0.0171194768288","0","undefined","0","0","6","6","6","0","6","6","6","NA","6","6","0","6","NA","6","6","0","6","NA","6","NA","6","0","0","6","6","0","6","6","7","/","04/11/19 12:30:58","The main experiment item","yes","FIN__AB__M21__7%3A10%3A17.osexp","C:\Users\ERP Testing Room\Desktop\Joanna\morph21","no","mono","no","18","no","white","no","yes","1080","legacy","6","6","C:/Users/ERP Testing Room/Desktop/Joanna/morph21/subject-172.csv","xpyriment","Kafkaesque Koffka","3.2.5","0","None","NA","NA","NA","NA","space","None","990","NA","NA","NA","NA","172077","990","2","legacy","1024","2","48000","-16","AB_m21","172","even","FILL_W","CRUNCH","1841","198735","197085","194227","173931","NA","NA","NA","NA","187906","197582","NA","196585","NA","196580","198725","1853","199135","NA","NA","197735","1841","1841","198127","196580","1841","197735","199135","morph21_Oliver/Morris","1","6811","7","yes","1280","20"
"200","12.5","12.5","975","975","black","no","xpyriment","legacy","legacy","0","203","NA","uniform","50210","1000","0.0199163513244","0","undefined","0","0","7","7","7","0","7","7","7","NA","7","7","0","7","NA","7","7","0","7","NA","7","NA","7","0","0","7","7","0","7","7","8","z","04/11/19 12:30:58","The main experiment item","yes","FIN__AB__M21__7%3A10%3A17.osexp","C:\Users\ERP Testing Room\Desktop\Joanna\morph21","no","mono","no","18","no","white","no","yes","1080","legacy","7","7","C:/Users/ERP Testing Room/Desktop/Joanna/morph21/subject-172.csv","xpyriment","Kafkaesque Koffka","3.2.5","0","None","NA","NA","NA","NA","space","None","989","NA","NA","NA","NA","172077","989","2","legacy","1024","2","48000","-16","AB_m21","172","even","NW_S_COMP","ADOPTISH","1841","202044","200377","194227","173931","NA","NA","NA","NA","187906","200874","NA","199877","NA","199867","202033","1853","202244","NA","NA","201044","1841","1841","201435","199867","1841","201044","202244","morph21_Oliver/Morris","1","7800","8","yes","1280","19"
"200","11.1111111111","11.1111111111","977.111111111","977.111111111","black","no","xpyriment","legacy","legacy","0","208","NA","uniform","58201","1000","0.0171818353637","0","undefined","0","0","8","8","8","0","8","8","8","NA","8","8","0","8","NA","8","8","0","8","NA","8","NA","8","0","0","8","8","0","8","8","9","z","04/11/19 12:30:58","The main experiment item","yes","FIN__AB__M21__7%3A10%3A17.osexp","C:\Users\ERP Testing Room\Desktop\Joanna\morph21","no","mono","no","18","no","white","no","yes","1080","legacy","8","8","C:/Users/ERP Testing Room/Desktop/Joanna/morph21/subject-172.csv","xpyriment","Kafkaesque Koffka","3.2.5","0","None","NA","NA","NA","NA","space","None","994","NA","NA","NA","NA","172077","994","2","legacy","1024","2","48000","-16","AB_m21","172","even","FILL_NW","FALONS","1841","206587","203411","205078","173931","NA","NA","NA","NA","187906","203909","NA","202911","NA","202902","205072","1853","206787","NA","NA","204078","1841","1841","204470","202902","1841","204078","206787","morph21_Oliver/Morris","1","8794","9","yes","1280","19"
"300","10","10","978.5","978.5","black","no","xpyriment","legacy","legacy","0","202","NA","uniform","54055","1000","0.0184996762557","0","undefined","0","0","9","9","9","0","9","9","9","NA","9","9","0","9","NA","9","9","0","9","NA","9","NA","9","0","0","9","9","0","9","9","10","/","04/11/19 12:30:58","The main experiment item","yes","FIN__AB__M21__7%3A10%3A17.osexp","C:\Users\ERP Testing Room\Desktop\Joanna\morph21","no","mono","no","18","no","white","no","yes","1080","legacy","9","9","C:/Users/ERP Testing Room/Desktop/Joanna/morph21/subject-172.csv","xpyriment","Kafkaesque Koffka","3.2.5","0","None","NA","NA","NA","NA","space","None","991","NA","NA","NA","NA","172077","991","2","legacy","1024","2","48000","-16","AB_m21","172","even","CW_L","PROFESSOR","1841","209578","207895","205078","173931","NA","NA","NA","NA","187906","208392","NA","207395","NA","207391","209569","1853","209878","NA","NA","208578","1841","1841","208970","207391","1841","208578","209878","morph21_Oliver/Morris","1","9785","10","yes","1280","47"
"300","9.09090909091","9.09090909091","979.818181818","979.818181818","black","no","xpyriment","legacy","legacy","0","208","NA","uniform","53533","1000","0.018680066501","0","undefined","0","0","10","10","10","0","10","10","10","NA","10","10","0","10","NA","10","10","0","10","NA","10","NA","10","0","0","10","10","0","10","10","11","z","04/11/19 12:30:58","The main experiment item","yes","FIN__AB__M21__7%3A10%3A17.osexp","C:\Users\ERP Testing Room\Desktop\Joanna\morph21","no","mono","no","18","no","white","no","yes","1080","legacy","10","10","C:/Users/ERP Testing Room/Desktop/Joanna/morph21/subject-172.csv","xpyriment","Kafkaesque Koffka","3.2.5","0","None","NA","NA","NA","NA","space","None","993","NA","NA","NA","NA","172077","993","2","legacy","1024","2","48000","-16","AB_m21","172","even","FILL_NW","DULKS","1841","212620","210937","205078","173931","NA","NA","NA","NA","187906","211434","NA","210437","NA","210431","212613","1853","212920","NA","NA","211620","1841","1841","212012","210431","1841","211620","212920","morph21_Oliver/Morris","1","10778","11","yes","1280","18"
"200","8.33333333333","8.33333333333","980.75","980.75","black","no","xpyriment","legacy","legacy","0","203","NA","uniform","57937","1000","0.0172601273797","0","undefined","0","0","11","11","11","0","11","11","11","NA","11","11","0","11","NA","11","11","0","11","NA","11","NA","11","0","0","11","11","0","11","11","12","z","04/11/19 12:30:58","The main experiment item","yes","FIN__AB__M21__7%3A10%3A17.osexp","C:\Users\ERP Testing Room\Desktop\Joanna\morph21","no","mono","no","18","no","white","no","yes","1080","legacy","11","11","C:/Users/ERP Testing Room/Desktop/Joanna/morph21/subject-172.csv","xpyriment","Kafkaesque Koffka","3.2.5","0","None","NA","NA","NA","NA","space","None","991","NA","NA","NA","NA","172077","991","2","legacy","1024","2","48000","-16","AB_m21","172","even","NW_S_COMP","PILLIZE","1841","217229","214045","215720","173931","NA","NA","NA","NA","187906","214542","NA","213545","NA","213540","215711","1853","217429","NA","NA","214720","1841","1841","215112","213540","1841","214720","217429","morph21_Oliver/Morris","1","11769","12","yes","1280","13"
"250","7.69230769231","7.69230769231","981.615384615","981.615384615","black","no","xpyriment","legacy","legacy","0","205","NA","uniform","54929","1000","0.0182053195944","0","undefined","0","0","12","12","12","0","12","12","12","NA","12","12","0","12","NA","12","12","0","12","NA","12","NA","12","0","0","12","12","0","12","12","13","z","04/11/19 12:30:58","The main experiment item","yes","FIN__AB__M21__7%3A10%3A17.osexp","C:\Users\ERP Testing Room\Desktop\Joanna\morph21","no","mono","no","18","no","white","no","yes","1080","legacy","12","12","C:/Users/ERP Testing Room/Desktop/Joanna/morph21/subject-172.csv","xpyriment","Kafkaesque Koffka","3.2.5","0","None","NA","NA","NA","NA","space","None","992","NA","NA","NA","NA","172077","992","2","legacy","1024","2","48000","-16","AB_m21","172","even","NW_S_SIMP","ZOOMFIL","1841","220179","218529","215720","173931","NA","NA","NA","NA","187906","219026","NA","218029","NA","218017","220171","1853","220429","NA","NA","219179","1841","1841","219570","218017","1841","219179","220429","morph21_Oliver/Morris","1","12761","13","yes","1280","19"
"300","7.14285714286","7.14285714286","982.142857143","982.142857143","black","no","xpyriment","legacy","legacy","0","201","NA","uniform","54879","1000","0.0182219063758","0","undefined","0","0","13","13","13","0","13","13","13","NA","13","13","0","13","NA","13","13","0","13","NA","13","NA","13","0","0","13","13","0","13","13","14","/","04/11/19 12:30:58","The main experiment item","yes","FIN__AB__M21__7%3A10%3A17.osexp","C:\Users\ERP Testing Room\Desktop\Joanna\morph21","no","mono","no","18","no","white","no","yes","1080","legacy","13","13","C:/Users/ERP Testing Room/Desktop/Joanna/morph21/subject-172.csv","xpyriment","Kafkaesque Koffka","3.2.5","0","None","NA","NA","NA","NA","space","None","989","NA","NA","NA","NA","172077","989","2","legacy","1024","2","48000","-16","AB_m21","172","even","CW_S","DESTROYER","1841","223272","221613","215720","173931","NA","NA","NA","NA","187906","222110","NA","221113","NA","221109","223261","1853","223572","NA","NA","222272","1841","1841","222663","221109","1841","222271","223572","morph21_Oliver/Morris","1","13750","14","yes","1280","14"
"250","6.66666666667","6.66666666667","982.866666667","982.866666667","black","no","xpyriment","legacy","legacy","0","201","NA","uniform","57064","1000","0.0175241833731","0","undefined","0","0","14","14","14","0","14","14","14","NA","14","14","0","14","NA","14","14","0","14","NA","14","NA","14","0","0","14","14","0","14","14","15","/","04/11/19 12:30:58","The main experiment item","yes","FIN__AB__M21__7%3A10%3A17.osexp","C:\Users\ERP Testing Room\Desktop\Joanna\morph21","no","mono","no","18","no","white","no","yes","1080","legacy","14","14","C:/Users/ERP Testing Room/Desktop/Joanna/morph21/subject-172.csv","xpyriment","Kafkaesque Koffka","3.2.5","0","None","NA","NA","NA","NA","space","None","993","NA","NA","NA","NA","172077","993","2","legacy","1024","2","48000","-16","AB_m21","172","even","CW_S","PLANNER","1841","228030","224872","226522","173931","NA","NA","NA","NA","187906","225369","NA","224372","NA","224368","226515","1853","228280","NA","NA","225522","1841","1841","225913","224368","1841","225522","228280","morph21_Oliver/Morris","1","14743","15","yes","1280","22"
"300","6.25","6.25","983.1875","983.1875","black","no","xpyriment","legacy","legacy","0","205","NA","uniform","54796","1000","0.0182495072633","0","undefined","0","0","15","15","15","0","15","15","15","NA","15","15","0","15","NA","15","15","0","15","NA","15","NA","15","0","0","15","15","0","15","15","16","z","04/11/19 12:30:58","The main experiment item","yes","FIN__AB__M21__7%3A10%3A17.osexp","C:\Users\ERP Testing Room\Desktop\Joanna\morph21","no","mono","no","18","no","white","no","yes","1080","legacy","15","15","C:/Users/ERP Testing Room/Desktop/Joanna/morph21/subject-172.csv","xpyriment","Kafkaesque Koffka","3.2.5","0","None","NA","NA","NA","NA","space","None","988","NA","NA","NA","NA","172077","988","2","legacy","1024","2","48000","-16","AB_m21","172","even","NW_S_SIMP","SOCKETEL","1841","231038","229330","226522","173931","NA","NA","NA","NA","187906","229827","NA","228830","NA","228822","231028","1853","231339","NA","NA","230039","1841","1841","230430","228822","1841","230039","231339","morph21_Oliver/Morris","1","15731","16","yes","1280","1"
"200","11.7647058824","11.7647058824","968.058823529","968.058823529","black","no","xpyriment","legacy","legacy","0","207","NA","uniform","62429","1000","0.0160181966714","1","undefined","1","0","16","16","16","0","16","16","16","NA","16","16","0","16","NA","16","16","0","16","NA","16","NA","16","0","0","16","16","0","16","16","17","/","04/11/19 12:30:58","The main experiment item","yes","FIN__AB__M21__7%3A10%3A17.osexp","C:\Users\ERP Testing Room\Desktop\Joanna\morph21","no","mono","no","18","no","white","no","yes","1080","legacy","16","16","C:/Users/ERP Testing Room/Desktop/Joanna/morph21/subject-172.csv","xpyriment","Kafkaesque Koffka","3.2.5","0","/","NA","NA","NA","NA","space","/","726","NA","NA","NA","NA","172077","726","2","legacy","1024","2","48000","-16","AB_m21","172","even","FILL_W","FLESH","1841","234172","232497","226522","173931","NA","NA","NA","NA","234169","232994","NA","231989","NA","231980","234169","1853","234372","NA","NA","233180","1841","1841","233572","231980","1841","233180","234372","morph21_Oliver/Morris","2","16457","17","yes","1280","32"
"250","11.1111111111","11.1111111111","969.388888889","969.388888889","black","no","xpyriment","legacy","legacy","0","206","NA","uniform","58415","1000","0.0171188906959","0","undefined","0","0","17","17","17","0","17","17","17","NA","17","17","0","17","NA","17","17","0","17","NA","17","NA","17","0","0","17","17","0","17","17","18","z","04/11/19 12:30:58","The main experiment item","yes","FIN__AB__M21__7%3A10%3A17.osexp","C:\Users\ERP Testing Room\Desktop\Joanna\morph21","no","mono","no","18","no","white","no","yes","1080","legacy","17","17","C:/Users/ERP Testing Room/Desktop/Joanna/morph21/subject-172.csv","xpyriment","Kafkaesque Koffka","3.2.5","0","None","NA","NA","NA","NA","space","None","992","NA","NA","NA","NA","172077","992","2","legacy","1024","2","48000","-16","AB_m21","172","even","NW_L_SIMP","SMOOTHFIL","1841","238673","235514","237164","173931","NA","NA","NA","NA","234169","236011","NA","235014","NA","235002","237156","1853","238923","NA","NA","236164","1841","1841","236555","235002","1841","236164","238923","morph21_Oliver/Morris","2","17449","18","yes","1280","19"
"250","10.5263157895","10.5263157895","970.631578947","970.631578947","black","no","xpyriment","legacy","legacy","0","208","NA","uniform","57705","1000","0.0173295208387","0","undefined","0","0","18","18","18","0","18","18","18","NA","18","18","0","18","NA","18","18","0","18","NA","18","NA","18","0","0","18","18","0","18","18","19","z","04/11/19 12:30:58","The main experiment item","yes","FIN__AB__M21__7%3A10%3A17.osexp","C:\Users\ERP Testing Room\Desktop\Joanna\morph21","no","mono","no","18","no","white","no","yes","1080","legacy","18","18","C:/Users/ERP Testing Room/Desktop/Joanna/morph21/subject-172.csv","xpyriment","Kafkaesque Koffka","3.2.5","0","None","NA","NA","NA","NA","space","None","993","NA","NA","NA","NA","172077","993","2","legacy","1024","2","48000","-16","AB_m21","172","even","FILL_NW","PIFTH","1841","241807","240140","237164","173931","NA","NA","NA","NA","234169","240637","NA","239640","NA","239631","241801","1853","242057","NA","NA","240807","1841","1841","241198","239631","1841","240807","242057","morph21_Oliver/Morris","2","18442","19","yes","1280","36"
"250","10","10","971.75","971.75","black","no","xpyriment","legacy","legacy","0","202","NA","uniform","54189","1000","0.0184539297643","0","undefined","0","0","19","19","19","0","19","19","19","NA","19","19","0","19","NA","19","19","0","19","NA","19","NA","19","0","0","19","19","0","19","19","20","/","04/11/19 12:30:58","The main experiment item","yes","FIN__AB__M21__7%3A10%3A17.osexp","C:\Users\ERP Testing Room\Desktop\Joanna\morph21","no","mono","no","18","no","white","no","yes","1080","legacy","19","19","C:/Users/ERP Testing Room/Desktop/Joanna/morph21/subject-172.csv","xpyriment","Kafkaesque Koffka","3.2.5","0","None","NA","NA","NA","NA","space","None","993","NA","NA","NA","NA","172077","993","2","legacy","1024","2","48000","-16","AB_m21","172","even","CW_L","DREAMER","1841","244873","243198","237164","173931","NA","NA","NA","NA","234169","243695","NA","242698","NA","242690","244866","1853","245123","NA","NA","243873","1841","1841","244265","242690","1841","243873","245123","morph21_Oliver/Morris","2","19435","20","yes","1280","12"
"400","14.2857142857","14.2857142857","968.476190476","968.476190476","black","no","xpyriment","legacy","legacy","0","204","NA","uniform","61434","1000","0.0162776312791","1","undefined","1","0","20","20","20","0","20","20","20","NA","20","20","0","20","NA","20","20","0","20","NA","20","NA","20","0","0","20","20","0","20","20","21","z","04/11/19 12:30:58","The main experiment item","yes","FIN__AB__M21__7%3A10%3A17.osexp","C:\Users\ERP Testing Room\Desktop\Joanna\morph21","no","mono","no","18","no","white","no","yes","1080","legacy","20","20","C:/Users/ERP Testing Room/Desktop/Joanna/morph21/subject-172.csv","xpyriment","Kafkaesque Koffka","3.2.5","0","z","NA","NA","NA","NA","space","z","903","NA","NA","NA","NA","172077","903","2","legacy","1024","2","48000","-16","AB_m21","172","even","NW_L_COMP","RIPENCE","1841","249424","246232","247915","173931","NA","NA","NA","NA","247911","246729","NA","245732","NA","245724","247911","1853","249824","NA","NA","246915","1841","1841","247315","245724","1841","246915","249824","morph21_Oliver/Morris","3","20338","21","yes","1280","4"
"250","13.6363636364","13.6363636364","969.409090909","969.409090909","black","no","xpyriment","legacy","legacy","0","207","NA","uniform","53068","1000","0.0188437476445","0","undefined","0","0","21","21","21","0","21","21","21","NA","21","21","0","21","NA","21","21","0","21","NA","21","NA","21","0","0","21","21","0","21","21","22","/","04/11/19 12:30:58","The main experiment item","yes","FIN__AB__M21__7%3A10%3A17.osexp","C:\Users\ERP Testing Room\Desktop\Joanna\morph21","no","mono","no","18","no","white","no","yes","1080","legacy","21","21","C:/Users/ERP Testing Room/Desktop/Joanna/morph21/subject-172.csv","xpyriment","Kafkaesque Koffka","3.2.5","0","None","NA","NA","NA","NA","space","None","989","NA","NA","NA","NA","172077","989","2","legacy","1024","2","48000","-16","AB_m21","172","even","FILL_W","SOUGHT","1841","252640","250982","247915","173931","NA","NA","NA","NA","247911","251479","NA","250482","NA","250476","252630","1853","252890","NA","NA","251640","1841","1841","252032","250476","1841","251640","252890","morph21_Oliver/Morris","3","21327","22","yes","1280","40"
"200","13.0434782609","13.0434782609","970.52173913","970.52173913","black","no","xpyriment","legacy","legacy","0","208","NA","uniform","48498","1000","0.0206194069859","0","undefined","0","0","22","22","22","0","22","22","22","NA","22","22","0","22","NA","22","22","0","22","NA","22","NA","22","0","0","22","22","0","22","22","23","z","04/11/19 12:30:58","The main experiment item","yes","FIN__AB__M21__7%3A10%3A17.osexp","C:\Users\ERP Testing Room\Desktop\Joanna\morph21","no","mono","no","18","no","white","no","yes","1080","legacy","22","22","C:/Users/ERP Testing Room/Desktop/Joanna/morph21/subject-172.csv","xpyriment","Kafkaesque Koffka","3.2.5","0","None","NA","NA","NA","NA","space","None","995","NA","NA","NA","NA","172077","995","2","legacy","1024","2","48000","-16","AB_m21","172","even","FILL_NW","DARM","1841","255783","254124","247915","173931","NA","NA","NA","NA","247911","254621","NA","253624","NA","253619","255777","1853","255983","NA","NA","254782","1841","1841","255182","253619","1841","254782","255983","morph21_Oliver/Morris","3","22322","23","yes","1280","11"
"400","16.6666666667","16.6666666667","969.625","969.625","black","no","xpyriment","legacy","legacy","0","206","NA","uniform","55817","1000","0.0179156887687","1","undefined","1","0","23","23","23","0","23","23","23","NA","23","23","0","23","NA","23","23","0","23","NA","23","NA","23","0","0","23","23","0","23","23","24","z","04/11/19 12:30:58","The main experiment item","yes","FIN__AB__M21__7%3A10%3A17.osexp","C:\Users\ERP Testing Room\Desktop\Joanna\morph21","no","mono","no","18","no","white","no","yes","1080","legacy","23","23","C:/Users/ERP Testing Room/Desktop/Joanna/morph21/subject-172.csv","xpyriment","Kafkaesque Koffka","3.2.5","0","z","NA","NA","NA","NA","space","z","949","NA","NA","NA","NA","172077","949","2","legacy","1024","2","48000","-16","AB_m21","172","even","NW_L_SIMP","CLASSOES","1841","260458","257242","258950","173931","NA","NA","NA","NA","258946","257739","NA","256742","NA","256731","258946","1853","260859","NA","NA","257958","1841","1841","258350","256731","1841","257958","260859","morph21_Oliver/Morris","4","23271","24","yes","1280","18"
"250","16","16","970.48","970.48","black","no","xpyriment","legacy","legacy","0","205","NA","uniform","48820","1000","0.0204834084392","0","undefined","0","0","24","24","24","0","24","24","24","NA","24","24","0","24","NA","24","24","0","24","NA","24","NA","24","0","0","24","24","0","24","24","25","z","04/11/19 12:30:58","The main experiment item","yes","FIN__AB__M21__7%3A10%3A17.osexp","C:\Users\ERP Testing Room\Desktop\Joanna\morph21","no","mono","no","18","no","white","no","yes","1080","legacy","24","24","C:/Users/ERP Testing Room/Desktop/Joanna/morph21/subject-172.csv","xpyriment","Kafkaesque Koffka","3.2.5","0","None","NA","NA","NA","NA","space","None","991","NA","NA","NA","NA","172077","991","2","legacy","1024","2","48000","-16","AB_m21","172","even","NW_S_SIMP","DIGODY","1841","263792","262117","258950","173931","NA","NA","NA","NA","258946","262614","NA","261617","NA","261609","263783","1853","264042","NA","NA","262792","1841","1841","263184","261609","1841","262792","264042","morph21_Oliver/Morris","4","24262","25","yes","1280","11"
"250","15.3846153846","15.3846153846","971.461538462","971.461538462","black","no","xpyriment","legacy","legacy","0","208","NA","uniform","55212","1000","0.0181120046367","0","undefined","0","0","25","25","25","0","25","25","25","NA","25","25","0","25","NA","25","25","0","25","NA","25","NA","25","0","0","25","25","0","25","25","26","z","04/11/19 12:30:58","The main experiment item","yes","FIN__AB__M21__7%3A10%3A17.osexp","C:\Users\ERP Testing Room\Desktop\Joanna\morph21","no","mono","no","18","no","white","no","yes","1080","legacy","25","25","C:/Users/ERP Testing Room/Desktop/Joanna/morph21/subject-172.csv","xpyriment","Kafkaesque Koffka","3.2.5","0","None","NA","NA","NA","NA","space","None","996","NA","NA","NA","NA","172077","996","2","legacy","1024","2","48000","-16","AB_m21","172","even","FILL_NW","DOWED","1841","266825","265175","258950","173931","NA","NA","NA","NA","258946","265672","NA","264675","NA","264667","266821","1853","267075","NA","NA","265825","1841","1841","266225","264667","1841","265825","267075","morph21_Oliver/Morris","4","25258","26","yes","1280","16"
"350","18.5185185185","18.5185185185","965.148148148","965.148148148","black","no","xpyriment","legacy","legacy","0","206","NA","uniform","62842","1000","0.0159129244773","1","undefined","1","0","26","26","26","0","26","26","26","NA","26","26","0","26","NA","26","26","0","26","NA","26","NA","26","0","0","26","26","0","26","26","27","z","04/11/19 12:30:58","The main experiment item","yes","FIN__AB__M21__7%3A10%3A17.osexp","C:\Users\ERP Testing Room\Desktop\Joanna\morph21","no","mono","no","18","no","white","no","yes","1080","legacy","26","26","C:/Users/ERP Testing Room/Desktop/Joanna/morph21/subject-172.csv","xpyriment","Kafkaesque Koffka","3.2.5","0","z","NA","NA","NA","NA","space","z","801","NA","NA","NA","NA","172077","801","2","legacy","1024","2","48000","-16","AB_m21","172","even","NW_L_SIMP","HABITIG","1841","271317","268150","269809","173931","NA","NA","NA","NA","269802","268648","NA","267650","NA","267640","269802","1853","271667","NA","NA","268809","1841","1841","269200","267640","1841","268809","271667","morph21_Oliver/Morris","5","26059","27","yes","1280","7"
"350","21.4285714286","21.4285714286","960","960","black","no","xpyriment","legacy","legacy","0","201","NA","uniform","58816","1000","0.0170021762786","1","undefined","1","0","27","27","27","0","27","27","27","NA","27","27","0","27","NA","27","27","0","27","NA","27","NA","27","0","0","27","27","0","27","27","28","/","04/11/19 12:30:58","The main experiment item","yes","FIN__AB__M21__7%3A10%3A17.osexp","C:\Users\ERP Testing Room\Desktop\Joanna\morph21","no","mono","no","18","no","white","no","yes","1080","legacy","27","27","C:/Users/ERP Testing Room/Desktop/Joanna/morph21/subject-172.csv","xpyriment","Kafkaesque Koffka","3.2.5","0","/","NA","NA","NA","NA","space","/","821","NA","NA","NA","NA","172077","821","2","legacy","1024","2","48000","-16","AB_m21","172","even","CW_S","TOASTER","1841","274510","272802","269809","173931","NA","NA","NA","NA","274502","273299","NA","272301","NA","272294","274502","1853","274860","NA","NA","273510","1841","1841","273902","272294","1841","273510","274860","morph21_Oliver/Morris","6","26880","28","yes","1280","10"
"400","20.6896551724","20.6896551724","961.137931034","961.137931034","black","no","xpyriment","legacy","legacy","0","202","NA","uniform","57147","1000","0.017498731342","0","undefined","0","0","28","28","28","0","28","28","28","NA","28","28","0","28","NA","28","28","0","28","NA","28","NA","28","0","0","28","28","0","28","28","29","/","04/11/19 12:30:58","The main experiment item","yes","FIN__AB__M21__7%3A10%3A17.osexp","C:\Users\ERP Testing Room\Desktop\Joanna\morph21","no","mono","no","18","no","white","no","yes","1080","legacy","28","28","C:/Users/ERP Testing Room/Desktop/Joanna/morph21/subject-172.csv","xpyriment","Kafkaesque Koffka","3.2.5","0","None","NA","NA","NA","NA","space","None","993","NA","NA","NA","NA","172077","993","2","legacy","1024","2","48000","-16","AB_m21","172","even","CW_L","CLEANER","1841","277710","275985","269809","173931","NA","NA","NA","NA","274502","276482","NA","275485","NA","275475","277703","1853","278110","NA","NA","276710","1841","1841","277102","275475","1841","276710","278110","morph21_Oliver/Morris","6","27873","29","yes","1280","15"
"300","23.3333333333","23.3333333333","955.833333333","955.833333333","black","no","xpyriment","legacy","legacy","0","205","NA","uniform","60229","1000","0.0166032974149","1","undefined","1","0","29","29","29","0","29","29","29","NA","29","29","0","29","NA","29","29","0","29","NA","29","NA","29","0","0","29","29","0","29","29","30","z","04/11/19 12:30:58","The main experiment item","yes","FIN__AB__M21__7%3A10%3A17.osexp","C:\Users\ERP Testing Room\Desktop\Joanna\morph21","no","mono","no","18","no","white","no","yes","1080","legacy","29","29","C:/Users/ERP Testing Room/Desktop/Joanna/morph21/subject-172.csv","xpyriment","Kafkaesque Koffka","3.2.5","0","z","NA","NA","NA","NA","space","z","802","NA","NA","NA","NA","172077","802","2","legacy","1024","2","48000","-16","AB_m21","172","even","NW_S_SIMP","BOLTOES","1841","282452","279252","280944","173931","NA","NA","NA","NA","280933","279749","NA","278744","NA","278732","280933","1853","282752","NA","NA","279944","1841","1841","280335","278732","1841","279944","282752","morph21_Oliver/Morris","7","28675","30","yes","1280","13"
"400","22.5806451613","22.5806451613","957.032258065","957.032258065","black","no","xpyriment","legacy","legacy","0","205","NA","uniform","55995","1000","0.0178587373873","0","undefined","0","0","30","30","30","0","30","30","30","NA","30","30","0","30","NA","30","30","0","30","NA","30","NA","30","0","0","30","30","0","30","30","31","z","04/11/19 12:30:58","The main experiment item","yes","FIN__AB__M21__7%3A10%3A17.osexp","C:\Users\ERP Testing Room\Desktop\Joanna\morph21","no","mono","no","18","no","white","no","yes","1080","legacy","30","30","C:/Users/ERP Testing Room/Desktop/Joanna/morph21/subject-172.csv","xpyriment","Kafkaesque Koffka","3.2.5","0","None","NA","NA","NA","NA","space","None","993","NA","NA","NA","NA","172077","993","2","legacy","1024","2","48000","-16","AB_m21","172","even","NW_S_SIMP","MEDICALADY","1841","285652","284002","280944","173931","NA","NA","NA","NA","280933","284499","NA","283502","NA","283493","285645","1853","286052","NA","NA","284652","1841","1841","285044","283493","1841","284652","286052","morph21_Oliver/Morris","7","29668","31","yes","1280","18"
"300","21.875","21.875","958.1875","958.1875","black","no","xpyriment","legacy","legacy","0","205","NA","uniform","53595","1000","0.0186584569456","0","undefined","0","0","31","31","31","0","31","31","31","NA","31","31","0","31","NA","31","31","0","31","NA","31","NA","31","0","0","31","31","0","31","31","32","z","04/11/19 12:30:58","The main experiment item","yes","FIN__AB__M21__7%3A10%3A17.osexp","C:\Users\ERP Testing Room\Desktop\Joanna\morph21","no","mono","no","18","no","white","no","yes","1080","legacy","31","31","C:/Users/ERP Testing Room/Desktop/Joanna/morph21/subject-172.csv","xpyriment","Kafkaesque Koffka","3.2.5","0","None","NA","NA","NA","NA","space","None","994","NA","NA","NA","NA","172077","994","2","legacy","1024","2","48000","-16","AB_m21","172","even","NW_S_SIMP","FEVERIME","1841","288944","287244","280944","173931","NA","NA","NA","NA","280933","287741","NA","286744","NA","286733","288939","1853","289244","NA","NA","287944","1841","1841","288344","286733","1841","287944","289244","morph21_Oliver/Morris","7","30662","32","yes","1280","24"
"300","21.2121212121","21.2121212121","959.212121212","959.212121212","black","no","xpyriment","legacy","legacy","0","202","NA","uniform","49866","1000","0.020053744034","0","undefined","0","0","32","32","32","0","32","32","32","NA","32","32","0","32","NA","32","32","0","32","NA","32","NA","32","0","0","32","32","0","32","32","33","/","04/11/19 12:30:58","The main experiment item","yes","FIN__AB__M21__7%3A10%3A17.osexp","C:\Users\ERP Testing Room\Desktop\Joanna\morph21","no","mono","no","18","no","white","no","yes","1080","legacy","32","32","C:/Users/ERP Testing Room/Desktop/Joanna/morph21/subject-172.csv","xpyriment","Kafkaesque Koffka","3.2.5","0","None","NA","NA","NA","NA","space","None","992","NA","NA","NA","NA","172077","992","2","legacy","1024","2","48000","-16","AB_m21","172","even","CW_L","MADNESS","1841","293595","290428","292087","173931","NA","NA","NA","NA","280933","290926","NA","289927","NA","289919","292079","1853","293895","NA","NA","291087","1841","1841","291478","289919","1841","291087","293895","morph21_Oliver/Morris","7","31654","33","yes","1280","41"
"250","20.5882352941","20.5882352941","960.235294118","960.235294118","black","no","xpyriment","legacy","legacy","0","204","NA","uniform","57017","1000","0.01753862883","0","undefined","0","0","33","33","33","0","33","33","33","NA","33","33","0","33","NA","33","33","0","33","NA","33","NA","33","0","0","33","33","0","33","33","34","z","04/11/19 12:30:58","The main experiment item","yes","FIN__AB__M21__7%3A10%3A17.osexp","C:\Users\ERP Testing Room\Desktop\Joanna\morph21","no","mono","no","18","no","white","no","yes","1080","legacy","33","33","C:/Users/ERP Testing Room/Desktop/Joanna/morph21/subject-172.csv","xpyriment","Kafkaesque Koffka","3.2.5","0","None","NA","NA","NA","NA","space","None","994","NA","NA","NA","NA","172077","994","2","legacy","1024","2","48000","-16","AB_m21","172","even","NW_L_COMP","STIRANCE","1841","296737","295087","292087","173931","NA","NA","NA","NA","280933","295584","NA","294587","NA","294582","296731","1853","296987","NA","NA","295737","1841","1841","296129","294582","1841","295737","296987","morph21_Oliver/Morris","7","32648","34","yes","1280","1"
"200","22.8571428571","22.8571428571","955.314285714","955.314285714","black","no","xpyriment","legacy","legacy","0","207","NA","uniform","61086","1000","0.0163703630947","1","undefined","1","0","34","34","34","0","34","34","34","NA","34","34","0","34","NA","34","34","0","34","NA","34","NA","34","0","0","34","34","0","34","34","35","/","04/11/19 12:30:58","The main experiment item","yes","FIN__AB__M21__7%3A10%3A17.osexp","C:\Users\ERP Testing Room\Desktop\Joanna\morph21","no","mono","no","18","no","white","no","yes","1080","legacy","34","34","C:/Users/ERP Testing Room/Desktop/Joanna/morph21/subject-172.csv","xpyriment","Kafkaesque Koffka","3.2.5","0","/","NA","NA","NA","NA","space","/","788","NA","NA","NA","NA","172077","788","2","legacy","1024","2","48000","-16","AB_m21","172","even","FILL_W","SAVE","1841","299837","298179","292087","173931","NA","NA","NA","NA","299834","298676","NA","297679","NA","297672","299834","1853","300037","NA","NA","298846","1841","1841","299237","297672","1841","298845","300037","morph21_Oliver/Morris","8","33436","35","yes","1280","46"
"250","22.2222222222","22.2222222222","956.388888889","956.388888889","black","no","xpyriment","legacy","legacy","0","201","NA","uniform","48312","1000","0.0206987911906","0","undefined","0","0","35","35","35","0","35","35","35","NA","35","35","0","35","NA","35","35","0","35","NA","35","NA","35","0","0","35","35","0","35","35","36","/","04/11/19 12:30:58","The main experiment item","yes","FIN__AB__M21__7%3A10%3A17.osexp","C:\Users\ERP Testing Room\Desktop\Joanna\morph21","no","mono","no","18","no","white","no","yes","1080","legacy","35","35","C:/Users/ERP Testing Room/Desktop/Joanna/morph21/subject-172.csv","xpyriment","Kafkaesque Koffka","3.2.5","0","None","NA","NA","NA","NA","space","None","994","NA","NA","NA","NA","172077","994","2","legacy","1024","2","48000","-16","AB_m21","172","even","CW_S","HARMLESS","1841","304296","301104","302787","173931","NA","NA","NA","NA","299834","301601","NA","300604","NA","300600","302781","1853","304546","NA","NA","301787","1841","1841","302179","300600","1841","301787","304546","morph21_Oliver/Morris","8","34430","36","yes","1280","29"
"200","24.3243243243","24.3243243243","951.297297297","951.297297297","black","no","xpyriment","legacy","legacy","0","202","NA","uniform","66177","1000","0.0151109902232","1","undefined","1","0","36","36","36","0","36","36","36","NA","36","36","0","36","NA","36","36","0","36","NA","36","NA","36","0","0","36","36","0","36","36","37","/","04/11/19 12:30:58","The main experiment item","yes","FIN__AB__M21__7%3A10%3A17.osexp","C:\Users\ERP Testing Room\Desktop\Joanna\morph21","no","mono","no","18","no","white","no","yes","1080","legacy","36","36","C:/Users/ERP Testing Room/Desktop/Joanna/morph21/subject-172.csv","xpyriment","Kafkaesque Koffka","3.2.5","0","/","NA","NA","NA","NA","space","/","768","NA","NA","NA","NA","172077","768","2","legacy","1024","2","48000","-16","AB_m21","172","even","CW_L","SAILOR","1841","307346","305671","302787","173931","NA","NA","NA","NA","307336","306168","NA","305171","NA","305159","307336","1853","307546","NA","NA","306346","1841","1841","306737","305159","1841","306346","307546","morph21_Oliver/Morris","9","35198","37","yes","1280","43"
"200","23.6842105263","23.6842105263","952.368421053","952.368421053","black","no","xpyriment","legacy","legacy","0","207","NA","uniform","53585","1000","0.0186619389755","0","undefined","0","0","37","37","37","0","37","37","37","NA","37","37","0","37","NA","37","37","0","37","NA","37","NA","37","0","0","37","37","0","37","37","38","/","04/11/19 12:30:58","The main experiment item","yes","FIN__AB__M21__7%3A10%3A17.osexp","C:\Users\ERP Testing Room\Desktop\Joanna\morph21","no","mono","no","18","no","white","no","yes","1080","legacy","37","37","C:/Users/ERP Testing Room/Desktop/Joanna/morph21/subject-172.csv","xpyriment","Kafkaesque Koffka","3.2.5","0","None","NA","NA","NA","NA","space","None","992","NA","NA","NA","NA","172077","992","2","legacy","1024","2","48000","-16","AB_m21","172","even","FILL_W","STALK","1841","310447","308738","302787","173931","NA","NA","NA","NA","307336","309236","NA","308239","NA","308230","310439","1853","310647","NA","NA","309447","1841","1841","309838","308230","1841","309447","310647","morph21_Oliver/Morris","9","36190","38","yes","1280","27"
"250","25.641025641","25.641025641","945.846153846","945.846153846","black","no","xpyriment","legacy","legacy","0","207","NA","uniform","66935","1000","0.0149398670352","1","undefined","1","0","38","38","38","0","38","38","38","NA","38","38","0","38","NA","38","38","0","38","NA","38","NA","38","0","0","38","38","0","38","38","39","/","04/11/19 12:30:58","The main experiment item","yes","FIN__AB__M21__7%3A10%3A17.osexp","C:\Users\ERP Testing Room\Desktop\Joanna\morph21","no","mono","no","18","no","white","no","yes","1080","legacy","38","38","C:/Users/ERP Testing Room/Desktop/Joanna/morph21/subject-172.csv","xpyriment","Kafkaesque Koffka","3.2.5","0","/","NA","NA","NA","NA","space","/","698","NA","NA","NA","NA","172077","698","2","legacy","1024","2","48000","-16","AB_m21","172","even","FILL_W","PACK","1841","315014","311780","313505","173931","NA","NA","NA","NA","313496","312277","NA","311280","NA","311270","313496","1853","315264","NA","NA","312505","1841","1841","312897","311270","1841","312505","315264","morph21_Oliver/Morris","10","36888","39","yes","1280","41"
"250","27.5","27.5","937.975","937.975","black","no","xpyriment","legacy","legacy","0","201","NA","uniform","65721","1000","0.0152158366428","1","undefined","1","0","39","39","39","0","39","39","39","NA","39","39","0","39","NA","39","39","0","39","NA","39","NA","39","0","0","39","39","0","39","39","40","/","04/11/19 12:30:58","The main experiment item","yes","FIN__AB__M21__7%3A10%3A17.osexp","C:\Users\ERP Testing Room\Desktop\Joanna\morph21","no","mono","no","18","no","white","no","yes","1080","legacy","39","39","C:/Users/ERP Testing Room/Desktop/Joanna/morph21/subject-172.csv","xpyriment","Kafkaesque Koffka","3.2.5","0","/","NA","NA","NA","NA","space","/","631","NA","NA","NA","NA","172077","631","2","legacy","1024","2","48000","-16","AB_m21","172","even","CW_S","AWARENESS","1841","318122","316439","313505","173931","NA","NA","NA","NA","318120","316936","NA","315939","NA","315932","318120","1853","318372","NA","NA","317131","1841","1841","317522","315932","1841","317130","318372","morph21_Oliver/Morris","11","37519","40","yes","1280","44"
"200","29.2682926829","29.2682926829","935.219512195","935.219512195","black","no","xpyriment","legacy","legacy","0","205","NA","uniform","60681","1000","0.0164796229462","1","undefined","1","0","40","40","40","0","40","40","40","NA","40","40","0","40","NA","40","40","0","40","NA","40","NA","40","0","0","40","40","0","40","40","41","z","04/11/19 12:30:58","The main experiment item","yes","FIN__AB__M21__7%3A10%3A17.osexp","C:\Users\ERP Testing Room\Desktop\Joanna\morph21","no","mono","no","18","no","white","no","yes","1080","legacy","40","40","C:/Users/ERP Testing Room/Desktop/Joanna/morph21/subject-172.csv","xpyriment","Kafkaesque Koffka","3.2.5","0","z","NA","NA","NA","NA","space","z","825","NA","NA","NA","NA","172077","825","2","legacy","1024","2","48000","-16","AB_m21","172","even","NW_S_SIMP","NULLITH","1841","321289","319597","313505","173931","NA","NA","NA","NA","321280","320094","NA","319097","NA","319087","321280","1853","321489","NA","NA","320289","1841","1841","320681","319087","1841","320289","321489","morph21_Oliver/Morris","12","38344","41","yes","1280","23"
"250","28.5714285714","28.5714285714","936.5","936.5","black","no","xpyriment","legacy","legacy","0","201","NA","uniform","54982","1000","0.0181877705431","0","undefined","0","0","41","41","41","0","41","41","41","NA","41","41","0","41","NA","41","41","0","41","NA","41","NA","41","0","0","41","41","0","41","41","42","/","04/11/19 12:30:58","The main experiment item","yes","FIN__AB__M21__7%3A10%3A17.osexp","C:\Users\ERP Testing Room\Desktop\Joanna\morph21","no","mono","no","18","no","white","no","yes","1080","legacy","41","41","C:/Users/ERP Testing Room/Desktop/Joanna/morph21/subject-172.csv","xpyriment","Kafkaesque Koffka","3.2.5","0","None","NA","NA","NA","NA","space","None","989","NA","NA","NA","NA","172077","989","2","legacy","1024","2","48000","-16","AB_m21","172","even","CW_S","GRIMLY","1841","325915","322731","324406","173931","NA","NA","NA","NA","321280","323228","NA","322231","NA","322224","324395","1853","326165","NA","NA","323406","1841","1841","323797","322224","1841","323406","326165","morph21_Oliver/Morris","12","39333","42","yes","1280","31"
"400","30.2325581395","30.2325581395","931.302325581","931.302325581","black","no","xpyriment","legacy","legacy","0","207","NA","uniform","63395","1000","0.0157741146778","1","undefined","1","0","42","42","42","0","42","42","42","NA","42","42","0","42","NA","42","42","0","42","NA","42","NA","42","0","0","42","42","0","42","42","43","/","04/11/19 12:30:58","The main experiment item","yes","FIN__AB__M21__7%3A10%3A17.osexp","C:\Users\ERP Testing Room\Desktop\Joanna\morph21","no","mono","no","18","no","white","no","yes","1080","legacy","42","42","C:/Users/ERP Testing Room/Desktop/Joanna/morph21/subject-172.csv","xpyriment","Kafkaesque Koffka","3.2.5","0","/","NA","NA","NA","NA","space","/","713","NA","NA","NA","NA","172077","713","2","legacy","1024","2","48000","-16","AB_m21","172","even","FILL_W","EAT","1841","329090","327390","324406","173931","NA","NA","NA","NA","329084","327887","NA","326890","NA","326883","329084","1853","329490","NA","NA","328090","1841","1841","328482","326883","1841","328090","329490","morph21_Oliver/Morris","13","40046","43","yes","1280","25"
"350","31.8181818182","31.8181818182","930.477272727","930.477272727","black","no","xpyriment","legacy","legacy","0","208","NA","uniform","61708","1000","0.016205354249","1","undefined","1","0","43","43","43","0","43","43","43","NA","43","43","0","43","NA","43","43","0","43","NA","43","NA","43","0","0","43","43","0","43","43","44","z","04/11/19 12:30:58","The main experiment item","yes","FIN__AB__M21__7%3A10%3A17.osexp","C:\Users\ERP Testing Room\Desktop\Joanna\morph21","no","mono","no","18","no","white","no","yes","1080","legacy","43","43","C:/Users/ERP Testing Room/Desktop/Joanna/morph21/subject-172.csv","xpyriment","Kafkaesque Koffka","3.2.5","0","z","NA","NA","NA","NA","space","z","895","NA","NA","NA","NA","172077","895","2","legacy","1024","2","48000","-16","AB_m21","172","even","FILL_NW","DARF","1841","332299","330615","324406","173931","NA","NA","NA","NA","332293","331113","NA","330115","NA","330107","332293","1853","332649","NA","NA","331299","1841","1841","331690","330107","1841","331299","332649","morph21_Oliver/Morris","14","40941","44","yes","1280","10"
"400","33.3333333333","33.3333333333","923.688888889","923.688888889","black","no","xpyriment","legacy","legacy","0","202","NA","uniform","71430","1000","0.0139997200056","1","undefined","1","0","44","44","44","0","44","44","44","NA","44","44","0","44","NA","44","44","0","44","NA","44","NA","44","0","0","44","44","0","44","44","45","/","04/11/19 12:30:58","The main experiment item","yes","FIN__AB__M21__7%3A10%3A17.osexp","C:\Users\ERP Testing Room\Desktop\Joanna\morph21","no","mono","no","18","no","white","no","yes","1080","legacy","44","44","C:/Users/ERP Testing Room/Desktop/Joanna/morph21/subject-172.csv","xpyriment","Kafkaesque Koffka","3.2.5","0","/","NA","NA","NA","NA","space","/","625","NA","NA","NA","NA","172077","625","2","legacy","1024","2","48000","-16","AB_m21","172","even","CW_L","FAITHFUL","1841","336974","333774","335466","173931","NA","NA","NA","NA","335460","334271","NA","333266","NA","333254","335460","1853","337374","NA","NA","334465","1841","1841","334857","333254","1841","334465","337374","morph21_Oliver/Morris","15","41566","45","yes","1280","20"
"200","34.7826086957","34.7826086957","924.02173913","924.02173913","black","no","xpyriment","legacy","legacy","0","208","NA","uniform","58406","1000","0.0171215286101","1","undefined","1","0","45","45","45","0","45","45","45","NA","45","45","0","45","NA","45","45","0","45","NA","45","NA","45","0","0","45","45","0","45","45","46","z","04/11/19 12:30:58","The main experiment item","yes","FIN__AB__M21__7%3A10%3A17.osexp","C:\Users\ERP Testing Room\Desktop\Joanna\morph21","no","mono","no","18","no","white","no","yes","1080","legacy","45","45","C:/Users/ERP Testing Room/Desktop/Joanna/morph21/subject-172.csv","xpyriment","Kafkaesque Koffka","3.2.5","0","z","NA","NA","NA","NA","space","z","939","NA","NA","NA","NA","172077","939","2","legacy","1024","2","48000","-16","AB_m21","172","even","FILL_NW","TUEER","1841","340191","338524","335466","173931","NA","NA","NA","NA","340186","339021","NA","338024","NA","338020","340186","1853","340391","NA","NA","339191","1841","1841","339591","338020","1841","339191","340391","morph21_Oliver/Morris","16","42505","46","yes","1280","44"
"300","34.0425531915","34.0425531915","925.489361702","925.489361702","black","no","xpyriment","legacy","legacy","0","204","NA","uniform","53112","1000","0.0188281367676","0","undefined","0","0","46","46","46","0","46","46","46","NA","46","46","0","46","NA","46","46","0","46","NA","46","NA","46","0","0","46","46","0","46","46","47","z","04/11/19 12:30:58","The main experiment item","yes","FIN__AB__M21__7%3A10%3A17.osexp","C:\Users\ERP Testing Room\Desktop\Joanna\morph21","no","mono","no","18","no","white","no","yes","1080","legacy","46","46","C:/Users/ERP Testing Room/Desktop/Joanna/morph21/subject-172.csv","xpyriment","Kafkaesque Koffka","3.2.5","0","None","NA","NA","NA","NA","space","None","993","NA","NA","NA","NA","172077","993","2","legacy","1024","2","48000","-16","AB_m21","172","even","NW_L_COMP","FELLOWOUS","1841","343259","341591","335466","173931","NA","NA","NA","NA","340186","342088","NA","341091","NA","341079","343251","1853","343559","NA","NA","342258","1841","1841","342650","341079","1841","342258","343559","morph21_Oliver/Morris","16","43498","47","yes","1280","17"
"250","35.4166666667","35.4166666667","920.104166667","920.104166667","black","no","xpyriment","legacy","legacy","0","207","NA","uniform","64085","1000","0.0156042755715","1","undefined","1","0","47","47","47","0","47","47","47","NA","47","47","0","47","NA","47","47","0","47","NA","47","NA","47","0","0","47","47","0","47","47","48","/","04/11/19 12:30:58","The main experiment item","yes","FIN__AB__M21__7%3A10%3A17.osexp","C:\Users\ERP Testing Room\Desktop\Joanna\morph21","no","mono","no","18","no","white","no","yes","1080","legacy","47","47","C:/Users/ERP Testing Room/Desktop/Joanna/morph21/subject-172.csv","xpyriment","Kafkaesque Koffka","3.2.5","0","/","NA","NA","NA","NA","space","/","667","NA","NA","NA","NA","172077","667","2","legacy","1024","2","48000","-16","AB_m21","172","even","FILL_W","SLIM","1841","347900","344725","346392","173931","NA","NA","NA","NA","346388","345222","NA","344225","NA","344221","346388","1853","348151","NA","NA","345400","1841","1841","345792","344220","1841","345400","348151","morph21_Oliver/Morris","17","44165","48","yes","1280","6"
"400","36.7346938776","36.7346938776","917.918367347","917.918367347","black","no","xpyriment","legacy","legacy","0","208","NA","uniform","57952","1000","0.0172556598564","1","undefined","1","0","48","48","48","0","48","48","48","NA","48","48","0","48","NA","48","48","0","48","NA","48","NA","48","0","0","48","48","0","48","48","49","z","04/11/19 12:30:58","The main experiment item","yes","FIN__AB__M21__7%3A10%3A17.osexp","C:\Users\ERP Testing Room\Desktop\Joanna\morph21","no","mono","no","18","no","white","no","yes","1080","legacy","48","48","C:/Users/ERP Testing Room/Desktop/Joanna/morph21/subject-172.csv","xpyriment","Kafkaesque Koffka","3.2.5","0","z","NA","NA","NA","NA","space","z","813","NA","NA","NA","NA","172077","813","2","legacy","1024","2","48000","-16","AB_m21","172","even","FILL_NW","GIKE","1841","351109","349417","346392","173931","NA","NA","NA","NA","351101","349914","NA","348917","NA","348907","351101","1853","351509","NA","NA","350109","1841","1841","350500","348907","1841","350109","351509","morph21_Oliver/Morris","18","44978","49","yes","1280","24"
"200","36","36","919.42","919.42","black","no","xpyriment","legacy","legacy","0","203","NA","uniform","58072","1000","0.0172200027552","0","undefined","0","0","49","49","49","0","49","49","49","NA","49","49","0","49","NA","49","49","0","49","NA","49","NA","49","0","0","49","49","0","49","49","50","z","04/11/19 12:30:58","The main experiment item","yes","FIN__AB__M21__7%3A10%3A17.osexp","C:\Users\ERP Testing Room\Desktop\Joanna\morph21","no","mono","no","18","no","white","no","yes","1080","legacy","49","49","C:/Users/ERP Testing Room/Desktop/Joanna/morph21/subject-172.csv","xpyriment","Kafkaesque Koffka","3.2.5","0","None","NA","NA","NA","NA","space","None","993","NA","NA","NA","NA","172077","993","2","legacy","1024","2","48000","-16","AB_m21","172","even","NW_S_COMP","FANFUL","1841","354459","352792","346392","173931","NA","NA","NA","NA","351101","353289","NA","352292","NA","352287","354452","1853","354659","NA","NA","353459","1841","1841","353851","352287","1841","353459","354659","morph21_Oliver/Morris","18","45971","50","yes","1280","6"
"400","35.2941176471","35.2941176471","920.901960784","920.901960784","black","no","xpyriment","legacy","legacy","0","203","NA","uniform","57975","1000","0.017248814144","0","undefined","0","0","50","50","50","0","50","50","50","NA","50","50","0","50","NA","50","50","0","50","NA","50","NA","50","0","0","50","50","0","50","50","51","z","04/11/19 12:30:58","The main experiment item","yes","FIN__AB__M21__7%3A10%3A17.osexp","C:\Users\ERP Testing Room\Desktop\Joanna\morph21","no","mono","no","18","no","white","no","yes","1080","legacy","50","50","C:/Users/ERP Testing Room/Desktop/Joanna/morph21/subject-172.csv","xpyriment","Kafkaesque Koffka","3.2.5","0","None","NA","NA","NA","NA","space","None","995","NA","NA","NA","NA","172077","995","2","legacy","1024","2","48000","-16","AB_m21","172","even","NW_S_COMP","ARIDISM","1841","359068","355876","357559","173931","NA","NA","NA","NA","351101","356373","NA","355367","NA","355364","357554","1853","359468","NA","NA","356559","1841","1841","356959","355364","1841","356559","359468","morph21_Oliver/Morris","18","46966","51","yes","1280","9"
"400","36.5384615385","36.5384615385","920.980769231","920.980769231","black","no","xpyriment","legacy","legacy","0","208","NA","uniform","53066","1000","0.0188444578449","1","undefined","1","0","51","51","51","0","51","51","51","NA","51","51","0","51","NA","51","51","0","51","NA","51","NA","51","0","0","51","51","0","51","51","52","z","04/11/19 12:30:58","The main experiment item","yes","FIN__AB__M21__7%3A10%3A17.osexp","C:\Users\ERP Testing Room\Desktop\Joanna\morph21","no","mono","no","18","no","white","no","yes","1080","legacy","51","51","C:/Users/ERP Testing Room/Desktop/Joanna/morph21/subject-172.csv","xpyriment","Kafkaesque Koffka","3.2.5","0","z","NA","NA","NA","NA","space","z","925","NA","NA","NA","NA","172077","925","2","legacy","1024","2","48000","-16","AB_m21","172","even","FILL_NW","VELT","1841","362302","360569","357559","173931","NA","NA","NA","NA","362293","361066","NA","360068","NA","360062","362293","1853","362702","NA","NA","361302","1841","1841","361694","360062","1841","361302","362702","morph21_Oliver/Morris","19","47891","52","yes","1280","46"
"350","37.7358490566","37.7358490566","917.716981132","917.716981132","black","no","xpyriment","legacy","legacy","0","208","NA","uniform","63201","1000","0.0158225344536","1","undefined","1","0","52","52","52","0","52","52","52","NA","52","52","0","52","NA","52","52","0","52","NA","52","NA","52","0","0","52","52","0","52","52","53","z","04/11/19 12:30:58","The main experiment item","yes","FIN__AB__M21__7%3A10%3A17.osexp","C:\Users\ERP Testing Room\Desktop\Joanna\morph21","no","mono","no","18","no","white","no","yes","1080","legacy","52","52","C:/Users/ERP Testing Room/Desktop/Joanna/morph21/subject-172.csv","xpyriment","Kafkaesque Koffka","3.2.5","0","z","NA","NA","NA","NA","space","z","748","NA","NA","NA","NA","172077","748","2","legacy","1024","2","48000","-16","AB_m21","172","even","FILL_NW","JADS","1841","365527","363877","357559","173931","NA","NA","NA","NA","365522","364374","NA","363377","NA","363372","365522","1853","365877","NA","NA","364527","1841","1841","364927","363371","1841","364527","365877","morph21_Oliver/Morris","20","48639","53","yes","1280","31"
"200","38.8888888889","38.8888888889","917.796296296","917.796296296","black","no","xpyriment","legacy","legacy","0","203","NA","uniform","49381","1000","0.020250703712","1","undefined","1","0","53","53","53","0","53","53","53","NA","53","53","0","53","NA","53","53","0","53","NA","53","NA","53","0","0","53","53","0","53","53","54","z","04/11/19 12:30:58","The main experiment item","yes","FIN__AB__M21__7%3A10%3A17.osexp","C:\Users\ERP Testing Room\Desktop\Joanna\morph21","no","mono","no","18","no","white","no","yes","1080","legacy","53","53","C:/Users/ERP Testing Room/Desktop/Joanna/morph21/subject-172.csv","xpyriment","Kafkaesque Koffka","3.2.5","0","z","NA","NA","NA","NA","space","z","922","NA","NA","NA","NA","172077","922","2","legacy","1024","2","48000","-16","AB_m21","172","even","NW_S_COMP","DUMBITY","1841","370261","367019","368752","173931","NA","NA","NA","NA","368746","367516","NA","366519","NA","366512","368746","1853","370461","NA","NA","367752","1841","1841","368144","366511","1841","367752","370461","morph21_Oliver/Morris","21","49561","54","yes","1280","12"
"200","38.1818181818","38.1818181818","919.072727273","919.072727273","black","no","xpyriment","legacy","legacy","0","207","NA","uniform","57206","1000","0.0174806838444","0","undefined","0","0","54","54","54","0","54","54","54","NA","54","54","0","54","NA","54","54","0","54","NA","54","NA","54","0","0","54","54","0","54","54","55","/","04/11/19 12:30:58","The main experiment item","yes","FIN__AB__M21__7%3A10%3A17.osexp","C:\Users\ERP Testing Room\Desktop\Joanna\morph21","no","mono","no","18","no","white","no","yes","1080","legacy","54","54","C:/Users/ERP Testing Room/Desktop/Joanna/morph21/subject-172.csv","xpyriment","Kafkaesque Koffka","3.2.5","0","None","NA","NA","NA","NA","space","None","988","NA","NA","NA","NA","172077","988","2","legacy","1024","2","48000","-16","AB_m21","172","even","FILL_W","FLOAT","1841","373311","371619","368752","173931","NA","NA","NA","NA","368746","372116","NA","371119","NA","371109","373307","1853","373511","NA","NA","372319","1841","1841","372711","371109","1841","372319","373511","morph21_Oliver/Morris","21","50549","55","yes","1280","30"
"200","39.2857142857","39.2857142857","914.410714286","914.410714286","black","no","xpyriment","legacy","legacy","0","208","NA","uniform","64232","1000","0.0155685639557","1","undefined","1","0","55","55","55","0","55","55","55","NA","55","55","0","55","NA","55","55","0","55","NA","55","NA","55","0","0","55","55","0","55","55","56","z","04/11/19 12:30:58","The main experiment item","yes","FIN__AB__M21__7%3A10%3A17.osexp","C:\Users\ERP Testing Room\Desktop\Joanna\morph21","no","mono","no","18","no","white","no","yes","1080","legacy","55","55","C:/Users/ERP Testing Room/Desktop/Joanna/morph21/subject-172.csv","xpyriment","Kafkaesque Koffka","3.2.5","0","z","NA","NA","NA","NA","space","z","658","NA","NA","NA","NA","172077","658","2","legacy","1024","2","48000","-16","AB_m21","172","even","FILL_NW","GILN","1841","376328","374628","368752","173931","NA","NA","NA","NA","376319","375125","NA","374128","NA","374121","376319","1853","376528","NA","NA","375328","1841","1841","375719","374121","1841","375328","376528","morph21_Oliver/Morris","22","51207","56","yes","1280","25"
"400","40.350877193","40.350877193","913.684210526","913.684210526","black","no","xpyriment","legacy","legacy","0","202","NA","uniform","59447","1000","0.0168217067304","1","undefined","1","0","56","56","56","0","56","56","56","NA","56","56","0","56","NA","56","56","0","56","NA","56","NA","56","0","0","56","56","0","56","56","57","/","04/11/19 12:30:58","The main experiment item","yes","FIN__AB__M21__7%3A10%3A17.osexp","C:\Users\ERP Testing Room\Desktop\Joanna\morph21","no","mono","no","18","no","white","no","yes","1080","legacy","56","56","C:/Users/ERP Testing Room/Desktop/Joanna/morph21/subject-172.csv","xpyriment","Kafkaesque Koffka","3.2.5","0","/","NA","NA","NA","NA","space","/","873","NA","NA","NA","NA","172077","873","2","legacy","1024","2","48000","-16","AB_m21","172","even","CW_L","QUIETLY","1841","380862","377679","379354","173931","NA","NA","NA","NA","379345","378176","NA","377178","NA","377170","379345","1853","381262","NA","NA","378354","1841","1841","378745","377170","1841","378354","381262","morph21_Oliver/Morris","23","52080","57","yes","1280","36"
"350","41.3793103448","41.3793103448","913.551724138","913.551724138","black","no","xpyriment","legacy","legacy","0","207","NA","uniform","56936","1000","0.0175635801602","1","undefined","1","0","57","57","57","0","57","57","57","NA","57","57","0","57","NA","57","57","0","57","NA","57","NA","57","0","0","57","57","0","57","57","58","/","04/11/19 12:30:58","The main experiment item","yes","FIN__AB__M21__7%3A10%3A17.osexp","C:\Users\ERP Testing Room\Desktop\Joanna\morph21","no","mono","no","18","no","white","no","yes","1080","legacy","57","57","C:/Users/ERP Testing Room/Desktop/Joanna/morph21/subject-172.csv","xpyriment","Kafkaesque Koffka","3.2.5","0","/","NA","NA","NA","NA","space","/","906","NA","NA","NA","NA","172077","906","2","legacy","1024","2","48000","-16","AB_m21","172","even","FILL_W","LIFT","1841","384121","382446","379354","173931","NA","NA","NA","NA","384115","382943","NA","381946","NA","381941","384115","1853","384471","NA","NA","383121","1841","1841","383512","381940","1841","383121","384471","morph21_Oliver/Morris","24","52986","58","yes","1280","39"
"400","42.3728813559","42.3728813559","909.06779661","909.06779661","black","no","xpyriment","legacy","legacy","0","201","NA","uniform","70751","1000","0.0141340758435","1","undefined","1","0","58","58","58","0","58","58","58","NA","58","58","0","58","NA","58","58","0","58","NA","58","NA","58","0","0","58","58","0","58","58","59","/","04/11/19 12:30:58","The main experiment item","yes","FIN__AB__M21__7%3A10%3A17.osexp","C:\Users\ERP Testing Room\Desktop\Joanna\morph21","no","mono","no","18","no","white","no","yes","1080","legacy","58","58","C:/Users/ERP Testing Room/Desktop/Joanna/morph21/subject-172.csv","xpyriment","Kafkaesque Koffka","3.2.5","0","/","NA","NA","NA","NA","space","/","649","NA","NA","NA","NA","172077","649","2","legacy","1024","2","48000","-16","AB_m21","172","even","CW_S","DESIGN","1841","387329","385654","379354","173931","NA","NA","NA","NA","387322","386151","NA","385154","NA","385150","387322","1853","387729","NA","NA","386329","1841","1841","386721","385150","1841","386329","387729","morph21_Oliver/Morris","25","53635","59","yes","1280","19"
"400","41.6666666667","41.6666666667","907.85","907.85","black","no","xpyriment","legacy","legacy","0","207","NA","uniform","58085","1000","0.0172161487475","0","undefined","0","0","59","59","59","0","59","59","59","NA","59","59","0","59","NA","59","59","0","59","NA","59","NA","59","0","0","59","59","0","59","59","60","/","04/11/19 12:30:58","The main experiment item","yes","FIN__AB__M21__7%3A10%3A17.osexp","C:\Users\ERP Testing Room\Desktop\Joanna\morph21","no","mono","no","18","no","white","no","yes","1080","legacy","59","59","C:/Users/ERP Testing Room/Desktop/Joanna/morph21/subject-172.csv","xpyriment","Kafkaesque Koffka","3.2.5","0","z","NA","NA","NA","NA","space","z","836","NA","NA","NA","NA","172077","836","2","legacy","1024","2","48000","-16","AB_m21","172","even","FILL_W","LITHE","1841","392154","388929","390646","173931","NA","NA","NA","NA","387322","389426","NA","388429","NA","388420","390638","1853","392555","NA","NA","389646","1841","1841","390038","388420","1841","389646","392555","morph21_Oliver/Morris","25","54471","60","yes","1280","23"
"250","40.9836065574","40.9836065574","905.704918033","905.704918033","black","no","xpyriment","legacy","legacy","0","203","NA","uniform","62105","1000","0.0161017631431","0","undefined","0","0","60","60","60","0","60","60","60","NA","60","60","0","60","NA","60","60","0","60","NA","60","NA","60","0","0","60","60","0","60","60","61","z","04/11/19 12:30:58","The main experiment item","yes","FIN__AB__M21__7%3A10%3A17.osexp","C:\Users\ERP Testing Room\Desktop\Joanna\morph21","no","mono","no","18","no","white","no","yes","1080","legacy","60","60","C:/Users/ERP Testing Room/Desktop/Joanna/morph21/subject-172.csv","xpyriment","Kafkaesque Koffka","3.2.5","0","/","NA","NA","NA","NA","space","/","777","NA","NA","NA","NA","172077","777","2","legacy","1024","2","48000","-16","AB_m21","172","even","NW_S_COMP","BRANCHER","1841","395347","393663","390646","173931","NA","NA","NA","NA","387322","394160","NA","393163","NA","393157","395339","1853","395597","NA","NA","394346","1841","1841","394738","393157","1841","394346","395597","morph21_Oliver/Morris","25","55248","61","yes","1280","16"
"400","41.935483871","41.935483871","907.016129032","907.016129032","black","no","xpyriment","legacy","legacy","0","208","NA","uniform","48462","1000","0.0206347241137","1","undefined","1","0","61","61","61","0","61","61","61","NA","61","61","0","61","NA","61","61","0","61","NA","61","NA","61","0","0","61","61","0","61","61","62","z","04/11/19 12:30:58","The main experiment item","yes","FIN__AB__M21__7%3A10%3A17.osexp","C:\Users\ERP Testing Room\Desktop\Joanna\morph21","no","mono","no","18","no","white","no","yes","1080","legacy","61","61","C:/Users/ERP Testing Room/Desktop/Joanna/morph21/subject-172.csv","xpyriment","Kafkaesque Koffka","3.2.5","0","z","NA","NA","NA","NA","space","z","987","NA","NA","NA","NA","172077","987","2","legacy","1024","2","48000","-16","AB_m21","172","even","FILL_NW","ULNS","1841","398456","396789","390646","173931","NA","NA","NA","NA","398449","397286","NA","396289","NA","396282","398449","1853","398856","NA","NA","397456","1841","1841","397847","396282","1841","397456","398856","morph21_Oliver/Morris","26","56235","62","yes","1280","45"
"350","42.8571428571","42.8571428571","905.015873016","905.015873016","black","no","xpyriment","legacy","legacy","0","205","NA","uniform","56275","1000","0.0177698800533","1","undefined","1","0","62","62","62","0","62","62","62","NA","62","62","0","62","NA","62","62","0","62","NA","62","NA","62","0","0","62","62","0","62","62","63","z","04/11/19 12:30:58","The main experiment item","yes","FIN__AB__M21__7%3A10%3A17.osexp","C:\Users\ERP Testing Room\Desktop\Joanna\morph21","no","mono","no","18","no","white","no","yes","1080","legacy","62","62","C:/Users/ERP Testing Room/Desktop/Joanna/morph21/subject-172.csv","xpyriment","Kafkaesque Koffka","3.2.5","0","z","NA","NA","NA","NA","space","z","781","NA","NA","NA","NA","172077","781","2","legacy","1024","2","48000","-16","AB_m21","172","even","NW_S_SIMP","BASKODY","1841","403122","399964","401614","173931","NA","NA","NA","NA","401611","400461","NA","399464","NA","399455","401611","1853","403473","NA","NA","400622","1841","1841","401014","399455","1841","400622","403473","morph21_Oliver/Morris","27","57016","63","yes","1280","10"
"400","42.1875","42.1875","906.296875","906.296875","black","no","xpyriment","legacy","legacy","0","201","NA","uniform","52579","1000","0.019018999981","0","undefined","0","0","63","63","63","0","63","63","63","NA","63","63","0","63","NA","63","63","0","63","NA","63","NA","63","0","0","63","63","0","63","63","64","/","04/11/19 12:30:58","The main experiment item","yes","FIN__AB__M21__7%3A10%3A17.osexp","C:\Users\ERP Testing Room\Desktop\Joanna\morph21","no","mono","no","18","no","white","no","yes","1080","legacy","63","63","C:/Users/ERP Testing Room/Desktop/Joanna/morph21/subject-172.csv","xpyriment","Kafkaesque Koffka","3.2.5","0","None","NA","NA","NA","NA","space","None","987","NA","NA","NA","NA","172077","987","2","legacy","1024","2","48000","-16","AB_m21","172","even","CW_S","DIETARY","1841","406489","404756","401614","173931","NA","NA","NA","NA","401611","405253","NA","404256","NA","404245","406485","1853","406889","NA","NA","405498","1841","1841","405889","404245","1841","405498","406889","morph21_Oliver/Morris","27","58003","64","yes","1280","6"
"400","41.5384615385","41.5384615385","907.569230769","907.569230769","black","no","xpyriment","legacy","legacy","0","208","NA","uniform","57236","1000","0.0174715214201","0","undefined","0","0","64","64","64","0","64","64","64","NA","64","64","0","64","NA","64","64","0","64","NA","64","NA","64","0","0","64","64","0","64","64","65","z","04/11/19 12:30:58","The main experiment item","yes","FIN__AB__M21__7%3A10%3A17.osexp","C:\Users\ERP Testing Room\Desktop\Joanna\morph21","no","mono","no","18","no","white","no","yes","1080","legacy","64","64","C:/Users/ERP Testing Room/Desktop/Joanna/morph21/subject-172.csv","xpyriment","Kafkaesque Koffka","3.2.5","0","None","NA","NA","NA","NA","space","None","989","NA","NA","NA","NA","172077","989","2","legacy","1024","2","48000","-16","AB_m21","172","even","FILL_NW","FROES","1841","409756","408106","401614","173931","NA","NA","NA","NA","401611","408603","NA","407606","NA","407594","409745","1853","410156","NA","NA","408756","1841","1841","409148","407594","1841","408756","410156","morph21_Oliver/Morris","27","58992","65","yes","1280","21"
"300","42.4242424242","42.4242424242","908.590909091","908.590909091","black","no","xpyriment","legacy","legacy","0","205","NA","uniform","57068","1000","0.0175229550711","1","undefined","1","0","65","65","65","0","65","65","65","NA","65","65","0","65","NA","65","65","0","65","NA","65","NA","65","0","0","65","65","0","65","65","66","z","04/11/19 12:30:58","The main experiment item","yes","FIN__AB__M21__7%3A10%3A17.osexp","C:\Users\ERP Testing Room\Desktop\Joanna\morph21","no","mono","no","18","no","white","no","yes","1080","legacy","65","65","C:/Users/ERP Testing Room/Desktop/Joanna/morph21/subject-172.csv","xpyriment","Kafkaesque Koffka","3.2.5","0","z","NA","NA","NA","NA","space","z","975","NA","NA","NA","NA","172077","975","2","legacy","1024","2","48000","-16","AB_m21","172","even","NW_S_SIMP","HELMETOES","1841","414466","411264","412957","173931","NA","NA","NA","NA","412947","411762","NA","410764","NA","410758","412947","1853","414766","NA","NA","411956","1841","1841","412348","410758","1841","411956","414766","morph21_Oliver/Morris","28","59967","66","yes","1280","14"
"400","43.2835820896","43.2835820896","905.925373134","905.925373134","black","no","xpyriment","legacy","legacy","0","207","NA","uniform","62430","1000","0.0160179400929","1","undefined","1","0","66","66","66","0","66","66","66","NA","66","66","0","66","NA","66","66","0","66","NA","66","NA","66","0","0","66","66","0","66","66","67","/","04/11/19 12:30:58","The main experiment item","yes","FIN__AB__M21__7%3A10%3A17.osexp","C:\Users\ERP Testing Room\Desktop\Joanna\morph21","no","mono","no","18","no","white","no","yes","1080","legacy","66","66","C:/Users/ERP Testing Room/Desktop/Joanna/morph21/subject-172.csv","xpyriment","Kafkaesque Koffka","3.2.5","0","/","NA","NA","NA","NA","space","/","730","NA","NA","NA","NA","172077","730","2","legacy","1024","2","48000","-16","AB_m21","172","even","FILL_W","DRUNK","1841","417641","415941","412957","173931","NA","NA","NA","NA","417632","416438","NA","415441","NA","415432","417632","1853","418041","NA","NA","416641","1841","1841","417032","415432","1841","416641","418041","morph21_Oliver/Morris","29","60697","67","yes","1280","19"
"200","44.1176470588","44.1176470588","903.235294118","903.235294118","black","no","xpyriment","legacy","legacy","0","208","NA","uniform","59756","1000","0.0167347211995","1","undefined","1","0","67","67","67","0","67","67","67","NA","67","67","0","67","NA","67","67","0","67","NA","67","NA","67","0","0","67","67","0","67","67","68","z","04/11/19 12:30:58","The main experiment item","yes","FIN__AB__M21__7%3A10%3A17.osexp","C:\Users\ERP Testing Room\Desktop\Joanna\morph21","no","mono","no","18","no","white","no","yes","1080","legacy","67","67","C:/Users/ERP Testing Room/Desktop/Joanna/morph21/subject-172.csv","xpyriment","Kafkaesque Koffka","3.2.5","0","z","NA","NA","NA","NA","space","z","723","NA","NA","NA","NA","172077","723","2","legacy","1024","2","48000","-16","AB_m21","172","even","FILL_NW","BLAYS","1841","420774","419074","412957","173931","NA","NA","NA","NA","420770","419571","NA","418574","NA","418563","420770","1853","420974","NA","NA","419783","1841","1841","420174","418563","1841","419782","420974","morph21_Oliver/Morris","30","61420","68","yes","1280","8"
"300","43.4782608696","43.4782608696","904.507246377","904.507246377","black","no","xpyriment","legacy","legacy","0","201","NA","uniform","54488","1000","0.0183526648069","0","undefined","0","0","68","68","68","0","68","68","68","NA","68","68","0","68","NA","68","68","0","68","NA","68","NA","68","0","0","68","68","0","68","68","69","/","04/11/19 12:30:58","The main experiment item","yes","FIN__AB__M21__7%3A10%3A17.osexp","C:\Users\ERP Testing Room\Desktop\Joanna\morph21","no","mono","no","18","no","white","no","yes","1080","legacy","68","68","C:/Users/ERP Testing Room/Desktop/Joanna/morph21/subject-172.csv","xpyriment","Kafkaesque Koffka","3.2.5","0","None","NA","NA","NA","NA","space","None","991","NA","NA","NA","NA","172077","991","2","legacy","1024","2","48000","-16","AB_m21","172","even","CW_S","DETECTABLE","1841","425533","422349","424024","173931","NA","NA","NA","NA","420770","422846","NA","421849","NA","421838","424016","1853","425833","NA","NA","423024","1841","1841","423416","421838","1841","423024","425833","morph21_Oliver/Morris","30","62411","69","yes","1280","1"
"300","44.2857142857","44.2857142857","903.414285714","903.414285714","black","no","xpyriment","legacy","legacy","0","202","NA","uniform","63317","1000","0.0157935467568","1","undefined","1","0","69","69","69","0","69","69","69","NA","69","69","0","69","NA","69","69","0","69","NA","69","NA","69","0","0","69","69","0","69","69","70","/","04/11/19 12:30:58","The main experiment item","yes","FIN__AB__M21__7%3A10%3A17.osexp","C:\Users\ERP Testing Room\Desktop\Joanna\morph21","no","mono","no","18","no","white","no","yes","1080","legacy","69","69","C:/Users/ERP Testing Room/Desktop/Joanna/morph21/subject-172.csv","xpyriment","Kafkaesque Koffka","3.2.5","0","/","NA","NA","NA","NA","space","/","828","NA","NA","NA","NA","172077","828","2","legacy","1024","2","48000","-16","AB_m21","172","even","CW_L","KNOCKER","1841","428775","427066","424024","173931","NA","NA","NA","NA","428771","427563","NA","426566","NA","426559","428771","1853","429075","NA","NA","427774","1841","1841","428174","426559","1841","427774","429075","morph21_Oliver/Morris","31","63239","70","yes","1280","4"
"250","45.0704225352","45.0704225352","900.816901408","900.816901408","black","no","xpyriment","legacy","legacy","0","202","NA","uniform","65058","1000","0.0153708998125","1","undefined","1","0","70","70","70","0","70","70","70","NA","70","70","0","70","NA","70","70","0","70","NA","70","NA","70","0","0","70","70","0","70","70","71","/","04/11/19 12:30:58","The main experiment item","yes","FIN__AB__M21__7%3A10%3A17.osexp","C:\Users\ERP Testing Room\Desktop\Joanna\morph21","no","mono","no","18","no","white","no","yes","1080","legacy","70","70","C:/Users/ERP Testing Room/Desktop/Joanna/morph21/subject-172.csv","xpyriment","Kafkaesque Koffka","3.2.5","0","/","NA","NA","NA","NA","space","/","719","NA","NA","NA","NA","172077","719","2","legacy","1024","2","48000","-16","AB_m21","172","even","CW_L","STRIKER","1841","431884","430217","424024","173931","NA","NA","NA","NA","431881","430714","NA","429716","NA","429707","431881","1853","432134","NA","NA","430892","1841","1841","431284","429707","1841","430892","432134","morph21_Oliver/Morris","32","63958","71","yes","1280","17"
"200","45.8333333333","45.8333333333","897.375","897.375","black","no","xpyriment","legacy","legacy","0","208","NA","uniform","60752","1000","0.0164603634448","1","undefined","1","0","71","71","71","0","71","71","71","NA","71","71","0","71","NA","71","71","0","71","NA","71","NA","71","0","0","71","71","0","71","71","72","z","04/11/19 12:30:58","The main experiment item","yes","FIN__AB__M21__7%3A10%3A17.osexp","C:\Users\ERP Testing Room\Desktop\Joanna\morph21","no","mono","no","18","no","white","no","yes","1080","legacy","71","71","C:/Users/ERP Testing Room/Desktop/Joanna/morph21/subject-172.csv","xpyriment","Kafkaesque Koffka","3.2.5","0","z","NA","NA","NA","NA","space","z","653","NA","NA","NA","NA","172077","653","2","legacy","1024","2","48000","-16","AB_m21","172","even","FILL_NW","HESK","1841","436443","433201","434934","173931","NA","NA","NA","NA","434929","433698","NA","432701","NA","432693","434929","1853","436643","NA","NA","433934","1841","1841","434334","432693","1841","433934","436643","morph21_Oliver/Morris","33","64611","72","yes","1280","29"
"200","46.5753424658","46.5753424658","896","896","black","no","xpyriment","legacy","legacy","0","201","NA","uniform","62091","1000","0.0161053936963","1","undefined","1","0","72","72","72","0","72","72","72","NA","72","72","0","72","NA","72","72","0","72","NA","72","NA","72","0","0","72","72","0","72","72","73","/","04/11/19 12:30:58","The main experiment item","yes","FIN__AB__M21__7%3A10%3A17.osexp","C:\Users\ERP Testing Room\Desktop\Joanna\morph21","no","mono","no","18","no","white","no","yes","1080","legacy","72","72","C:/Users/ERP Testing Room/Desktop/Joanna/morph21/subject-172.csv","xpyriment","Kafkaesque Koffka","3.2.5","0","/","NA","NA","NA","NA","space","/","797","NA","NA","NA","NA","172077","797","2","legacy","1024","2","48000","-16","AB_m21","172","even","CW_S","LOCALLY","1841","439509","437834","434934","173931","NA","NA","NA","NA","439501","438331","NA","437334","NA","437323","439501","1853","439709","NA","NA","438509","1841","1841","438901","437323","1841","438509","439709","morph21_Oliver/Morris","34","65408","73","yes","1280","37"
"400","45.9459459459","45.9459459459","897.324324324","897.324324324","black","no","xpyriment","legacy","legacy","0","204","NA","uniform","56176","1000","0.0178011962404","0","undefined","0","0","73","73","73","0","73","73","73","NA","73","73","0","73","NA","73","73","0","73","NA","73","NA","73","0","0","73","73","0","73","73","74","z","04/11/19 12:30:58","The main experiment item","yes","FIN__AB__M21__7%3A10%3A17.osexp","C:\Users\ERP Testing Room\Desktop\Joanna\morph21","no","mono","no","18","no","white","no","yes","1080","legacy","73","73","C:/Users/ERP Testing Room/Desktop/Joanna/morph21/subject-172.csv","xpyriment","Kafkaesque Koffka","3.2.5","0","None","NA","NA","NA","NA","space","None","994","NA","NA","NA","NA","172077","994","2","legacy","1024","2","48000","-16","AB_m21","172","even","NW_L_COMP","BOILOUS","1841","442684","440984","434934","173931","NA","NA","NA","NA","439501","441482","NA","440484","NA","440479","442678","1853","443085","NA","NA","441684","1841","1841","442076","440479","1841","441684","443085","morph21_Oliver/Morris","34","66402","74","yes","1280","18"
"300","46.6666666667","46.6666666667","896.64","896.64","black","no","xpyriment","legacy","legacy","0","208","NA","uniform","64361","1000","0.0155373595811","undefined","undefined","1","0","74","74","74","0","74","74","74","NA","74","74","0","74","NA","74","74","0","74","NA","74","NA","74","0","0","74","74","0","74","74","75","z","04/11/19 12:30:58","The main experiment item","yes","FIN__AB__M21__7%3A10%3A17.osexp","C:\Users\ERP Testing Room\Desktop\Joanna\morph21","no","mono","no","18","no","white","no","yes","1080","legacy","74","74","C:/Users/ERP Testing Room/Desktop/Joanna/morph21/subject-172.csv","xpyriment","Kafkaesque Koffka","3.2.5","0","space","space","NA","NA","NA","space","z","13532","13532","NA","NA","NA","172077","846","2","legacy","1024","2","48000","-16","AB_m21","172","even","FILL_NW","HEEM","1841","447385","444226","445876","173931","447694","NA","NA","NA","445869","444723","NA","443726","NA","443716","445869","1853","461228","NA","NA","444876","1841","1841","445268","443716","1841","444876","447685","morph21_Oliver/Morris","35","67248","75","yes","1280","27"
"350","47.3684210526","47.3684210526","894.868421053","894.868421053","black","no","xpyriment","legacy","legacy","0","201","NA","uniform","65417","1000","0.0152865463106","1","undefined","1","0","75","75","75","0","75","75","75","NA","75","75","0","75","NA","75","75","0","75","NA","75","NA","75","0","0","75","75","0","75","75","76","/","04/11/19 12:30:58","The main experiment item","yes","FIN__AB__M21__7%3A10%3A17.osexp","C:\Users\ERP Testing Room\Desktop\Joanna\morph21","no","mono","no","18","no","white","no","yes","1080","legacy","75","75","C:/Users/ERP Testing Room/Desktop/Joanna/morph21/subject-172.csv","xpyriment","Kafkaesque Koffka","3.2.5","0","/","space","NA","NA","NA","space","/","762","13532","NA","NA","NA","172077","762","2","legacy","1024","2","48000","-16","AB_m21","172","even","CW_S","CHILLY","1841","464120","462428","445876","173931","447694","NA","NA","NA","464111","462925","NA","461928","NA","461918","464111","1853","464470","NA","NA","463120","1841","1841","463511","461918","1841","463120","464470","morph21_Oliver/Morris","36","68010","76","yes","1280","48"
"200","48.0519480519","48.0519480519","894.168831169","894.168831169","black","no","xpyriment","legacy","legacy","0","207","NA","uniform","58750","1000","0.0170212765957","1","undefined","1","0","76","76","76","0","76","76","76","NA","76","76","0","76","NA","76","76","0","76","NA","76","NA","76","0","0","76","76","0","76","76","77","/","04/11/19 12:30:58","The main experiment item","yes","FIN__AB__M21__7%3A10%3A17.osexp","C:\Users\ERP Testing Room\Desktop\Joanna\morph21","no","mono","no","18","no","white","no","yes","1080","legacy","76","76","C:/Users/ERP Testing Room/Desktop/Joanna/morph21/subject-172.csv","xpyriment","Kafkaesque Koffka","3.2.5","0","/","space","NA","NA","NA","space","/","841","13532","NA","NA","NA","172077","841","2","legacy","1024","2","48000","-16","AB_m21","172","even","FILL_W","TEST","1841","467346","465671","445876","173931","447694","NA","NA","NA","467337","466168","NA","465162","NA","465152","467337","1853","467546","NA","NA","466346","1841","1841","466737","465152","1841","466346","467546","morph21_Oliver/Morris","37","68851","77","yes","1280","47"
"350","47.4358974359","47.4358974359","895.397435897","895.397435897","black","no","xpyriment","legacy","legacy","0","208","NA","uniform","58028","1000","0.0172330599021","0","undefined","0","0","77","77","77","0","77","77","77","NA","77","77","0","77","NA","77","77","0","77","NA","77","NA","77","0","0","77","77","0","77","77","78","z","04/11/19 12:30:58","The main experiment item","yes","FIN__AB__M21__7%3A10%3A17.osexp","C:\Users\ERP Testing Room\Desktop\Joanna\morph21","no","mono","no","18","no","white","no","yes","1080","legacy","77","77","C:/Users/ERP Testing Room/Desktop/Joanna/morph21/subject-172.csv","xpyriment","Kafkaesque Koffka","3.2.5","0","None","space","NA","NA","NA","space","None","990","13532","NA","NA","NA","172077","990","2","legacy","1024","2","48000","-16","AB_m21","172","even","FILL_NW","BLANTH","1841","471863","468688","470354","173931","447694","NA","NA","NA","467337","469185","NA","468188","NA","468177","470345","1853","472213","NA","NA","469354","1841","1841","469746","468177","1841","469354","472213","morph21_Oliver/Morris","37","69841","78","yes","1280","3"
"400","46.835443038","46.835443038","896.594936709","896.594936709","black","no","xpyriment","legacy","legacy","0","202","NA","uniform","56923","1000","0.0175675913076","0","undefined","0","0","78","78","78","0","78","78","78","NA","78","78","0","78","NA","78","78","0","78","NA","78","NA","78","0","0","78","78","0","78","78","79","/","04/11/19 12:30:58","The main experiment item","yes","FIN__AB__M21__7%3A10%3A17.osexp","C:\Users\ERP Testing Room\Desktop\Joanna\morph21","no","mono","no","18","no","white","no","yes","1080","legacy","78","78","C:/Users/ERP Testing Room/Desktop/Joanna/morph21/subject-172.csv","xpyriment","Kafkaesque Koffka","3.2.5","0","None","space","NA","NA","NA","space","None","990","13532","NA","NA","NA","172077","990","2","legacy","1024","2","48000","-16","AB_m21","172","even","CW_L","STYLISH","1841","475079","473371","470354","173931","447694","NA","NA","NA","467337","473868","NA","472871","NA","472861","475070","1853","475480","NA","NA","474080","1841","1841","474471","472861","1841","474079","475480","morph21_Oliver/Morris","37","70831","79","yes","1280","29"
"400","46.25","46.25","897.775","897.775","black","no","xpyriment","legacy","legacy","0","204","NA","uniform","55137","1000","0.0181366414567","0","undefined","0","0","79","79","79","0","79","79","79","NA","79","79","0","79","NA","79","79","0","79","NA","79","NA","79","0","0","79","79","0","79","79","80","z","04/11/19 12:30:58","The main experiment item","yes","FIN__AB__M21__7%3A10%3A17.osexp","C:\Users\ERP Testing Room\Desktop\Joanna\morph21","no","mono","no","18","no","white","no","yes","1080","legacy","79","79","C:/Users/ERP Testing Room/Desktop/Joanna/morph21/subject-172.csv","xpyriment","Kafkaesque Koffka","3.2.5","0","None","space","NA","NA","NA","space","None","991","13532","NA","NA","NA","172077","991","2","legacy","1024","2","48000","-16","AB_m21","172","even","NW_L_COMP","PASSMENT","1841","478363","476638","470354","173931","447694","NA","NA","NA","467337","477135","NA","476130","NA","476123","478354","1853","478763","NA","NA","477363","1841","1841","477755","476123","1841","477363","478763","morph21_Oliver/Morris","37","71822","80","yes","1280","14"
"300","45.6790123457","45.6790123457","898.925925926","898.925925926","black","no","xpyriment","legacy","legacy","0","204","NA","uniform","54042","1000","0.0185041264202","0","undefined","0","0","80","80","80","0","80","80","80","NA","80","80","0","80","NA","80","80","0","80","NA","80","NA","80","0","0","80","80","0","80","80","81","z","04/11/19 12:30:58","The main experiment item","yes","FIN__AB__M21__7%3A10%3A17.osexp","C:\Users\ERP Testing Room\Desktop\Joanna\morph21","no","mono","no","18","no","white","no","yes","1080","legacy","80","80","C:/Users/ERP Testing Room/Desktop/Joanna/morph21/subject-172.csv","xpyriment","Kafkaesque Koffka","3.2.5","0","None","space","NA","NA","NA","space","None","991","13532","NA","NA","NA","172077","991","2","legacy","1024","2","48000","-16","AB_m21","172","even","NW_L_COMP","NORTHIZE","1841","483223","479988","481713","173931","447694","NA","NA","NA","467337","480485","NA","479488","NA","479479","481706","1853","483523","NA","NA","480713","1841","1841","481105","479479","1841","480713","483523","morph21_Oliver/Morris","37","72813","81","yes","1280","20"
"250","45.1219512195","45.1219512195","900.073170732","900.073170732","black","no","xpyriment","legacy","legacy","0","204","NA","uniform","57541","1000","0.0173789124277","0","undefined","0","0","81","81","81","0","81","81","81","NA","81","81","0","81","NA","81","81","0","81","NA","81","NA","81","0","0","81","81","0","81","81","82","z","04/11/19 12:30:58","The main experiment item","yes","FIN__AB__M21__7%3A10%3A17.osexp","C:\Users\ERP Testing Room\Desktop\Joanna\morph21","no","mono","no","18","no","white","no","yes","1080","legacy","81","81","C:/Users/ERP Testing Room/Desktop/Joanna/morph21/subject-172.csv","xpyriment","Kafkaesque Koffka","3.2.5","0","None","space","NA","NA","NA","space","None","993","13532","NA","NA","NA","172077","993","2","legacy","1024","2","48000","-16","AB_m21","172","even","NW_L_COMP","BREAKITY","1841","486314","484623","481713","173931","447694","NA","NA","NA","467337","485120","NA","484123","NA","484114","486307","1853","486564","NA","NA","485314","1841","1841","485706","484114","1841","485314","486564","morph21_Oliver/Morris","37","73806","82","yes","1280","23"
"200","44.578313253","44.578313253","901.180722892","901.180722892","black","no","xpyriment","legacy","legacy","0","203","NA","uniform","57534","1000","0.0173810268711","0","undefined","0","0","82","82","82","0","82","82","82","NA","82","82","0","82","NA","82","82","0","82","NA","82","NA","82","0","0","82","82","0","82","82","83","z","04/11/19 12:30:58","The main experiment item","yes","FIN__AB__M21__7%3A10%3A17.osexp","C:\Users\ERP Testing Room\Desktop\Joanna\morph21","no","mono","no","18","no","white","no","yes","1080","legacy","82","82","C:/Users/ERP Testing Room/Desktop/Joanna/morph21/subject-172.csv","xpyriment","Kafkaesque Koffka","3.2.5","0","None","space","NA","NA","NA","space","None","992","13532","NA","NA","NA","172077","992","2","legacy","1024","2","48000","-16","AB_m21","172","even","NW_S_COMP","YANKORY","1841","489406","487756","481713","173931","447694","NA","NA","NA","467337","488253","NA","487256","NA","487249","489398","1853","489606","NA","NA","488406","1841","1841","488798","487249","1841","488406","489606","morph21_Oliver/Morris","37","74798","83","yes","1280","23"
"300","44.0476190476","44.0476190476","902.226190476","902.226190476","black","no","xpyriment","legacy","legacy","0","208","NA","uniform","53683","1000","0.0186278710206","0","undefined","0","0","83","83","83","0","83","83","83","NA","83","83","0","83","NA","83","83","0","83","NA","83","NA","83","0","0","83","83","0","83","83","84","z","04/11/19 12:30:58","The main experiment item","yes","FIN__AB__M21__7%3A10%3A17.osexp","C:\Users\ERP Testing Room\Desktop\Joanna\morph21","no","mono","no","18","no","white","no","yes","1080","legacy","83","83","C:/Users/ERP Testing Room/Desktop/Joanna/morph21/subject-172.csv","xpyriment","Kafkaesque Koffka","3.2.5","0","None","space","NA","NA","NA","space","None","989","13532","NA","NA","NA","172077","989","2","legacy","1024","2","48000","-16","AB_m21","172","even","FILL_NW","SCURE","1841","493998","490781","492490","173931","447694","NA","NA","NA","467337","491278","NA","490281","NA","490271","492479","1853","494298","NA","NA","491490","1841","1841","491881","490271","1841","491490","494298","morph21_Oliver/Morris","37","75787","84","yes","1280","41"
"400","44.7058823529","44.7058823529","901.082352941","901.082352941","black","no","xpyriment","legacy","legacy","0","201","NA","uniform","58563","1000","0.0170756279562","1","undefined","1","0","84","84","84","0","84","84","84","NA","84","84","0","84","NA","84","84","0","84","NA","84","NA","84","0","0","84","84","0","84","84","85","/","04/11/19 12:30:58","The main experiment item","yes","FIN__AB__M21__7%3A10%3A17.osexp","C:\Users\ERP Testing Room\Desktop\Joanna\morph21","no","mono","no","18","no","white","no","yes","1080","legacy","84","84","C:/Users/ERP Testing Room/Desktop/Joanna/morph21/subject-172.csv","xpyriment","Kafkaesque Koffka","3.2.5","0","/","space","NA","NA","NA","space","/","805","13532","NA","NA","NA","172077","805","2","legacy","1024","2","48000","-16","AB_m21","172","even","CW_S","RAIDER","1841","497156","495490","492490","173931","447694","NA","NA","NA","497154","495987","NA","494990","NA","494980","497154","1853","497556","NA","NA","496165","1841","1841","496556","494979","1841","496165","497556","morph21_Oliver/Morris","38","76592","85","yes","1280","12"
"400","44.1860465116","44.1860465116","902.11627907","902.11627907","black","no","xpyriment","legacy","legacy","0","204","NA","uniform","57218","1000","0.0174770177217","0","undefined","0","0","85","85","85","0","85","85","85","NA","85","85","0","85","NA","85","85","0","85","NA","85","NA","85","0","0","85","85","0","85","85","86","z","04/11/19 12:30:58","The main experiment item","yes","FIN__AB__M21__7%3A10%3A17.osexp","C:\Users\ERP Testing Room\Desktop\Joanna\morph21","no","mono","no","18","no","white","no","yes","1080","legacy","85","85","C:/Users/ERP Testing Room/Desktop/Joanna/morph21/subject-172.csv","xpyriment","Kafkaesque Koffka","3.2.5","0","None","space","NA","NA","NA","space","None","990","13532","NA","NA","NA","172077","990","2","legacy","1024","2","48000","-16","AB_m21","172","even","NW_L_COMP","FLITENCE","1841","500383","498706","492490","173931","447694","NA","NA","NA","497154","499204","NA","498206","NA","498202","500373","1853","500783","NA","NA","499382","1841","1841","499773","498202","1841","499381","500783","morph21_Oliver/Morris","38","77582","86","yes","1280","3"
"250","43.6781609195","43.6781609195","903.137931034","903.137931034","black","no","xpyriment","legacy","legacy","0","206","NA","uniform","56466","1000","0.0177097722523","0","undefined","0","0","86","86","86","0","86","86","86","NA","86","86","0","86","NA","86","86","0","86","NA","86","NA","86","0","0","86","86","0","86","86","87","z","04/11/19 12:30:58","The main experiment item","yes","FIN__AB__M21__7%3A10%3A17.osexp","C:\Users\ERP Testing Room\Desktop\Joanna\morph21","no","mono","no","18","no","white","no","yes","1080","legacy","86","86","C:/Users/ERP Testing Room/Desktop/Joanna/morph21/subject-172.csv","xpyriment","Kafkaesque Koffka","3.2.5","0","None","space","NA","NA","NA","space","None","991","13532","NA","NA","NA","172077","991","2","legacy","1024","2","48000","-16","AB_m21","172","even","NW_L_SIMP"," DRESSODY","1841","505166","501983","503658","173931","447694","NA","NA","NA","497154","502480","NA","501483","NA","501477","503650","1853","505416","NA","NA","502658","1841","1841","503049","501477","1841","502658","505416","morph21_Oliver/Morris","38","78573","87","yes","1280","21"
"300","43.1818181818","43.1818181818","904.125","904.125","black","no","xpyriment","legacy","legacy","0","204","NA","uniform","55469","1000","0.0180280877607","0","undefined","0","0","87","87","87","0","87","87","87","NA","87","87","0","87","NA","87","87","0","87","NA","87","NA","87","0","0","87","87","0","87","87","88","z","04/11/19 12:30:58","The main experiment item","yes","FIN__AB__M21__7%3A10%3A17.osexp","C:\Users\ERP Testing Room\Desktop\Joanna\morph21","no","mono","no","18","no","white","no","yes","1080","legacy","87","87","C:/Users/ERP Testing Room/Desktop/Joanna/morph21/subject-172.csv","xpyriment","Kafkaesque Koffka","3.2.5","0","None","space","NA","NA","NA","space","None","990","13532","NA","NA","NA","172077","990","2","legacy","1024","2","48000","-16","AB_m21","172","even","NW_L_COMP","SHEETER","1841","508300","506608","503658","173931","447694","NA","NA","NA","497154","507105","NA","506099","NA","506089","508291","1853","508600","NA","NA","507300","1841","1841","507691","506089","1841","507300","508600","morph21_Oliver/Morris","38","79563","88","yes","1280","5"
"200","42.6966292135","42.6966292135","905.08988764","905.08988764","black","no","xpyriment","legacy","legacy","0","206","NA","uniform","49626","1000","0.0201507274413","0","undefined","0","0","88","88","88","0","88","88","88","NA","88","88","0","88","NA","88","88","0","88","NA","88","NA","88","0","0","88","88","0","88","88","89","z","04/11/19 12:30:58","The main experiment item","yes","FIN__AB__M21__7%3A10%3A17.osexp","C:\Users\ERP Testing Room\Desktop\Joanna\morph21","no","mono","no","18","no","white","no","yes","1080","legacy","88","88","C:/Users/ERP Testing Room/Desktop/Joanna/morph21/subject-172.csv","xpyriment","Kafkaesque Koffka","3.2.5","0","None","space","NA","NA","NA","space","None","990","13532","NA","NA","NA","172077","990","2","legacy","1024","2","48000","-16","AB_m21","172","even","NW_L_SIMP","TOWERLA","1841","511400","509708","503658","173931","447694","NA","NA","NA","497154","510205","NA","509208","NA","509201","511390","1853","511600","NA","NA","510400","1841","1841","510791","509201","1841","510400","511600","morph21_Oliver/Morris","38","80553","89","yes","1280","15"
"350","42.2222222222","42.2222222222","906.111111111","906.111111111","black","no","xpyriment","legacy","legacy","0","202","NA","uniform","58043","1000","0.017228606378","0","undefined","0","0","89","89","89","0","89","89","89","NA","89","89","0","89","NA","89","89","0","89","NA","89","NA","89","0","0","89","89","0","89","89","90","/","04/11/19 12:30:58","The main experiment item","yes","FIN__AB__M21__7%3A10%3A17.osexp","C:\Users\ERP Testing Room\Desktop\Joanna\morph21","no","mono","no","18","no","white","no","yes","1080","legacy","89","89","C:/Users/ERP Testing Room/Desktop/Joanna/morph21/subject-172.csv","xpyriment","Kafkaesque Koffka","3.2.5","0","None","space","NA","NA","NA","space","None","997","13532","NA","NA","NA","172077","997","2","legacy","1024","2","48000","-16","AB_m21","172","even","CW_L","JUMPING","1841","515950","512783","514441","173931","447694","NA","NA","NA","497154","513280","NA","512283","NA","512277","514438","1853","516300","NA","NA","513441","1841","1841","513841","512277","1841","513441","516300","morph21_Oliver/Morris","38","81550","90","yes","1280","30"
