"ITI","acc","accuracy","average_response_time","avg_rt","background","bidi","canvas_backend","clock_backend","color_backend","compensation","cond_trig","condtrigtime","coordinates","coroutines_cycles","coroutines_duration","coroutines_mean_cycle_duration","correct","correct_instructions_1","correct_new_keyboard_response_1","count_BA_m21","count_ITI","count_blank_screen","count_blink_screen","count_block1","count_break1","count_break2","count_break3_1","count_canvas","count_correct_trigger","count_def_chain","count_end_screen","count_fixation_1","count_getting_started","count_inc_counter","count_incorrect_trigger","count_instructions_1","count_logger","count_logscript","count_new_coroutines","count_new_inline_script","count_new_keyboard_response_1","count_reset_counter_prep","count_reset_counter_run","count_responsescreen","count_sequence","count_start_trigger","count_target_present","count_word_trigger","counter","cresp","datetime","description","disable_garbage_collection","experiment_file","experiment_path","font_bold","font_family","font_italic","font_size","font_underline","foreground","form_clicks","fullscreen","height","keyboard_backend","live_row","live_row_block1","logfile","mouse_backend","opensesame_codename","opensesame_version","repeat_cycle","response","response_break1","response_break2","response_break3_1","response_end_screen","response_instructions_1","response_new_keyboard_response_1","response_time","response_time_break1","response_time_break2","response_time_break3_1","response_time_end_screen","response_time_instructions_1","response_time_new_keyboard_response_1","round_decimals","sampler_backend","sound_buf_size","sound_channels","sound_freq","sound_sample_size","start","subject_nr","subject_parity","targ_type","target","time_BA_m21","time_ITI","time_blank_screen","time_blink_screen","time_block1","time_break1","time_break2","time_break3_1","time_canvas","time_correct_trigger","time_def_chain","time_end_screen","time_fixation_1","time_getting_started","time_inc_counter","time_incorrect_trigger","time_instructions_1","time_logger","time_logscript","time_new_inline_script","time_new_keyboard_response_1","time_reset_counter_prep","time_reset_counter_run","time_responsescreen","time_sequence","time_start_trigger","time_target_present","time_word_trigger","title","total_correct","total_response_time","total_responses","uniform_coordinates","width","word_trig"
"250","0","0","994","994","black","no","xpyriment","legacy","legacy","0","208","NA","uniform","62198","1000","0.0160776873854","0","undefined","0","0","0","0","0","0","0","0","0","NA","0","0","0","0","NA","0","0","0","0","NA","0","NA","0","0","0","0","0","0","0","0","1","z","11/05/17 12:41:00","The main experiment item","yes","FIN__BA__M21__7%3A10%3A17.osexp","C:\Users\ERP Testing Room\Desktop\Joanna\morph21","no","mono","no","18","no","white","no","yes","1080","legacy","0","0","C:/Users/ERP Testing Room/Desktop/Joanna/morph21/subject-115.csv","xpyriment","Jazzy James","3.1.4","0","None","NA","NA","NA","NA","space","None","994","NA","NA","NA","NA","213980","994","2","legacy","1024","2","48000","-16","BA_m21","115","odd","FILL_NW","PHEEKS","1356","218224","216641","NA","215346","NA","NA","NA","NA","NA","217138","NA","216136","NA","216074","218218","1365","218475","NA","NA","217224","1356","1357","217616","216074","1356","217224","218475","morph21_Oliver/Morris","0","994","1","yes","1280","35"
"250","0","0","993","993","black","no","xpyriment","legacy","legacy","0","204","NA","uniform","57164","1000","0.0174935273949","0","undefined","0","0","1","1","1","0","1","1","1","NA","1","1","0","1","NA","1","1","0","1","NA","1","NA","1","0","0","1","1","0","1","1","2","z","11/05/17 12:41:00","The main experiment item","yes","FIN__BA__M21__7%3A10%3A17.osexp","C:\Users\ERP Testing Room\Desktop\Joanna\morph21","no","mono","no","18","no","white","no","yes","1080","legacy","1","1","C:/Users/ERP Testing Room/Desktop/Joanna/morph21/subject-115.csv","xpyriment","Jazzy James","3.1.4","0","None","NA","NA","NA","NA","space","None","992","NA","NA","NA","NA","213980","992","2","legacy","1024","2","48000","-16","BA_m21","115","odd","NW_L_COMP","MUDLA","1356","221291","219675","NA","215346","NA","NA","NA","NA","NA","220172","NA","219175","NA","219169","221283","1365","221541","NA","NA","220291","1356","1357","220683","219169","1356","220291","221541","morph21_Oliver/Morris","0","1986","2","yes","1280","12"
"200","33.3333333333","33.3333333333","857.666666667","857.666666667","black","no","xpyriment","legacy","legacy","0","208","NA","uniform","67613","1000","0.0147900551669","1","undefined","1","0","2","2","2","0","2","2","2","NA","2","2","0","2","NA","2","2","0","2","NA","2","NA","2","0","0","2","2","0","2","2","3","z","11/05/17 12:41:00","The main experiment item","yes","FIN__BA__M21__7%3A10%3A17.osexp","C:\Users\ERP Testing Room\Desktop\Joanna\morph21","no","mono","no","18","no","white","no","yes","1080","legacy","2","2","C:/Users/ERP Testing Room/Desktop/Joanna/morph21/subject-115.csv","xpyriment","Jazzy James","3.1.4","0","z","NA","NA","NA","NA","space","z","587","NA","NA","NA","NA","213980","587","2","legacy","1024","2","48000","-16","BA_m21","115","odd","FILL_NW","BLAYS","1356","225892","222800","224384","215346","NA","NA","NA","NA","224381","223297","NA","222300","NA","222294","224381","1365","226093","NA","NA","223391","1356","1357","223783","222294","1356","223391","226093","morph21_Oliver/Morris","1","2573","3","yes","1280","8"
"250","25","25","769.5","769.5","black","no","xpyriment","legacy","legacy","0","202","NA","uniform","78876","1000","0.0126781276941","0","undefined","0","0","3","3","3","0","3","3","3","NA","3","3","0","3","NA","3","3","0","3","NA","3","NA","3","0","0","3","3","0","3","3","4","/","11/05/17 12:41:00","The main experiment item","yes","FIN__BA__M21__7%3A10%3A17.osexp","C:\Users\ERP Testing Room\Desktop\Joanna\morph21","no","mono","no","18","no","white","no","yes","1080","legacy","3","3","C:/Users/ERP Testing Room/Desktop/Joanna/morph21/subject-115.csv","xpyriment","Jazzy James","3.1.4","0","z","NA","NA","NA","NA","space","z","505","NA","NA","NA","NA","213980","505","2","legacy","1024","2","48000","-16","BA_m21","115","odd","CW_L","EXCITEMENT","1356","228993","227376","224384","215346","NA","NA","NA","NA","224381","227873","NA","226876","NA","226867","228985","1365","229243","NA","NA","227993","1356","1357","228384","226867","1356","227992","229243","morph21_Oliver/Morris","1","3078","4","yes","1280","38"
"350","40","40","769.2","769.2","black","no","xpyriment","legacy","legacy","0","201","NA","uniform","65227","1000","0.015331074555","1","undefined","1","0","4","4","4","0","4","4","4","NA","4","4","0","4","NA","4","4","0","4","NA","4","NA","4","0","0","4","4","0","4","4","5","/","11/05/17 12:41:00","The main experiment item","yes","FIN__BA__M21__7%3A10%3A17.osexp","C:\Users\ERP Testing Room\Desktop\Joanna\morph21","no","mono","no","18","no","white","no","yes","1080","legacy","4","4","C:/Users/ERP Testing Room/Desktop/Joanna/morph21/subject-115.csv","xpyriment","Jazzy James","3.1.4","0","/","NA","NA","NA","NA","space","/","768","NA","NA","NA","NA","213980","768","2","legacy","1024","2","48000","-16","BA_m21","115","odd","CW_S","BEARDED","1356","232009","230426","224384","215346","NA","NA","NA","NA","232003","230923","NA","229926","NA","229919","232003","1365","232359","NA","NA","231009","1356","1357","231401","229919","1356","231009","232359","morph21_Oliver/Morris","2","3846","5","yes","1280","8"
"400","50","50","734.166666667","734.166666667","black","no","xpyriment","legacy","legacy","0","202","NA","uniform","65474","1000","0.015273238232","1","undefined","1","0","5","5","5","0","5","5","5","NA","5","5","0","5","NA","5","5","0","5","NA","5","NA","5","0","0","5","5","0","5","5","6","/","11/05/17 12:41:00","The main experiment item","yes","FIN__BA__M21__7%3A10%3A17.osexp","C:\Users\ERP Testing Room\Desktop\Joanna\morph21","no","mono","no","18","no","white","no","yes","1080","legacy","5","5","C:/Users/ERP Testing Room/Desktop/Joanna/morph21/subject-115.csv","xpyriment","Jazzy James","3.1.4","0","/","NA","NA","NA","NA","space","/","559","NA","NA","NA","NA","213980","559","2","legacy","1024","2","48000","-16","BA_m21","115","odd","CW_L","WRONGLY","1356","236726","233618","235218","215346","NA","NA","NA","NA","235212","234115","NA","233118","NA","233108","235212","1365","237126","NA","NA","234218","1356","1357","234609","233108","1356","234218","237126","morph21_Oliver/Morris","3","4405","6","yes","1280","37"
"400","57.1428571429","57.1428571429","733.142857143","733.142857143","black","no","xpyriment","legacy","legacy","0","201","NA","uniform","62695","1000","0.015950235266","1","undefined","1","0","6","6","6","0","6","6","6","NA","6","6","0","6","NA","6","6","0","6","NA","6","NA","6","0","0","6","6","0","6","6","7","/","11/05/17 12:41:00","The main experiment item","yes","FIN__BA__M21__7%3A10%3A17.osexp","C:\Users\ERP Testing Room\Desktop\Joanna\morph21","no","mono","no","18","no","white","no","yes","1080","legacy","6","6","C:/Users/ERP Testing Room/Desktop/Joanna/morph21/subject-115.csv","xpyriment","Jazzy James","3.1.4","0","/","NA","NA","NA","NA","space","/","727","NA","NA","NA","NA","213980","727","2","legacy","1024","2","48000","-16","BA_m21","115","odd","CW_S","AVOIDABLE","1356","240010","238418","235218","215346","NA","NA","NA","NA","240005","238915","NA","237918","NA","237910","240005","1365","240410","NA","NA","239010","1356","1357","239410","237910","1356","239010","240410","morph21_Oliver/Morris","4","5132","7","yes","1280","2"
"300","62.5","62.5","734.5","734.5","black","no","xpyriment","legacy","legacy","0","208","NA","uniform","71142","1000","0.0140563942537","1","undefined","1","0","7","7","7","0","7","7","7","NA","7","7","0","7","NA","7","7","0","7","NA","7","NA","7","0","0","7","7","0","7","7","8","z","11/05/17 12:41:00","The main experiment item","yes","FIN__BA__M21__7%3A10%3A17.osexp","C:\Users\ERP Testing Room\Desktop\Joanna\morph21","no","mono","no","18","no","white","no","yes","1080","legacy","7","7","C:/Users/ERP Testing Room/Desktop/Joanna/morph21/subject-115.csv","xpyriment","Jazzy James","3.1.4","0","z","NA","NA","NA","NA","space","z","744","NA","NA","NA","NA","213980","744","2","legacy","1024","2","48000","-16","BA_m21","115","odd","FILL_NW","BAFED","1356","243394","241786","235218","215346","NA","NA","NA","NA","243384","242283","NA","241286","NA","241281","243384","1365","243694","NA","NA","242394","1356","1357","242786","241281","1356","242394","243694","morph21_Oliver/Morris","5","5876","8","yes","1280","1"
"400","66.6666666667","66.6666666667","711.777777778","711.777777778","black","no","xpyriment","legacy","legacy","0","202","NA","uniform","73586","1000","0.0135895414889","1","undefined","1","0","8","8","8","0","8","8","8","NA","8","8","0","8","NA","8","8","0","8","NA","8","NA","8","0","0","8","8","0","8","8","9","/","11/05/17 12:41:00","The main experiment item","yes","FIN__BA__M21__7%3A10%3A17.osexp","C:\Users\ERP Testing Room\Desktop\Joanna\morph21","no","mono","no","18","no","white","no","yes","1080","legacy","8","8","C:/Users/ERP Testing Room/Desktop/Joanna/morph21/subject-115.csv","xpyriment","Jazzy James","3.1.4","0","/","NA","NA","NA","NA","space","/","530","NA","NA","NA","NA","213980","530","2","legacy","1024","2","48000","-16","BA_m21","115","odd","CW_L","SPELLER","1356","248045","244953","246536","215346","NA","NA","NA","NA","246528","245450","NA","244453","NA","244442","246528","1365","248445","NA","NA","245536","1356","1357","245928","244442","1356","245536","248445","morph21_Oliver/Morris","6","6406","9","yes","1280","3"
"200","70","70","728.8","728.8","black","no","xpyriment","legacy","legacy","0","202","NA","uniform","59079","1000","0.0169264882615","1","undefined","1","0","9","9","9","0","9","9","9","NA","9","9","0","9","NA","9","9","0","9","NA","9","NA","9","0","0","9","9","0","9","9","10","/","11/05/17 12:41:00","The main experiment item","yes","FIN__BA__M21__7%3A10%3A17.osexp","C:\Users\ERP Testing Room\Desktop\Joanna\morph21","no","mono","no","18","no","white","no","yes","1080","legacy","9","9","C:/Users/ERP Testing Room/Desktop/Joanna/morph21/subject-115.csv","xpyriment","Jazzy James","3.1.4","0","/","NA","NA","NA","NA","space","/","882","NA","NA","NA","NA","213980","882","2","legacy","1024","2","48000","-16","BA_m21","115","odd","CW_L","BOOTLESS","1356","251295","249711","246536","215346","NA","NA","NA","NA","251284","250208","NA","249211","NA","249206","251284","1365","251495","NA","NA","250295","1356","1357","250686","249206","1356","250295","251495","morph21_Oliver/Morris","7","7288","10","yes","1280","32"
"200","72.7272727273","72.7272727273","727.272727273","727.272727273","black","no","xpyriment","legacy","legacy","0","207","NA","uniform","65562","1000","0.0152527378664","1","undefined","1","0","10","10","10","0","10","10","10","NA","10","10","0","10","NA","10","10","0","10","NA","10","NA","10","0","0","10","10","0","10","10","11","/","11/05/17 12:41:00","The main experiment item","yes","FIN__BA__M21__7%3A10%3A17.osexp","C:\Users\ERP Testing Room\Desktop\Joanna\morph21","no","mono","no","18","no","white","no","yes","1080","legacy","10","10","C:/Users/ERP Testing Room/Desktop/Joanna/morph21/subject-115.csv","xpyriment","Jazzy James","3.1.4","0","/","NA","NA","NA","NA","space","/","712","NA","NA","NA","NA","213980","712","2","legacy","1024","2","48000","-16","BA_m21","115","odd","FILL_W","TAX","1356","254361","252770","246536","215346","NA","NA","NA","NA","254351","253267","NA","252270","NA","252266","254351","1365","254561","NA","NA","253361","1356","1357","253753","252266","1356","253361","254561","morph21_Oliver/Morris","8","8000","11","yes","1280","45"
"300","75","75","725.5","725.5","black","no","xpyriment","legacy","legacy","0","204","NA","uniform","66300","1000","0.0150829562594","1","undefined","1","0","11","11","11","0","11","11","11","NA","11","11","0","11","NA","11","11","0","11","NA","11","NA","11","0","0","11","11","0","11","11","12","z","11/05/17 12:41:00","The main experiment item","yes","FIN__BA__M21__7%3A10%3A17.osexp","C:\Users\ERP Testing Room\Desktop\Joanna\morph21","no","mono","no","18","no","white","no","yes","1080","legacy","11","11","C:/Users/ERP Testing Room/Desktop/Joanna/morph21/subject-115.csv","xpyriment","Jazzy James","3.1.4","0","z","NA","NA","NA","NA","space","z","706","NA","NA","NA","NA","213980","706","2","legacy","1024","2","48000","-16","BA_m21","115","odd","NW_L_COMP","IME","1356","259004","255886","257495","215346","NA","NA","NA","NA","257490","256384","NA","255387","NA","255380","257490","1365","259305","NA","NA","256495","1356","1357","256895","255380","1356","256495","259305","morph21_Oliver/Morris","9","8706","12","yes","1280","20"
"200","76.9230769231","76.9230769231","714.538461538","714.538461538","black","no","xpyriment","legacy","legacy","0","207","NA","uniform","68506","1000","0.0145972615537","1","undefined","1","0","12","12","12","0","12","12","12","NA","12","12","0","12","NA","12","12","0","12","NA","12","NA","12","0","0","12","12","0","12","12","13","/","11/05/17 12:41:00","The main experiment item","yes","FIN__BA__M21__7%3A10%3A17.osexp","C:\Users\ERP Testing Room\Desktop\Joanna\morph21","no","mono","no","18","no","white","no","yes","1080","legacy","12","12","C:/Users/ERP Testing Room/Desktop/Joanna/morph21/subject-115.csv","xpyriment","Jazzy James","3.1.4","0","/","NA","NA","NA","NA","space","/","583","NA","NA","NA","NA","213980","583","2","legacy","1024","2","48000","-16","BA_m21","115","odd","FILL_W","BLEAK","1356","262154","260529","257495","215346","NA","NA","NA","NA","262151","261027","NA","260029","NA","260019","262151","1365","262355","NA","NA","261163","1356","1357","261554","260019","1356","261163","262355","morph21_Oliver/Morris","10","9289","13","yes","1280","5"
"250","78.5714285714","78.5714285714","720.571428571","720.571428571","black","no","xpyriment","legacy","legacy","0","208","NA","uniform","67162","1000","0.0148893719663","1","undefined","1","0","13","13","13","0","13","13","13","NA","13","13","0","13","NA","13","13","0","13","NA","13","NA","13","0","0","13","13","0","13","13","14","z","11/05/17 12:41:00","The main experiment item","yes","FIN__BA__M21__7%3A10%3A17.osexp","C:\Users\ERP Testing Room\Desktop\Joanna\morph21","no","mono","no","18","no","white","no","yes","1080","legacy","13","13","C:/Users/ERP Testing Room/Desktop/Joanna/morph21/subject-115.csv","xpyriment","Jazzy James","3.1.4","0","z","NA","NA","NA","NA","space","z","799","NA","NA","NA","NA","213980","799","2","legacy","1024","2","48000","-16","BA_m21","115","odd","FILL_NW","POLT","1356","265171","263588","257495","215346","NA","NA","NA","NA","265163","264085","NA","263088","NA","263078","265163","1365","265421","NA","NA","264171","1356","1357","264563","263078","1356","264171","265421","morph21_Oliver/Morris","11","10088","14","yes","1280","38"
"350","73.3333333333","73.3333333333","738.8","738.8","black","no","xpyriment","legacy","legacy","0","205","NA","uniform","54986","1000","0.0181864474594","0","undefined","0","0","14","14","14","0","14","14","14","NA","14","14","0","14","NA","14","14","0","14","NA","14","NA","14","0","0","14","14","0","14","14","15","z","11/05/17 12:41:00","The main experiment item","yes","FIN__BA__M21__7%3A10%3A17.osexp","C:\Users\ERP Testing Room\Desktop\Joanna\morph21","no","mono","no","18","no","white","no","yes","1080","legacy","14","14","C:/Users/ERP Testing Room/Desktop/Joanna/morph21/subject-115.csv","xpyriment","Jazzy James","3.1.4","0","None","NA","NA","NA","NA","space","None","994","NA","NA","NA","NA","213980","994","2","legacy","1024","2","48000","-16","BA_m21","115","odd","NW_S_SIMP","BASKORY","1356","269755","266663","268246","215346","NA","NA","NA","NA","265163","267160","NA","266163","NA","266156","268240","1365","270105","NA","NA","267246","1356","1357","267638","266156","1356","267246","270105","morph21_Oliver/Morris","11","11082","15","yes","1280","10"
"400","75","75","731.5","731.5","black","no","xpyriment","legacy","legacy","0","201","NA","uniform","73628","1000","0.0135817895366","1","undefined","1","0","15","15","15","0","15","15","15","NA","15","15","0","15","NA","15","15","0","15","NA","15","NA","15","0","0","15","15","0","15","15","16","/","11/05/17 12:41:00","The main experiment item","yes","FIN__BA__M21__7%3A10%3A17.osexp","C:\Users\ERP Testing Room\Desktop\Joanna\morph21","no","mono","no","18","no","white","no","yes","1080","legacy","15","15","C:/Users/ERP Testing Room/Desktop/Joanna/morph21/subject-115.csv","xpyriment","Jazzy James","3.1.4","0","/","NA","NA","NA","NA","space","/","622","NA","NA","NA","NA","213980","622","2","legacy","1024","2","48000","-16","BA_m21","115","odd","CW_S","ALLOWANCE","1356","272963","271380","268246","215346","NA","NA","NA","NA","272955","271877","NA","270880","NA","270877","272955","1365","273363","NA","NA","271963","1356","1357","272355","270876","1356","271963","273363","morph21_Oliver/Morris","12","11704","16","yes","1280","5"
"350","76.4705882353","76.4705882353","730.117647059","730.117647059","black","no","xpyriment","legacy","legacy","0","201","NA","uniform","64455","1000","0.0155147001784","1","undefined","1","0","16","16","16","0","16","16","16","NA","16","16","0","16","NA","16","16","0","16","NA","16","NA","16","0","0","16","16","0","16","16","17","/","11/05/17 12:41:00","The main experiment item","yes","FIN__BA__M21__7%3A10%3A17.osexp","C:\Users\ERP Testing Room\Desktop\Joanna\morph21","no","mono","no","18","no","white","no","yes","1080","legacy","16","16","C:/Users/ERP Testing Room/Desktop/Joanna/morph21/subject-115.csv","xpyriment","Jazzy James","3.1.4","0","/","NA","NA","NA","NA","space","/","708","NA","NA","NA","NA","213980","708","2","legacy","1024","2","48000","-16","BA_m21","115","odd","CW_S","STRANGENESS","1356","276205","274622","268246","215346","NA","NA","NA","NA","276198","275119","NA","274122","NA","274112","276198","1365","276555","NA","NA","275205","1356","1357","275597","274112","1356","275205","276555","morph21_Oliver/Morris","13","12412","17","yes","1280","46"
"300","77.7777777778","77.7777777778","729.611111111","729.611111111","black","no","xpyriment","legacy","legacy","0","204","NA","uniform","67027","1000","0.0149193608546","1","undefined","1","0","17","17","17","0","17","17","17","NA","17","17","0","17","NA","17","17","0","17","NA","17","NA","17","0","0","17","17","0","17","17","18","z","11/05/17 12:41:00","The main experiment item","yes","FIN__BA__M21__7%3A10%3A17.osexp","C:\Users\ERP Testing Room\Desktop\Joanna\morph21","no","mono","no","18","no","white","no","yes","1080","legacy","17","17","C:/Users/ERP Testing Room/Desktop/Joanna/morph21/subject-115.csv","xpyriment","Jazzy James","3.1.4","0","z","NA","NA","NA","NA","space","z","721","NA","NA","NA","NA","213980","721","2","legacy","1024","2","48000","-16","BA_m21","115","odd","NW_L_COMP","ADDMANT","1356","280973","277881","279465","215346","NA","NA","NA","NA","279461","278378","NA","277381","NA","277373","279461","1365","281273","NA","NA","278473","1356","1357","278865","277373","1356","278473","281273","morph21_Oliver/Morris","14","13133","18","yes","1280","13"
"400","78.9473684211","78.9473684211","737.157894737","737.157894737","black","no","xpyriment","legacy","legacy","0","207","NA","uniform","62212","1000","0.0160740693114","1","undefined","1","0","18","18","18","0","18","18","18","NA","18","18","0","18","NA","18","18","0","18","NA","18","NA","18","0","0","18","18","0","18","18","19","/","11/05/17 12:41:00","The main experiment item","yes","FIN__BA__M21__7%3A10%3A17.osexp","C:\Users\ERP Testing Room\Desktop\Joanna\morph21","no","mono","no","18","no","white","no","yes","1080","legacy","18","18","C:/Users/ERP Testing Room/Desktop/Joanna/morph21/subject-115.csv","xpyriment","Jazzy James","3.1.4","0","/","NA","NA","NA","NA","space","/","873","NA","NA","NA","NA","213980","873","2","legacy","1024","2","48000","-16","BA_m21","115","odd","FILL_W","LITHE","1356","284073","282448","279465","215346","NA","NA","NA","NA","284063","282945","NA","281948","NA","281937","284063","1365","284473","NA","NA","283073","1356","1357","283465","281937","1356","283073","284473","morph21_Oliver/Morris","15","14006","19","yes","1280","23"
"200","75","75","735.85","735.85","black","no","xpyriment","legacy","legacy","0","205","NA","uniform","68639","1000","0.0145689768208","0","undefined","0","0","19","19","19","0","19","19","19","NA","19","19","0","19","NA","19","19","0","19","NA","19","NA","19","0","0","19","19","0","19","19","20","z","11/05/17 12:41:00","The main experiment item","yes","FIN__BA__M21__7%3A10%3A17.osexp","C:\Users\ERP Testing Room\Desktop\Joanna\morph21","no","mono","no","18","no","white","no","yes","1080","legacy","19","19","C:/Users/ERP Testing Room/Desktop/Joanna/morph21/subject-115.csv","xpyriment","Jazzy James","3.1.4","0","/","NA","NA","NA","NA","space","/","711","NA","NA","NA","NA","213980","711","2","legacy","1024","2","48000","-16","BA_m21","115","odd","NW_S_SIMP","NULLISH","1356","287282","285673","279465","215346","NA","NA","NA","NA","284063","286170","NA","285173","NA","285166","287278","1365","287482","NA","NA","286290","1356","1357","286682","285166","1356","286290","287482","morph21_Oliver/Morris","15","14717","20","yes","1280","23"
"350","76.1904761905","76.1904761905","733.095238095","733.095238095","black","no","xpyriment","legacy","legacy","0","201","NA","uniform","74411","1000","0.0134388732849","1","undefined","1","0","20","20","20","0","20","20","20","NA","20","20","0","20","NA","20","20","0","20","NA","20","NA","20","0","0","20","20","0","20","20","21","/","11/05/17 12:41:00","The main experiment item","yes","FIN__BA__M21__7%3A10%3A17.osexp","C:\Users\ERP Testing Room\Desktop\Joanna\morph21","no","mono","no","18","no","white","no","yes","1080","legacy","20","20","C:/Users/ERP Testing Room/Desktop/Joanna/morph21/subject-115.csv","xpyriment","Jazzy James","3.1.4","0","/","NA","NA","NA","NA","space","/","678","NA","NA","NA","NA","213980","678","2","legacy","1024","2","48000","-16","BA_m21","115","odd","CW_S","NEATLY","1356","291823","288715","290315","215346","NA","NA","NA","NA","290311","289212","NA","288215","NA","288207","290311","1365","292174","NA","NA","289323","1356","1357","289715","288207","1356","289323","292174","morph21_Oliver/Morris","16","15395","21","yes","1280","33"
"400","77.2727272727","77.2727272727","737.318181818","737.318181818","black","no","xpyriment","legacy","legacy","0","208","NA","uniform","57542","1000","0.0173786104063","1","undefined","1","0","21","21","21","0","21","21","21","NA","21","21","0","21","NA","21","21","0","21","NA","21","NA","21","0","0","21","21","0","21","21","22","z","11/05/17 12:41:00","The main experiment item","yes","FIN__BA__M21__7%3A10%3A17.osexp","C:\Users\ERP Testing Room\Desktop\Joanna\morph21","no","mono","no","18","no","white","no","yes","1080","legacy","21","21","C:/Users/ERP Testing Room/Desktop/Joanna/morph21/subject-115.csv","xpyriment","Jazzy James","3.1.4","0","z","NA","NA","NA","NA","space","z","826","NA","NA","NA","NA","213980","826","2","legacy","1024","2","48000","-16","BA_m21","115","odd","FILL_NW","BUTE","1356","294991","293399","290315","215346","NA","NA","NA","NA","294988","293896","NA","292899","NA","292891","294988","1365","295391","NA","NA","294000","1356","1357","294391","292891","1356","294000","295391","morph21_Oliver/Morris","17","16221","22","yes","1280","5"
"300","78.2608695652","78.2608695652","742.47826087","742.47826087","black","no","xpyriment","legacy","legacy","0","201","NA","uniform","58017","1000","0.0172363272834","1","undefined","1","0","22","22","22","0","22","22","22","NA","22","22","0","22","NA","22","22","0","22","NA","22","NA","22","0","0","22","22","0","22","22","23","/","11/05/17 12:41:00","The main experiment item","yes","FIN__BA__M21__7%3A10%3A17.osexp","C:\Users\ERP Testing Room\Desktop\Joanna\morph21","no","mono","no","18","no","white","no","yes","1080","legacy","22","22","C:/Users/ERP Testing Room/Desktop/Joanna/morph21/subject-115.csv","xpyriment","Jazzy James","3.1.4","0","/","NA","NA","NA","NA","space","/","856","NA","NA","NA","NA","213980","856","2","legacy","1024","2","48000","-16","BA_m21","115","odd","CW_S","DETECTABLE","1356","298250","296650","290315","215346","NA","NA","NA","NA","298241","297147","NA","296150","NA","296142","298241","1365","298550","NA","NA","297250","1356","1357","297641","296142","1356","297250","298550","morph21_Oliver/Morris","18","17077","23","yes","1280","1"
"250","79.1666666667","79.1666666667","738.916666667","738.916666667","black","no","xpyriment","legacy","legacy","0","207","NA","uniform","66592","1000","0.0150168188371","1","undefined","1","0","23","23","23","0","23","23","23","NA","23","23","0","23","NA","23","23","0","23","NA","23","NA","23","0","0","23","23","0","23","23","24","/","11/05/17 12:41:00","The main experiment item","yes","FIN__BA__M21__7%3A10%3A17.osexp","C:\Users\ERP Testing Room\Desktop\Joanna\morph21","no","mono","no","18","no","white","no","yes","1080","legacy","23","23","C:/Users/ERP Testing Room/Desktop/Joanna/morph21/subject-115.csv","xpyriment","Jazzy James","3.1.4","0","/","NA","NA","NA","NA","space","/","657","NA","NA","NA","NA","213980","657","2","legacy","1024","2","48000","-16","BA_m21","115","odd","FILL_W","TREAT","1356","302933","299825","301425","215346","NA","NA","NA","NA","301418","300322","NA","299325","NA","299320","301418","1365","303183","NA","NA","300425","1356","1357","300817","299320","1356","300425","303183","morph21_Oliver/Morris","19","17734","24","yes","1280","48"
"250","80","80","736.32","736.32","black","no","xpyriment","legacy","legacy","0","202","NA","uniform","67584","1000","0.0147964015152","1","undefined","1","0","24","24","24","0","24","24","24","NA","24","24","0","24","NA","24","24","0","24","NA","24","NA","24","0","0","24","24","0","24","24","25","/","11/05/17 12:41:00","The main experiment item","yes","FIN__BA__M21__7%3A10%3A17.osexp","C:\Users\ERP Testing Room\Desktop\Joanna\morph21","no","mono","no","18","no","white","no","yes","1080","legacy","24","24","C:/Users/ERP Testing Room/Desktop/Joanna/morph21/subject-115.csv","xpyriment","Jazzy James","3.1.4","0","/","NA","NA","NA","NA","space","/","674","NA","NA","NA","NA","213980","674","2","legacy","1024","2","48000","-16","BA_m21","115","odd","CW_L","FLEXIBLE","1356","305967","304358","301425","215346","NA","NA","NA","NA","305962","304856","NA","303858","NA","303853","305962","1365","306217","NA","NA","304967","1356","1357","305367","303853","1356","304967","306217","morph21_Oliver/Morris","20","18408","25","yes","1280","22"
"200","80.7692307692","80.7692307692","735.423076923","735.423076923","black","no","xpyriment","legacy","legacy","0","208","NA","uniform","70898","1000","0.0141047702333","1","undefined","1","0","25","25","25","0","25","25","25","NA","25","25","0","25","NA","25","25","0","25","NA","25","NA","25","0","0","25","25","0","25","25","26","z","11/05/17 12:41:00","The main experiment item","yes","FIN__BA__M21__7%3A10%3A17.osexp","C:\Users\ERP Testing Room\Desktop\Joanna\morph21","no","mono","no","18","no","white","no","yes","1080","legacy","25","25","C:/Users/ERP Testing Room/Desktop/Joanna/morph21/subject-115.csv","xpyriment","Jazzy James","3.1.4","0","z","NA","NA","NA","NA","space","z","713","NA","NA","NA","NA","213980","713","2","legacy","1024","2","48000","-16","BA_m21","115","odd","FILL_NW","SMADE","1356","309184","307575","301425","215346","NA","NA","NA","NA","309180","308072","NA","307075","NA","307065","309180","1365","309384","NA","NA","308192","1356","1357","308584","307065","1356","308192","309384","morph21_Oliver/Morris","21","19121","26","yes","1280","42"
"350","81.4814814815","81.4814814815","732.259259259","732.259259259","black","no","xpyriment","legacy","legacy","0","201","NA","uniform","71202","1000","0.0140445493104","1","undefined","1","0","26","26","26","0","26","26","26","NA","26","26","0","26","NA","26","26","0","26","NA","26","NA","26","0","0","26","26","0","26","26","27","/","11/05/17 12:41:00","The main experiment item","yes","FIN__BA__M21__7%3A10%3A17.osexp","C:\Users\ERP Testing Room\Desktop\Joanna\morph21","no","mono","no","18","no","white","no","yes","1080","legacy","26","26","C:/Users/ERP Testing Room/Desktop/Joanna/morph21/subject-115.csv","xpyriment","Jazzy James","3.1.4","0","/","NA","NA","NA","NA","space","/","650","NA","NA","NA","NA","213980","650","2","legacy","1024","2","48000","-16","BA_m21","115","odd","CW_S","AMAZEMENT","1356","313710","310625","312201","215346","NA","NA","NA","NA","312196","311122","NA","310125","NA","310122","312196","1365","314060","NA","NA","311200","1356","1357","311601","310122","1356","311200","314060","morph21_Oliver/Morris","22","19771","27","yes","1280","39"
"300","82.1428571429","82.1428571429","729.142857143","729.142857143","black","no","xpyriment","legacy","legacy","0","207","NA","uniform","72524","1000","0.0137885389664","1","undefined","1","0","27","27","27","0","27","27","27","NA","27","27","0","27","NA","27","27","0","27","NA","27","NA","27","0","0","27","27","0","27","27","28","/","11/05/17 12:41:00","The main experiment item","yes","FIN__BA__M21__7%3A10%3A17.osexp","C:\Users\ERP Testing Room\Desktop\Joanna\morph21","no","mono","no","18","no","white","no","yes","1080","legacy","27","27","C:/Users/ERP Testing Room/Desktop/Joanna/morph21/subject-115.csv","xpyriment","Jazzy James","3.1.4","0","/","NA","NA","NA","NA","space","/","645","NA","NA","NA","NA","213980","645","2","legacy","1024","2","48000","-16","BA_m21","115","odd","FILL_W","BOX","1356","316877","315293","312201","215346","NA","NA","NA","NA","316867","315790","NA","314793","NA","314784","316867","1365","317177","NA","NA","315877","1356","1357","316268","314784","1356","315877","317177","morph21_Oliver/Morris","23","20416","28","yes","1280","42"
"400","82.7586206897","82.7586206897","733.655172414","733.655172414","black","no","xpyriment","legacy","legacy","0","206","NA","uniform","66268","1000","0.015090239633","1","undefined","1","0","28","28","28","0","28","28","28","NA","28","28","0","28","NA","28","28","0","28","NA","28","NA","28","0","0","28","28","0","28","28","29","z","11/05/17 12:41:00","The main experiment item","yes","FIN__BA__M21__7%3A10%3A17.osexp","C:\Users\ERP Testing Room\Desktop\Joanna\morph21","no","mono","no","18","no","white","no","yes","1080","legacy","28","28","C:/Users/ERP Testing Room/Desktop/Joanna/morph21/subject-115.csv","xpyriment","Jazzy James","3.1.4","0","z","NA","NA","NA","NA","space","z","860","NA","NA","NA","NA","213980","860","2","legacy","1024","2","48000","-16","BA_m21","115","odd","NW_L_SIMP","CLASSOUS","1356","320085","318477","312201","215346","NA","NA","NA","NA","320079","318974","NA","317977","NA","317969","320079","1365","320485","NA","NA","319085","1356","1357","319477","317969","1356","319085","320485","morph21_Oliver/Morris","24","21276","29","yes","1280","18"
"200","83.3333333333","83.3333333333","738.3","738.3","black","no","xpyriment","legacy","legacy","0","203","NA","uniform","61283","1000","0.0163177390141","1","undefined","1","0","29","29","29","0","29","29","29","NA","29","29","0","29","NA","29","29","0","29","NA","29","NA","29","0","0","29","29","0","29","29","30","z","11/05/17 12:41:00","The main experiment item","yes","FIN__BA__M21__7%3A10%3A17.osexp","C:\Users\ERP Testing Room\Desktop\Joanna\morph21","no","mono","no","18","no","white","no","yes","1080","legacy","29","29","C:/Users/ERP Testing Room/Desktop/Joanna/morph21/subject-115.csv","xpyriment","Jazzy James","3.1.4","0","z","NA","NA","NA","NA","space","z","873","NA","NA","NA","NA","213980","873","2","legacy","1024","2","48000","-16","BA_m21","115","odd","NW_S_COMP","MELTANGE","1356","324860","321752","323352","215346","NA","NA","NA","NA","323346","322249","NA","321252","NA","321241","323346","1365","325060","NA","NA","322352","1356","1357","322744","321241","1356","322352","325060","morph21_Oliver/Morris","25","22149","30","yes","1280","1"
"350","83.8709677419","83.8709677419","735.709677419","735.709677419","black","no","xpyriment","legacy","legacy","0","207","NA","uniform","71085","1000","0.0140676654709","1","undefined","1","0","30","30","30","0","30","30","30","NA","30","30","0","30","NA","30","30","0","30","NA","30","NA","30","0","0","30","30","0","30","30","31","/","11/05/17 12:41:00","The main experiment item","yes","FIN__BA__M21__7%3A10%3A17.osexp","C:\Users\ERP Testing Room\Desktop\Joanna\morph21","no","mono","no","18","no","white","no","yes","1080","legacy","30","30","C:/Users/ERP Testing Room/Desktop/Joanna/morph21/subject-115.csv","xpyriment","Jazzy James","3.1.4","0","/","NA","NA","NA","NA","space","/","658","NA","NA","NA","NA","213980","658","2","legacy","1024","2","48000","-16","BA_m21","115","odd","FILL_W","WEIRD","1356","327919","326335","323352","215346","NA","NA","NA","NA","327914","326832","NA","325835","NA","325823","327914","1365","328269","NA","NA","326919","1356","1357","327319","325823","1356","326919","328269","morph21_Oliver/Morris","26","22807","31","yes","1280","2"
"250","84.375","84.375","732.625","732.625","black","no","xpyriment","legacy","legacy","0","201","NA","uniform","72777","1000","0.0137406048614","1","undefined","1","0","31","31","31","0","31","31","31","NA","31","31","0","31","NA","31","31","0","31","NA","31","NA","31","0","0","31","31","0","31","31","32","/","11/05/17 12:41:00","The main experiment item","yes","FIN__BA__M21__7%3A10%3A17.osexp","C:\Users\ERP Testing Room\Desktop\Joanna\morph21","no","mono","no","18","no","white","no","yes","1080","legacy","31","31","C:/Users/ERP Testing Room/Desktop/Joanna/morph21/subject-115.csv","xpyriment","Jazzy James","3.1.4","0","/","NA","NA","NA","NA","space","/","637","NA","NA","NA","NA","213980","637","2","legacy","1024","2","48000","-16","BA_m21","115","odd","CW_S","COSTLY","1356","331037","329453","323352","215346","NA","NA","NA","NA","331027","329950","NA","328953","NA","328949","331027","1365","331287","NA","NA","330037","1356","1357","330428","328949","1356","330036","331287","morph21_Oliver/Morris","27","23444","32","yes","1280","36"
"300","84.8484848485","84.8484848485","732.515151515","732.515151515","black","no","xpyriment","legacy","legacy","0","206","NA","uniform","63158","1000","0.0158333069445","1","undefined","1","0","32","32","32","0","32","32","32","NA","32","32","0","32","NA","32","32","0","32","NA","32","NA","32","0","0","32","32","0","32","32","33","z","11/05/17 12:41:00","The main experiment item","yes","FIN__BA__M21__7%3A10%3A17.osexp","C:\Users\ERP Testing Room\Desktop\Joanna\morph21","no","mono","no","18","no","white","no","yes","1080","legacy","32","32","C:/Users/ERP Testing Room/Desktop/Joanna/morph21/subject-115.csv","xpyriment","Jazzy James","3.1.4","0","z","NA","NA","NA","NA","space","z","729","NA","NA","NA","NA","213980","729","2","legacy","1024","2","48000","-16","BA_m21","115","odd","NW_L_SIMP","ELBOWISM","1356","335645","332512","334137","215346","NA","NA","NA","NA","334130","333009","NA","332012","NA","332006","334130","1365","335945","NA","NA","333137","1356","1357","333528","332006","1356","333137","335945","morph21_Oliver/Morris","28","24173","33","yes","1280","10"
"250","85.2941176471","85.2941176471","731.558823529","731.558823529","black","no","xpyriment","legacy","legacy","0","201","NA","uniform","71857","1000","0.0139165286611","1","undefined","1","0","33","33","33","0","33","33","33","NA","33","33","0","33","NA","33","33","0","33","NA","33","NA","33","0","0","33","33","0","33","33","34","/","11/05/17 12:41:00","The main experiment item","yes","FIN__BA__M21__7%3A10%3A17.osexp","C:\Users\ERP Testing Room\Desktop\Joanna\morph21","no","mono","no","18","no","white","no","yes","1080","legacy","33","33","C:/Users/ERP Testing Room/Desktop/Joanna/morph21/subject-115.csv","xpyriment","Jazzy James","3.1.4","0","/","NA","NA","NA","NA","space","/","700","NA","NA","NA","NA","213980","700","2","legacy","1024","2","48000","-16","BA_m21","115","odd","CW_S","GRIMLY","1356","338837","337212","334137","215346","NA","NA","NA","NA","338833","337709","NA","336712","NA","336701","338833","1365","339087","NA","NA","337845","1356","1357","338237","336701","1356","337845","339087","morph21_Oliver/Morris","29","24873","34","yes","1280","31"
"200","85.7142857143","85.7142857143","736.314285714","736.314285714","black","no","xpyriment","legacy","legacy","0","204","NA","uniform","53603","1000","0.0186556722571","1","undefined","1","0","34","34","34","0","34","34","34","NA","34","34","0","34","NA","34","34","0","34","NA","34","NA","34","0","0","34","34","0","34","34","35","z","11/05/17 12:41:00","The main experiment item","yes","FIN__BA__M21__7%3A10%3A17.osexp","C:\Users\ERP Testing Room\Desktop\Joanna\morph21","no","mono","no","18","no","white","no","yes","1080","legacy","34","34","C:/Users/ERP Testing Room/Desktop/Joanna/morph21/subject-115.csv","xpyriment","Jazzy James","3.1.4","0","z","NA","NA","NA","NA","space","z","898","NA","NA","NA","NA","213980","898","2","legacy","1024","2","48000","-16","BA_m21","115","odd","NW_L_COMP","GASFIL","1356","342095","340487","334137","215346","NA","NA","NA","NA","342089","340984","NA","339987","NA","339981","342089","1365","342295","NA","NA","341095","1356","1357","341487","339981","1356","341095","342295","morph21_Oliver/Morris","30","25771","35","yes","1280","6"
"400","86.1111111111","86.1111111111","736.277777778","736.277777778","black","no","xpyriment","legacy","legacy","0","201","NA","uniform","64422","1000","0.0155226475428","1","undefined","1","0","35","35","35","0","35","35","35","NA","35","35","0","35","NA","35","35","0","35","NA","35","NA","35","0","0","35","35","0","35","35","36","/","11/05/17 12:41:00","The main experiment item","yes","FIN__BA__M21__7%3A10%3A17.osexp","C:\Users\ERP Testing Room\Desktop\Joanna\morph21","no","mono","no","18","no","white","no","yes","1080","legacy","35","35","C:/Users/ERP Testing Room/Desktop/Joanna/morph21/subject-115.csv","xpyriment","Jazzy James","3.1.4","0","/","NA","NA","NA","NA","space","/","735","NA","NA","NA","NA","213980","735","2","legacy","1024","2","48000","-16","BA_m21","115","odd","CW_S","DESIGN","1356","346680","343579","345171","215346","NA","NA","NA","NA","345161","344076","NA","343079","NA","343074","345161","1365","347080","NA","NA","344170","1356","1357","344562","343074","1356","344170","347080","morph21_Oliver/Morris","31","26506","36","yes","1280","19"
"400","86.4864864865","86.4864864865","735.594594595","735.594594595","black","no","xpyriment","legacy","legacy","0","201","NA","uniform","64602","1000","0.0154793969227","1","undefined","1","0","36","36","36","0","36","36","36","NA","36","36","0","36","NA","36","36","0","36","NA","36","NA","36","0","0","36","36","0","36","36","37","/","11/05/17 12:41:00","The main experiment item","yes","FIN__BA__M21__7%3A10%3A17.osexp","C:\Users\ERP Testing Room\Desktop\Joanna\morph21","no","mono","no","18","no","white","no","yes","1080","legacy","36","36","C:/Users/ERP Testing Room/Desktop/Joanna/morph21/subject-115.csv","xpyriment","Jazzy James","3.1.4","0","/","NA","NA","NA","NA","space","/","711","NA","NA","NA","NA","213980","711","2","legacy","1024","2","48000","-16","BA_m21","115","odd","CW_S","EFFORTLESS","1356","349938","348355","345171","215346","NA","NA","NA","NA","349934","348852","NA","347855","NA","347847","349934","1365","350338","NA","NA","348939","1356","1357","349338","347847","1356","348938","350338","morph21_Oliver/Morris","32","27217","37","yes","1280","30"
"300","86.8421052632","86.8421052632","734.473684211","734.473684211","black","no","xpyriment","legacy","legacy","0","207","NA","uniform","62689","1000","0.0159517618721","1","undefined","1","0","37","37","37","0","37","37","37","NA","37","37","0","37","NA","37","37","0","37","NA","37","NA","37","0","0","37","37","0","37","37","38","/","11/05/17 12:41:00","The main experiment item","yes","FIN__BA__M21__7%3A10%3A17.osexp","C:\Users\ERP Testing Room\Desktop\Joanna\morph21","no","mono","no","18","no","white","no","yes","1080","legacy","37","37","C:/Users/ERP Testing Room/Desktop/Joanna/morph21/subject-115.csv","xpyriment","Jazzy James","3.1.4","0","/","NA","NA","NA","NA","space","/","693","NA","NA","NA","NA","213980","693","2","legacy","1024","2","48000","-16","BA_m21","115","odd","FILL_W","SICK","1356","353197","351580","345171","215346","NA","NA","NA","NA","353189","352077","NA","351080","NA","351072","353189","1365","353497","NA","NA","352197","1356","1357","352589","351072","1356","352197","353497","morph21_Oliver/Morris","33","27910","38","yes","1280","36"
"300","87.1794871795","87.1794871795","731.512820513","731.512820513","black","no","xpyriment","legacy","legacy","0","202","NA","uniform","70517","1000","0.0141809776366","1","undefined","1","0","38","38","38","0","38","38","38","NA","38","38","0","38","NA","38","38","0","38","NA","38","NA","38","0","0","38","38","0","38","38","39","/","11/05/17 12:41:00","The main experiment item","yes","FIN__BA__M21__7%3A10%3A17.osexp","C:\Users\ERP Testing Room\Desktop\Joanna\morph21","no","mono","no","18","no","white","no","yes","1080","legacy","38","38","C:/Users/ERP Testing Room/Desktop/Joanna/morph21/subject-115.csv","xpyriment","Jazzy James","3.1.4","0","/","NA","NA","NA","NA","space","/","619","NA","NA","NA","NA","213980","619","2","legacy","1024","2","48000","-16","BA_m21","115","odd","CW_L","KNOCKER","1356","357922","354814","356414","215346","NA","NA","NA","NA","356404","355311","NA","354314","NA","354303","356404","1365","358222","NA","NA","355414","1356","1357","355805","354303","1356","355414","358222","morph21_Oliver/Morris","34","28529","39","yes","1280","4"
"250","87.5","87.5","734.625","734.625","black","no","xpyriment","legacy","legacy","0","208","NA","uniform","59054","1000","0.0169336539438","1","undefined","1","0","39","39","39","0","39","39","39","NA","39","39","0","39","NA","39","39","0","39","NA","39","NA","39","0","0","39","39","0","39","39","40","z","11/05/17 12:41:00","The main experiment item","yes","FIN__BA__M21__7%3A10%3A17.osexp","C:\Users\ERP Testing Room\Desktop\Joanna\morph21","no","mono","no","18","no","white","no","yes","1080","legacy","39","39","C:/Users/ERP Testing Room/Desktop/Joanna/morph21/subject-115.csv","xpyriment","Jazzy James","3.1.4","0","z","NA","NA","NA","NA","space","z","856","NA","NA","NA","NA","213980","856","2","legacy","1024","2","48000","-16","BA_m21","115","odd","FILL_NW","PIFTH","1356","361097","359514","356414","215346","NA","NA","NA","NA","361092","360011","NA","359014","NA","359006","361092","1365","361347","NA","NA","360097","1356","1357","360489","359006","1356","360097","361347","morph21_Oliver/Morris","35","29385","40","yes","1280","36"
"350","87.8048780488","87.8048780488","734.536585366","734.536585366","black","no","xpyriment","legacy","legacy","0","204","NA","uniform","67964","1000","0.014713671944","1","undefined","1","0","40","40","40","0","40","40","40","NA","40","40","0","40","NA","40","40","0","40","NA","40","NA","40","0","0","40","40","0","40","40","41","z","11/05/17 12:41:00","The main experiment item","yes","FIN__BA__M21__7%3A10%3A17.osexp","C:\Users\ERP Testing Room\Desktop\Joanna\morph21","no","mono","no","18","no","white","no","yes","1080","legacy","40","40","C:/Users/ERP Testing Room/Desktop/Joanna/morph21/subject-115.csv","xpyriment","Jazzy James","3.1.4","0","z","NA","NA","NA","NA","space","z","731","NA","NA","NA","NA","213980","731","2","legacy","1024","2","48000","-16","BA_m21","115","odd","NW_L_COMP","MOUTHIME","1356","364248","362656","356414","215346","NA","NA","NA","NA","364240","363153","NA","362156","NA","362144","364240","1365","364598","NA","NA","363247","1356","1357","363639","362144","1356","363247","364598","morph21_Oliver/Morris","36","30116","41","yes","1280","11"
"400","88.0952380952","88.0952380952","728.357142857","728.357142857","black","no","xpyriment","legacy","legacy","0","207","NA","uniform","79254","1000","0.0126176596765","1","undefined","1","0","41","41","41","0","41","41","41","NA","41","41","0","41","NA","41","41","0","41","NA","41","NA","41","0","0","41","41","0","41","41","42","/","11/05/17 12:41:00","The main experiment item","yes","FIN__BA__M21__7%3A10%3A17.osexp","C:\Users\ERP Testing Room\Desktop\Joanna\morph21","no","mono","no","18","no","white","no","yes","1080","legacy","41","41","C:/Users/ERP Testing Room/Desktop/Joanna/morph21/subject-115.csv","xpyriment","Jazzy James","3.1.4","0","/","NA","NA","NA","NA","space","/","475","NA","NA","NA","NA","213980","475","2","legacy","1024","2","48000","-16","BA_m21","115","odd","FILL_W","CRUNCH","1356","368915","365798","367407","215346","NA","NA","NA","NA","367398","366296","NA","365298","NA","365291","367398","1365","369315","NA","NA","366407","1356","1357","366799","365291","1356","366407","369315","morph21_Oliver/Morris","37","30591","42","yes","1280","20"
"300","88.3720930233","88.3720930233","726.790697674","726.790697674","black","no","xpyriment","legacy","legacy","0","202","NA","uniform","62269","1000","0.0160593553775","1","undefined","1","0","42","42","42","0","42","42","42","NA","42","42","0","42","NA","42","42","0","42","NA","42","NA","42","0","0","42","42","0","42","42","43","/","11/05/17 12:41:00","The main experiment item","yes","FIN__BA__M21__7%3A10%3A17.osexp","C:\Users\ERP Testing Room\Desktop\Joanna\morph21","no","mono","no","18","no","white","no","yes","1080","legacy","42","42","C:/Users/ERP Testing Room/Desktop/Joanna/morph21/subject-115.csv","xpyriment","Jazzy James","3.1.4","0","/","NA","NA","NA","NA","space","/","661","NA","NA","NA","NA","213980","661","2","legacy","1024","2","48000","-16","BA_m21","115","odd","CW_L","PROFESSOR","1356","372165","370574","367407","215346","NA","NA","NA","NA","372160","371071","NA","370074","NA","370063","372160","1365","372465","NA","NA","371165","1356","1357","371565","370063","1356","371165","372465","morph21_Oliver/Morris","38","31252","43","yes","1280","47"
"250","88.6363636364","88.6363636364","726.795454545","726.795454545","black","no","xpyriment","legacy","legacy","0","203","NA","uniform","68139","1000","0.0146758831213","1","undefined","1","0","43","43","43","0","43","43","43","NA","43","43","0","43","NA","43","43","0","43","NA","43","NA","43","0","0","43","43","0","43","43","44","z","11/05/17 12:41:00","The main experiment item","yes","FIN__BA__M21__7%3A10%3A17.osexp","C:\Users\ERP Testing Room\Desktop\Joanna\morph21","no","mono","no","18","no","white","no","yes","1080","legacy","43","43","C:/Users/ERP Testing Room/Desktop/Joanna/morph21/subject-115.csv","xpyriment","Jazzy James","3.1.4","0","z","NA","NA","NA","NA","space","z","727","NA","NA","NA","NA","213980","727","2","legacy","1024","2","48000","-16","BA_m21","115","odd","NW_S_COMP","BRANCHEL","1356","375266","373682","367407","215346","NA","NA","NA","NA","375256","374179","NA","373182","NA","373177","375256","1365","375516","NA","NA","374266","1356","1357","374657","373176","1356","374265","375516","morph21_Oliver/Morris","39","31979","44","yes","1280","16"
"400","88.8888888889","88.8888888889","730.377777778","730.377777778","black","no","xpyriment","legacy","legacy","0","205","NA","uniform","65327","1000","0.0153076063496","1","undefined","1","0","44","44","44","0","44","44","44","NA","44","44","0","44","NA","44","44","0","44","NA","44","NA","44","0","0","44","44","0","44","44","45","z","11/05/17 12:41:00","The main experiment item","yes","FIN__BA__M21__7%3A10%3A17.osexp","C:\Users\ERP Testing Room\Desktop\Joanna\morph21","no","mono","no","18","no","white","no","yes","1080","legacy","44","44","C:/Users/ERP Testing Room/Desktop/Joanna/morph21/subject-115.csv","xpyriment","Jazzy James","3.1.4","0","z","NA","NA","NA","NA","space","z","888","NA","NA","NA","NA","213980","888","2","legacy","1024","2","48000","-16","BA_m21","115","odd","NW_S_SIMP","URNIST","1356","379957","376824","378449","215346","NA","NA","NA","NA","378439","377321","NA","376324","NA","376313","378439","1365","380358","NA","NA","377449","1356","1357","377841","376313","1356","377449","380358","morph21_Oliver/Morris","40","32867","45","yes","1280","5"
"350","89.1304347826","89.1304347826","730.152173913","730.152173913","black","no","xpyriment","legacy","legacy","0","201","NA","uniform","64681","1000","0.015460490716","1","undefined","1","0","45","45","45","0","45","45","45","NA","45","45","0","45","NA","45","45","0","45","NA","45","NA","45","0","0","45","45","0","45","45","46","/","11/05/17 12:41:00","The main experiment item","yes","FIN__BA__M21__7%3A10%3A17.osexp","C:\Users\ERP Testing Room\Desktop\Joanna\morph21","no","mono","no","18","no","white","no","yes","1080","legacy","45","45","C:/Users/ERP Testing Room/Desktop/Joanna/morph21/subject-115.csv","xpyriment","Jazzy James","3.1.4","0","/","NA","NA","NA","NA","space","/","720","NA","NA","NA","NA","213980","720","2","legacy","1024","2","48000","-16","BA_m21","115","odd","CW_S","DULLNESS","1356","383242","381650","378449","215346","NA","NA","NA","NA","383232","382147","NA","381150","NA","381143","383232","1365","383592","NA","NA","382242","1356","1357","382634","381142","1356","382242","383592","morph21_Oliver/Morris","41","33587","46","yes","1280","43"
"400","89.3617021277","89.3617021277","729.425531915","729.425531915","black","no","xpyriment","legacy","legacy","0","202","NA","uniform","71754","1000","0.0139365052819","1","undefined","1","0","46","46","46","0","46","46","46","NA","46","46","0","46","NA","46","46","0","46","NA","46","NA","46","0","0","46","46","0","46","46","47","/","11/05/17 12:41:00","The main experiment item","yes","FIN__BA__M21__7%3A10%3A17.osexp","C:\Users\ERP Testing Room\Desktop\Joanna\morph21","no","mono","no","18","no","white","no","yes","1080","legacy","46","46","C:/Users/ERP Testing Room/Desktop/Joanna/morph21/subject-115.csv","xpyriment","Jazzy James","3.1.4","0","/","NA","NA","NA","NA","space","/","696","NA","NA","NA","NA","213980","696","2","legacy","1024","2","48000","-16","BA_m21","115","odd","CW_L","BLINDNESS","1356","386442","384842","378449","215346","NA","NA","NA","NA","386434","385339","NA","384342","NA","384335","386434","1365","386842","NA","NA","385442","1356","1357","385834","384335","1356","385442","386842","morph21_Oliver/Morris","42","34283","47","yes","1280","40"
"200","89.5833333333","89.5833333333","726.979166667","726.979166667","black","no","xpyriment","legacy","legacy","0","207","NA","uniform","69591","1000","0.0143696742395","1","undefined","1","0","47","47","47","0","47","47","47","NA","47","47","0","47","NA","47","47","0","47","NA","47","NA","47","0","0","47","47","0","47","47","48","/","11/05/17 12:41:00","The main experiment item","yes","FIN__BA__M21__7%3A10%3A17.osexp","C:\Users\ERP Testing Room\Desktop\Joanna\morph21","no","mono","no","18","no","white","no","yes","1080","legacy","47","47","C:/Users/ERP Testing Room/Desktop/Joanna/morph21/subject-115.csv","xpyriment","Jazzy James","3.1.4","0","/","NA","NA","NA","NA","space","/","612","NA","NA","NA","NA","213980","612","2","legacy","1024","2","48000","-16","BA_m21","115","odd","FILL_W","BRASS","1356","391234","388126","389726","215346","NA","NA","NA","NA","389722","388623","NA","387625","NA","387615","389722","1365","391434","NA","NA","388726","1356","1357","389125","387615","1356","388725","391434","morph21_Oliver/Morris","43","34895","48","yes","1280","10"
"250","89.7959183673","89.7959183673","725.183673469","725.183673469","black","no","xpyriment","legacy","legacy","0","201","NA","uniform","74910","1000","0.0133493525564","1","undefined","1","0","48","48","48","0","48","48","48","NA","48","48","0","48","NA","48","48","0","48","NA","48","NA","48","0","0","48","48","0","48","48","49","/","11/05/17 12:41:00","The main experiment item","yes","FIN__BA__M21__7%3A10%3A17.osexp","C:\Users\ERP Testing Room\Desktop\Joanna\morph21","no","mono","no","18","no","white","no","yes","1080","legacy","48","48","C:/Users/ERP Testing Room/Desktop/Joanna/morph21/subject-115.csv","xpyriment","Jazzy James","3.1.4","0","/","NA","NA","NA","NA","space","/","639","NA","NA","NA","NA","213980","639","2","legacy","1024","2","48000","-16","BA_m21","115","odd","CW_S","HARMLESS","1356","394234","392634","389726","215346","NA","NA","NA","NA","394229","393131","NA","392134","NA","392127","394229","1365","394484","NA","NA","393234","1356","1357","393634","392127","1356","393234","394484","morph21_Oliver/Morris","44","35534","49","yes","1280","29"
"200","90","90","729.98","729.98","black","no","xpyriment","legacy","legacy","0","201","NA","uniform","63321","1000","0.0157925490753","1","undefined","1","0","49","49","49","0","49","49","49","NA","49","49","0","49","NA","49","49","0","49","NA","49","NA","49","0","0","49","49","0","49","49","50","/","11/05/17 12:41:00","The main experiment item","yes","FIN__BA__M21__7%3A10%3A17.osexp","C:\Users\ERP Testing Room\Desktop\Joanna\morph21","no","mono","no","18","no","white","no","yes","1080","legacy","49","49","C:/Users/ERP Testing Room/Desktop/Joanna/morph21/subject-115.csv","xpyriment","Jazzy James","3.1.4","0","/","NA","NA","NA","NA","space","/","965","NA","NA","NA","NA","213980","965","2","legacy","1024","2","48000","-16","BA_m21","115","odd","CW_S","BOLDNESS","1356","397276","395701","389726","215346","NA","NA","NA","NA","397271","396198","NA","395201","NA","395198","397271","1365","397476","NA","NA","396276","1356","1357","396676","395198","1356","396276","397476","morph21_Oliver/Morris","45","36499","50","yes","1280","41"
"200","90.1960784314","90.1960784314","730.725490196","730.725490196","black","no","xpyriment","legacy","legacy","0","207","NA","uniform","69239","1000","0.0144427273646","1","undefined","1","0","50","50","50","0","50","50","50","NA","50","50","0","50","NA","50","50","0","50","NA","50","NA","50","0","0","50","50","0","50","50","51","/","11/05/17 12:41:00","The main experiment item","yes","FIN__BA__M21__7%3A10%3A17.osexp","C:\Users\ERP Testing Room\Desktop\Joanna\morph21","no","mono","no","18","no","white","no","yes","1080","legacy","50","50","C:/Users/ERP Testing Room/Desktop/Joanna/morph21/subject-115.csv","xpyriment","Jazzy James","3.1.4","0","/","NA","NA","NA","NA","space","/","768","NA","NA","NA","NA","213980","768","2","legacy","1024","2","48000","-16","BA_m21","115","odd","FILL_W","FLOAT","1356","401902","398785","400394","215346","NA","NA","NA","NA","400387","399282","NA","398284","NA","398278","400387","1365","402102","NA","NA","399394","1356","1357","399785","398278","1356","399394","402102","morph21_Oliver/Morris","46","37267","51","yes","1280","30"
"200","88.4615384615","88.4615384615","729.826923077","729.826923077","black","no","xpyriment","legacy","legacy","0","205","NA","uniform","75594","1000","0.0132285631135","0","undefined","0","0","51","51","51","0","51","51","51","NA","51","51","0","51","NA","51","51","0","51","NA","51","NA","51","0","0","51","51","0","51","51","52","z","11/05/17 12:41:00","The main experiment item","yes","FIN__BA__M21__7%3A10%3A17.osexp","C:\Users\ERP Testing Room\Desktop\Joanna\morph21","no","mono","no","18","no","white","no","yes","1080","legacy","51","51","C:/Users/ERP Testing Room/Desktop/Joanna/morph21/subject-115.csv","xpyriment","Jazzy James","3.1.4","0","/","NA","NA","NA","NA","space","/","684","NA","NA","NA","NA","213980","684","2","legacy","1024","2","48000","-16","BA_m21","115","odd","NW_S_SIMP","OPPOSEMENT","1356","404886","403302","400394","215346","NA","NA","NA","NA","400387","403799","NA","402802","NA","402798","404879","1365","405086","NA","NA","403886","1356","1357","404277","402798","1356","403885","405086","morph21_Oliver/Morris","46","37951","52","yes","1280","8"
"400","86.7924528302","86.7924528302","728.132075472","728.132075472","black","no","xpyriment","legacy","legacy","0","206","NA","uniform","68613","1000","0.0145744975442","0","undefined","0","0","52","52","52","0","52","52","52","NA","52","52","0","52","NA","52","52","0","52","NA","52","NA","52","0","0","52","52","0","52","52","53","z","11/05/17 12:41:00","The main experiment item","yes","FIN__BA__M21__7%3A10%3A17.osexp","C:\Users\ERP Testing Room\Desktop\Joanna\morph21","no","mono","no","18","no","white","no","yes","1080","legacy","52","52","C:/Users/ERP Testing Room/Desktop/Joanna/morph21/subject-115.csv","xpyriment","Jazzy James","3.1.4","0","/","NA","NA","NA","NA","space","/","640","NA","NA","NA","NA","213980","640","2","legacy","1024","2","48000","-16","BA_m21","115","odd","NW_L_SIMP","BLOODER","1356","408002","406402","400394","215346","NA","NA","NA","NA","400387","406899","NA","405902","NA","405894","407995","1365","408402","NA","NA","407002","1356","1357","407394","405894","1356","407002","408402","morph21_Oliver/Morris","46","38591","53","yes","1280","24"
"300","87.037037037","87.037037037","729.351851852","729.351851852","black","no","xpyriment","legacy","legacy","0","205","NA","uniform","62275","1000","0.0160578081092","1","undefined","1","0","53","53","53","0","53","53","53","NA","53","53","0","53","NA","53","53","0","53","NA","53","NA","53","0","0","53","53","0","53","53","54","z","11/05/17 12:41:00","The main experiment item","yes","FIN__BA__M21__7%3A10%3A17.osexp","C:\Users\ERP Testing Room\Desktop\Joanna\morph21","no","mono","no","18","no","white","no","yes","1080","legacy","53","53","C:/Users/ERP Testing Room/Desktop/Joanna/morph21/subject-115.csv","xpyriment","Jazzy James","3.1.4","0","z","NA","NA","NA","NA","space","z","794","NA","NA","NA","NA","213980","794","2","legacy","1024","2","48000","-16","BA_m21","115","odd","NW_S_SIMP","FEVERIZE","1356","412811","409694","411302","215346","NA","NA","NA","NA","411294","410191","NA","409194","NA","409187","411294","1365","413111","NA","NA","410303","1356","1357","410694","409187","1356","410302","413111","morph21_Oliver/Morris","47","39385","54","yes","1280","24"
"350","87.2727272727","87.2727272727","730.254545455","730.254545455","black","no","xpyriment","legacy","legacy","0","208","NA","uniform","62294","1000","0.0160529103927","1","undefined","1","0","54","54","54","0","54","54","54","NA","54","54","0","54","NA","54","54","0","54","NA","54","NA","54","0","0","54","54","0","54","54","55","z","11/05/17 12:41:00","The main experiment item","yes","FIN__BA__M21__7%3A10%3A17.osexp","C:\Users\ERP Testing Room\Desktop\Joanna\morph21","no","mono","no","18","no","white","no","yes","1080","legacy","54","54","C:/Users/ERP Testing Room/Desktop/Joanna/morph21/subject-115.csv","xpyriment","Jazzy James","3.1.4","0","z","NA","NA","NA","NA","space","z","779","NA","NA","NA","NA","213980","779","2","legacy","1024","2","48000","-16","BA_m21","115","odd","FILL_NW","DELP","1356","415886","414303","411302","215346","NA","NA","NA","NA","415878","414800","NA","413803","NA","413798","415878","1365","416236","NA","NA","414886","1356","1357","415278","413798","1356","414886","416236","morph21_Oliver/Morris","48","40164","55","yes","1280","14"
"350","87.5","87.5","732.339285714","732.339285714","black","no","xpyriment","legacy","legacy","0","206","NA","uniform","59181","1000","0.0168973150166","1","undefined","1","0","55","55","55","0","55","55","55","NA","55","55","0","55","NA","55","55","0","55","NA","55","NA","55","0","0","55","55","0","55","55","56","z","11/05/17 12:41:00","The main experiment item","yes","FIN__BA__M21__7%3A10%3A17.osexp","C:\Users\ERP Testing Room\Desktop\Joanna\morph21","no","mono","no","18","no","white","no","yes","1080","legacy","55","55","C:/Users/ERP Testing Room/Desktop/Joanna/morph21/subject-115.csv","xpyriment","Jazzy James","3.1.4","0","z","NA","NA","NA","NA","space","z","847","NA","NA","NA","NA","213980","847","2","legacy","1024","2","48000","-16","BA_m21","115","odd","NW_L_SIMP","PICKENCE","1356","419195","417587","411302","215346","NA","NA","NA","NA","419187","418084","NA","417087","NA","417082","419187","1365","419546","NA","NA","418195","1356","1357","418587","417082","1356","418195","419546","morph21_Oliver/Morris","49","41011","56","yes","1280","5"
"300","87.7192982456","87.7192982456","734.122807018","734.122807018","black","no","xpyriment","legacy","legacy","0","208","NA","uniform","62494","1000","0.0160015361475","1","undefined","1","0","56","56","56","0","56","56","56","NA","56","56","0","56","NA","56","56","0","56","NA","56","NA","56","0","0","56","56","0","56","56","57","z","11/05/17 12:41:00","The main experiment item","yes","FIN__BA__M21__7%3A10%3A17.osexp","C:\Users\ERP Testing Room\Desktop\Joanna\morph21","no","mono","no","18","no","white","no","yes","1080","legacy","56","56","C:/Users/ERP Testing Room/Desktop/Joanna/morph21/subject-115.csv","xpyriment","Jazzy James","3.1.4","0","z","NA","NA","NA","NA","space","z","834","NA","NA","NA","NA","213980","834","2","legacy","1024","2","48000","-16","BA_m21","115","odd","FILL_NW","SCURE","1356","423804","420712","422296","215346","NA","NA","NA","NA","422292","421209","NA","420212","NA","420206","422292","1365","424104","NA","NA","421296","1356","1357","421696","420206","1356","421296","424104","morph21_Oliver/Morris","50","41845","57","yes","1280","41"
"250","87.9310344828","87.9310344828","734.051724138","734.051724138","black","no","xpyriment","legacy","legacy","0","207","NA","uniform","66353","1000","0.0150709086251","1","undefined","1","0","57","57","57","0","57","57","57","NA","57","57","0","57","NA","57","57","0","57","NA","57","NA","57","0","0","57","57","0","57","57","58","/","11/05/17 12:41:00","The main experiment item","yes","FIN__BA__M21__7%3A10%3A17.osexp","C:\Users\ERP Testing Room\Desktop\Joanna\morph21","no","mono","no","18","no","white","no","yes","1080","legacy","57","57","C:/Users/ERP Testing Room/Desktop/Joanna/morph21/subject-115.csv","xpyriment","Jazzy James","3.1.4","0","/","NA","NA","NA","NA","space","/","730","NA","NA","NA","NA","213980","730","2","legacy","1024","2","48000","-16","BA_m21","115","odd","FILL_W","PREACH","1356","426863","425271","422296","215346","NA","NA","NA","NA","426852","425768","NA","424771","NA","424763","426852","1365","427113","NA","NA","425863","1356","1357","426254","424762","1356","425863","427113","morph21_Oliver/Morris","51","42575","58","yes","1280","7"
"250","88.1355932203","88.1355932203","732.847457627","732.847457627","black","no","xpyriment","legacy","legacy","0","208","NA","uniform","68635","1000","0.0145698258906","1","undefined","1","0","58","58","58","0","58","58","58","NA","58","58","0","58","NA","58","58","0","58","NA","58","NA","58","0","0","58","58","0","58","58","59","z","11/05/17 12:41:00","The main experiment item","yes","FIN__BA__M21__7%3A10%3A17.osexp","C:\Users\ERP Testing Room\Desktop\Joanna\morph21","no","mono","no","18","no","white","no","yes","1080","legacy","58","58","C:/Users/ERP Testing Room/Desktop/Joanna/morph21/subject-115.csv","xpyriment","Jazzy James","3.1.4","0","z","NA","NA","NA","NA","space","z","663","NA","NA","NA","NA","213980","663","2","legacy","1024","2","48000","-16","BA_m21","115","odd","FILL_NW","BUWL","1356","430146","428538","422296","215346","NA","NA","NA","NA","430139","429035","NA","428038","NA","428029","430139","1365","430396","NA","NA","429146","1356","1357","429538","428029","1356","429146","430396","morph21_Oliver/Morris","52","43238","59","yes","1280","9"
"300","88.3333333333","88.3333333333","733.583333333","733.583333333","black","no","xpyriment","legacy","legacy","0","207","NA","uniform","64586","1000","0.0154832316601","1","undefined","1","0","59","59","59","0","59","59","59","NA","59","59","0","59","NA","59","59","0","59","NA","59","NA","59","0","0","59","59","0","59","59","60","/","11/05/17 12:41:00","The main experiment item","yes","FIN__BA__M21__7%3A10%3A17.osexp","C:\Users\ERP Testing Room\Desktop\Joanna\morph21","no","mono","no","18","no","white","no","yes","1080","legacy","59","59","C:/Users/ERP Testing Room/Desktop/Joanna/morph21/subject-115.csv","xpyriment","Jazzy James","3.1.4","0","/","NA","NA","NA","NA","space","/","777","NA","NA","NA","NA","213980","777","2","legacy","1024","2","48000","-16","BA_m21","115","odd","FILL_W","BLUNT","1356","434797","431688","433288","215346","NA","NA","NA","NA","433284","432185","NA","431188","NA","431177","433284","1365","435097","NA","NA","432296","1356","1357","432688","431177","1356","432296","435097","morph21_Oliver/Morris","53","44015","60","yes","1280","4"
"200","88.5245901639","88.5245901639","734.590163934","734.590163934","black","no","xpyriment","legacy","legacy","0","208","NA","uniform","65912","1000","0.0151717441437","1","undefined","1","0","60","60","60","0","60","60","60","NA","60","60","0","60","NA","60","60","0","60","NA","60","NA","60","0","0","60","60","0","60","60","61","z","11/05/17 12:41:00","The main experiment item","yes","FIN__BA__M21__7%3A10%3A17.osexp","C:\Users\ERP Testing Room\Desktop\Joanna\morph21","no","mono","no","18","no","white","no","yes","1080","legacy","60","60","C:/Users/ERP Testing Room/Desktop/Joanna/morph21/subject-115.csv","xpyriment","Jazzy James","3.1.4","0","z","NA","NA","NA","NA","space","z","795","NA","NA","NA","NA","213980","795","2","legacy","1024","2","48000","-16","BA_m21","115","odd","FILL_NW","CINDS","1356","438031","436422","433288","215346","NA","NA","NA","NA","438023","436919","NA","435922","NA","435917","438023","1365","438231","NA","NA","437031","1356","1357","437422","435917","1356","437031","438231","morph21_Oliver/Morris","54","44810","61","yes","1280","6"
"250","87.0967741935","87.0967741935","736.548387097","736.548387097","black","no","xpyriment","legacy","legacy","0","207","NA","uniform","62144","1000","0.0160916580844","0","undefined","0","0","61","61","61","0","61","61","61","NA","61","61","0","61","NA","61","61","0","61","NA","61","NA","61","0","0","61","61","0","61","61","62","/","11/05/17 12:41:00","The main experiment item","yes","FIN__BA__M21__7%3A10%3A17.osexp","C:\Users\ERP Testing Room\Desktop\Joanna\morph21","no","mono","no","18","no","white","no","yes","1080","legacy","61","61","C:/Users/ERP Testing Room/Desktop/Joanna/morph21/subject-115.csv","xpyriment","Jazzy James","3.1.4","0","z","NA","NA","NA","NA","space","z","856","NA","NA","NA","NA","213980","856","2","legacy","1024","2","48000","-16","BA_m21","115","odd","FILL_W","SOUGHT","1356","441123","439514","433288","215346","NA","NA","NA","NA","438023","440011","NA","439014","NA","439003","441113","1365","441373","NA","NA","440122","1356","1357","440514","439003","1356","440122","441373","morph21_Oliver/Morris","54","45666","62","yes","1280","40"
"300","87.3015873016","87.3015873016","735.603174603","735.603174603","black","no","xpyriment","legacy","legacy","0","208","NA","uniform","67258","1000","0.0148681197776","1","undefined","1","0","62","62","62","0","62","62","62","NA","62","62","0","62","NA","62","62","0","62","NA","62","NA","62","0","0","62","62","0","62","62","63","z","11/05/17 12:41:00","The main experiment item","yes","FIN__BA__M21__7%3A10%3A17.osexp","C:\Users\ERP Testing Room\Desktop\Joanna\morph21","no","mono","no","18","no","white","no","yes","1080","legacy","62","62","C:/Users/ERP Testing Room/Desktop/Joanna/morph21/subject-115.csv","xpyriment","Jazzy James","3.1.4","0","z","NA","NA","NA","NA","space","z","677","NA","NA","NA","NA","213980","677","2","legacy","1024","2","48000","-16","BA_m21","115","odd","FILL_NW","VOGS","1356","445864","442773","444356","215346","NA","NA","NA","NA","444348","443270","NA","442273","NA","442264","444348","1365","446165","NA","NA","443356","1356","1357","443748","442264","1356","443356","446165","morph21_Oliver/Morris","55","46343","63","yes","1280","47"
"350","85.9375","85.9375","738.4375","738.4375","black","no","xpyriment","legacy","legacy","0","202","NA","uniform","57406","1000","0.0174197819043","0","undefined","0","0","63","63","63","0","63","63","63","NA","63","63","0","63","NA","63","63","0","63","NA","63","NA","63","0","0","63","63","0","63","63","64","/","11/05/17 12:41:00","The main experiment item","yes","FIN__BA__M21__7%3A10%3A17.osexp","C:\Users\ERP Testing Room\Desktop\Joanna\morph21","no","mono","no","18","no","white","no","yes","1080","legacy","63","63","C:/Users/ERP Testing Room/Desktop/Joanna/morph21/subject-115.csv","xpyriment","Jazzy James","3.1.4","0","z","NA","NA","NA","NA","space","z","917","NA","NA","NA","NA","213980","917","2","legacy","1024","2","48000","-16","BA_m21","115","odd","CW_L","RENTER","1356","448956","447390","444356","215346","NA","NA","NA","NA","444348","447887","NA","446889","NA","446883","448950","1365","449306","NA","NA","447956","1356","1357","448348","446883","1356","447956","449306","morph21_Oliver/Morris","55","47260","64","yes","1280","9"
"400","86.1538461538","86.1538461538","740.707692308","740.707692308","black","no","xpyriment","legacy","legacy","0","208","NA","uniform","65262","1000","0.0153228525022","1","undefined","1","0","64","64","64","0","64","64","64","NA","64","64","0","64","NA","64","64","0","64","NA","64","NA","64","0","0","64","64","0","64","64","65","z","11/05/17 12:41:00","The main experiment item","yes","FIN__BA__M21__7%3A10%3A17.osexp","C:\Users\ERP Testing Room\Desktop\Joanna\morph21","no","mono","no","18","no","white","no","yes","1080","legacy","64","64","C:/Users/ERP Testing Room/Desktop/Joanna/morph21/subject-115.csv","xpyriment","Jazzy James","3.1.4","0","z","NA","NA","NA","NA","space","z","886","NA","NA","NA","NA","213980","886","2","legacy","1024","2","48000","-16","BA_m21","115","odd","FILL_NW","SOISE","1356","452116","450523","444356","215346","NA","NA","NA","NA","452111","451020","NA","450023","NA","450014","452111","1365","452516","NA","NA","451116","1356","1357","451516","450013","1356","451116","452516","morph21_Oliver/Morris","56","48146","65","yes","1280","43"
"250","86.3636363636","86.3636363636","741.515151515","741.515151515","black","no","xpyriment","legacy","legacy","0","208","NA","uniform","58417","1000","0.0171183046031","1","undefined","1","0","65","65","65","0","65","65","65","NA","65","65","0","65","NA","65","65","0","65","NA","65","NA","65","0","0","65","65","0","65","65","66","z","11/05/17 12:41:00","The main experiment item","yes","FIN__BA__M21__7%3A10%3A17.osexp","C:\Users\ERP Testing Room\Desktop\Joanna\morph21","no","mono","no","18","no","white","no","yes","1080","legacy","65","65","C:/Users/ERP Testing Room/Desktop/Joanna/morph21/subject-115.csv","xpyriment","Jazzy James","3.1.4","0","z","NA","NA","NA","NA","space","z","794","NA","NA","NA","NA","213980","794","2","legacy","1024","2","48000","-16","BA_m21","115","odd","FILL_NW","LOLDS","1356","456924","453816","455416","215346","NA","NA","NA","NA","455409","454313","NA","453316","NA","453312","455409","1365","457174","NA","NA","454416","1356","1357","454807","453312","1356","454416","457174","morph21_Oliver/Morris","57","48940","66","yes","1280","34"
"400","86.5671641791","86.5671641791","742.910447761","742.910447761","black","no","xpyriment","legacy","legacy","0","208","NA","uniform","70055","1000","0.0142744986082","1","undefined","1","0","66","66","66","0","66","66","66","NA","66","66","0","66","NA","66","66","0","66","NA","66","NA","66","0","0","66","66","0","66","66","67","z","11/05/17 12:41:00","The main experiment item","yes","FIN__BA__M21__7%3A10%3A17.osexp","C:\Users\ERP Testing Room\Desktop\Joanna\morph21","no","mono","no","18","no","white","no","yes","1080","legacy","66","66","C:/Users/ERP Testing Room/Desktop/Joanna/morph21/subject-115.csv","xpyriment","Jazzy James","3.1.4","0","z","NA","NA","NA","NA","space","z","835","NA","NA","NA","NA","213980","835","2","legacy","1024","2","48000","-16","BA_m21","115","odd","FILL_NW","FROES","1356","459991","458408","455416","215346","NA","NA","NA","NA","459984","458905","NA","457908","NA","457904","459984","1365","460391","NA","NA","458991","1356","1357","459383","457904","1356","458991","460391","morph21_Oliver/Morris","58","49775","67","yes","1280","21"
"300","86.7647058824","86.7647058824","745.573529412","745.573529412","black","no","xpyriment","legacy","legacy","0","206","NA","uniform","55829","1000","0.0179118379337","1","undefined","1","0","67","67","67","0","67","67","67","NA","67","67","0","67","NA","67","67","0","67","NA","67","NA","67","0","0","67","67","0","67","67","68","z","11/05/17 12:41:00","The main experiment item","yes","FIN__BA__M21__7%3A10%3A17.osexp","C:\Users\ERP Testing Room\Desktop\Joanna\morph21","no","mono","no","18","no","white","no","yes","1080","legacy","67","67","C:/Users/ERP Testing Room/Desktop/Joanna/morph21/subject-115.csv","xpyriment","Jazzy James","3.1.4","0","z","NA","NA","NA","NA","space","z","924","NA","NA","NA","NA","213980","924","2","legacy","1024","2","48000","-16","BA_m21","115","odd","NW_L_SIMP","BEANISH","1356","463141","461541","455416","215346","NA","NA","NA","NA","463135","462038","NA","461041","NA","461035","463135","1365","463441","NA","NA","462141","1356","1357","462533","461035","1356","462141","463441","morph21_Oliver/Morris","59","50699","68","yes","1280","8"
"200","86.9565217391","86.9565217391","744.884057971","744.884057971","black","no","xpyriment","legacy","legacy","0","201","NA","uniform","69785","1000","0.0143297270187","1","undefined","1","0","68","68","68","0","68","68","68","NA","68","68","0","68","NA","68","68","0","68","NA","68","NA","68","0","0","68","68","0","68","68","69","/","11/05/17 12:41:00","The main experiment item","yes","FIN__BA__M21__7%3A10%3A17.osexp","C:\Users\ERP Testing Room\Desktop\Joanna\morph21","no","mono","no","18","no","white","no","yes","1080","legacy","68","68","C:/Users/ERP Testing Room/Desktop/Joanna/morph21/subject-115.csv","xpyriment","Jazzy James","3.1.4","0","/","NA","NA","NA","NA","space","/","698","NA","NA","NA","NA","213980","698","2","legacy","1024","2","48000","-16","BA_m21","115","odd","CW_S","CAMPAIGNER","1356","467891","464775","466383","215346","NA","NA","NA","NA","466374","465272","NA","464275","NA","464269","466374","1365","468092","NA","NA","465383","1356","1357","465775","464269","1356","465383","468092","morph21_Oliver/Morris","60","51397","69","yes","1280","15"
"350","85.7142857143","85.7142857143","748.371428571","748.371428571","black","no","xpyriment","legacy","legacy","0","207","NA","uniform","61566","1000","0.0162427313777","0","undefined","0","0","69","69","69","0","69","69","69","NA","69","69","0","69","NA","69","69","0","69","NA","69","NA","69","0","0","69","69","0","69","69","70","/","11/05/17 12:41:00","The main experiment item","yes","FIN__BA__M21__7%3A10%3A17.osexp","C:\Users\ERP Testing Room\Desktop\Joanna\morph21","no","mono","no","18","no","white","no","yes","1080","legacy","69","69","C:/Users/ERP Testing Room/Desktop/Joanna/morph21/subject-115.csv","xpyriment","Jazzy James","3.1.4","0","None","NA","NA","NA","NA","space","None","989","NA","NA","NA","NA","213980","989","2","legacy","1024","2","48000","-16","BA_m21","115","odd","FILL_W","FOLLOW","1356","470951","469359","466383","215346","NA","NA","NA","NA","466374","469856","NA","468859","NA","468853","470948","1365","471301","NA","NA","469959","1356","1357","470351","468853","1356","469959","471301","morph21_Oliver/Morris","60","52386","70","yes","1280","17"
"250","85.9154929577","85.9154929577","750.788732394","750.788732394","black","no","xpyriment","legacy","legacy","0","202","NA","uniform","58541","1000","0.0170820450624","1","undefined","1","0","70","70","70","0","70","70","70","NA","70","70","0","70","NA","70","70","0","70","NA","70","NA","70","0","0","70","70","0","70","70","71","/","11/05/17 12:41:00","The main experiment item","yes","FIN__BA__M21__7%3A10%3A17.osexp","C:\Users\ERP Testing Room\Desktop\Joanna\morph21","no","mono","no","18","no","white","no","yes","1080","legacy","70","70","C:/Users/ERP Testing Room/Desktop/Joanna/morph21/subject-115.csv","xpyriment","Jazzy James","3.1.4","0","/","NA","NA","NA","NA","space","/","920","NA","NA","NA","NA","213980","920","2","legacy","1024","2","48000","-16","BA_m21","115","odd","CW_L","DEAFNESS","1356","474218","472609","466383","215346","NA","NA","NA","NA","474211","473106","NA","472109","NA","472104","474211","1365","474468","NA","NA","473218","1356","1357","473609","472104","1356","473218","474468","morph21_Oliver/Morris","61","53306","71","yes","1280","39"
"400","84.7222222222","84.7222222222","752.194444444","752.194444444","black","no","xpyriment","legacy","legacy","0","205","NA","uniform","61940","1000","0.0161446561188","0","undefined","0","0","71","71","71","0","71","71","71","NA","71","71","0","71","NA","71","71","0","71","NA","71","NA","71","0","0","71","71","0","71","71","72","z","11/05/17 12:41:00","The main experiment item","yes","FIN__BA__M21__7%3A10%3A17.osexp","C:\Users\ERP Testing Room\Desktop\Joanna\morph21","no","mono","no","18","no","white","no","yes","1080","legacy","71","71","C:/Users/ERP Testing Room/Desktop/Joanna/morph21/subject-115.csv","xpyriment","Jazzy James","3.1.4","0","/","NA","NA","NA","NA","space","/","852","NA","NA","NA","NA","213980","852","2","legacy","1024","2","48000","-16","BA_m21","115","odd","NW_S_SIMP","MEDICALARY","1356","478826","475726","477318","215346","NA","NA","NA","NA","474211","476223","NA","475226","NA","475217","477311","1365","479226","NA","NA","476318","1356","1357","476709","475217","1356","476318","479226","morph21_Oliver/Morris","61","54158","72","yes","1280","18"
"400","84.9315068493","84.9315068493","749.410958904","749.410958904","black","no","xpyriment","legacy","legacy","0","207","NA","uniform","62059","1000","0.0161136982549","1","undefined","1","0","72","72","72","0","72","72","72","NA","72","72","0","72","NA","72","72","0","72","NA","72","NA","72","0","0","72","72","0","72","72","73","/","11/05/17 12:41:00","The main experiment item","yes","FIN__BA__M21__7%3A10%3A17.osexp","C:\Users\ERP Testing Room\Desktop\Joanna\morph21","no","mono","no","18","no","white","no","yes","1080","legacy","72","72","C:/Users/ERP Testing Room/Desktop/Joanna/morph21/subject-115.csv","xpyriment","Jazzy James","3.1.4","0","/","NA","NA","NA","NA","space","/","549","NA","NA","NA","NA","213980","549","2","legacy","1024","2","48000","-16","BA_m21","115","odd","FILL_W","EAT","1356","482068","480485","477318","215346","NA","NA","NA","NA","482060","480982","NA","479985","NA","479975","482060","1365","482468","NA","NA","481068","1356","1357","481460","479974","1356","481068","482468","morph21_Oliver/Morris","62","54707","73","yes","1280","25"
"200","85.1351351351","85.1351351351","749.040540541","749.040540541","black","no","xpyriment","legacy","legacy","0","208","NA","uniform","68765","1000","0.014542281684","1","undefined","1","0","73","73","73","0","73","73","73","NA","73","73","0","73","NA","73","73","0","73","NA","73","NA","73","0","0","73","73","0","73","73","74","z","11/05/17 12:41:00","The main experiment item","yes","FIN__BA__M21__7%3A10%3A17.osexp","C:\Users\ERP Testing Room\Desktop\Joanna\morph21","no","mono","no","18","no","white","no","yes","1080","legacy","73","73","C:/Users/ERP Testing Room/Desktop/Joanna/morph21/subject-115.csv","xpyriment","Jazzy James","3.1.4","0","z","NA","NA","NA","NA","space","z","722","NA","NA","NA","NA","213980","722","2","legacy","1024","2","48000","-16","BA_m21","115","odd","FILL_NW","GILN","1356","485343","483735","477318","215346","NA","NA","NA","NA","485334","484232","NA","483235","NA","483232","485334","1365","485543","NA","NA","484343","1356","1357","484735","483232","1356","484343","485543","morph21_Oliver/Morris","63","55429","74","yes","1280","25"
"300","84","84","750.733333333","750.733333333","black","no","xpyriment","legacy","legacy","0","205","NA","uniform","68382","1000","0.0146237313913","undefined","undefined","0","0","74","74","74","0","74","74","74","NA","74","74","0","74","NA","74","74","0","74","NA","74","NA","74","0","0","74","74","0","74","74","75","z","11/05/17 12:41:00","The main experiment item","yes","FIN__BA__M21__7%3A10%3A17.osexp","C:\Users\ERP Testing Room\Desktop\Joanna\morph21","no","mono","no","18","no","white","no","yes","1080","legacy","74","74","C:/Users/ERP Testing Room/Desktop/Joanna/morph21/subject-115.csv","xpyriment","Jazzy James","3.1.4","0","space","space","NA","NA","NA","space","/","35971","35971","NA","NA","NA","213980","876","2","legacy","1024","2","48000","-16","BA_m21","115","odd","NW_S_SIMP","YIELDIST","1356","490003","486911","488494","215346","490311","NA","NA","NA","485334","487408","NA","486411","NA","486402","488488","1365","526283","NA","NA","487494","1356","1357","487886","486402","1356","487494","490303","morph21_Oliver/Morris","63","56305","75","yes","1280","20"
"400","84.2105263158","84.2105263158","751.815789474","751.815789474","black","no","xpyriment","legacy","legacy","0","207","NA","uniform","65116","1000","0.0153572086738","1","undefined","1","0","75","75","75","0","75","75","75","NA","75","75","0","75","NA","75","75","0","75","NA","75","NA","75","0","0","75","75","0","75","75","76","/","11/05/17 12:41:00","The main experiment item","yes","FIN__BA__M21__7%3A10%3A17.osexp","C:\Users\ERP Testing Room\Desktop\Joanna\morph21","no","mono","no","18","no","white","no","yes","1080","legacy","75","75","C:/Users/ERP Testing Room/Desktop/Joanna/morph21/subject-115.csv","xpyriment","Jazzy James","3.1.4","0","/","space","NA","NA","NA","space","/","833","35971","NA","NA","NA","213980","833","2","legacy","1024","2","48000","-16","BA_m21","115","odd","FILL_W","STEEP","1356","529073","527490","488494","215346","490311","NA","NA","NA","529064","527987","NA","526990","NA","526981","529064","1365","529473","NA","NA","528073","1356","1357","528465","526981","1356","528073","529473","morph21_Oliver/Morris","64","57138","76","yes","1280","16"
"200","84.4155844156","84.4155844156","754.571428571","754.571428571","black","no","xpyriment","legacy","legacy","0","208","NA","uniform","65365","1000","0.0152987072592","1","undefined","1","0","76","76","76","0","76","76","76","NA","76","76","0","76","NA","76","76","0","76","NA","76","NA","76","0","0","76","76","0","76","76","77","z","11/05/17 12:41:00","The main experiment item","yes","FIN__BA__M21__7%3A10%3A17.osexp","C:\Users\ERP Testing Room\Desktop\Joanna\morph21","no","mono","no","18","no","white","no","yes","1080","legacy","76","76","C:/Users/ERP Testing Room/Desktop/Joanna/morph21/subject-115.csv","xpyriment","Jazzy James","3.1.4","0","z","space","NA","NA","NA","space","z","964","35971","NA","NA","NA","213980","964","2","legacy","1024","2","48000","-16","BA_m21","115","odd","FILL_NW","FALONS","1356","532365","530782","488494","215346","490311","NA","NA","NA","532356","531279","NA","530282","NA","530273","532356","1365","532565","NA","NA","531365","1356","1357","531757","530272","1356","531365","532565","morph21_Oliver/Morris","65","58102","77","yes","1280","19"
"250","84.6153846154","84.6153846154","753.423076923","753.423076923","black","no","xpyriment","legacy","legacy","0","202","NA","uniform","71725","1000","0.0139421401185","1","undefined","1","0","77","77","77","0","77","77","77","NA","77","77","0","77","NA","77","77","0","77","NA","77","NA","77","0","0","77","77","0","77","77","78","/","11/05/17 12:41:00","The main experiment item","yes","FIN__BA__M21__7%3A10%3A17.osexp","C:\Users\ERP Testing Room\Desktop\Joanna\morph21","no","mono","no","18","no","white","no","yes","1080","legacy","77","77","C:/Users/ERP Testing Room/Desktop/Joanna/morph21/subject-115.csv","xpyriment","Jazzy James","3.1.4","0","/","space","NA","NA","NA","space","/","665","35971","NA","NA","NA","213980","665","2","legacy","1024","2","48000","-16","BA_m21","115","odd","CW_L","STRIKER","1356","536940","533832","535432","215346","490311","NA","NA","NA","535427","534329","NA","533332","NA","533321","535427","1365","537190","NA","NA","534432","1356","1357","534832","533321","1356","534432","537190","morph21_Oliver/Morris","66","58767","78","yes","1280","17"
"350","84.8101265823","84.8101265823","754.012658228","754.012658228","black","no","xpyriment","legacy","legacy","0","206","NA","uniform","67260","1000","0.0148676776687","1","undefined","1","0","78","78","78","0","78","78","78","NA","78","78","0","78","NA","78","78","0","78","NA","78","NA","78","0","0","78","78","0","78","78","79","z","11/05/17 12:41:00","The main experiment item","yes","FIN__BA__M21__7%3A10%3A17.osexp","C:\Users\ERP Testing Room\Desktop\Joanna\morph21","no","mono","no","18","no","white","no","yes","1080","legacy","78","78","C:/Users/ERP Testing Room/Desktop/Joanna/morph21/subject-115.csv","xpyriment","Jazzy James","3.1.4","0","z","space","NA","NA","NA","space","z","800","35971","NA","NA","NA","213980","800","2","legacy","1024","2","48000","-16","BA_m21","115","odd","NW_L_SIMP","CRITICANCE","1356","540058","538474","535432","215346","490311","NA","NA","NA","540049","538971","NA","537973","NA","537966","540049","1365","540408","NA","NA","539058","1356","1357","539450","537966","1356","539058","540408","morph21_Oliver/Morris","67","59567","79","yes","1280","22"
"400","85","85","753.3375","753.3375","black","no","xpyriment","legacy","legacy","0","208","NA","uniform","74520","1000","0.0134192163178","1","undefined","1","0","79","79","79","0","79","79","79","NA","79","79","0","79","NA","79","79","0","79","NA","79","NA","79","0","0","79","79","0","79","79","80","z","11/05/17 12:41:00","The main experiment item","yes","FIN__BA__M21__7%3A10%3A17.osexp","C:\Users\ERP Testing Room\Desktop\Joanna\morph21","no","mono","no","18","no","white","no","yes","1080","legacy","79","79","C:/Users/ERP Testing Room/Desktop/Joanna/morph21/subject-115.csv","xpyriment","Jazzy James","3.1.4","0","z","space","NA","NA","NA","space","z","700","35971","NA","NA","NA","213980","700","2","legacy","1024","2","48000","-16","BA_m21","115","odd","FILL_NW","GIKE","1356","543350","541766","535432","215346","490311","NA","NA","NA","543343","542263","NA","541266","NA","541258","543343","1365","543750","NA","NA","542350","1356","1357","542741","541258","1356","542350","543750","morph21_Oliver/Morris","68","60267","80","yes","1280","24"
"400","85.1851851852","85.1851851852","752.975308642","752.975308642","black","no","xpyriment","legacy","legacy","0","202","NA","uniform","64400","1000","0.0155279503106","1","undefined","1","0","80","80","80","0","80","80","80","NA","80","80","0","80","NA","80","80","0","80","NA","80","NA","80","0","0","80","80","0","80","80","81","/","11/05/17 12:41:00","The main experiment item","yes","FIN__BA__M21__7%3A10%3A17.osexp","C:\Users\ERP Testing Room\Desktop\Joanna\morph21","no","mono","no","18","no","white","no","yes","1080","legacy","80","80","C:/Users/ERP Testing Room/Desktop/Joanna/morph21/subject-115.csv","xpyriment","Jazzy James","3.1.4","0","/","space","NA","NA","NA","space","/","724","35971","NA","NA","NA","213980","724","2","legacy","1024","2","48000","-16","BA_m21","115","odd","CW_L","STYLISH","1356","548067","544975","546558","215346","490311","NA","NA","NA","546553","545472","NA","544475","NA","544469","546553","1365","548467","NA","NA","545558","1356","1357","545958","544468","1356","545558","548467","morph21_Oliver/Morris","69","60991","81","yes","1280","29"
"300","85.3658536585","85.3658536585","753.219512195","753.219512195","black","no","xpyriment","legacy","legacy","0","207","NA","uniform","69488","1000","0.0143909739811","1","undefined","1","0","81","81","81","0","81","81","81","NA","81","81","0","81","NA","81","81","0","81","NA","81","NA","81","0","0","81","81","0","81","81","82","/","11/05/17 12:41:00","The main experiment item","yes","FIN__BA__M21__7%3A10%3A17.osexp","C:\Users\ERP Testing Room\Desktop\Joanna\morph21","no","mono","no","18","no","white","no","yes","1080","legacy","81","81","C:/Users/ERP Testing Room/Desktop/Joanna/morph21/subject-115.csv","xpyriment","Jazzy James","3.1.4","0","/","space","NA","NA","NA","space","/","773","35971","NA","NA","NA","213980","773","2","legacy","1024","2","48000","-16","BA_m21","115","odd","FILL_W","BALD","1356","551308","549708","546558","215346","490311","NA","NA","NA","551304","550206","NA","549208","NA","549205","551304","1365","551608","NA","NA","550308","1356","1357","550708","549205","1356","550308","551608","morph21_Oliver/Morris","70","61764","82","yes","1280","3"
"250","85.5421686747","85.5421686747","754.337349398","754.337349398","black","no","xpyriment","legacy","legacy","0","204","NA","uniform","56847","1000","0.0175910778053","1","undefined","1","0","82","82","82","0","82","82","82","NA","82","82","0","82","NA","82","82","0","82","NA","82","NA","82","0","0","82","82","0","82","82","83","z","11/05/17 12:41:00","The main experiment item","yes","FIN__BA__M21__7%3A10%3A17.osexp","C:\Users\ERP Testing Room\Desktop\Joanna\morph21","no","mono","no","18","no","white","no","yes","1080","legacy","82","82","C:/Users/ERP Testing Room/Desktop/Joanna/morph21/subject-115.csv","xpyriment","Jazzy James","3.1.4","0","z","space","NA","NA","NA","space","z","846","35971","NA","NA","NA","213980","846","2","legacy","1024","2","48000","-16","BA_m21","115","odd","NW_L_COMP","FREENELS","1356","554475","552883","546558","215346","490311","NA","NA","NA","554469","553381","NA","552384","NA","552373","554469","1365","554725","NA","NA","553475","1356","1357","553867","552373","1356","553475","554725","morph21_Oliver/Morris","71","62610","83","yes","1280","15"
"400","84.5238095238","84.5238095238","753.535714286","753.535714286","black","no","xpyriment","legacy","legacy","0","205","NA","uniform","71821","1000","0.0139235042676","0","undefined","0","0","83","83","83","0","83","83","83","NA","83","83","0","83","NA","83","83","0","83","NA","83","NA","83","0","0","83","83","0","83","83","84","z","11/05/17 12:41:00","The main experiment item","yes","FIN__BA__M21__7%3A10%3A17.osexp","C:\Users\ERP Testing Room\Desktop\Joanna\morph21","no","mono","no","18","no","white","no","yes","1080","legacy","83","83","C:/Users/ERP Testing Room/Desktop/Joanna/morph21/subject-115.csv","xpyriment","Jazzy James","3.1.4","0","/","space","NA","NA","NA","space","/","687","35971","NA","NA","NA","213980","687","2","legacy","1024","2","48000","-16","BA_m21","115","odd","NW_S_SIMP","AIDIC","1356","559151","556051","557643","215346","490311","NA","NA","NA","554469","556549","NA","555550","NA","555543","557640","1365","559552","NA","NA","556651","1356","1357","557043","555543","1356","556651","559552","morph21_Oliver/Morris","71","63297","84","yes","1280","4"
"250","84.7058823529","84.7058823529","755.152941176","755.152941176","black","no","xpyriment","legacy","legacy","0","205","NA","uniform","68531","1000","0.0145919364959","1","undefined","1","0","84","84","84","0","84","84","84","NA","84","84","0","84","NA","84","84","0","84","NA","84","NA","84","0","0","84","84","0","84","84","85","z","11/05/17 12:41:00","The main experiment item","yes","FIN__BA__M21__7%3A10%3A17.osexp","C:\Users\ERP Testing Room\Desktop\Joanna\morph21","no","mono","no","18","no","white","no","yes","1080","legacy","84","84","C:/Users/ERP Testing Room/Desktop/Joanna/morph21/subject-115.csv","xpyriment","Jazzy James","3.1.4","0","z","space","NA","NA","NA","space","z","891","35971","NA","NA","NA","213980","891","2","legacy","1024","2","48000","-16","BA_m21","115","odd","NW_S_SIMP","DIGORY","1356","562335","560735","557643","215346","490311","NA","NA","NA","562329","561232","NA","560235","NA","560227","562329","1365","562585","NA","NA","561335","1356","1357","561727","560227","1356","561335","562585","morph21_Oliver/Morris","72","64188","85","yes","1280","11"
"350","84.8837209302","84.8837209302","756.511627907","756.511627907","black","no","xpyriment","legacy","legacy","0","203","NA","uniform","64502","1000","0.0155033952436","1","undefined","1","0","85","85","85","0","85","85","85","NA","85","85","0","85","NA","85","85","0","85","NA","85","NA","85","0","0","85","85","0","85","85","86","z","11/05/17 12:41:00","The main experiment item","yes","FIN__BA__M21__7%3A10%3A17.osexp","C:\Users\ERP Testing Room\Desktop\Joanna\morph21","no","mono","no","18","no","white","no","yes","1080","legacy","85","85","C:/Users/ERP Testing Room/Desktop/Joanna/morph21/subject-115.csv","xpyriment","Jazzy James","3.1.4","0","z","space","NA","NA","NA","space","z","872","35971","NA","NA","NA","213980","872","2","legacy","1024","2","48000","-16","BA_m21","115","odd","NW_S_COMP","EJECTENGE","1356","565402","563818","557643","215346","490311","NA","NA","NA","565394","564315","NA","563318","NA","563307","565394","1365","565752","NA","NA","564402","1356","1357","564793","563307","1356","564402","565752","morph21_Oliver/Morris","73","65060","86","yes","1280","20"
"200","85.0574712644","85.0574712644","756.413793103","756.413793103","black","no","xpyriment","legacy","legacy","0","207","NA","uniform","62380","1000","0.0160307790959","1","undefined","1","0","86","86","86","0","86","86","86","NA","86","86","0","86","NA","86","86","0","86","NA","86","NA","86","0","0","86","86","0","86","86","87","/","11/05/17 12:41:00","The main experiment item","yes","FIN__BA__M21__7%3A10%3A17.osexp","C:\Users\ERP Testing Room\Desktop\Joanna\morph21","no","mono","no","18","no","white","no","yes","1080","legacy","86","86","C:/Users/ERP Testing Room/Desktop/Joanna/morph21/subject-115.csv","xpyriment","Jazzy James","3.1.4","0","/","space","NA","NA","NA","space","/","748","35971","NA","NA","NA","213980","748","2","legacy","1024","2","48000","-16","BA_m21","115","odd","FILL_W","GOLF","1356","570185","567077","568677","215346","490311","NA","NA","NA","568674","567574","NA","566577","NA","566568","568674","1365","570386","NA","NA","567685","1356","1357","568077","566568","1356","567685","570386","morph21_Oliver/Morris","74","65808","87","yes","1280","28"
"350","85.2272727273","85.2272727273","757.897727273","757.897727273","black","no","xpyriment","legacy","legacy","0","207","NA","uniform","61305","1000","0.0163118832069","1","undefined","1","0","87","87","87","0","87","87","87","NA","87","87","0","87","NA","87","87","0","87","NA","87","NA","87","0","0","87","87","0","87","87","88","/","11/05/17 12:41:00","The main experiment item","yes","FIN__BA__M21__7%3A10%3A17.osexp","C:\Users\ERP Testing Room\Desktop\Joanna\morph21","no","mono","no","18","no","white","no","yes","1080","legacy","87","87","C:/Users/ERP Testing Room/Desktop/Joanna/morph21/subject-115.csv","xpyriment","Jazzy James","3.1.4","0","/","space","NA","NA","NA","space","/","887","35971","NA","NA","NA","213980","887","2","legacy","1024","2","48000","-16","BA_m21","115","odd","FILL_W","LIFT","1356","573202","571619","568677","215346","490311","NA","NA","NA","573194","572116","NA","571119","NA","571108","573194","1365","573552","NA","NA","572202","1356","1357","572594","571108","1356","572202","573552","morph21_Oliver/Morris","75","66695","88","yes","1280","39"
"400","85.393258427","85.393258427","758.674157303","758.674157303","black","no","xpyriment","legacy","legacy","0","202","NA","uniform","61422","1000","0.0162808114356","1","undefined","1","0","88","88","88","0","88","88","88","NA","88","88","0","88","NA","88","88","0","88","NA","88","NA","88","0","0","88","88","0","88","88","89","/","11/05/17 12:41:00","The main experiment item","yes","FIN__BA__M21__7%3A10%3A17.osexp","C:\Users\ERP Testing Room\Desktop\Joanna\morph21","no","mono","no","18","no","white","no","yes","1080","legacy","88","88","C:/Users/ERP Testing Room/Desktop/Joanna/morph21/subject-115.csv","xpyriment","Jazzy James","3.1.4","0","/","space","NA","NA","NA","space","/","827","35971","NA","NA","NA","213980","827","2","legacy","1024","2","48000","-16","BA_m21","115","odd","CW_L","CLEANER","1356","576295","574695","568677","215346","490311","NA","NA","NA","576292","575192","NA","574195","NA","574184","576292","1365","576695","NA","NA","575303","1356","1357","575695","574184","1356","575303","576695","morph21_Oliver/Morris","76","67522","89","yes","1280","15"
"250","85.5555555556","85.5555555556","757.766666667","757.766666667","black","no","xpyriment","legacy","legacy","0","201","NA","uniform","62763","1000","0.015932954129","1","undefined","1","0","89","89","89","0","89","89","89","NA","89","89","0","89","NA","89","89","0","89","NA","89","NA","89","0","0","89","89","0","89","89","90","/","11/05/17 12:41:00","The main experiment item","yes","FIN__BA__M21__7%3A10%3A17.osexp","C:\Users\ERP Testing Room\Desktop\Joanna\morph21","no","mono","no","18","no","white","no","yes","1080","legacy","89","89","C:/Users/ERP Testing Room/Desktop/Joanna/morph21/subject-115.csv","xpyriment","Jazzy James","3.1.4","0","/","space","NA","NA","NA","space","/","677","35971","NA","NA","NA","213980","677","2","legacy","1024","2","48000","-16","BA_m21","115","odd","CW_S","TUTORING","1356","580962","577845","579453","215346","490311","NA","NA","NA","579443","578342","NA","577345","NA","577339","579443","1365","581212","NA","NA","578453","1356","1357","578845","577339","1356","578453","581212","morph21_Oliver/Morris","77","68199","90","yes","1280","27"
"400","85.7142857143","85.7142857143","759.054945055","759.054945055","black","no","xpyriment","legacy","legacy","0","208","NA","uniform","56129","1000","0.0178161021932","1","undefined","1","0","90","90","90","0","90","90","90","NA","90","90","0","90","NA","90","90","0","90","NA","90","NA","90","0","0","90","90","0","90","90","91","z","11/05/17 12:41:00","The main experiment item","yes","FIN__BA__M21__7%3A10%3A17.osexp","C:\Users\ERP Testing Room\Desktop\Joanna\morph21","no","mono","no","18","no","white","no","yes","1080","legacy","90","90","C:/Users/ERP Testing Room/Desktop/Joanna/morph21/subject-115.csv","xpyriment","Jazzy James","3.1.4","0","z","space","NA","NA","NA","space","z","875","35971","NA","NA","NA","213980","875","2","legacy","1024","2","48000","-16","BA_m21","115","odd","FILL_NW","DROES","1356","584070","582470","579453","215346","490311","NA","NA","NA","584068","582967","NA","581970","NA","581964","584068","1365","584470","NA","NA","583079","1356","1357","583470","581964","1356","583078","584470","morph21_Oliver/Morris","78","69074","91","yes","1280","17"
