"ITI","acc","accuracy","average_response_time","avg_rt","background","bidi","canvas_backend","clock_backend","color_backend","compensation","cond_trig","condtrigtime","coordinates","coroutines_cycles","coroutines_duration","coroutines_mean_cycle_duration","correct","correct_instructions_1","correct_new_keyboard_response_1","count_BA_m21","count_ITI","count_blank_screen","count_blink_screen","count_block1","count_break1","count_break2","count_break3_1","count_canvas","count_correct_trigger","count_def_chain","count_end_screen","count_fixation_1","count_getting_started","count_inc_counter","count_incorrect_trigger","count_instructions_1","count_logger","count_logscript","count_new_coroutines","count_new_inline_script","count_new_keyboard_response_1","count_reset_counter_prep","count_reset_counter_run","count_responsescreen","count_sequence","count_start_trigger","count_target_present","count_word_trigger","counter","cresp","datetime","description","disable_garbage_collection","experiment_file","experiment_path","font_bold","font_family","font_italic","font_size","font_underline","foreground","form_clicks","fullscreen","height","keyboard_backend","live_row","live_row_block1","logfile","mouse_backend","opensesame_codename","opensesame_version","repeat_cycle","response","response_break1","response_break2","response_break3_1","response_end_screen","response_instructions_1","response_new_keyboard_response_1","response_time","response_time_break1","response_time_break2","response_time_break3_1","response_time_end_screen","response_time_instructions_1","response_time_new_keyboard_response_1","round_decimals","sampler_backend","sound_buf_size","sound_channels","sound_freq","sound_sample_size","start","subject_nr","subject_parity","targ_type","target","time_BA_m21","time_ITI","time_blank_screen","time_blink_screen","time_block1","time_break1","time_break2","time_break3_1","time_canvas","time_correct_trigger","time_def_chain","time_end_screen","time_fixation_1","time_getting_started","time_inc_counter","time_incorrect_trigger","time_instructions_1","time_logger","time_logscript","time_new_inline_script","time_new_keyboard_response_1","time_reset_counter_prep","time_reset_counter_run","time_responsescreen","time_sequence","time_start_trigger","time_target_present","time_word_trigger","title","total_correct","total_response_time","total_responses","uniform_coordinates","width","word_trig"
"300","0","0","927","927","black","no","xpyriment","legacy","legacy","0","206","NA","uniform","55350","1000","0.0180668473351","0","undefined","0","0","0","0","0","0","0","0","0","NA","0","0","0","0","NA","0","0","0","0","NA","0","NA","0","0","0","0","0","0","0","0","1","z","10/09/17 18:18:05","The main experiment item","yes","FIN__BA__M21__7%3A10%3A17.osexp","C:\Users\ERP Testing Room\Desktop\Joanna\morph21","no","mono","no","18","no","white","no","yes","1080","legacy","0","0","C:/Users/ERP Testing Room/Desktop/Joanna/morph21/subject-109.csv","xpyriment","Jazzy James","3.1.4","0","/","NA","NA","NA","NA","space","/","927","NA","NA","NA","NA","243360","927","2","legacy","1024","2","48000","-16","BA_m21","109","odd","NW_L_SIMP","BEANISH","1361","247667","246075","NA","244730","NA","NA","NA","NA","NA","246572","NA","245570","NA","245491","247663","1369","247967","NA","NA","246667","1361","1361","247067","245491","1361","246667","247967","morph21_Oliver/Morris","0","927","1","yes","1280","8"
"350","50","50","803","803","black","no","xpyriment","legacy","legacy","0","207","NA","uniform","65355","1000","0.0153010481218","1","undefined","1","0","1","1","1","0","1","1","1","NA","1","1","0","1","NA","1","1","0","1","NA","1","NA","1","0","0","1","1","0","1","1","2","/","10/09/17 18:18:05","The main experiment item","yes","FIN__BA__M21__7%3A10%3A17.osexp","C:\Users\ERP Testing Room\Desktop\Joanna\morph21","no","mono","no","18","no","white","no","yes","1080","legacy","1","1","C:/Users/ERP Testing Room/Desktop/Joanna/morph21/subject-109.csv","xpyriment","Jazzy James","3.1.4","0","/","NA","NA","NA","NA","space","/","679","NA","NA","NA","NA","243360","679","2","legacy","1024","2","48000","-16","BA_m21","109","odd","FILL_W","FOLLOW","1361","250859","249275","NA","244730","NA","NA","NA","NA","250850","249772","NA","248775","NA","248770","250850","1369","251209","NA","NA","249859","1361","1361","250250","248770","1361","249859","251209","morph21_Oliver/Morris","1","1606","2","yes","1280","17"
"400","33.3333333333","33.3333333333","866.666666667","866.666666667","black","no","xpyriment","legacy","legacy","0","205","NA","uniform","55700","1000","0.0179533213645","0","undefined","0","0","2","2","2","0","2","2","2","NA","2","2","0","2","NA","2","2","0","2","NA","2","NA","2","0","0","2","2","0","2","2","3","z","10/09/17 18:18:05","The main experiment item","yes","FIN__BA__M21__7%3A10%3A17.osexp","C:\Users\ERP Testing Room\Desktop\Joanna\morph21","no","mono","no","18","no","white","no","yes","1080","legacy","2","2","C:/Users/ERP Testing Room/Desktop/Joanna/morph21/subject-109.csv","xpyriment","Jazzy James","3.1.4","0","None","NA","NA","NA","NA","space","None","994","NA","NA","NA","NA","243360","994","2","legacy","1024","2","48000","-16","BA_m21","109","odd","NW_S_SIMP","ADVERTISELY","1361","255584","252467","254076","244730","NA","NA","NA","NA","250850","252964","NA","251967","NA","251959","254070","1369","255984","NA","NA","253076","1361","1361","253467","251958","1361","253076","255984","morph21_Oliver/Morris","1","2600","3","yes","1280","25"
"250","50","50","791.25","791.25","black","no","xpyriment","legacy","legacy","0","201","NA","uniform","66859","1000","0.0149568494892","1","undefined","1","0","3","3","3","0","3","3","3","NA","3","3","0","3","NA","3","3","0","3","NA","3","NA","3","0","0","3","3","0","3","3","4","/","10/09/17 18:18:05","The main experiment item","yes","FIN__BA__M21__7%3A10%3A17.osexp","C:\Users\ERP Testing Room\Desktop\Joanna\morph21","no","mono","no","18","no","white","no","yes","1080","legacy","3","3","C:/Users/ERP Testing Room/Desktop/Joanna/morph21/subject-109.csv","xpyriment","Jazzy James","3.1.4","0","/","NA","NA","NA","NA","space","/","565","NA","NA","NA","NA","243360","565","2","legacy","1024","2","48000","-16","BA_m21","109","odd","CW_S","PEAKING","1361","258876","257267","254076","244730","NA","NA","NA","NA","258870","257764","NA","256767","NA","256762","258870","1369","259126","NA","NA","257876","1361","1361","258267","256762","1361","257876","259126","morph21_Oliver/Morris","2","3165","4","yes","1280","28"
"400","60","60","811.8","811.8","black","no","xpyriment","legacy","legacy","0","204","NA","uniform","54272","1000","0.0184257075472","1","undefined","1","0","4","4","4","0","4","4","4","NA","4","4","0","4","NA","4","4","0","4","NA","4","NA","4","0","0","4","4","0","4","4","5","z","10/09/17 18:18:05","The main experiment item","yes","FIN__BA__M21__7%3A10%3A17.osexp","C:\Users\ERP Testing Room\Desktop\Joanna\morph21","no","mono","no","18","no","white","no","yes","1080","legacy","4","4","C:/Users/ERP Testing Room/Desktop/Joanna/morph21/subject-109.csv","xpyriment","Jazzy James","3.1.4","0","z","NA","NA","NA","NA","space","z","894","NA","NA","NA","NA","243360","894","2","legacy","1024","2","48000","-16","BA_m21","109","odd","NW_L_COMP","RIPENGE","1361","262043","260459","254076","244730","NA","NA","NA","NA","262035","260956","NA","259959","NA","259953","262035","1369","262443","NA","NA","261043","1361","1361","261434","259953","1361","261043","262443","morph21_Oliver/Morris","3","4059","5","yes","1280","4"
"400","66.6666666667","66.6666666667","785","785","black","no","xpyriment","legacy","legacy","0","202","NA","uniform","62342","1000","0.0160405505117","1","undefined","1","0","5","5","5","0","5","5","5","NA","5","5","0","5","NA","5","5","0","5","NA","5","NA","5","0","0","5","5","0","5","5","6","/","10/09/17 18:18:05","The main experiment item","yes","FIN__BA__M21__7%3A10%3A17.osexp","C:\Users\ERP Testing Room\Desktop\Joanna\morph21","no","mono","no","18","no","white","no","yes","1080","legacy","5","5","C:/Users/ERP Testing Room/Desktop/Joanna/morph21/subject-109.csv","xpyriment","Jazzy James","3.1.4","0","/","NA","NA","NA","NA","space","/","651","NA","NA","NA","NA","243360","651","2","legacy","1024","2","48000","-16","BA_m21","109","odd","CW_L","BLINDNESS","1361","267036","263910","265527","244730","NA","NA","NA","NA","265520","264408","NA","263410","NA","263402","265520","1369","267436","NA","NA","264527","1361","1361","264919","263402","1361","264527","267436","morph21_Oliver/Morris","4","4710","6","yes","1280","40"
"350","71.4285714286","71.4285714286","794.285714286","794.285714286","black","no","xpyriment","legacy","legacy","0","204","NA","uniform","57914","1000","0.0172669820769","1","undefined","1","0","6","6","6","0","6","6","6","NA","6","6","0","6","NA","6","6","0","6","NA","6","NA","6","0","0","6","6","0","6","6","7","z","10/09/17 18:18:05","The main experiment item","yes","FIN__BA__M21__7%3A10%3A17.osexp","C:\Users\ERP Testing Room\Desktop\Joanna\morph21","no","mono","no","18","no","white","no","yes","1080","legacy","6","6","C:/Users/ERP Testing Room/Desktop/Joanna/morph21/subject-109.csv","xpyriment","Jazzy James","3.1.4","0","z","NA","NA","NA","NA","space","z","850","NA","NA","NA","NA","243360","850","2","legacy","1024","2","48000","-16","BA_m21","109","odd","NW_L_COMP","INKILM","1361","270327","268711","265527","244730","NA","NA","NA","NA","270323","269208","NA","268211","NA","268202","270323","1369","270677","NA","NA","269327","1361","1361","269727","268202","1361","269327","270677","morph21_Oliver/Morris","5","5560","7","yes","1280","8"
"300","75","75","809.875","809.875","black","no","xpyriment","legacy","legacy","0","205","NA","uniform","52808","1000","0.018936524769","1","undefined","1","0","7","7","7","0","7","7","7","NA","7","7","0","7","NA","7","7","0","7","NA","7","NA","7","0","0","7","7","0","7","7","8","z","10/09/17 18:18:05","The main experiment item","yes","FIN__BA__M21__7%3A10%3A17.osexp","C:\Users\ERP Testing Room\Desktop\Joanna\morph21","no","mono","no","18","no","white","no","yes","1080","legacy","7","7","C:/Users/ERP Testing Room/Desktop/Joanna/morph21/subject-109.csv","xpyriment","Jazzy James","3.1.4","0","z","NA","NA","NA","NA","space","z","919","NA","NA","NA","NA","243360","919","2","legacy","1024","2","48000","-16","BA_m21","109","odd","NW_S_SIMP","TILTARY","1361","273602","272011","265527","244730","NA","NA","NA","NA","273596","272508","NA","271502","NA","271495","273596","1369","273903","NA","NA","272602","1361","1361","272994","271495","1361","272602","273903","morph21_Oliver/Morris","6","6479","8","yes","1280","17"
"400","77.7777777778","77.7777777778","825.444444444","825.444444444","black","no","xpyriment","legacy","legacy","0","208","NA","uniform","58368","1000","0.0171326754386","1","undefined","1","0","8","8","8","0","8","8","8","NA","8","8","0","8","NA","8","8","0","8","NA","8","NA","8","0","0","8","8","0","8","8","9","z","10/09/17 18:18:05","The main experiment item","yes","FIN__BA__M21__7%3A10%3A17.osexp","C:\Users\ERP Testing Room\Desktop\Joanna\morph21","no","mono","no","18","no","white","no","yes","1080","legacy","8","8","C:/Users/ERP Testing Room/Desktop/Joanna/morph21/subject-109.csv","xpyriment","Jazzy James","3.1.4","0","z","NA","NA","NA","NA","space","z","950","NA","NA","NA","NA","243360","950","2","legacy","1024","2","48000","-16","BA_m21","109","odd","FILL_NW","FROES","1361","278311","275219","276803","244730","NA","NA","NA","NA","276795","275716","NA","274719","NA","274708","276795","1369","278711","NA","NA","275803","1361","1361","276194","274708","1361","275802","278711","morph21_Oliver/Morris","7","7429","9","yes","1280","21"
"400","80","80","841.8","841.8","black","no","xpyriment","legacy","legacy","0","204","NA","uniform","53470","1000","0.0187020759304","1","undefined","1","0","9","9","9","0","9","9","9","NA","9","9","0","9","NA","9","9","0","9","NA","9","NA","9","0","0","9","9","0","9","9","10","z","10/09/17 18:18:05","The main experiment item","yes","FIN__BA__M21__7%3A10%3A17.osexp","C:\Users\ERP Testing Room\Desktop\Joanna\morph21","no","mono","no","18","no","white","no","yes","1080","legacy","9","9","C:/Users/ERP Testing Room/Desktop/Joanna/morph21/subject-109.csv","xpyriment","Jazzy James","3.1.4","0","z","NA","NA","NA","NA","space","z","989","NA","NA","NA","NA","243360","989","2","legacy","1024","2","48000","-16","BA_m21","109","odd","NW_L_COMP","FLITENGE","1361","281629","280045","276803","244730","NA","NA","NA","NA","281624","280543","NA","279544","NA","279534","281624","1369","282029","NA","NA","280629","1361","1361","281029","279534","1361","280629","282029","morph21_Oliver/Morris","8","8418","10","yes","1280","3"
"200","81.8181818182","81.8181818182","826.454545455","826.454545455","black","no","xpyriment","legacy","legacy","0","207","NA","uniform","60900","1000","0.0164203612479","1","undefined","1","0","10","10","10","0","10","10","10","NA","10","10","0","10","NA","10","10","0","10","NA","10","NA","10","0","0","10","10","0","10","10","11","/","10/09/17 18:18:05","The main experiment item","yes","FIN__BA__M21__7%3A10%3A17.osexp","C:\Users\ERP Testing Room\Desktop\Joanna\morph21","no","mono","no","18","no","white","no","yes","1080","legacy","10","10","C:/Users/ERP Testing Room/Desktop/Joanna/morph21/subject-109.csv","xpyriment","Jazzy James","3.1.4","0","/","NA","NA","NA","NA","space","/","673","NA","NA","NA","NA","243360","673","2","legacy","1024","2","48000","-16","BA_m21","109","odd","FILL_W","WRECK","1361","284937","283329","276803","244730","NA","NA","NA","NA","284933","283826","NA","282821","NA","282815","284933","1369","285137","NA","NA","283937","1361","1361","284337","282815","1361","283937","285137","morph21_Oliver/Morris","9","9091","11","yes","1280","13"
"400","83.3333333333","83.3333333333","799","799","black","no","xpyriment","legacy","legacy","0","201","NA","uniform","62159","1000","0.0160877748999","1","undefined","1","0","11","11","11","0","11","11","11","NA","11","11","0","11","NA","11","11","0","11","NA","11","NA","11","0","0","11","11","0","11","11","12","/","10/09/17 18:18:05","The main experiment item","yes","FIN__BA__M21__7%3A10%3A17.osexp","C:\Users\ERP Testing Room\Desktop\Joanna\morph21","no","mono","no","18","no","white","no","yes","1080","legacy","11","11","C:/Users/ERP Testing Room/Desktop/Joanna/morph21/subject-109.csv","xpyriment","Jazzy James","3.1.4","0","/","NA","NA","NA","NA","space","/","497","NA","NA","NA","NA","243360","497","2","legacy","1024","2","48000","-16","BA_m21","109","odd","CW_S","DESIGN","1361","289604","286487","288096","244730","NA","NA","NA","NA","288092","286985","NA","285987","NA","285976","288092","1369","290004","NA","NA","287104","1361","1361","287496","285976","1361","287104","290004","morph21_Oliver/Morris","10","9588","12","yes","1280","19"
"300","84.6153846154","84.6153846154","800.230769231","800.230769231","black","no","xpyriment","legacy","legacy","0","204","NA","uniform","53600","1000","0.0186567164179","1","undefined","1","0","12","12","12","0","12","12","12","NA","12","12","0","12","NA","12","12","0","12","NA","12","NA","12","0","0","12","12","0","12","12","13","z","10/09/17 18:18:05","The main experiment item","yes","FIN__BA__M21__7%3A10%3A17.osexp","C:\Users\ERP Testing Room\Desktop\Joanna\morph21","no","mono","no","18","no","white","no","yes","1080","legacy","12","12","C:/Users/ERP Testing Room/Desktop/Joanna/morph21/subject-109.csv","xpyriment","Jazzy James","3.1.4","0","z","NA","NA","NA","NA","space","z","815","NA","NA","NA","NA","243360","815","2","legacy","1024","2","48000","-16","BA_m21","109","odd","NW_L_COMP","IME","1361","292954","291338","288096","244730","NA","NA","NA","NA","292949","291835","NA","290838","NA","290831","292949","1369","293254","NA","NA","291954","1361","1361","292354","290831","1361","291954","293254","morph21_Oliver/Morris","11","10403","13","yes","1280","20"
"400","85.7142857143","85.7142857143","795.5","795.5","black","no","xpyriment","legacy","legacy","0","205","NA","uniform","58338","1000","0.017141485824","1","undefined","1","0","13","13","13","0","13","13","13","NA","13","13","0","13","NA","13","13","0","13","NA","13","NA","13","0","0","13","13","0","13","13","14","z","10/09/17 18:18:05","The main experiment item","yes","FIN__BA__M21__7%3A10%3A17.osexp","C:\Users\ERP Testing Room\Desktop\Joanna\morph21","no","mono","no","18","no","white","no","yes","1080","legacy","13","13","C:/Users/ERP Testing Room/Desktop/Joanna/morph21/subject-109.csv","xpyriment","Jazzy James","3.1.4","0","z","NA","NA","NA","NA","space","z","734","NA","NA","NA","NA","243360","734","2","legacy","1024","2","48000","-16","BA_m21","109","odd","NW_S_SIMP","RAMPIZE","1361","296163","294554","288096","244730","NA","NA","NA","NA","296159","295052","NA","294054","NA","294051","296159","1369","296563","NA","NA","295163","1361","1361","295563","294051","1361","295163","296563","morph21_Oliver/Morris","12","11137","14","yes","1280","6"
"400","86.6666666667","86.6666666667","793.533333333","793.533333333","black","no","xpyriment","legacy","legacy","0","206","NA","uniform","52010","1000","0.019227071717","1","undefined","1","0","14","14","14","0","14","14","14","NA","14","14","0","14","NA","14","14","0","14","NA","14","NA","14","0","0","14","14","0","14","14","15","z","10/09/17 18:18:05","The main experiment item","yes","FIN__BA__M21__7%3A10%3A17.osexp","C:\Users\ERP Testing Room\Desktop\Joanna\morph21","no","mono","no","18","no","white","no","yes","1080","legacy","14","14","C:/Users/ERP Testing Room/Desktop/Joanna/morph21/subject-109.csv","xpyriment","Jazzy James","3.1.4","0","z","NA","NA","NA","NA","space","z","766","NA","NA","NA","NA","243360","766","2","legacy","1024","2","48000","-16","BA_m21","109","odd","NW_L_SIMP","BLOODER","1361","301064","297939","299556","244730","NA","NA","NA","NA","299549","298436","NA","297439","NA","297430","299549","1369","301464","NA","NA","298556","1361","1361","298947","297429","1361","298556","301464","morph21_Oliver/Morris","13","11903","15","yes","1280","24"
"350","87.5","87.5","787.25","787.25","black","no","xpyriment","legacy","legacy","0","201","NA","uniform","66233","1000","0.0150982138813","1","undefined","1","0","15","15","15","0","15","15","15","NA","15","15","0","15","NA","15","15","0","15","NA","15","NA","15","0","0","15","15","0","15","15","16","/","10/09/17 18:18:05","The main experiment item","yes","FIN__BA__M21__7%3A10%3A17.osexp","C:\Users\ERP Testing Room\Desktop\Joanna\morph21","no","mono","no","18","no","white","no","yes","1080","legacy","15","15","C:/Users/ERP Testing Room/Desktop/Joanna/morph21/subject-109.csv","xpyriment","Jazzy James","3.1.4","0","/","NA","NA","NA","NA","space","/","693","NA","NA","NA","NA","243360","693","2","legacy","1024","2","48000","-16","BA_m21","109","odd","CW_S","SINGER","1361","304389","302797","299556","244730","NA","NA","NA","NA","304383","303295","NA","302297","NA","302288","304383","1369","304739","NA","NA","303389","1361","1361","303781","302288","1361","303389","304739","morph21_Oliver/Morris","14","12596","16","yes","1280","17"
"350","88.2352941176","88.2352941176","772.705882353","772.705882353","black","no","xpyriment","legacy","legacy","0","207","NA","uniform","63355","1000","0.0157840738695","1","undefined","1","0","16","16","16","0","16","16","16","NA","16","16","0","16","NA","16","16","0","16","NA","16","NA","16","0","0","16","16","0","16","16","17","/","10/09/17 18:18:05","The main experiment item","yes","FIN__BA__M21__7%3A10%3A17.osexp","C:\Users\ERP Testing Room\Desktop\Joanna\morph21","no","mono","no","18","no","white","no","yes","1080","legacy","16","16","C:/Users/ERP Testing Room/Desktop/Joanna/morph21/subject-109.csv","xpyriment","Jazzy James","3.1.4","0","/","NA","NA","NA","NA","space","/","540","NA","NA","NA","NA","243360","540","2","legacy","1024","2","48000","-16","BA_m21","109","odd","FILL_W","LEAK","1361","307781","306173","299556","244730","NA","NA","NA","NA","307772","306670","NA","305673","NA","305665","307772","1369","308131","NA","NA","306781","1361","1361","307173","305665","1361","306781","308131","morph21_Oliver/Morris","15","13136","17","yes","1280","9"
"250","88.8888888889","88.8888888889","760.5","760.5","black","no","xpyriment","legacy","legacy","0","201","NA","uniform","59736","1000","0.0167403240927","1","undefined","1","0","17","17","17","0","17","17","17","NA","17","17","0","17","NA","17","17","0","17","NA","17","NA","17","0","0","17","17","0","17","17","18","/","10/09/17 18:18:05","The main experiment item","yes","FIN__BA__M21__7%3A10%3A17.osexp","C:\Users\ERP Testing Room\Desktop\Joanna\morph21","no","mono","no","18","no","white","no","yes","1080","legacy","17","17","C:/Users/ERP Testing Room/Desktop/Joanna/morph21/subject-109.csv","xpyriment","Jazzy James","3.1.4","0","/","NA","NA","NA","NA","space","/","553","NA","NA","NA","NA","243360","553","2","legacy","1024","2","48000","-16","BA_m21","109","odd","CW_S","SEEKER","1361","312548","309439","311039","244730","NA","NA","NA","NA","311036","309937","NA","308939","NA","308932","311036","1369","312798","NA","NA","310048","1361","1361","310439","308932","1361","310048","312798","morph21_Oliver/Morris","16","13689","18","yes","1280","16"
"300","89.4736842105","89.4736842105","754.789473684","754.789473684","black","no","xpyriment","legacy","legacy","0","202","NA","uniform","61360","1000","0.01629726206","1","undefined","1","0","18","18","18","0","18","18","18","NA","18","18","0","18","NA","18","18","0","18","NA","18","NA","18","0","0","18","18","0","18","18","19","/","10/09/17 18:18:05","The main experiment item","yes","FIN__BA__M21__7%3A10%3A17.osexp","C:\Users\ERP Testing Room\Desktop\Joanna\morph21","no","mono","no","18","no","white","no","yes","1080","legacy","18","18","C:/Users/ERP Testing Room/Desktop/Joanna/morph21/subject-109.csv","xpyriment","Jazzy James","3.1.4","0","/","NA","NA","NA","NA","space","/","652","NA","NA","NA","NA","243360","652","2","legacy","1024","2","48000","-16","BA_m21","109","odd","CW_L","DAMPISH","1361","315599","314015","311039","244730","NA","NA","NA","NA","315593","314512","NA","313515","NA","313504","315593","1369","315899","NA","NA","314598","1361","1361","314991","313504","1361","314598","315899","morph21_Oliver/Morris","17","14341","19","yes","1280","28"
"400","85","85","744.75","744.75","black","no","xpyriment","legacy","legacy","0","208","NA","uniform","64480","1000","0.0155086848635","0","undefined","0","0","19","19","19","0","19","19","19","NA","19","19","0","19","NA","19","19","0","19","NA","19","NA","19","0","0","19","19","0","19","19","20","z","10/09/17 18:18:05","The main experiment item","yes","FIN__BA__M21__7%3A10%3A17.osexp","C:\Users\ERP Testing Room\Desktop\Joanna\morph21","no","mono","no","18","no","white","no","yes","1080","legacy","19","19","C:/Users/ERP Testing Room/Desktop/Joanna/morph21/subject-109.csv","xpyriment","Jazzy James","3.1.4","0","/","NA","NA","NA","NA","space","/","554","NA","NA","NA","NA","243360","554","2","legacy","1024","2","48000","-16","BA_m21","109","odd","FILL_NW","HEND","1361","318832","317241","311039","244730","NA","NA","NA","NA","315593","317738","NA","316741","NA","316736","318823","1369","319233","NA","NA","317832","1361","1361","318224","316736","1361","317832","319233","morph21_Oliver/Morris","17","14895","20","yes","1280","28"
"250","85.7142857143","85.7142857143","750.952380952","750.952380952","black","no","xpyriment","legacy","legacy","0","201","NA","uniform","60158","1000","0.0166228930483","1","undefined","1","0","20","20","20","0","20","20","20","NA","20","20","0","20","NA","20","20","0","20","NA","20","NA","20","0","0","20","20","0","20","20","21","/","10/09/17 18:18:05","The main experiment item","yes","FIN__BA__M21__7%3A10%3A17.osexp","C:\Users\ERP Testing Room\Desktop\Joanna\morph21","no","mono","no","18","no","white","no","yes","1080","legacy","20","20","C:/Users/ERP Testing Room/Desktop/Joanna/morph21/subject-109.csv","xpyriment","Jazzy James","3.1.4","0","/","NA","NA","NA","NA","space","/","875","NA","NA","NA","NA","243360","875","2","legacy","1024","2","48000","-16","BA_m21","109","odd","CW_S","COSTLY","1361","323708","320591","322199","244730","NA","NA","NA","NA","322189","321088","NA","320091","NA","320086","322189","1369","323958","NA","NA","321199","1361","1361","321591","320086","1361","321199","323958","morph21_Oliver/Morris","18","15770","21","yes","1280","36"
"250","86.3636363636","86.3636363636","755.318181818","755.318181818","black","no","xpyriment","legacy","legacy","0","205","NA","uniform","56060","1000","0.0178380306814","1","undefined","1","0","21","21","21","0","21","21","21","NA","21","21","0","21","NA","21","21","0","21","NA","21","NA","21","0","0","21","21","0","21","21","22","z","10/09/17 18:18:05","The main experiment item","yes","FIN__BA__M21__7%3A10%3A17.osexp","C:\Users\ERP Testing Room\Desktop\Joanna\morph21","no","mono","no","18","no","white","no","yes","1080","legacy","21","21","C:/Users/ERP Testing Room/Desktop/Joanna/morph21/subject-109.csv","xpyriment","Jazzy James","3.1.4","0","z","NA","NA","NA","NA","space","z","847","NA","NA","NA","NA","243360","847","2","legacy","1024","2","48000","-16","BA_m21","109","odd","NW_S_SIMP","DIGORY","1361","326866","325283","322199","244730","NA","NA","NA","NA","326863","325780","NA","324775","NA","324768","326863","1369","327116","NA","NA","325866","1361","1361","326266","324768","1361","325866","327116","morph21_Oliver/Morris","19","16617","22","yes","1280","11"
"400","86.9565217391","86.9565217391","747.739130435","747.739130435","black","no","xpyriment","legacy","legacy","0","202","NA","uniform","63112","1000","0.0158448472557","1","undefined","1","0","22","22","22","0","22","22","22","NA","22","22","0","22","NA","22","22","0","22","NA","22","NA","22","0","0","22","22","0","22","22","23","/","10/09/17 18:18:05","The main experiment item","yes","FIN__BA__M21__7%3A10%3A17.osexp","C:\Users\ERP Testing Room\Desktop\Joanna\morph21","no","mono","no","18","no","white","no","yes","1080","legacy","22","22","C:/Users/ERP Testing Room/Desktop/Joanna/morph21/subject-109.csv","xpyriment","Jazzy James","3.1.4","0","/","NA","NA","NA","NA","space","/","581","NA","NA","NA","NA","243360","581","2","legacy","1024","2","48000","-16","BA_m21","109","odd","CW_L","WRONGLY","1361","329900","328308","322199","244730","NA","NA","NA","NA","329892","328805","NA","327808","NA","327804","329892","1369","330300","NA","NA","328900","1361","1361","329291","327803","1361","328900","330300","morph21_Oliver/Morris","20","17198","23","yes","1280","37"
"250","87.5","87.5","738.666666667","738.666666667","black","no","xpyriment","legacy","legacy","0","207","NA","uniform","67105","1000","0.0149020192236","1","undefined","1","0","23","23","23","0","23","23","23","NA","23","23","0","23","NA","23","23","0","23","NA","23","NA","23","0","0","23","23","0","23","23","24","/","10/09/17 18:18:05","The main experiment item","yes","FIN__BA__M21__7%3A10%3A17.osexp","C:\Users\ERP Testing Room\Desktop\Joanna\morph21","no","mono","no","18","no","white","no","yes","1080","legacy","23","23","C:/Users/ERP Testing Room/Desktop/Joanna/morph21/subject-109.csv","xpyriment","Jazzy James","3.1.4","0","/","NA","NA","NA","NA","space","/","530","NA","NA","NA","NA","243360","530","2","legacy","1024","2","48000","-16","BA_m21","109","odd","FILL_W","TASTE","1361","334884","331750","333376","244730","NA","NA","NA","NA","333371","332247","NA","331250","NA","331243","333371","1369","335135","NA","NA","332376","1361","1361","332776","331243","1361","332376","335135","morph21_Oliver/Morris","21","17728","24","yes","1280","34"
"350","88","88","736.8","736.8","black","no","xpyriment","legacy","legacy","0","201","NA","uniform","56642","1000","0.0176547438297","1","undefined","1","0","24","24","24","0","24","24","24","NA","24","24","0","24","NA","24","24","0","24","NA","24","NA","24","0","0","24","24","0","24","24","25","/","10/09/17 18:18:05","The main experiment item","yes","FIN__BA__M21__7%3A10%3A17.osexp","C:\Users\ERP Testing Room\Desktop\Joanna\morph21","no","mono","no","18","no","white","no","yes","1080","legacy","24","24","C:/Users/ERP Testing Room/Desktop/Joanna/morph21/subject-109.csv","xpyriment","Jazzy James","3.1.4","0","/","NA","NA","NA","NA","space","/","692","NA","NA","NA","NA","243360","692","2","legacy","1024","2","48000","-16","BA_m21","109","odd","CW_S","STRANGENESS","1361","337934","336334","333376","244730","NA","NA","NA","NA","337927","336831","NA","335834","NA","335825","337927","1369","338284","NA","NA","336934","1361","1361","337326","335825","1361","336934","338284","morph21_Oliver/Morris","22","18420","25","yes","1280","46"
"250","88.4615384615","88.4615384615","733.346153846","733.346153846","black","no","xpyriment","legacy","legacy","0","203","NA","uniform","59397","1000","0.0168358671313","1","undefined","1","0","25","25","25","0","25","25","25","NA","25","25","0","25","NA","25","25","0","25","NA","25","NA","25","0","0","25","25","0","25","25","26","z","10/09/17 18:18:05","The main experiment item","yes","FIN__BA__M21__7%3A10%3A17.osexp","C:\Users\ERP Testing Room\Desktop\Joanna\morph21","no","mono","no","18","no","white","no","yes","1080","legacy","25","25","C:/Users/ERP Testing Room/Desktop/Joanna/morph21/subject-109.csv","xpyriment","Jazzy James","3.1.4","0","z","NA","NA","NA","NA","space","z","647","NA","NA","NA","NA","243360","647","2","legacy","1024","2","48000","-16","BA_m21","109","odd","NW_S_COMP","BRANCHEL","1361","341218","339601","333376","244730","NA","NA","NA","NA","341213","340098","NA","339101","NA","339093","341213","1369","341468","NA","NA","340218","1361","1361","340618","339093","1361","340218","341468","morph21_Oliver/Morris","23","19067","26","yes","1280","16"
"250","88.8888888889","88.8888888889","735.333333333","735.333333333","black","no","xpyriment","legacy","legacy","0","202","NA","uniform","52776","1000","0.0189480066697","1","undefined","1","0","26","26","26","0","26","26","26","NA","26","26","0","26","NA","26","26","0","26","NA","26","NA","26","0","0","26","26","0","26","26","27","/","10/09/17 18:18:05","The main experiment item","yes","FIN__BA__M21__7%3A10%3A17.osexp","C:\Users\ERP Testing Room\Desktop\Joanna\morph21","no","mono","no","18","no","white","no","yes","1080","legacy","26","26","C:/Users/ERP Testing Room/Desktop/Joanna/morph21/subject-109.csv","xpyriment","Jazzy James","3.1.4","0","/","NA","NA","NA","NA","space","/","787","NA","NA","NA","NA","243360","787","2","legacy","1024","2","48000","-16","BA_m21","109","odd","CW_L","EXCITEMENT","1361","345818","342668","344310","244730","NA","NA","NA","NA","344300","343165","NA","342168","NA","342159","344300","1369","346068","NA","NA","343310","1361","1361","343701","342159","1361","343310","346068","morph21_Oliver/Morris","24","19854","27","yes","1280","38"
"250","89.2857142857","89.2857142857","733.607142857","733.607142857","black","no","xpyriment","legacy","legacy","0","207","NA","uniform","53975","1000","0.0185270958777","1","undefined","1","0","27","27","27","0","27","27","27","NA","27","27","0","27","NA","27","27","0","27","NA","27","NA","27","0","0","27","27","0","27","27","28","/","10/09/17 18:18:05","The main experiment item","yes","FIN__BA__M21__7%3A10%3A17.osexp","C:\Users\ERP Testing Room\Desktop\Joanna\morph21","no","mono","no","18","no","white","no","yes","1080","legacy","27","27","C:/Users/ERP Testing Room/Desktop/Joanna/morph21/subject-109.csv","xpyriment","Jazzy James","3.1.4","0","/","NA","NA","NA","NA","space","/","687","NA","NA","NA","NA","243360","687","2","legacy","1024","2","48000","-16","BA_m21","109","odd","FILL_W","TREAT","1361","349001","347393","344310","244730","NA","NA","NA","NA","348992","347890","NA","346893","NA","346887","348992","1369","349252","NA","NA","348002","1361","1361","348393","346887","1361","348002","349252","morph21_Oliver/Morris","25","20541","28","yes","1280","48"
"350","89.6551724138","89.6551724138","732.344827586","732.344827586","black","no","xpyriment","legacy","legacy","0","201","NA","uniform","57964","1000","0.0172520875026","1","undefined","1","0","28","28","28","0","28","28","28","NA","28","28","0","28","NA","28","28","0","28","NA","28","NA","28","0","0","28","28","0","28","28","29","/","10/09/17 18:18:05","The main experiment item","yes","FIN__BA__M21__7%3A10%3A17.osexp","C:\Users\ERP Testing Room\Desktop\Joanna\morph21","no","mono","no","18","no","white","no","yes","1080","legacy","28","28","C:/Users/ERP Testing Room/Desktop/Joanna/morph21/subject-109.csv","xpyriment","Jazzy James","3.1.4","0","/","NA","NA","NA","NA","space","/","697","NA","NA","NA","NA","243360","697","2","legacy","1024","2","48000","-16","BA_m21","109","odd","CW_S","BOSSY","1361","352153","350536","344310","244730","NA","NA","NA","NA","352145","351033","NA","350036","NA","350025","352145","1369","352503","NA","NA","351153","1361","1361","351544","350025","1361","351153","352503","morph21_Oliver/Morris","26","21238","29","yes","1280","49"
"350","90","90","737.1","737.1","black","no","xpyriment","legacy","legacy","0","203","NA","uniform","55978","1000","0.0178641609204","1","undefined","1","0","29","29","29","0","29","29","29","NA","29","29","0","29","NA","29","29","0","29","NA","29","NA","29","0","0","29","29","0","29","29","30","z","10/09/17 18:18:05","The main experiment item","yes","FIN__BA__M21__7%3A10%3A17.osexp","C:\Users\ERP Testing Room\Desktop\Joanna\morph21","no","mono","no","18","no","white","no","yes","1080","legacy","29","29","C:/Users/ERP Testing Room/Desktop/Joanna/morph21/subject-109.csv","xpyriment","Jazzy James","3.1.4","0","z","NA","NA","NA","NA","space","z","875","NA","NA","NA","NA","243360","875","2","legacy","1024","2","48000","-16","BA_m21","109","odd","NW_S_COMP","HEIGHTENGE","1361","357011","353886","355503","244730","NA","NA","NA","NA","355496","354383","NA","353386","NA","353375","355496","1369","357361","NA","NA","354503","1361","1361","354895","353375","1361","354503","357361","morph21_Oliver/Morris","27","22113","30","yes","1280","18"
"300","90.3225806452","90.3225806452","733.838709677","733.838709677","black","no","xpyriment","legacy","legacy","0","201","NA","uniform","65557","1000","0.0152539011852","1","undefined","1","0","30","30","30","0","30","30","30","NA","30","30","0","30","NA","30","30","0","30","NA","30","NA","30","0","0","30","30","0","30","30","31","/","10/09/17 18:18:05","The main experiment item","yes","FIN__BA__M21__7%3A10%3A17.osexp","C:\Users\ERP Testing Room\Desktop\Joanna\morph21","no","mono","no","18","no","white","no","yes","1080","legacy","30","30","C:/Users/ERP Testing Room/Desktop/Joanna/morph21/subject-109.csv","xpyriment","Jazzy James","3.1.4","0","/","NA","NA","NA","NA","space","/","636","NA","NA","NA","NA","243360","636","2","legacy","1024","2","48000","-16","BA_m21","109","odd","CW_S","GUILTY","1361","360253","358678","355503","244730","NA","NA","NA","NA","360245","359175","NA","358178","NA","358169","360245","1369","360553","NA","NA","359253","1361","1361","359645","358169","1361","359253","360553","morph21_Oliver/Morris","28","22749","31","yes","1280","34"
"400","90.625","90.625","732.78125","732.78125","black","no","xpyriment","legacy","legacy","0","204","NA","uniform","49648","1000","0.0201417982597","1","undefined","1","0","31","31","31","0","31","31","31","NA","31","31","0","31","NA","31","31","0","31","NA","31","NA","31","0","0","31","31","0","31","31","32","z","10/09/17 18:18:05","The main experiment item","yes","FIN__BA__M21__7%3A10%3A17.osexp","C:\Users\ERP Testing Room\Desktop\Joanna\morph21","no","mono","no","18","no","white","no","yes","1080","legacy","31","31","C:/Users/ERP Testing Room/Desktop/Joanna/morph21/subject-109.csv","xpyriment","Jazzy James","3.1.4","0","z","NA","NA","NA","NA","space","z","700","NA","NA","NA","NA","243360","700","2","legacy","1024","2","48000","-16","BA_m21","109","odd","NW_L_COMP","COLDIDY","1361","363453","361837","355503","244730","NA","NA","NA","NA","363445","362334","NA","361337","NA","361331","363445","1369","363853","NA","NA","362453","1361","1361","362845","361331","1361","362453","363853","morph21_Oliver/Morris","29","23449","32","yes","1280","10"
"200","90.9090909091","90.9090909091","732.151515152","732.151515152","black","no","xpyriment","legacy","legacy","0","208","NA","uniform","59341","1000","0.0168517551103","1","undefined","1","0","32","32","32","0","32","32","32","NA","32","32","0","32","NA","32","32","0","32","NA","32","NA","32","0","0","32","32","0","32","32","33","z","10/09/17 18:18:05","The main experiment item","yes","FIN__BA__M21__7%3A10%3A17.osexp","C:\Users\ERP Testing Room\Desktop\Joanna\morph21","no","mono","no","18","no","white","no","yes","1080","legacy","32","32","C:/Users/ERP Testing Room/Desktop/Joanna/morph21/subject-109.csv","xpyriment","Jazzy James","3.1.4","0","z","NA","NA","NA","NA","space","z","712","NA","NA","NA","NA","243360","712","2","legacy","1024","2","48000","-16","BA_m21","109","odd","FILL_NW","FALONS","1361","368438","365328","366928","244730","NA","NA","NA","NA","366926","365825","NA","364828","NA","364820","366926","1369","368638","NA","NA","365937","1361","1361","366328","364820","1361","365937","368638","morph21_Oliver/Morris","30","24161","33","yes","1280","19"
"300","91.1764705882","91.1764705882","734.794117647","734.794117647","black","no","xpyriment","legacy","legacy","0","202","NA","uniform","57742","1000","0.017318416404","1","undefined","1","0","33","33","33","0","33","33","33","NA","33","33","0","33","NA","33","33","0","33","NA","33","NA","33","0","0","33","33","0","33","33","34","/","10/09/17 18:18:05","The main experiment item","yes","FIN__BA__M21__7%3A10%3A17.osexp","C:\Users\ERP Testing Room\Desktop\Joanna\morph21","no","mono","no","18","no","white","no","yes","1080","legacy","33","33","C:/Users/ERP Testing Room/Desktop/Joanna/morph21/subject-109.csv","xpyriment","Jazzy James","3.1.4","0","/","NA","NA","NA","NA","space","/","822","NA","NA","NA","NA","243360","822","2","legacy","1024","2","48000","-16","BA_m21","109","odd","CW_L","COMPOSER","1361","371588","369988","366928","244730","NA","NA","NA","NA","371577","370485","NA","369488","NA","369483","371577","1369","371888","NA","NA","370588","1361","1361","370980","369483","1361","370588","371888","morph21_Oliver/Morris","31","24983","34","yes","1280","6"
"350","91.4285714286","91.4285714286","735.8","735.8","black","no","xpyriment","legacy","legacy","0","206","NA","uniform","60097","1000","0.0166397657121","1","undefined","1","0","34","34","34","0","34","34","34","NA","34","34","0","34","NA","34","34","0","34","NA","34","NA","34","0","0","34","34","0","34","34","35","z","10/09/17 18:18:05","The main experiment item","yes","FIN__BA__M21__7%3A10%3A17.osexp","C:\Users\ERP Testing Room\Desktop\Joanna\morph21","no","mono","no","18","no","white","no","yes","1080","legacy","34","34","C:/Users/ERP Testing Room/Desktop/Joanna/morph21/subject-109.csv","xpyriment","Jazzy James","3.1.4","0","z","NA","NA","NA","NA","space","z","770","NA","NA","NA","NA","243360","770","2","legacy","1024","2","48000","-16","BA_m21","109","odd","NW_L_SIMP","WITCHISH","1361","374880","373296","366928","244730","NA","NA","NA","NA","374873","373793","NA","372796","NA","372791","374873","1369","375230","NA","NA","373880","1361","1361","374271","372791","1361","373880","375230","morph21_Oliver/Morris","32","25753","35","yes","1280","11"
"250","88.8888888889","88.8888888889","742.944444444","742.944444444","black","no","xpyriment","legacy","legacy","0","206","NA","uniform","51362","1000","0.0194696468206","0","undefined","0","0","35","35","35","0","35","35","35","NA","35","35","0","35","NA","35","35","0","35","NA","35","NA","35","0","0","35","35","0","35","35","36","z","10/09/17 18:18:05","The main experiment item","yes","FIN__BA__M21__7%3A10%3A17.osexp","C:\Users\ERP Testing Room\Desktop\Joanna\morph21","no","mono","no","18","no","white","no","yes","1080","legacy","35","35","C:/Users/ERP Testing Room/Desktop/Joanna/morph21/subject-109.csv","xpyriment","Jazzy James","3.1.4","0","None","NA","NA","NA","NA","space","None","993","NA","NA","NA","NA","243360","993","2","legacy","1024","2","48000","-16","BA_m21","109","odd","NW_L_SIMP","BEARIST","1361","379705","376605","378197","244730","NA","NA","NA","NA","374873","377102","NA","376105","NA","376098","378190","1369","379955","NA","NA","377197","1361","1361","377588","376098","1361","377197","379955","morph21_Oliver/Morris","32","26746","36","yes","1280","25"
"350","89.1891891892","89.1891891892","742.135135135","742.135135135","black","no","xpyriment","legacy","legacy","0","202","NA","uniform","62227","1000","0.0160701946101","1","undefined","1","0","36","36","36","0","36","36","36","NA","36","36","0","36","NA","36","36","0","36","NA","36","NA","36","0","0","36","36","0","36","36","37","/","10/09/17 18:18:05","The main experiment item","yes","FIN__BA__M21__7%3A10%3A17.osexp","C:\Users\ERP Testing Room\Desktop\Joanna\morph21","no","mono","no","18","no","white","no","yes","1080","legacy","36","36","C:/Users/ERP Testing Room/Desktop/Joanna/morph21/subject-109.csv","xpyriment","Jazzy James","3.1.4","0","/","NA","NA","NA","NA","space","/","713","NA","NA","NA","NA","243360","713","2","legacy","1024","2","48000","-16","BA_m21","109","odd","CW_L","BOMBER","1361","382872","381272","378197","244730","NA","NA","NA","NA","382864","381769","NA","380772","NA","380761","382864","1369","383222","NA","NA","381872","1361","1361","382263","380761","1361","381872","383222","morph21_Oliver/Morris","33","27459","37","yes","1280","7"
"200","89.4736842105","89.4736842105","743.105263158","743.105263158","black","no","xpyriment","legacy","legacy","0","205","NA","uniform","55808","1000","0.0179185779817","1","undefined","1","0","37","37","37","0","37","37","37","NA","37","37","0","37","NA","37","37","0","37","NA","37","NA","37","0","0","37","37","0","37","37","38","z","10/09/17 18:18:05","The main experiment item","yes","FIN__BA__M21__7%3A10%3A17.osexp","C:\Users\ERP Testing Room\Desktop\Joanna\morph21","no","mono","no","18","no","white","no","yes","1080","legacy","37","37","C:/Users/ERP Testing Room/Desktop/Joanna/morph21/subject-109.csv","xpyriment","Jazzy James","3.1.4","0","z","NA","NA","NA","NA","space","z","779","NA","NA","NA","NA","243360","779","2","legacy","1024","2","48000","-16","BA_m21","109","odd","NW_S_SIMP","OPPOSEMENT","1361","386215","384613","378197","244730","NA","NA","NA","NA","386207","385111","NA","384114","NA","384104","386207","1369","386415","NA","NA","385215","1361","1361","385606","384104","1361","385215","386415","morph21_Oliver/Morris","34","28238","38","yes","1280","8"
"200","89.7435897436","89.7435897436","738.435897436","738.435897436","black","no","xpyriment","legacy","legacy","0","204","NA","uniform","66707","1000","0.0149909304871","1","undefined","1","0","38","38","38","0","38","38","38","NA","38","38","0","38","NA","38","38","0","38","NA","38","NA","38","0","0","38","38","0","38","38","39","z","10/09/17 18:18:05","The main experiment item","yes","FIN__BA__M21__7%3A10%3A17.osexp","C:\Users\ERP Testing Room\Desktop\Joanna\morph21","no","mono","no","18","no","white","no","yes","1080","legacy","38","38","C:/Users/ERP Testing Room/Desktop/Joanna/morph21/subject-109.csv","xpyriment","Jazzy James","3.1.4","0","z","NA","NA","NA","NA","space","z","561","NA","NA","NA","NA","243360","561","2","legacy","1024","2","48000","-16","BA_m21","109","odd","NW_L_COMP","FLIPODY","1361","390973","387831","389465","244730","NA","NA","NA","NA","389459","388328","NA","387331","NA","387325","389459","1369","391173","NA","NA","388465","1361","1361","388856","387325","1361","388465","391173","morph21_Oliver/Morris","35","28799","39","yes","1280","16"
"400","90","90","736.8","736.8","black","no","xpyriment","legacy","legacy","0","207","NA","uniform","55097","1000","0.0181498085195","1","undefined","1","0","39","39","39","0","39","39","39","NA","39","39","0","39","NA","39","39","0","39","NA","39","NA","39","0","0","39","39","0","39","39","40","/","10/09/17 18:18:05","The main experiment item","yes","FIN__BA__M21__7%3A10%3A17.osexp","C:\Users\ERP Testing Room\Desktop\Joanna\morph21","no","mono","no","18","no","white","no","yes","1080","legacy","39","39","C:/Users/ERP Testing Room/Desktop/Joanna/morph21/subject-109.csv","xpyriment","Jazzy James","3.1.4","0","/","NA","NA","NA","NA","space","/","673","NA","NA","NA","NA","243360","673","2","legacy","1024","2","48000","-16","BA_m21","109","odd","FILL_W","CRUNCH","1361","394032","392423","389465","244730","NA","NA","NA","NA","394024","392920","NA","391923","NA","391918","394024","1369","394432","NA","NA","393032","1361","1361","393423","391918","1361","393032","394432","morph21_Oliver/Morris","36","29472","40","yes","1280","20"
"350","90.243902439","90.243902439","736.170731707","736.170731707","black","no","xpyriment","legacy","legacy","0","201","NA","uniform","59952","1000","0.0166800106752","1","undefined","1","0","40","40","40","0","40","40","40","NA","40","40","0","40","NA","40","40","0","40","NA","40","NA","40","0","0","40","40","0","40","40","41","/","10/09/17 18:18:05","The main experiment item","yes","FIN__BA__M21__7%3A10%3A17.osexp","C:\Users\ERP Testing Room\Desktop\Joanna\morph21","no","mono","no","18","no","white","no","yes","1080","legacy","40","40","C:/Users/ERP Testing Room/Desktop/Joanna/morph21/subject-109.csv","xpyriment","Jazzy James","3.1.4","0","/","NA","NA","NA","NA","space","/","711","NA","NA","NA","NA","243360","711","2","legacy","1024","2","48000","-16","BA_m21","109","odd","CW_S","NEATLY","1361","397498","395873","389465","244730","NA","NA","NA","NA","397494","396371","NA","395373","NA","395364","397494","1369","397848","NA","NA","396498","1361","1361","396898","395364","1361","396498","397848","morph21_Oliver/Morris","37","30183","41","yes","1280","33"
"200","90.4761904762","90.4761904762","733.19047619","733.19047619","black","no","xpyriment","legacy","legacy","0","208","NA","uniform","55104","1000","0.0181475029036","1","undefined","1","0","41","41","41","0","41","41","41","NA","41","41","0","41","NA","41","41","0","41","NA","41","NA","41","0","0","41","41","0","41","41","42","z","10/09/17 18:18:05","The main experiment item","yes","FIN__BA__M21__7%3A10%3A17.osexp","C:\Users\ERP Testing Room\Desktop\Joanna\morph21","no","mono","no","18","no","white","no","yes","1080","legacy","41","41","C:/Users/ERP Testing Room/Desktop/Joanna/morph21/subject-109.csv","xpyriment","Jazzy James","3.1.4","0","z","NA","NA","NA","NA","space","z","611","NA","NA","NA","NA","243360","611","2","legacy","1024","2","48000","-16","BA_m21","109","odd","FILL_NW","FROT","1361","402300","399173","400790","244730","NA","NA","NA","NA","400780","399671","NA","398674","NA","398667","400780","1369","402500","NA","NA","399790","1361","1361","400182","398667","1361","399790","402500","morph21_Oliver/Morris","38","30794","42","yes","1280","22"
"400","90.6976744186","90.6976744186","731.558139535","731.558139535","black","no","xpyriment","legacy","legacy","0","208","NA","uniform","58883","1000","0.0169828303585","1","undefined","1","0","42","42","42","0","42","42","42","NA","42","42","0","42","NA","42","42","0","42","NA","42","NA","42","0","0","42","42","0","42","42","43","z","10/09/17 18:18:05","The main experiment item","yes","FIN__BA__M21__7%3A10%3A17.osexp","C:\Users\ERP Testing Room\Desktop\Joanna\morph21","no","mono","no","18","no","white","no","yes","1080","legacy","42","42","C:/Users/ERP Testing Room/Desktop/Joanna/morph21/subject-109.csv","xpyriment","Jazzy James","3.1.4","0","z","NA","NA","NA","NA","space","z","663","NA","NA","NA","NA","243360","663","2","legacy","1024","2","48000","-16","BA_m21","109","odd","FILL_NW","BORMS","1361","405291","403708","400790","244730","NA","NA","NA","NA","405285","404205","NA","403208","NA","403204","405285","1369","405692","NA","NA","404291","1361","1361","404683","403204","1361","404291","405692","morph21_Oliver/Morris","39","31457","43","yes","1280","50"
"400","88.6363636364","88.6363636364","732","732","black","no","xpyriment","legacy","legacy","0","207","NA","uniform","57675","1000","0.0173385348938","0","undefined","0","0","43","43","43","0","43","43","43","NA","43","43","0","43","NA","43","43","0","43","NA","43","NA","43","0","0","43","43","0","43","43","44","/","10/09/17 18:18:05","The main experiment item","yes","FIN__BA__M21__7%3A10%3A17.osexp","C:\Users\ERP Testing Room\Desktop\Joanna\morph21","no","mono","no","18","no","white","no","yes","1080","legacy","43","43","C:/Users/ERP Testing Room/Desktop/Joanna/morph21/subject-109.csv","xpyriment","Jazzy James","3.1.4","0","z","NA","NA","NA","NA","space","z","751","NA","NA","NA","NA","243360","751","2","legacy","1024","2","48000","-16","BA_m21","109","odd","FILL_W","STEEP","1361","408475","406892","400790","244730","NA","NA","NA","NA","405285","407389","NA","406392","NA","406388","408467","1369","408875","NA","NA","407475","1361","1361","407867","406387","1361","407475","408875","morph21_Oliver/Morris","39","32208","44","yes","1280","16"
"250","86.6666666667","86.6666666667","736.244444444","736.244444444","black","no","xpyriment","legacy","legacy","0","208","NA","uniform","52314","1000","0.0191153419735","0","undefined","0","0","44","44","44","0","44","44","44","NA","44","44","0","44","NA","44","44","0","44","NA","44","NA","44","0","0","44","44","0","44","44","45","z","10/09/17 18:18:05","The main experiment item","yes","FIN__BA__M21__7%3A10%3A17.osexp","C:\Users\ERP Testing Room\Desktop\Joanna\morph21","no","mono","no","18","no","white","no","yes","1080","legacy","44","44","C:/Users/ERP Testing Room/Desktop/Joanna/morph21/subject-109.csv","xpyriment","Jazzy James","3.1.4","0","/","NA","NA","NA","NA","space","/","923","NA","NA","NA","NA","243360","923","2","legacy","1024","2","48000","-16","BA_m21","109","odd","FILL_NW","POLT","1361","413250","410150","411742","244730","NA","NA","NA","NA","405285","410647","NA","409650","NA","409646","411732","1369","413500","NA","NA","410742","1361","1361","411133","409646","1361","410742","413500","morph21_Oliver/Morris","39","33131","45","yes","1280","38"
"200","86.9565217391","86.9565217391","735.043478261","735.043478261","black","no","xpyriment","legacy","legacy","0","208","NA","uniform","58225","1000","0.0171747531129","1","undefined","1","0","45","45","45","0","45","45","45","NA","45","45","0","45","NA","45","45","0","45","NA","45","NA","45","0","0","45","45","0","45","45","46","z","10/09/17 18:18:05","The main experiment item","yes","FIN__BA__M21__7%3A10%3A17.osexp","C:\Users\ERP Testing Room\Desktop\Joanna\morph21","no","mono","no","18","no","white","no","yes","1080","legacy","45","45","C:/Users/ERP Testing Room/Desktop/Joanna/morph21/subject-109.csv","xpyriment","Jazzy James","3.1.4","0","z","NA","NA","NA","NA","space","z","681","NA","NA","NA","NA","243360","681","2","legacy","1024","2","48000","-16","BA_m21","109","odd","FILL_NW","HOITS","1361","416384","414784","411742","244730","NA","NA","NA","NA","416377","415281","NA","414283","NA","414277","416377","1369","416584","NA","NA","415384","1361","1361","415775","414277","1361","415384","416584","morph21_Oliver/Morris","40","33812","46","yes","1280","30"
"250","87.2340425532","87.2340425532","733.212765957","733.212765957","black","no","xpyriment","legacy","legacy","0","207","NA","uniform","61372","1000","0.0162940754742","1","undefined","1","0","46","46","46","0","46","46","46","NA","46","46","0","46","NA","46","46","0","46","NA","46","NA","46","0","0","46","46","0","46","46","47","/","10/09/17 18:18:05","The main experiment item","yes","FIN__BA__M21__7%3A10%3A17.osexp","C:\Users\ERP Testing Room\Desktop\Joanna\morph21","no","mono","no","18","no","white","no","yes","1080","legacy","46","46","C:/Users/ERP Testing Room/Desktop/Joanna/morph21/subject-109.csv","xpyriment","Jazzy James","3.1.4","0","/","NA","NA","NA","NA","space","/","649","NA","NA","NA","NA","243360","649","2","legacy","1024","2","48000","-16","BA_m21","109","odd","FILL_W","COOK","1361","419600","417975","411742","244730","NA","NA","NA","NA","419595","418472","NA","417475","NA","417464","419595","1369","419850","NA","NA","418600","1361","1361","418992","417464","1361","418600","419850","morph21_Oliver/Morris","41","34461","47","yes","1280","38"
"200","87.5","87.5","733.25","733.25","black","no","xpyriment","legacy","legacy","0","203","NA","uniform","63205","1000","0.0158215331066","1","undefined","1","0","47","47","47","0","47","47","47","NA","47","47","0","47","NA","47","47","0","47","NA","47","NA","47","0","0","47","47","0","47","47","48","z","10/09/17 18:18:05","The main experiment item","yes","FIN__BA__M21__7%3A10%3A17.osexp","C:\Users\ERP Testing Room\Desktop\Joanna\morph21","no","mono","no","18","no","white","no","yes","1080","legacy","47","47","C:/Users/ERP Testing Room/Desktop/Joanna/morph21/subject-109.csv","xpyriment","Jazzy James","3.1.4","0","z","NA","NA","NA","NA","space","z","735","NA","NA","NA","NA","243360","735","2","legacy","1024","2","48000","-16","BA_m21","109","odd","NW_S_COMP","FANFIL","1361","424152","421043","422643","244730","NA","NA","NA","NA","422639","421540","NA","420543","NA","420534","422639","1369","424352","NA","NA","421643","1361","1361","422043","420534","1361","421643","424352","morph21_Oliver/Morris","42","35196","48","yes","1280","6"
"350","87.7551020408","87.7551020408","729.530612245","729.530612245","black","no","xpyriment","legacy","legacy","0","202","NA","uniform","67265","1000","0.0148665725117","1","undefined","1","0","48","48","48","0","48","48","48","NA","48","48","0","48","NA","48","48","0","48","NA","48","NA","48","0","0","48","48","0","48","48","49","/","10/09/17 18:18:05","The main experiment item","yes","FIN__BA__M21__7%3A10%3A17.osexp","C:\Users\ERP Testing Room\Desktop\Joanna\morph21","no","mono","no","18","no","white","no","yes","1080","legacy","48","48","C:/Users/ERP Testing Room/Desktop/Joanna/morph21/subject-109.csv","xpyriment","Jazzy James","3.1.4","0","/","NA","NA","NA","NA","space","/","551","NA","NA","NA","NA","243360","551","2","legacy","1024","2","48000","-16","BA_m21","109","odd","CW_L","PAINTER","1361","427218","425635","422643","244730","NA","NA","NA","NA","427216","426132","NA","425135","NA","425129","427216","1369","427569","NA","NA","426227","1361","1361","426618","425129","1361","426227","427569","morph21_Oliver/Morris","43","35747","49","yes","1280","18"
"350","86","86","734.7","734.7","black","no","xpyriment","legacy","legacy","0","201","NA","uniform","48070","1000","0.0208029956314","0","undefined","0","0","49","49","49","0","49","49","49","NA","49","49","0","49","NA","49","49","0","49","NA","49","NA","49","0","0","49","49","0","49","49","50","/","10/09/17 18:18:05","The main experiment item","yes","FIN__BA__M21__7%3A10%3A17.osexp","C:\Users\ERP Testing Room\Desktop\Joanna\morph21","no","mono","no","18","no","white","no","yes","1080","legacy","49","49","C:/Users/ERP Testing Room/Desktop/Joanna/morph21/subject-109.csv","xpyriment","Jazzy James","3.1.4","0","None","NA","NA","NA","NA","space","None","988","NA","NA","NA","NA","243360","988","2","legacy","1024","2","48000","-16","BA_m21","109","odd","CW_S","AMAZEMENT","1361","430577","428977","422643","244730","NA","NA","NA","NA","427216","429474","NA","428477","NA","428467","430573","1369","430927","NA","NA","429585","1361","1361","429977","428467","1361","429585","430927","morph21_Oliver/Morris","43","36735","50","yes","1280","39"
"350","86.2745098039","86.2745098039","733.960784314","733.960784314","black","no","xpyriment","legacy","legacy","0","208","NA","uniform","59786","1000","0.0167263238885","1","undefined","1","0","50","50","50","0","50","50","50","NA","50","50","0","50","NA","50","50","0","50","NA","50","NA","50","0","0","50","50","0","50","50","51","z","10/09/17 18:18:05","The main experiment item","yes","FIN__BA__M21__7%3A10%3A17.osexp","C:\Users\ERP Testing Room\Desktop\Joanna\morph21","no","mono","no","18","no","white","no","yes","1080","legacy","50","50","C:/Users/ERP Testing Room/Desktop/Joanna/morph21/subject-109.csv","xpyriment","Jazzy James","3.1.4","0","z","NA","NA","NA","NA","space","z","697","NA","NA","NA","NA","243360","697","2","legacy","1024","2","48000","-16","BA_m21","109","odd","FILL_NW","DOADS","1361","435252","432144","433744","244730","NA","NA","NA","NA","433738","432641","NA","431644","NA","431634","433738","1369","435602","NA","NA","432744","1361","1361","433135","431634","1361","432744","435602","morph21_Oliver/Morris","44","37432","51","yes","1280","15"
"350","86.5384615385","86.5384615385","731.788461538","731.788461538","black","no","xpyriment","legacy","legacy","0","203","NA","uniform","65306","1000","0.015312528711","1","undefined","1","0","51","51","51","0","51","51","51","NA","51","51","0","51","NA","51","51","0","51","NA","51","NA","51","0","0","51","51","0","51","51","52","z","10/09/17 18:18:05","The main experiment item","yes","FIN__BA__M21__7%3A10%3A17.osexp","C:\Users\ERP Testing Room\Desktop\Joanna\morph21","no","mono","no","18","no","white","no","yes","1080","legacy","51","51","C:/Users/ERP Testing Room/Desktop/Joanna/morph21/subject-109.csv","xpyriment","Jazzy James","3.1.4","0","z","NA","NA","NA","NA","space","z","621","NA","NA","NA","NA","243360","621","2","legacy","1024","2","48000","-16","BA_m21","109","odd","NW_S_COMP","WELDIG","1361","438445","436861","433744","244730","NA","NA","NA","NA","438440","437358","NA","436361","NA","436352","438440","1369","438795","NA","NA","437445","1361","1361","437845","436352","1361","437445","438795","morph21_Oliver/Morris","45","38053","52","yes","1280","21"
"400","86.7924528302","86.7924528302","729.283018868","729.283018868","black","no","xpyriment","legacy","legacy","0","206","NA","uniform","67069","1000","0.0149100180411","1","undefined","1","0","52","52","52","0","52","52","52","NA","52","52","0","52","NA","52","52","0","52","NA","52","NA","52","0","0","52","52","0","52","52","53","z","10/09/17 18:18:05","The main experiment item","yes","FIN__BA__M21__7%3A10%3A17.osexp","C:\Users\ERP Testing Room\Desktop\Joanna\morph21","no","mono","no","18","no","white","no","yes","1080","legacy","52","52","C:/Users/ERP Testing Room/Desktop/Joanna/morph21/subject-109.csv","xpyriment","Jazzy James","3.1.4","0","z","NA","NA","NA","NA","space","z","599","NA","NA","NA","NA","243360","599","2","legacy","1024","2","48000","-16","BA_m21","109","odd","NW_L_SIMP","BOGARY","1361","441604","440020","433744","244730","NA","NA","NA","NA","441596","440517","NA","439520","NA","439509","441596","1369","442004","NA","NA","440603","1361","1361","440995","439509","1361","440603","442004","morph21_Oliver/Morris","46","38652","53","yes","1280","2"
"300","87.037037037","87.037037037","726.555555556","726.555555556","black","no","xpyriment","legacy","legacy","0","201","NA","uniform","66007","1000","0.0151499083431","1","undefined","1","0","53","53","53","0","53","53","53","NA","53","53","0","53","NA","53","53","0","53","NA","53","NA","53","0","0","53","53","0","53","53","54","/","10/09/17 18:18:05","The main experiment item","yes","FIN__BA__M21__7%3A10%3A17.osexp","C:\Users\ERP Testing Room\Desktop\Joanna\morph21","no","mono","no","18","no","white","no","yes","1080","legacy","53","53","C:/Users/ERP Testing Room/Desktop/Joanna/morph21/subject-109.csv","xpyriment","Jazzy James","3.1.4","0","/","NA","NA","NA","NA","space","/","582","NA","NA","NA","NA","243360","582","2","legacy","1024","2","48000","-16","BA_m21","109","odd","CW_S","RISKY","1361","446512","443412","445004","244730","NA","NA","NA","NA","444997","443909","NA","442904","NA","442899","444997","1369","446812","NA","NA","444004","1361","1361","444395","442899","1361","444004","446812","morph21_Oliver/Morris","47","39234","54","yes","1280","50"
"350","87.2727272727","87.2727272727","724.454545455","724.454545455","black","no","xpyriment","legacy","legacy","0","201","NA","uniform","58722","1000","0.0170293927319","1","undefined","1","0","54","54","54","0","54","54","54","NA","54","54","0","54","NA","54","54","0","54","NA","54","NA","54","0","0","54","54","0","54","54","55","/","10/09/17 18:18:05","The main experiment item","yes","FIN__BA__M21__7%3A10%3A17.osexp","C:\Users\ERP Testing Room\Desktop\Joanna\morph21","no","mono","no","18","no","white","no","yes","1080","legacy","54","54","C:/Users/ERP Testing Room/Desktop/Joanna/morph21/subject-109.csv","xpyriment","Jazzy James","3.1.4","0","/","NA","NA","NA","NA","space","/","611","NA","NA","NA","NA","243360","611","2","legacy","1024","2","48000","-16","BA_m21","109","odd","CW_S","BEARDED","1361","449654","448054","445004","244730","NA","NA","NA","NA","449651","448551","NA","447554","NA","447550","449651","1369","450004","NA","NA","448662","1361","1361","449054","447550","1361","448662","450004","morph21_Oliver/Morris","48","39845","55","yes","1280","8"
"300","87.5","87.5","723.232142857","723.232142857","black","no","xpyriment","legacy","legacy","0","208","NA","uniform","69855","1000","0.0143153675471","1","undefined","1","0","55","55","55","0","55","55","55","NA","55","55","0","55","NA","55","55","0","55","NA","55","NA","55","0","0","55","55","0","55","55","56","z","10/09/17 18:18:05","The main experiment item","yes","FIN__BA__M21__7%3A10%3A17.osexp","C:\Users\ERP Testing Room\Desktop\Joanna\morph21","no","mono","no","18","no","white","no","yes","1080","legacy","55","55","C:/Users/ERP Testing Room/Desktop/Joanna/morph21/subject-109.csv","xpyriment","Jazzy James","3.1.4","0","z","NA","NA","NA","NA","space","z","656","NA","NA","NA","NA","243360","656","2","legacy","1024","2","48000","-16","BA_m21","109","odd","FILL_NW","BAFED","1361","452937","451329","445004","244730","NA","NA","NA","NA","452927","451826","NA","450829","NA","450819","452927","1369","453237","NA","NA","451937","1361","1361","452329","450819","1361","451937","453237","morph21_Oliver/Morris","49","40501","56","yes","1280","1"
"400","87.7192982456","87.7192982456","720.280701754","720.280701754","black","no","xpyriment","legacy","legacy","0","202","NA","uniform","58296","1000","0.0171538355976","1","undefined","1","0","56","56","56","0","56","56","56","NA","56","56","0","56","NA","56","56","0","56","NA","56","NA","56","0","0","56","56","0","56","56","57","/","10/09/17 18:18:05","The main experiment item","yes","FIN__BA__M21__7%3A10%3A17.osexp","C:\Users\ERP Testing Room\Desktop\Joanna\morph21","no","mono","no","18","no","white","no","yes","1080","legacy","56","56","C:/Users/ERP Testing Room/Desktop/Joanna/morph21/subject-109.csv","xpyriment","Jazzy James","3.1.4","0","/","NA","NA","NA","NA","space","/","555","NA","NA","NA","NA","243360","555","2","legacy","1024","2","48000","-16","BA_m21","109","odd","CW_L","STYLISH","1361","457772","454655","456263","244730","NA","NA","NA","NA","456256","455152","NA","454154","NA","454144","456256","1369","458172","NA","NA","455263","1361","1361","455655","454144","1361","455263","458172","morph21_Oliver/Morris","50","41056","57","yes","1280","29"
"200","87.9310344828","87.9310344828","718.5","718.5","black","no","xpyriment","legacy","legacy","0","208","NA","uniform","64162","1000","0.0155855490789","1","undefined","1","0","57","57","57","0","57","57","57","NA","57","57","0","57","NA","57","57","0","57","NA","57","NA","57","0","0","57","57","0","57","57","58","z","10/09/17 18:18:05","The main experiment item","yes","FIN__BA__M21__7%3A10%3A17.osexp","C:\Users\ERP Testing Room\Desktop\Joanna\morph21","no","mono","no","18","no","white","no","yes","1080","legacy","57","57","C:/Users/ERP Testing Room/Desktop/Joanna/morph21/subject-109.csv","xpyriment","Jazzy James","3.1.4","0","z","NA","NA","NA","NA","space","z","617","NA","NA","NA","NA","243360","617","2","legacy","1024","2","48000","-16","BA_m21","109","odd","FILL_NW","TUEER","1361","461097","459489","456263","244730","NA","NA","NA","NA","461092","459986","NA","458989","NA","458982","461092","1369","461297","NA","NA","460097","1361","1361","460497","458982","1361","460097","461297","morph21_Oliver/Morris","51","41673","58","yes","1280","44"
"300","88.1355932203","88.1355932203","716.271186441","716.271186441","black","no","xpyriment","legacy","legacy","0","203","NA","uniform","68354","1000","0.0146297217427","1","undefined","1","0","58","58","58","0","58","58","58","NA","58","58","0","58","NA","58","58","0","58","NA","58","NA","58","0","0","58","58","0","58","58","59","z","10/09/17 18:18:05","The main experiment item","yes","FIN__BA__M21__7%3A10%3A17.osexp","C:\Users\ERP Testing Room\Desktop\Joanna\morph21","no","mono","no","18","no","white","no","yes","1080","legacy","58","58","C:/Users/ERP Testing Room/Desktop/Joanna/morph21/subject-109.csv","xpyriment","Jazzy James","3.1.4","0","z","NA","NA","NA","NA","space","z","587","NA","NA","NA","NA","243360","587","2","legacy","1024","2","48000","-16","BA_m21","109","odd","NW_S_COMP","FIGEL","1361","464239","462639","456263","244730","NA","NA","NA","NA","464233","463136","NA","462139","NA","462134","464233","1369","464539","NA","NA","463239","1361","1361","463630","462133","1361","463239","464539","morph21_Oliver/Morris","52","42260","59","yes","1280","4"
"200","88.3333333333","88.3333333333","716.233333333","716.233333333","black","no","xpyriment","legacy","legacy","0","202","NA","uniform","59499","1000","0.0168070051598","1","undefined","1","0","59","59","59","0","59","59","59","NA","59","59","0","59","NA","59","59","0","59","NA","59","NA","59","0","0","59","59","0","59","59","60","/","10/09/17 18:18:05","The main experiment item","yes","FIN__BA__M21__7%3A10%3A17.osexp","C:\Users\ERP Testing Room\Desktop\Joanna\morph21","no","mono","no","18","no","white","no","yes","1080","legacy","59","59","C:/Users/ERP Testing Room/Desktop/Joanna/morph21/subject-109.csv","xpyriment","Jazzy James","3.1.4","0","/","NA","NA","NA","NA","space","/","714","NA","NA","NA","NA","243360","714","2","legacy","1024","2","48000","-16","BA_m21","109","odd","CW_L","BONELESS","1361","468939","465831","467431","244730","NA","NA","NA","NA","467428","466328","NA","465331","NA","465320","467428","1369","469139","NA","NA","466439","1361","1361","466831","465320","1361","466439","469139","morph21_Oliver/Morris","53","42974","60","yes","1280","34"
"200","88.5245901639","88.5245901639","717.491803279","717.491803279","black","no","xpyriment","legacy","legacy","0","205","NA","uniform","60160","1000","0.0166223404255","1","undefined","1","0","60","60","60","0","60","60","60","NA","60","60","0","60","NA","60","60","0","60","NA","60","NA","60","0","0","60","60","0","60","60","61","z","10/09/17 18:18:05","The main experiment item","yes","FIN__BA__M21__7%3A10%3A17.osexp","C:\Users\ERP Testing Room\Desktop\Joanna\morph21","no","mono","no","18","no","white","no","yes","1080","legacy","60","60","C:/Users/ERP Testing Room/Desktop/Joanna/morph21/subject-109.csv","xpyriment","Jazzy James","3.1.4","0","z","NA","NA","NA","NA","space","z","793","NA","NA","NA","NA","243360","793","2","legacy","1024","2","48000","-16","BA_m21","109","odd","NW_S_SIMP","GUMFUL","1361","472047","470456","467431","244730","NA","NA","NA","NA","472039","470953","NA","469956","NA","469946","472039","1369","472248","NA","NA","471048","1361","1361","471439","469946","1361","471047","472248","morph21_Oliver/Morris","54","43767","61","yes","1280","2"
"300","88.7096774194","88.7096774194","716.967741935","716.967741935","black","no","xpyriment","legacy","legacy","0","206","NA","uniform","60086","1000","0.0166428119695","1","undefined","1","0","61","61","61","0","61","61","61","NA","61","61","0","61","NA","61","61","0","61","NA","61","NA","61","0","0","61","61","0","61","61","62","z","10/09/17 18:18:05","The main experiment item","yes","FIN__BA__M21__7%3A10%3A17.osexp","C:\Users\ERP Testing Room\Desktop\Joanna\morph21","no","mono","no","18","no","white","no","yes","1080","legacy","61","61","C:/Users/ERP Testing Room/Desktop/Joanna/morph21/subject-109.csv","xpyriment","Jazzy James","3.1.4","0","z","NA","NA","NA","NA","space","z","685","NA","NA","NA","NA","243360","685","2","legacy","1024","2","48000","-16","BA_m21","109","odd","NW_L_SIMP","BEGENCE","1361","475149","473565","467431","244730","NA","NA","NA","NA","475146","474062","NA","473065","NA","473061","475146","1369","475449","NA","NA","474157","1361","1361","474549","473061","1361","474157","475449","morph21_Oliver/Morris","55","44452","62","yes","1280","4"
"250","88.8888888889","88.8888888889","719.365079365","719.365079365","black","no","xpyriment","legacy","legacy","0","207","NA","uniform","56267","1000","0.0177724065616","1","undefined","1","0","62","62","62","0","62","62","62","NA","62","62","0","62","NA","62","62","0","62","NA","62","NA","62","0","0","62","62","0","62","62","63","/","10/09/17 18:18:05","The main experiment item","yes","FIN__BA__M21__7%3A10%3A17.osexp","C:\Users\ERP Testing Room\Desktop\Joanna\morph21","no","mono","no","18","no","white","no","yes","1080","legacy","62","62","C:/Users/ERP Testing Room/Desktop/Joanna/morph21/subject-109.csv","xpyriment","Jazzy James","3.1.4","0","/","NA","NA","NA","NA","space","/","868","NA","NA","NA","NA","243360","868","2","legacy","1024","2","48000","-16","BA_m21","109","odd","FILL_W","SOUGHT","1361","479874","476782","478365","244730","NA","NA","NA","NA","478363","477279","NA","476282","NA","476272","478363","1369","480124","NA","NA","477374","1361","1361","477765","476272","1361","477374","480124","morph21_Oliver/Morris","56","45320","63","yes","1280","40"
"350","89.0625","89.0625","720.421875","720.421875","black","no","xpyriment","legacy","legacy","0","206","NA","uniform","57223","1000","0.0174754906244","1","undefined","1","0","63","63","63","0","63","63","63","NA","63","63","0","63","NA","63","63","0","63","NA","63","NA","63","0","0","63","63","0","63","63","64","z","10/09/17 18:18:05","The main experiment item","yes","FIN__BA__M21__7%3A10%3A17.osexp","C:\Users\ERP Testing Room\Desktop\Joanna\morph21","no","mono","no","18","no","white","no","yes","1080","legacy","63","63","C:/Users/ERP Testing Room/Desktop/Joanna/morph21/subject-109.csv","xpyriment","Jazzy James","3.1.4","0","z","NA","NA","NA","NA","space","z","787","NA","NA","NA","NA","243360","787","2","legacy","1024","2","48000","-16","BA_m21","109","odd","NW_L_SIMP","CRITICANCE","1361","483174","481549","478365","244730","NA","NA","NA","NA","483171","482046","NA","481049","NA","481042","483171","1369","483524","NA","NA","482182","1361","1361","482574","481042","1361","482182","483524","morph21_Oliver/Morris","57","46107","64","yes","1280","22"
"250","89.2307692308","89.2307692308","718.676923077","718.676923077","black","no","xpyriment","legacy","legacy","0","208","NA","uniform","53657","1000","0.0186368973293","1","undefined","1","0","64","64","64","0","64","64","64","NA","64","64","0","64","NA","64","64","0","64","NA","64","NA","64","0","0","64","64","0","64","64","65","z","10/09/17 18:18:05","The main experiment item","yes","FIN__BA__M21__7%3A10%3A17.osexp","C:\Users\ERP Testing Room\Desktop\Joanna\morph21","no","mono","no","18","no","white","no","yes","1080","legacy","64","64","C:/Users/ERP Testing Room/Desktop/Joanna/morph21/subject-109.csv","xpyriment","Jazzy James","3.1.4","0","z","NA","NA","NA","NA","space","z","607","NA","NA","NA","NA","243360","607","2","legacy","1024","2","48000","-16","BA_m21","109","odd","FILL_NW","PIFTH","1361","486482","484882","478365","244730","NA","NA","NA","NA","486478","485380","NA","484383","NA","484377","486478","1369","486733","NA","NA","485482","1361","1361","485883","484377","1361","485482","486733","morph21_Oliver/Morris","58","46714","65","yes","1280","36"
"250","89.3939393939","89.3939393939","715.863636364","715.863636364","black","no","xpyriment","legacy","legacy","0","202","NA","uniform","69953","1000","0.014295312567","1","undefined","1","0","65","65","65","0","65","65","65","NA","65","65","0","65","NA","65","65","0","65","NA","65","NA","65","0","0","65","65","0","65","65","66","/","10/09/17 18:18:05","The main experiment item","yes","FIN__BA__M21__7%3A10%3A17.osexp","C:\Users\ERP Testing Room\Desktop\Joanna\morph21","no","mono","no","18","no","white","no","yes","1080","legacy","65","65","C:/Users/ERP Testing Room/Desktop/Joanna/morph21/subject-109.csv","xpyriment","Jazzy James","3.1.4","0","/","NA","NA","NA","NA","space","/","533","NA","NA","NA","NA","243360","533","2","legacy","1024","2","48000","-16","BA_m21","109","odd","CW_L","FLEXIBLE","1361","491225","488099","489717","244730","NA","NA","NA","NA","489712","488596","NA","487599","NA","487594","489712","1369","491476","NA","NA","488716","1361","1361","489116","487594","1361","488716","491476","morph21_Oliver/Morris","59","47247","66","yes","1280","22"
"250","89.552238806","89.552238806","712.791044776","712.791044776","black","no","xpyriment","legacy","legacy","0","202","NA","uniform","70067","1000","0.0142720538913","1","undefined","1","0","66","66","66","0","66","66","66","NA","66","66","0","66","NA","66","66","0","66","NA","66","NA","66","0","0","66","66","0","66","66","67","/","10/09/17 18:18:05","The main experiment item","yes","FIN__BA__M21__7%3A10%3A17.osexp","C:\Users\ERP Testing Room\Desktop\Joanna\morph21","no","mono","no","18","no","white","no","yes","1080","legacy","66","66","C:/Users/ERP Testing Room/Desktop/Joanna/morph21/subject-109.csv","xpyriment","Jazzy James","3.1.4","0","/","NA","NA","NA","NA","space","/","510","NA","NA","NA","NA","243360","510","2","legacy","1024","2","48000","-16","BA_m21","109","odd","CW_L","DANCER","1361","494301","492717","489717","244730","NA","NA","NA","NA","494296","493214","NA","492217","NA","492212","494296","1369","494551","NA","NA","493300","1361","1361","493701","492212","1361","493300","494551","morph21_Oliver/Morris","60","47757","67","yes","1280","11"
"200","89.7058823529","89.7058823529","710.014705882","710.014705882","black","no","xpyriment","legacy","legacy","0","208","NA","uniform","61811","1000","0.0161783501319","1","undefined","1","0","67","67","67","0","67","67","67","NA","67","67","0","67","NA","67","67","0","67","NA","67","NA","67","0","0","67","67","0","67","67","68","z","10/09/17 18:18:05","The main experiment item","yes","FIN__BA__M21__7%3A10%3A17.osexp","C:\Users\ERP Testing Room\Desktop\Joanna\morph21","no","mono","no","18","no","white","no","yes","1080","legacy","67","67","C:/Users/ERP Testing Room/Desktop/Joanna/morph21/subject-109.csv","xpyriment","Jazzy James","3.1.4","0","z","NA","NA","NA","NA","space","z","524","NA","NA","NA","NA","243360","524","2","legacy","1024","2","48000","-16","BA_m21","109","odd","FILL_NW","GAIRS","1361","497542","495959","489717","244730","NA","NA","NA","NA","497535","496456","NA","495459","NA","495451","497535","1369","497742","NA","NA","496542","1361","1361","496934","495451","1361","496542","497742","morph21_Oliver/Morris","61","48281","68","yes","1280","23"
"200","89.8550724638","89.8550724638","708.173913043","708.173913043","black","no","xpyriment","legacy","legacy","0","206","NA","uniform","62524","1000","0.0159938583584","1","undefined","1","0","68","68","68","0","68","68","68","NA","68","68","0","68","NA","68","68","0","68","NA","68","NA","68","0","0","68","68","0","68","68","69","z","10/09/17 18:18:05","The main experiment item","yes","FIN__BA__M21__7%3A10%3A17.osexp","C:\Users\ERP Testing Room\Desktop\Joanna\morph21","no","mono","no","18","no","white","no","yes","1080","legacy","68","68","C:/Users/ERP Testing Room/Desktop/Joanna/morph21/subject-109.csv","xpyriment","Jazzy James","3.1.4","0","z","NA","NA","NA","NA","space","z","583","NA","NA","NA","NA","243360","583","2","legacy","1024","2","48000","-16","BA_m21","109","odd","NW_L_SIMP","TOWERLY","1361","502143","499042","500634","244730","NA","NA","NA","NA","500627","499540","NA","498542","NA","498533","500627","1369","502343","NA","NA","499634","1361","1361","500026","498533","1361","499634","502343","morph21_Oliver/Morris","62","48864","69","yes","1280","15"
"250","90","90","706.285714286","706.285714286","black","no","xpyriment","legacy","legacy","0","207","NA","uniform","72038","1000","0.0138815625087","1","undefined","1","0","69","69","69","0","69","69","69","NA","69","69","0","69","NA","69","69","0","69","NA","69","NA","69","0","0","69","69","0","69","69","70","/","10/09/17 18:18:05","The main experiment item","yes","FIN__BA__M21__7%3A10%3A17.osexp","C:\Users\ERP Testing Room\Desktop\Joanna\morph21","no","mono","no","18","no","white","no","yes","1080","legacy","69","69","C:/Users/ERP Testing Room/Desktop/Joanna/morph21/subject-109.csv","xpyriment","Jazzy James","3.1.4","0","/","NA","NA","NA","NA","space","/","576","NA","NA","NA","NA","243360","576","2","legacy","1024","2","48000","-16","BA_m21","109","odd","FILL_W","SHIP","1361","505201","503576","500634","244730","NA","NA","NA","NA","505192","504073","NA","503076","NA","503072","505192","1369","505451","NA","NA","504201","1361","1361","504593","503072","1361","504201","505451","morph21_Oliver/Morris","63","49440","70","yes","1280","37"
"250","90.1408450704","90.1408450704","705.633802817","705.633802817","black","no","xpyriment","legacy","legacy","0","207","NA","uniform","62238","1000","0.0160673543494","1","undefined","1","0","70","70","70","0","70","70","70","NA","70","70","0","70","NA","70","70","0","70","NA","70","NA","70","0","0","70","70","0","70","70","71","/","10/09/17 18:18:05","The main experiment item","yes","FIN__BA__M21__7%3A10%3A17.osexp","C:\Users\ERP Testing Room\Desktop\Joanna\morph21","no","mono","no","18","no","white","no","yes","1080","legacy","70","70","C:/Users/ERP Testing Room/Desktop/Joanna/morph21/subject-109.csv","xpyriment","Jazzy James","3.1.4","0","/","NA","NA","NA","NA","space","/","660","NA","NA","NA","NA","243360","660","2","legacy","1024","2","48000","-16","BA_m21","109","odd","FILL_W","STARVE","1361","508310","506718","500634","244730","NA","NA","NA","NA","508301","507215","NA","506218","NA","506211","508301","1369","508561","NA","NA","507310","1361","1361","507702","506211","1361","507310","508561","morph21_Oliver/Morris","64","50100","71","yes","1280","15"
"350","88.8888888889","88.8888888889","705.888888889","705.888888889","black","no","xpyriment","legacy","legacy","0","201","NA","uniform","60484","1000","0.0165332980623","0","undefined","0","0","71","71","71","0","71","71","71","NA","71","71","0","71","NA","71","71","0","71","NA","71","NA","71","0","0","71","71","0","71","71","72","/","10/09/17 18:18:05","The main experiment item","yes","FIN__BA__M21__7%3A10%3A17.osexp","C:\Users\ERP Testing Room\Desktop\Joanna\morph21","no","mono","no","18","no","white","no","yes","1080","legacy","71","71","C:/Users/ERP Testing Room/Desktop/Joanna/morph21/subject-109.csv","xpyriment","Jazzy James","3.1.4","0","z","NA","NA","NA","NA","space","z","724","NA","NA","NA","NA","243360","724","2","legacy","1024","2","48000","-16","BA_m21","109","odd","CW_S","LENDER","1361","513002","509869","511494","244730","NA","NA","NA","NA","508301","510366","NA","509369","NA","509358","511491","1369","513353","NA","NA","510494","1361","1361","510894","509357","1361","510494","513353","morph21_Oliver/Morris","64","50824","72","yes","1280","11"
"250","89.0410958904","89.0410958904","705.109589041","705.109589041","black","no","xpyriment","legacy","legacy","0","202","NA","uniform","59944","1000","0.0166822367543","1","undefined","1","0","72","72","72","0","72","72","72","NA","72","72","0","72","NA","72","72","0","72","NA","72","NA","72","0","0","72","72","0","72","72","73","/","10/09/17 18:18:05","The main experiment item","yes","FIN__BA__M21__7%3A10%3A17.osexp","C:\Users\ERP Testing Room\Desktop\Joanna\morph21","no","mono","no","18","no","white","no","yes","1080","legacy","72","72","C:/Users/ERP Testing Room/Desktop/Joanna/morph21/subject-109.csv","xpyriment","Jazzy James","3.1.4","0","/","NA","NA","NA","NA","space","/","649","NA","NA","NA","NA","243360","649","2","legacy","1024","2","48000","-16","BA_m21","109","odd","CW_L","PUSHER","1361","516169","514586","511494","244730","NA","NA","NA","NA","516166","515083","NA","514086","NA","514077","516166","1369","516419","NA","NA","515177","1361","1361","515569","514077","1361","515177","516419","morph21_Oliver/Morris","65","51473","73","yes","1280","13"
"350","87.8378378378","87.8378378378","702.432432432","702.432432432","black","no","xpyriment","legacy","legacy","0","202","NA","uniform","64498","1000","0.0155043567242","0","undefined","0","0","73","73","73","0","73","73","73","NA","73","73","0","73","NA","73","73","0","73","NA","73","NA","73","0","0","73","73","0","73","73","74","/","10/09/17 18:18:05","The main experiment item","yes","FIN__BA__M21__7%3A10%3A17.osexp","C:\Users\ERP Testing Room\Desktop\Joanna\morph21","no","mono","no","18","no","white","no","yes","1080","legacy","73","73","C:/Users/ERP Testing Room/Desktop/Joanna/morph21/subject-109.csv","xpyriment","Jazzy James","3.1.4","0","z","NA","NA","NA","NA","space","z","507","NA","NA","NA","NA","243360","507","2","legacy","1024","2","48000","-16","BA_m21","109","odd","CW_L","RENTER","1361","519294","517711","511494","244730","NA","NA","NA","NA","516166","518208","NA","517211","NA","517201","519286","1369","519644","NA","NA","518294","1361","1361","518686","517201","1361","518294","519644","morph21_Oliver/Morris","65","51980","74","yes","1280","9"
"400","86.6666666667","86.6666666667","706.293333333","706.293333333","black","no","xpyriment","legacy","legacy","0","205","NA","uniform","51725","1000","0.0193330111165","undefined","undefined","0","0","74","74","74","0","74","74","74","NA","74","74","0","74","NA","74","74","0","74","NA","74","NA","74","0","0","74","74","0","74","74","75","z","10/09/17 18:18:05","The main experiment item","yes","FIN__BA__M21__7%3A10%3A17.osexp","C:\Users\ERP Testing Room\Desktop\Joanna\morph21","no","mono","no","18","no","white","no","yes","1080","legacy","74","74","C:/Users/ERP Testing Room/Desktop/Joanna/morph21/subject-109.csv","xpyriment","Jazzy James","3.1.4","0","z","z","NA","NA","NA","space","None","0","0","NA","NA","NA","243360","992","2","legacy","1024","2","48000","-16","BA_m21","109","odd","NW_S_SIMP","MEDICALARY","1361","524095","521003","522586","244730","524503","NA","NA","NA","516166","521500","NA","520503","NA","520493","522578","1369","524506","NA","NA","521586","1361","1361","521978","520493","1361","521586","524495","morph21_Oliver/Morris","65","52972","75","yes","1280","18"
"250","86.8421052632","86.8421052632","708.5","708.5","black","no","xpyriment","legacy","legacy","0","201","NA","uniform","49902","1000","0.0200392769829","1","undefined","1","0","75","75","75","0","75","75","75","NA","75","75","0","75","NA","75","75","0","75","NA","75","NA","75","0","0","75","75","0","75","75","76","/","10/09/17 18:18:05","The main experiment item","yes","FIN__BA__M21__7%3A10%3A17.osexp","C:\Users\ERP Testing Room\Desktop\Joanna\morph21","no","mono","no","18","no","white","no","yes","1080","legacy","75","75","C:/Users/ERP Testing Room/Desktop/Joanna/morph21/subject-109.csv","xpyriment","Jazzy James","3.1.4","0","/","z","NA","NA","NA","space","/","874","0","NA","NA","NA","243360","874","2","legacy","1024","2","48000","-16","BA_m21","109","odd","CW_S","NOTICEABLE","1361","527496","525887","522586","244730","524503","NA","NA","NA","527491","526384","NA","525387","NA","525378","527491","1369","527746","NA","NA","526496","1361","1361","526896","525378","1361","526496","527746","morph21_Oliver/Morris","66","53846","76","yes","1280","3"
"300","87.012987013","87.012987013","710.792207792","710.792207792","black","no","xpyriment","legacy","legacy","0","202","NA","uniform","51698","1000","0.0193431080506","1","undefined","1","0","76","76","76","0","76","76","76","NA","76","76","0","76","NA","76","76","0","76","NA","76","NA","76","0","0","76","76","0","76","76","77","/","10/09/17 18:18:05","The main experiment item","yes","FIN__BA__M21__7%3A10%3A17.osexp","C:\Users\ERP Testing Room\Desktop\Joanna\morph21","no","mono","no","18","no","white","no","yes","1080","legacy","76","76","C:/Users/ERP Testing Room/Desktop/Joanna/morph21/subject-109.csv","xpyriment","Jazzy James","3.1.4","0","/","z","NA","NA","NA","space","/","885","0","NA","NA","NA","243360","885","2","legacy","1024","2","48000","-16","BA_m21","109","odd","CW_L","DOUBTFUL","1361","530821","529221","522586","244730","524503","NA","NA","NA","530818","529718","NA","528713","NA","528707","530818","1369","531121","NA","NA","529829","1361","1361","530221","528707","1361","529829","531121","morph21_Oliver/Morris","67","54731","77","yes","1280","21"
"250","87.1794871795","87.1794871795","708.448717949","708.448717949","black","no","xpyriment","legacy","legacy","0","203","NA","uniform","61730","1000","0.016199578811","1","undefined","1","0","77","77","77","0","77","77","77","NA","77","77","0","77","NA","77","77","0","77","NA","77","NA","77","0","0","77","77","0","77","77","78","z","10/09/17 18:18:05","The main experiment item","yes","FIN__BA__M21__7%3A10%3A17.osexp","C:\Users\ERP Testing Room\Desktop\Joanna\morph21","no","mono","no","18","no","white","no","yes","1080","legacy","77","77","C:/Users/ERP Testing Room/Desktop/Joanna/morph21/subject-109.csv","xpyriment","Jazzy James","3.1.4","0","z","z","NA","NA","NA","space","z","528","0","NA","NA","NA","243360","528","2","legacy","1024","2","48000","-16","BA_m21","109","odd","NW_S_COMP","TREASONIME","1361","535654","532538","534146","244730","524503","NA","NA","NA","534136","533035","NA","532038","NA","532026","534136","1369","535905","NA","NA","533146","1361","1361","533538","532026","1361","533146","535905","morph21_Oliver/Morris","68","55259","78","yes","1280","14"
"400","87.3417721519","87.3417721519","710.607594937","710.607594937","black","no","xpyriment","legacy","legacy","0","208","NA","uniform","48292","1000","0.0207073635385","1","undefined","1","0","78","78","78","0","78","78","78","NA","78","78","0","78","NA","78","78","0","78","NA","78","NA","78","0","0","78","78","0","78","78","79","z","10/09/17 18:18:05","The main experiment item","yes","FIN__BA__M21__7%3A10%3A17.osexp","C:\Users\ERP Testing Room\Desktop\Joanna\morph21","no","mono","no","18","no","white","no","yes","1080","legacy","78","78","C:/Users/ERP Testing Room/Desktop/Joanna/morph21/subject-109.csv","xpyriment","Jazzy James","3.1.4","0","z","z","NA","NA","NA","space","z","879","0","NA","NA","NA","243360","879","2","legacy","1024","2","48000","-16","BA_m21","109","odd","FILL_NW","DROES","1361","538938","537330","534146","244730","524503","NA","NA","NA","538928","537827","NA","536830","NA","536822","538928","1369","539338","NA","NA","537938","1361","1361","538330","536822","1361","537938","539338","morph21_Oliver/Morris","69","56138","79","yes","1280","17"
"300","87.5","87.5","713.9625","713.9625","black","no","xpyriment","legacy","legacy","0","205","NA","uniform","52504","1000","0.019046167911","1","undefined","1","0","79","79","79","0","79","79","79","NA","79","79","0","79","NA","79","79","0","79","NA","79","NA","79","0","0","79","79","0","79","79","80","z","10/09/17 18:18:05","The main experiment item","yes","FIN__BA__M21__7%3A10%3A17.osexp","C:\Users\ERP Testing Room\Desktop\Joanna\morph21","no","mono","no","18","no","white","no","yes","1080","legacy","79","79","C:/Users/ERP Testing Room/Desktop/Joanna/morph21/subject-109.csv","xpyriment","Jazzy James","3.1.4","0","z","z","NA","NA","NA","space","z","979","0","NA","NA","NA","243360","979","2","legacy","1024","2","48000","-16","BA_m21","109","odd","NW_S_SIMP","NEXTNESS","1361","542272","540688","534146","244730","524503","NA","NA","NA","542264","541185","NA","540188","NA","540178","542264","1369","542572","NA","NA","541271","1361","1361","541663","540177","1361","541271","542572","morph21_Oliver/Morris","70","57117","80","yes","1280","9"
"250","87.6543209877","87.6543209877","714.061728395","714.061728395","black","no","xpyriment","legacy","legacy","0","207","NA","uniform","58347","1000","0.0171388417571","1","undefined","1","0","80","80","80","0","80","80","80","NA","80","80","0","80","NA","80","80","0","80","NA","80","NA","80","0","0","80","80","0","80","80","81","/","10/09/17 18:18:05","The main experiment item","yes","FIN__BA__M21__7%3A10%3A17.osexp","C:\Users\ERP Testing Room\Desktop\Joanna\morph21","no","mono","no","18","no","white","no","yes","1080","legacy","80","80","C:/Users/ERP Testing Room/Desktop/Joanna/morph21/subject-109.csv","xpyriment","Jazzy James","3.1.4","0","/","z","NA","NA","NA","space","/","722","0","NA","NA","NA","243360","722","2","legacy","1024","2","48000","-16","BA_m21","109","odd","FILL_W","SMOKE","1361","546964","543872","545456","244730","524503","NA","NA","NA","545448","544370","NA","543373","NA","543366","545448","1369","547214","NA","NA","544456","1361","1361","544847","543366","1361","544456","547214","morph21_Oliver/Morris","71","57839","81","yes","1280","50"
"250","87.8048780488","87.8048780488","712.890243902","712.890243902","black","no","xpyriment","legacy","legacy","0","207","NA","uniform","55032","1000","0.0181712458206","1","undefined","1","0","81","81","81","0","81","81","81","NA","81","81","0","81","NA","81","81","0","81","NA","81","NA","81","0","0","81","81","0","81","81","82","/","10/09/17 18:18:05","The main experiment item","yes","FIN__BA__M21__7%3A10%3A17.osexp","C:\Users\ERP Testing Room\Desktop\Joanna\morph21","no","mono","no","18","no","white","no","yes","1080","legacy","81","81","C:/Users/ERP Testing Room/Desktop/Joanna/morph21/subject-109.csv","xpyriment","Jazzy James","3.1.4","0","/","z","NA","NA","NA","space","/","618","0","NA","NA","NA","243360","618","2","legacy","1024","2","48000","-16","BA_m21","109","odd","FILL_W","PACK","1361","550048","548414","545456","244730","524503","NA","NA","NA","550038","548912","NA","547914","NA","547911","550038","1369","550298","NA","NA","549048","1361","1361","549439","547911","1361","549048","550298","morph21_Oliver/Morris","72","58457","82","yes","1280","41"
"200","87.9518072289","87.9518072289","712.819277108","712.819277108","black","no","xpyriment","legacy","legacy","0","208","NA","uniform","56173","1000","0.0178021469389","1","undefined","1","0","82","82","82","0","82","82","82","NA","82","82","0","82","NA","82","82","0","82","NA","82","NA","82","0","0","82","82","0","82","82","83","z","10/09/17 18:18:05","The main experiment item","yes","FIN__BA__M21__7%3A10%3A17.osexp","C:\Users\ERP Testing Room\Desktop\Joanna\morph21","no","mono","no","18","no","white","no","yes","1080","legacy","82","82","C:/Users/ERP Testing Room/Desktop/Joanna/morph21/subject-109.csv","xpyriment","Jazzy James","3.1.4","0","z","z","NA","NA","NA","space","z","707","0","NA","NA","NA","243360","707","2","legacy","1024","2","48000","-16","BA_m21","109","odd","FILL_NW","PUCTS","1361","553198","551589","545456","244730","524503","NA","NA","NA","553189","552087","NA","551090","NA","551080","553189","1369","553398","NA","NA","552198","1361","1361","552590","551080","1361","552198","553398","morph21_Oliver/Morris","73","59164","83","yes","1280","40"
"400","88.0952380952","88.0952380952","712.321428571","712.321428571","black","no","xpyriment","legacy","legacy","0","201","NA","uniform","60564","1000","0.0165114589525","1","undefined","1","0","83","83","83","0","83","83","83","NA","83","83","0","83","NA","83","83","0","83","NA","83","NA","83","0","0","83","83","0","83","83","84","/","10/09/17 18:18:05","The main experiment item","yes","FIN__BA__M21__7%3A10%3A17.osexp","C:\Users\ERP Testing Room\Desktop\Joanna\morph21","no","mono","no","18","no","white","no","yes","1080","legacy","83","83","C:/Users/ERP Testing Room/Desktop/Joanna/morph21/subject-109.csv","xpyriment","Jazzy James","3.1.4","0","/","z","NA","NA","NA","space","/","671","0","NA","NA","NA","243360","671","2","legacy","1024","2","48000","-16","BA_m21","109","odd","CW_S","DIETARY","1361","557815","554715","556306","244730","524503","NA","NA","NA","556301","555212","NA","554215","NA","554209","556301","1369","558215","NA","NA","555306","1361","1361","555706","554209","1361","555306","558215","morph21_Oliver/Morris","74","59835","84","yes","1280","6"
"400","88.2352941176","88.2352941176","711.952941176","711.952941176","black","no","xpyriment","legacy","legacy","0","201","NA","uniform","55978","1000","0.0178641609204","1","undefined","1","0","84","84","84","0","84","84","84","NA","84","84","0","84","NA","84","84","0","84","NA","84","NA","84","0","0","84","84","0","84","84","85","/","10/09/17 18:18:05","The main experiment item","yes","FIN__BA__M21__7%3A10%3A17.osexp","C:\Users\ERP Testing Room\Desktop\Joanna\morph21","no","mono","no","18","no","white","no","yes","1080","legacy","84","84","C:/Users/ERP Testing Room/Desktop/Joanna/morph21/subject-109.csv","xpyriment","Jazzy James","3.1.4","0","/","z","NA","NA","NA","space","/","681","0","NA","NA","NA","243360","681","2","legacy","1024","2","48000","-16","BA_m21","109","odd","CW_S","RAIDER","1361","561049","559431","556306","244730","524503","NA","NA","NA","561043","559929","NA","558932","NA","558928","561043","1369","561449","NA","NA","560049","1361","1361","560441","558928","1361","560049","561449","morph21_Oliver/Morris","75","60516","85","yes","1280","12"
"350","88.3720930233","88.3720930233","710.395348837","710.395348837","black","no","xpyriment","legacy","legacy","0","208","NA","uniform","68203","1000","0.0146621116373","1","undefined","1","0","85","85","85","0","85","85","85","NA","85","85","0","85","NA","85","85","0","85","NA","85","NA","85","0","0","85","85","0","85","85","86","z","10/09/17 18:18:05","The main experiment item","yes","FIN__BA__M21__7%3A10%3A17.osexp","C:\Users\ERP Testing Room\Desktop\Joanna\morph21","no","mono","no","18","no","white","no","yes","1080","legacy","85","85","C:/Users/ERP Testing Room/Desktop/Joanna/morph21/subject-109.csv","xpyriment","Jazzy James","3.1.4","0","z","z","NA","NA","NA","space","z","578","0","NA","NA","NA","243360","578","2","legacy","1024","2","48000","-16","BA_m21","109","odd","FILL_NW","HEAS","1361","564408","562808","556306","244730","524503","NA","NA","NA","564404","563305","NA","562308","NA","562298","564404","1369","564758","NA","NA","563408","1361","1361","563808","562298","1361","563408","564758","morph21_Oliver/Morris","76","61094","86","yes","1280","26"
"250","88.5057471264","88.5057471264","709.862068966","709.862068966","black","no","xpyriment","legacy","legacy","0","208","NA","uniform","67429","1000","0.0148304142135","1","undefined","1","0","86","86","86","0","86","86","86","NA","86","86","0","86","NA","86","86","0","86","NA","86","NA","86","0","0","86","86","0","86","86","87","z","10/09/17 18:18:05","The main experiment item","yes","FIN__BA__M21__7%3A10%3A17.osexp","C:\Users\ERP Testing Room\Desktop\Joanna\morph21","no","mono","no","18","no","white","no","yes","1080","legacy","86","86","C:/Users/ERP Testing Room/Desktop/Joanna/morph21/subject-109.csv","xpyriment","Jazzy James","3.1.4","0","z","z","NA","NA","NA","space","z","664","0","NA","NA","NA","243360","664","2","legacy","1024","2","48000","-16","BA_m21","109","odd","FILL_NW","LOLDS","1361","569158","566058","567650","244730","524503","NA","NA","NA","567642","566555","NA","565558","NA","565552","567642","1369","569408","NA","NA","566650","1361","1361","567041","565551","1361","566650","569408","morph21_Oliver/Morris","77","61758","87","yes","1280","34"
"300","87.5","87.5","707.670454545","707.670454545","black","no","xpyriment","legacy","legacy","0","207","NA","uniform","58875","1000","0.0169851380042","0","undefined","0","0","87","87","87","0","87","87","87","NA","87","87","0","87","NA","87","87","0","87","NA","87","NA","87","0","0","87","87","0","87","87","88","/","10/09/17 18:18:05","The main experiment item","yes","FIN__BA__M21__7%3A10%3A17.osexp","C:\Users\ERP Testing Room\Desktop\Joanna\morph21","no","mono","no","18","no","white","no","yes","1080","legacy","87","87","C:/Users/ERP Testing Room/Desktop/Joanna/morph21/subject-109.csv","xpyriment","Jazzy James","3.1.4","0","z","z","NA","NA","NA","space","z","517","0","NA","NA","NA","243360","517","2","legacy","1024","2","48000","-16","BA_m21","109","odd","FILL_W","IRON","1361","572316","570700","567650","244730","524503","NA","NA","NA","567642","571197","NA","570200","NA","570189","572308","1369","572616","NA","NA","571316","1361","1361","571708","570188","1361","571316","572616","morph21_Oliver/Morris","77","62275","88","yes","1280","33"
"400","87.6404494382","87.6404494382","707.921348315","707.921348315","black","no","xpyriment","legacy","legacy","0","204","NA","uniform","54665","1000","0.0182932406476","1","undefined","1","0","88","88","88","0","88","88","88","NA","88","88","0","88","NA","88","88","0","88","NA","88","NA","88","0","0","88","88","0","88","88","89","z","10/09/17 18:18:05","The main experiment item","yes","FIN__BA__M21__7%3A10%3A17.osexp","C:\Users\ERP Testing Room\Desktop\Joanna\morph21","no","mono","no","18","no","white","no","yes","1080","legacy","88","88","C:/Users/ERP Testing Room/Desktop/Joanna/morph21/subject-109.csv","xpyriment","Jazzy James","3.1.4","0","z","z","NA","NA","NA","space","z","730","0","NA","NA","NA","243360","730","2","legacy","1024","2","48000","-16","BA_m21","109","odd","NW_L_COMP","ANGELITH","1361","575583","573992","567650","244730","524503","NA","NA","NA","575573","574489","NA","573492","NA","573483","575573","1369","575983","NA","NA","574583","1361","1361","574975","573483","1361","574583","575983","morph21_Oliver/Morris","78","63005","89","yes","1280","7"
"350","87.7777777778","87.7777777778","707.033333333","707.033333333","black","no","xpyriment","legacy","legacy","0","202","NA","uniform","62095","1000","0.0161043562284","1","undefined","1","0","89","89","89","0","89","89","89","NA","89","89","0","89","NA","89","89","0","89","NA","89","NA","89","0","0","89","89","0","89","89","90","/","10/09/17 18:18:05","The main experiment item","yes","FIN__BA__M21__7%3A10%3A17.osexp","C:\Users\ERP Testing Room\Desktop\Joanna\morph21","no","mono","no","18","no","white","no","yes","1080","legacy","89","89","C:/Users/ERP Testing Room/Desktop/Joanna/morph21/subject-109.csv","xpyriment","Jazzy James","3.1.4","0","/","z","NA","NA","NA","space","/","628","0","NA","NA","NA","243360","628","2","legacy","1024","2","48000","-16","BA_m21","109","odd","CW_L","EDITOR","1361","580426","577318","578918","244730","524503","NA","NA","NA","578907","577815","NA","576817","NA","576806","578907","1369","580776","NA","NA","577918","1361","1361","578309","576806","1361","577918","580776","morph21_Oliver/Morris","79","63633","90","yes","1280","45"
"250","87.9120879121","87.9120879121","705.945054945","705.945054945","black","no","xpyriment","legacy","legacy","0","207","NA","uniform","69114","1000","0.014468848569","1","undefined","1","0","90","90","90","0","90","90","90","NA","90","90","0","90","NA","90","90","0","90","NA","90","NA","90","0","0","90","90","0","90","90","91","/","10/09/17 18:18:05","The main experiment item","yes","FIN__BA__M21__7%3A10%3A17.osexp","C:\Users\ERP Testing Room\Desktop\Joanna\morph21","no","mono","no","18","no","white","no","yes","1080","legacy","90","90","C:/Users/ERP Testing Room/Desktop/Joanna/morph21/subject-109.csv","xpyriment","Jazzy James","3.1.4","0","/","z","NA","NA","NA","space","/","608","0","NA","NA","NA","243360","608","2","legacy","1024","2","48000","-16","BA_m21","109","odd","FILL_W","WEAVE","1361","583626","582026","578918","244730","524503","NA","NA","NA","583618","582523","NA","581526","NA","581517","583618","1369","583876","NA","NA","582626","1361","1361","583018","581517","1361","582626","583876","morph21_Oliver/Morris","80","64241","91","yes","1280","12"
