"ITI","acc","accuracy","average_response_time","avg_rt","background","bidi","canvas_backend","clock_backend","color_backend","compensation","cond_trig","condtrigtime","coordinates","coroutines_cycles","coroutines_duration","coroutines_mean_cycle_duration","correct","correct_instructions_1","correct_new_keyboard_response_1","count_AB_m21","count_ITI","count_blank_screen","count_blink_screen","count_block1","count_break1","count_break2","count_break3_1","count_canvas","count_correct_trigger","count_def_chain","count_end_screen","count_fixation_1","count_getting_started","count_inc_counter","count_incorrect_trigger","count_instructions_1","count_logger","count_logscript","count_new_coroutines","count_new_inline_script","count_new_keyboard_response_1","count_reset_counter_prep","count_reset_counter_run","count_responsescreen","count_sequence","count_start_trigger","count_target_present","count_word_trigger","counter","cresp","datetime","description","disable_garbage_collection","experiment_file","experiment_path","font_bold","font_family","font_italic","font_size","font_underline","foreground","form_clicks","fullscreen","height","keyboard_backend","live_row","live_row_block1","logfile","mouse_backend","opensesame_codename","opensesame_version","repeat_cycle","response","response_break1","response_break2","response_break3_1","response_end_screen","response_instructions_1","response_new_keyboard_response_1","response_time","response_time_break1","response_time_break2","response_time_break3_1","response_time_end_screen","response_time_instructions_1","response_time_new_keyboard_response_1","round_decimals","sampler_backend","sound_buf_size","sound_channels","sound_freq","sound_sample_size","start","subject_nr","subject_parity","targ_type","target","time_AB_m21","time_ITI","time_blank_screen","time_blink_screen","time_block1","time_break1","time_break2","time_break3_1","time_canvas","time_correct_trigger","time_def_chain","time_end_screen","time_fixation_1","time_getting_started","time_inc_counter","time_incorrect_trigger","time_instructions_1","time_logger","time_logscript","time_new_inline_script","time_new_keyboard_response_1","time_reset_counter_prep","time_reset_counter_run","time_responsescreen","time_sequence","time_start_trigger","time_target_present","time_word_trigger","title","total_correct","total_response_time","total_responses","uniform_coordinates","width","word_trig"
"200","0","0","991","991","black","no","xpyriment","legacy","legacy","0","208","NA","uniform","52615","1000","0.0190059868859","0","undefined","0","0","0","0","0","0","0","0","0","NA","0","0","0","0","NA","0","0","0","0","NA","0","NA","0","0","0","0","0","0","0","0","1","z","11/30/17 16:05:56","The main experiment item","yes","FIN__AB__M21__7%3A10%3A17.osexp","C:\Users\ERP Testing Room\Desktop\Joanna\morph21","no","mono","no","18","no","white","no","yes","1080","legacy","0","0","C:/Users/ERP Testing Room/Desktop/Joanna/morph21/subject-116.csv","xpyriment","Jazzy James","3.1.4","0","None","NA","NA","NA","NA","/","None","991","NA","NA","NA","NA","270112","991","2","legacy","1024","2","48000","-16","AB_m21","116","even","FILL_NW","HOITS","1359","274380","272788","NA","271482","NA","NA","NA","NA","NA","273285","NA","272282","NA","272211","274372","1369","274580","NA","NA","273380","1360","1360","273771","272211","1360","273379","274580","morph21_Oliver/Morris","0","991","1","yes","1280","30"
"200","50","50","929","929","black","no","xpyriment","legacy","legacy","0","201","NA","uniform","67543","1000","0.0148053832373","1","undefined","1","0","1","1","1","0","1","1","1","NA","1","1","0","1","NA","1","1","0","1","NA","1","NA","1","0","0","1","1","0","1","1","2","/","11/30/17 16:05:56","The main experiment item","yes","FIN__AB__M21__7%3A10%3A17.osexp","C:\Users\ERP Testing Room\Desktop\Joanna\morph21","no","mono","no","18","no","white","no","yes","1080","legacy","1","1","C:/Users/ERP Testing Room/Desktop/Joanna/morph21/subject-116.csv","xpyriment","Jazzy James","3.1.4","0","/","NA","NA","NA","NA","/","/","867","NA","NA","NA","NA","270112","867","2","legacy","1024","2","48000","-16","AB_m21","116","even","CW_S","ANGELIC","1359","277430","275821","NA","271482","NA","NA","NA","NA","277421","276318","NA","275321","NA","275313","277421","1369","277630","NA","NA","276430","1360","1360","276821","275313","1360","276430","277630","morph21_Oliver/Morris","1","1858","2","yes","1280","25"
"200","33.3333333333","33.3333333333","951","951","black","no","xpyriment","legacy","legacy","0","202","NA","uniform","59698","1000","0.0167509799323","0","undefined","0","0","2","2","2","0","2","2","2","NA","2","2","0","2","NA","2","2","0","2","NA","2","NA","2","0","0","2","2","0","2","2","3","/","11/30/17 16:05:56","The main experiment item","yes","FIN__AB__M21__7%3A10%3A17.osexp","C:\Users\ERP Testing Room\Desktop\Joanna\morph21","no","mono","no","18","no","white","no","yes","1080","legacy","2","2","C:/Users/ERP Testing Room/Desktop/Joanna/morph21/subject-116.csv","xpyriment","Jazzy James","3.1.4","0","None","NA","NA","NA","NA","/","None","995","NA","NA","NA","NA","270112","995","2","legacy","1024","2","48000","-16","AB_m21","116","even","CW_L","VERBAL","1359","281888","278796","280380","271482","NA","NA","NA","NA","277421","279294","NA","278296","NA","278291","280375","1369","282088","NA","NA","279380","1360","1360","279780","278291","1360","279380","282088","morph21_Oliver/Morris","1","2853","3","yes","1280","50"
"400","25","25","961.25","961.25","black","no","xpyriment","legacy","legacy","0","202","NA","uniform","58573","1000","0.0170727126833","0","undefined","0","0","3","3","3","0","3","3","3","NA","3","3","0","3","NA","3","3","0","3","NA","3","NA","3","0","0","3","3","0","3","3","4","/","11/30/17 16:05:56","The main experiment item","yes","FIN__AB__M21__7%3A10%3A17.osexp","C:\Users\ERP Testing Room\Desktop\Joanna\morph21","no","mono","no","18","no","white","no","yes","1080","legacy","3","3","C:/Users/ERP Testing Room/Desktop/Joanna/morph21/subject-116.csv","xpyriment","Jazzy James","3.1.4","0","None","NA","NA","NA","NA","/","None","992","NA","NA","NA","NA","270112","992","2","legacy","1024","2","48000","-16","AB_m21","116","even","CW_L","SPELLER","1359","284864","283281","280380","271482","NA","NA","NA","NA","277421","283778","NA","282780","NA","282772","284857","1369","285265","NA","NA","283864","1360","1360","284256","282772","1360","283864","285265","morph21_Oliver/Morris","1","3845","4","yes","1280","3"
"250","20","20","967.8","967.8","black","no","xpyriment","legacy","legacy","0","204","NA","uniform","58834","1000","0.0169969745385","0","undefined","0","0","4","4","4","0","4","4","4","NA","4","4","0","4","NA","4","4","0","4","NA","4","NA","4","0","0","4","4","0","4","4","5","z","11/30/17 16:05:56","The main experiment item","yes","FIN__AB__M21__7%3A10%3A17.osexp","C:\Users\ERP Testing Room\Desktop\Joanna\morph21","no","mono","no","18","no","white","no","yes","1080","legacy","4","4","C:/Users/ERP Testing Room/Desktop/Joanna/morph21/subject-116.csv","xpyriment","Jazzy James","3.1.4","0","None","NA","NA","NA","NA","/","None","994","NA","NA","NA","NA","270112","994","2","legacy","1024","2","48000","-16","AB_m21","116","even","NW_L_COMP","TRIPARY","1359","288031","286448","280380","271482","NA","NA","NA","NA","277421","286945","NA","285939","NA","285934","288025","1369","288281","NA","NA","287031","1360","1360","287423","285934","1360","287031","288281","morph21_Oliver/Morris","1","4839","5","yes","1280","2"
"250","33.3333333333","33.3333333333","969.166666667","969.166666667","black","no","xpyriment","legacy","legacy","0","201","NA","uniform","57764","1000","0.017311820511","1","undefined","1","0","5","5","5","0","5","5","5","NA","5","5","0","5","NA","5","5","0","5","NA","5","NA","5","0","0","5","5","0","5","5","6","/","11/30/17 16:05:56","The main experiment item","yes","FIN__AB__M21__7%3A10%3A17.osexp","C:\Users\ERP Testing Room\Desktop\Joanna\morph21","no","mono","no","18","no","white","no","yes","1080","legacy","5","5","C:/Users/ERP Testing Room/Desktop/Joanna/morph21/subject-116.csv","xpyriment","Jazzy James","3.1.4","0","/","NA","NA","NA","NA","/","/","976","NA","NA","NA","NA","270112","976","2","legacy","1024","2","48000","-16","AB_m21","116","even","CW_S","HARMLESS","1359","292573","289456","291065","271482","NA","NA","NA","NA","291058","289953","NA","288956","NA","288949","291058","1369","292823","NA","NA","290065","1360","1360","290456","288949","1360","290065","292823","morph21_Oliver/Morris","2","5815","6","yes","1280","29"
"300","42.8571428571","42.8571428571","893.857142857","893.857142857","black","no","xpyriment","legacy","legacy","0","207","NA","uniform","77201","1000","0.0129532000881","1","undefined","1","0","6","6","6","0","6","6","6","NA","6","6","0","6","NA","6","6","0","6","NA","6","NA","6","0","0","6","6","0","6","6","7","/","11/30/17 16:05:56","The main experiment item","yes","FIN__AB__M21__7%3A10%3A17.osexp","C:\Users\ERP Testing Room\Desktop\Joanna\morph21","no","mono","no","18","no","white","no","yes","1080","legacy","6","6","C:/Users/ERP Testing Room/Desktop/Joanna/morph21/subject-116.csv","xpyriment","Jazzy James","3.1.4","0","/","NA","NA","NA","NA","/","/","442","NA","NA","NA","NA","270112","442","2","legacy","1024","2","48000","-16","AB_m21","116","even","FILL_W","BOX","1359","295606","294015","291065","271482","NA","NA","NA","NA","295596","294512","NA","293515","NA","293505","295596","1369","295907","NA","NA","294607","1360","1360","294998","293505","1360","294606","295907","morph21_Oliver/Morris","3","6257","7","yes","1280","42"
"200","50","50","890.75","890.75","black","no","xpyriment","legacy","legacy","0","208","NA","uniform","62968","1000","0.0158810824546","1","undefined","1","0","7","7","7","0","7","7","7","NA","7","7","0","7","NA","7","7","0","7","NA","7","NA","7","0","0","7","7","0","7","7","8","z","11/30/17 16:05:56","The main experiment item","yes","FIN__AB__M21__7%3A10%3A17.osexp","C:\Users\ERP Testing Room\Desktop\Joanna\morph21","no","mono","no","18","no","white","no","yes","1080","legacy","7","7","C:/Users/ERP Testing Room/Desktop/Joanna/morph21/subject-116.csv","xpyriment","Jazzy James","3.1.4","0","z","NA","NA","NA","NA","/","z","869","NA","NA","NA","NA","270112","869","2","legacy","1024","2","48000","-16","AB_m21","116","even","FILL_NW","FROT","1359","298740","297157","291065","271482","NA","NA","NA","NA","298735","297654","NA","296657","NA","296651","298735","1369","298940","NA","NA","297740","1360","1360","298140","296651","1360","297740","298940","morph21_Oliver/Morris","4","7126","8","yes","1280","22"
"350","44.4444444444","44.4444444444","902.333333333","902.333333333","black","no","xpyriment","legacy","legacy","0","205","NA","uniform","58149","1000","0.0171972002958","0","undefined","0","0","8","8","8","0","8","8","8","NA","8","8","0","8","NA","8","8","0","8","NA","8","NA","8","0","0","8","8","0","8","8","9","z","11/30/17 16:05:56","The main experiment item","yes","FIN__AB__M21__7%3A10%3A17.osexp","C:\Users\ERP Testing Room\Desktop\Joanna\morph21","no","mono","no","18","no","white","no","yes","1080","legacy","8","8","C:/Users/ERP Testing Room/Desktop/Joanna/morph21/subject-116.csv","xpyriment","Jazzy James","3.1.4","0","None","NA","NA","NA","NA","/","None","995","NA","NA","NA","NA","270112","995","2","legacy","1024","2","48000","-16","AB_m21","116","even","NW_S_SIMP","ACREMANT","1359","303191","300082","301683","271482","NA","NA","NA","NA","298735","300579","NA","299582","NA","299574","301677","1369","303541","NA","NA","300682","1360","1360","301074","299574","1360","300682","303541","morph21_Oliver/Morris","4","8121","9","yes","1280","16"
"300","40","40","910.9","910.9","black","no","xpyriment","legacy","legacy","0","202","NA","uniform","53793","1000","0.0185897793393","0","undefined","0","0","9","9","9","0","9","9","9","NA","9","9","0","9","NA","9","9","0","9","NA","9","NA","9","0","0","9","9","0","9","9","10","/","11/30/17 16:05:56","The main experiment item","yes","FIN__AB__M21__7%3A10%3A17.osexp","C:\Users\ERP Testing Room\Desktop\Joanna\morph21","no","mono","no","18","no","white","no","yes","1080","legacy","9","9","C:/Users/ERP Testing Room/Desktop/Joanna/morph21/subject-116.csv","xpyriment","Jazzy James","3.1.4","0","None","NA","NA","NA","NA","/","None","988","NA","NA","NA","NA","270112","988","2","legacy","1024","2","48000","-16","AB_m21","116","even","CW_L","DAMPISH","1359","306466","304866","301683","271482","NA","NA","NA","NA","298735","305363","NA","304366","NA","304358","306463","1369","306766","NA","NA","305475","1360","1360","305866","304358","1360","305475","306766","morph21_Oliver/Morris","4","9109","10","yes","1280","28"
"200","45.4545454545","45.4545454545","883.363636364","883.363636364","black","no","xpyriment","legacy","legacy","0","206","NA","uniform","70929","1000","0.0140986056479","1","undefined","1","0","10","10","10","0","10","10","10","NA","10","10","0","10","NA","10","10","0","10","NA","10","NA","10","0","0","10","10","0","10","10","11","z","11/30/17 16:05:56","The main experiment item","yes","FIN__AB__M21__7%3A10%3A17.osexp","C:\Users\ERP Testing Room\Desktop\Joanna\morph21","no","mono","no","18","no","white","no","yes","1080","legacy","10","10","C:/Users/ERP Testing Room/Desktop/Joanna/morph21/subject-116.csv","xpyriment","Jazzy James","3.1.4","0","z","NA","NA","NA","NA","/","z","608","NA","NA","NA","NA","270112","608","2","legacy","1024","2","48000","-16","AB_m21","116","even","NW_L_SIMP","TOWERLA","1359","309625","308025","301683","271482","NA","NA","NA","NA","309618","308522","NA","307525","NA","307513","309618","1369","309825","NA","NA","308625","1360","1360","309016","307513","1360","308625","309825","morph21_Oliver/Morris","5","9717","11","yes","1280","15"
"200","50","50","846.166666667","846.166666667","black","no","xpyriment","legacy","legacy","0","207","NA","uniform","82499","1000","0.0121213590468","1","undefined","1","0","11","11","11","0","11","11","11","NA","11","11","0","11","NA","11","11","0","11","NA","11","NA","11","0","0","11","11","0","11","11","12","/","11/30/17 16:05:56","The main experiment item","yes","FIN__AB__M21__7%3A10%3A17.osexp","C:\Users\ERP Testing Room\Desktop\Joanna\morph21","no","mono","no","18","no","white","no","yes","1080","legacy","11","11","C:/Users/ERP Testing Room/Desktop/Joanna/morph21/subject-116.csv","xpyriment","Jazzy James","3.1.4","0","/","NA","NA","NA","NA","/","/","437","NA","NA","NA","NA","270112","437","2","legacy","1024","2","48000","-16","AB_m21","116","even","FILL_W","BLEAK","1359","314200","311100","312691","271482","NA","NA","NA","NA","312682","311597","NA","310600","NA","310596","312682","1369","314400","NA","NA","311692","1360","1360","312083","310596","1360","311692","314400","morph21_Oliver/Morris","6","10154","12","yes","1280","5"
"250","46.1538461538","46.1538461538","857.461538462","857.461538462","black","no","xpyriment","legacy","legacy","0","206","NA","uniform","52498","1000","0.0190483446988","0","undefined","0","0","12","12","12","0","12","12","12","NA","12","12","0","12","NA","12","12","0","12","NA","12","NA","12","0","0","12","12","0","12","12","13","z","11/30/17 16:05:56","The main experiment item","yes","FIN__AB__M21__7%3A10%3A17.osexp","C:\Users\ERP Testing Room\Desktop\Joanna\morph21","no","mono","no","18","no","white","no","yes","1080","legacy","12","12","C:/Users/ERP Testing Room/Desktop/Joanna/morph21/subject-116.csv","xpyriment","Jazzy James","3.1.4","0","None","NA","NA","NA","NA","/","None","993","NA","NA","NA","NA","270112","993","2","legacy","1024","2","48000","-16","AB_m21","116","even","NW_L_SIMP"," DRESSODY","1359","317158","315567","312691","271482","NA","NA","NA","NA","312682","316064","NA","315067","NA","315064","317151","1369","317408","NA","NA","316158","1360","1360","316550","315064","1360","316158","317408","morph21_Oliver/Morris","6","11147","13","yes","1280","21"
"350","50","50","835.071428571","835.071428571","black","no","xpyriment","legacy","legacy","0","201","NA","uniform","74565","1000","0.0134111178167","1","undefined","1","0","13","13","13","0","13","13","13","NA","13","13","0","13","NA","13","13","0","13","NA","13","NA","13","0","0","13","13","0","13","13","14","/","11/30/17 16:05:56","The main experiment item","yes","FIN__AB__M21__7%3A10%3A17.osexp","C:\Users\ERP Testing Room\Desktop\Joanna\morph21","no","mono","no","18","no","white","no","yes","1080","legacy","13","13","C:/Users/ERP Testing Room/Desktop/Joanna/morph21/subject-116.csv","xpyriment","Jazzy James","3.1.4","0","/","NA","NA","NA","NA","/","/","544","NA","NA","NA","NA","270112","544","2","legacy","1024","2","48000","-16","AB_m21","116","even","CW_S","LENDER","1359","320226","318643","312691","271482","NA","NA","NA","NA","320219","319140","NA","318142","NA","318131","320219","1369","320576","NA","NA","319226","1360","1360","319618","318131","1360","319226","320576","morph21_Oliver/Morris","7","11691","14","yes","1280","11"
"200","46.6666666667","46.6666666667","845.666666667","845.666666667","black","no","xpyriment","legacy","legacy","0","204","NA","uniform","59936","1000","0.0166844634277","0","undefined","0","0","14","14","14","0","14","14","14","NA","14","14","0","14","NA","14","14","0","14","NA","14","NA","14","0","0","14","14","0","14","14","15","z","11/30/17 16:05:56","The main experiment item","yes","FIN__AB__M21__7%3A10%3A17.osexp","C:\Users\ERP Testing Room\Desktop\Joanna\morph21","no","mono","no","18","no","white","no","yes","1080","legacy","14","14","C:/Users/ERP Testing Room/Desktop/Joanna/morph21/subject-116.csv","xpyriment","Jazzy James","3.1.4","0","None","NA","NA","NA","NA","/","None","994","NA","NA","NA","NA","270112","994","2","legacy","1024","2","48000","-16","AB_m21","116","even","NW_L_COMP","GASFUL","1359","324851","321760","323343","271482","NA","NA","NA","NA","320219","322257","NA","321260","NA","321254","323337","1369","325052","NA","NA","322343","1360","1360","322735","321254","1360","322343","325052","morph21_Oliver/Morris","7","12685","15","yes","1280","6"
"300","43.75","43.75","855.0625","855.0625","black","no","xpyriment","legacy","legacy","0","203","NA","uniform","54859","1000","0.0182285495543","0","undefined","0","0","15","15","15","0","15","15","15","NA","15","15","0","15","NA","15","15","0","15","NA","15","NA","15","0","0","15","15","0","15","15","16","z","11/30/17 16:05:56","The main experiment item","yes","FIN__AB__M21__7%3A10%3A17.osexp","C:\Users\ERP Testing Room\Desktop\Joanna\morph21","no","mono","no","18","no","white","no","yes","1080","legacy","15","15","C:/Users/ERP Testing Room/Desktop/Joanna/morph21/subject-116.csv","xpyriment","Jazzy James","3.1.4","0","None","NA","NA","NA","NA","/","None","996","NA","NA","NA","NA","270112","996","2","legacy","1024","2","48000","-16","AB_m21","116","even","NW_S_COMP","FIGER","1359","327843","326268","323343","271482","NA","NA","NA","NA","320219","326765","NA","325768","NA","325758","327839","1369","328143","NA","NA","326843","1360","1360","327243","325758","1360","326843","328143","morph21_Oliver/Morris","7","13681","16","yes","1280","4"
"200","47.0588235294","47.0588235294","845.823529412","845.823529412","black","no","xpyriment","legacy","legacy","0","207","NA","uniform","63033","1000","0.015864705789","1","undefined","1","0","16","16","16","0","16","16","16","NA","16","16","0","16","NA","16","16","0","16","NA","16","NA","16","0","0","16","16","0","16","16","17","/","11/30/17 16:05:56","The main experiment item","yes","FIN__AB__M21__7%3A10%3A17.osexp","C:\Users\ERP Testing Room\Desktop\Joanna\morph21","no","mono","no","18","no","white","no","yes","1080","legacy","16","16","C:/Users/ERP Testing Room/Desktop/Joanna/morph21/subject-116.csv","xpyriment","Jazzy James","3.1.4","0","/","NA","NA","NA","NA","/","/","698","NA","NA","NA","NA","270112","698","2","legacy","1024","2","48000","-16","AB_m21","116","even","FILL_W","OLD","1359","330943","329360","323343","271482","NA","NA","NA","NA","330934","329857","NA","328860","NA","328856","330934","1369","331143","NA","NA","329943","1360","1360","330335","328856","1360","329943","331143","morph21_Oliver/Morris","8","14379","17","yes","1280","44"
"250","50","50","846.444444444","846.444444444","black","no","xpyriment","legacy","legacy","0","208","NA","uniform","64754","1000","0.0154430614325","1","undefined","1","0","17","17","17","0","17","17","17","NA","17","17","0","17","NA","17","17","0","17","NA","17","NA","17","0","0","17","17","0","17","17","18","z","11/30/17 16:05:56","The main experiment item","yes","FIN__AB__M21__7%3A10%3A17.osexp","C:\Users\ERP Testing Room\Desktop\Joanna\morph21","no","mono","no","18","no","white","no","yes","1080","legacy","17","17","C:/Users/ERP Testing Room/Desktop/Joanna/morph21/subject-116.csv","xpyriment","Jazzy James","3.1.4","0","z","NA","NA","NA","NA","/","z","857","NA","NA","NA","NA","270112","857","2","legacy","1024","2","48000","-16","AB_m21","116","even","FILL_NW","LOLDS","1359","335469","332352","333960","271482","NA","NA","NA","NA","333957","332849","NA","331852","NA","331845","333957","1369","335719","NA","NA","332968","1360","1360","333360","331845","1360","332968","335719","morph21_Oliver/Morris","9","15236","18","yes","1280","34"
"250","52.6315789474","52.6315789474","826","826","black","no","xpyriment","legacy","legacy","0","207","NA","uniform","78101","1000","0.0128039333683","1","undefined","1","0","18","18","18","0","18","18","18","NA","18","18","0","18","NA","18","18","0","18","NA","18","NA","18","0","0","18","18","0","18","18","19","/","11/30/17 16:05:56","The main experiment item","yes","FIN__AB__M21__7%3A10%3A17.osexp","C:\Users\ERP Testing Room\Desktop\Joanna\morph21","no","mono","no","18","no","white","no","yes","1080","legacy","18","18","C:/Users/ERP Testing Room/Desktop/Joanna/morph21/subject-116.csv","xpyriment","Jazzy James","3.1.4","0","/","NA","NA","NA","NA","/","/","458","NA","NA","NA","NA","270112","458","2","legacy","1024","2","48000","-16","AB_m21","116","even","FILL_W","SOFT","1359","338520","336928","333960","271482","NA","NA","NA","NA","338512","337425","NA","336428","NA","336424","338512","1369","338770","NA","NA","337520","1360","1360","337911","336424","1360","337520","338770","morph21_Oliver/Morris","10","15694","19","yes","1280","43"
"250","55","55","813.35","813.35","black","no","xpyriment","legacy","legacy","0","201","NA","uniform","71636","1000","0.0139594617232","1","undefined","1","0","19","19","19","0","19","19","19","NA","19","19","0","19","NA","19","19","0","19","NA","19","NA","19","0","0","19","19","0","19","19","20","/","11/30/17 16:05:56","The main experiment item","yes","FIN__AB__M21__7%3A10%3A17.osexp","C:\Users\ERP Testing Room\Desktop\Joanna\morph21","no","mono","no","18","no","white","no","yes","1080","legacy","19","19","C:/Users/ERP Testing Room/Desktop/Joanna/morph21/subject-116.csv","xpyriment","Jazzy James","3.1.4","0","/","NA","NA","NA","NA","/","/","573","NA","NA","NA","NA","270112","573","2","legacy","1024","2","48000","-16","AB_m21","116","even","CW_S","PEAKING","1359","341628","340020","333960","271482","NA","NA","NA","NA","341622","340517","NA","339520","NA","339513","341622","1369","341878","NA","NA","340628","1360","1360","341020","339513","1360","340628","341878","morph21_Oliver/Morris","11","16267","20","yes","1280","28"
"250","57.1428571429","57.1428571429","802.238095238","802.238095238","black","no","xpyriment","legacy","legacy","0","201","NA","uniform","72029","1000","0.0138832970054","1","undefined","1","0","20","20","20","0","20","20","20","NA","20","20","0","20","NA","20","20","0","20","NA","20","NA","20","0","0","20","20","0","20","20","21","/","11/30/17 16:05:56","The main experiment item","yes","FIN__AB__M21__7%3A10%3A17.osexp","C:\Users\ERP Testing Room\Desktop\Joanna\morph21","no","mono","no","18","no","white","no","yes","1080","legacy","20","20","C:/Users/ERP Testing Room/Desktop/Joanna/morph21/subject-116.csv","xpyriment","Jazzy James","3.1.4","0","/","NA","NA","NA","NA","/","/","580","NA","NA","NA","NA","270112","580","2","legacy","1024","2","48000","-16","AB_m21","116","even","CW_S","MOSSY","1359","346153","343062","344645","271482","NA","NA","NA","NA","344636","343559","NA","342562","NA","342552","344636","1369","346404","NA","NA","343645","1360","1360","344037","342552","1360","343645","346404","morph21_Oliver/Morris","12","16847","21","yes","1280","47"
"400","59.0909090909","59.0909090909","788.909090909","788.909090909","black","no","xpyriment","legacy","legacy","0","202","NA","uniform","71950","1000","0.0138985406532","1","undefined","1","0","21","21","21","0","21","21","21","NA","21","21","0","21","NA","21","21","0","21","NA","21","NA","21","0","0","21","21","0","21","21","22","/","11/30/17 16:05:56","The main experiment item","yes","FIN__AB__M21__7%3A10%3A17.osexp","C:\Users\ERP Testing Room\Desktop\Joanna\morph21","no","mono","no","18","no","white","no","yes","1080","legacy","21","21","C:/Users/ERP Testing Room/Desktop/Joanna/morph21/subject-116.csv","xpyriment","Jazzy James","3.1.4","0","/","NA","NA","NA","NA","/","/","509","NA","NA","NA","NA","270112","509","2","legacy","1024","2","48000","-16","AB_m21","116","even","CW_L","DRYNESS","1359","349212","347612","344645","271482","NA","NA","NA","NA","349208","348109","NA","347112","NA","347101","349208","1369","349612","NA","NA","348212","1360","1360","348612","347101","1360","348212","349612","morph21_Oliver/Morris","13","17356","22","yes","1280","42"
"350","56.5217391304","56.5217391304","797.608695652","797.608695652","black","no","xpyriment","legacy","legacy","0","202","NA","uniform","58985","1000","0.0169534627448","0","undefined","0","0","22","22","22","0","22","22","22","NA","22","22","0","22","NA","22","22","0","22","NA","22","NA","22","0","0","22","22","0","22","22","23","/","11/30/17 16:05:56","The main experiment item","yes","FIN__AB__M21__7%3A10%3A17.osexp","C:\Users\ERP Testing Room\Desktop\Joanna\morph21","no","mono","no","18","no","white","no","yes","1080","legacy","22","22","C:/Users/ERP Testing Room/Desktop/Joanna/morph21/subject-116.csv","xpyriment","Jazzy James","3.1.4","0","None","NA","NA","NA","NA","/","None","989","NA","NA","NA","NA","270112","989","2","legacy","1024","2","48000","-16","AB_m21","116","even","CW_L","GUILELESS","1359","352412","350837","344645","271482","NA","NA","NA","NA","349208","351334","NA","350337","NA","350326","352409","1369","352762","NA","NA","351420","1360","1360","351812","350326","1360","351420","352762","morph21_Oliver/Morris","13","18345","23","yes","1280","31"
"350","58.3333333333","58.3333333333","799.375","799.375","black","no","xpyriment","legacy","legacy","0","208","NA","uniform","61001","1000","0.0163931738824","1","undefined","1","0","23","23","23","0","23","23","23","NA","23","23","0","23","NA","23","23","0","23","NA","23","NA","23","0","0","23","23","0","23","23","24","z","11/30/17 16:05:56","The main experiment item","yes","FIN__AB__M21__7%3A10%3A17.osexp","C:\Users\ERP Testing Room\Desktop\Joanna\morph21","no","mono","no","18","no","white","no","yes","1080","legacy","23","23","C:/Users/ERP Testing Room/Desktop/Joanna/morph21/subject-116.csv","xpyriment","Jazzy James","3.1.4","0","z","NA","NA","NA","NA","/","z","840","NA","NA","NA","NA","270112","840","2","legacy","1024","2","48000","-16","AB_m21","116","even","FILL_NW","DELP","1359","357047","353955","355538","271482","NA","NA","NA","NA","355531","354452","NA","353455","NA","353448","355531","1369","357397","NA","NA","354538","1360","1360","354930","353448","1360","354538","357397","morph21_Oliver/Morris","14","19185","24","yes","1280","14"
"400","56","56","807.2","807.2","black","no","xpyriment","legacy","legacy","0","205","NA","uniform","60331","1000","0.0165752266662","0","undefined","0","0","24","24","24","0","24","24","24","NA","24","24","0","24","NA","24","24","0","24","NA","24","NA","24","0","0","24","24","0","24","24","25","z","11/30/17 16:05:56","The main experiment item","yes","FIN__AB__M21__7%3A10%3A17.osexp","C:\Users\ERP Testing Room\Desktop\Joanna\morph21","no","mono","no","18","no","white","no","yes","1080","legacy","24","24","C:/Users/ERP Testing Room/Desktop/Joanna/morph21/subject-116.csv","xpyriment","Jazzy James","3.1.4","0","None","NA","NA","NA","NA","/","None","995","NA","NA","NA","NA","270112","995","2","legacy","1024","2","48000","-16","AB_m21","116","even","NW_S_SIMP","MEDICALADY","1359","360288","358688","355538","271482","NA","NA","NA","NA","355531","359185","NA","358188","NA","358180","360284","1369","360688","NA","NA","359288","1360","1360","359688","358180","1360","359288","360688","morph21_Oliver/Morris","14","20180","25","yes","1280","18"
"350","57.6923076923","57.6923076923","798.384615385","798.384615385","black","no","xpyriment","legacy","legacy","0","201","NA","uniform","76874","1000","0.013008299295","1","undefined","1","0","25","25","25","0","25","25","25","NA","25","25","0","25","NA","25","25","0","25","NA","25","NA","25","0","0","25","25","0","25","25","26","/","11/30/17 16:05:56","The main experiment item","yes","FIN__AB__M21__7%3A10%3A17.osexp","C:\Users\ERP Testing Room\Desktop\Joanna\morph21","no","mono","no","18","no","white","no","yes","1080","legacy","25","25","C:/Users/ERP Testing Room/Desktop/Joanna/morph21/subject-116.csv","xpyriment","Jazzy James","3.1.4","0","/","NA","NA","NA","NA","/","/","578","NA","NA","NA","NA","270112","578","2","legacy","1024","2","48000","-16","AB_m21","116","even","CW_S","DENSELY","1359","363463","361880","355538","271482","NA","NA","NA","NA","363456","362377","NA","361380","NA","361371","363456","1369","363814","NA","NA","362463","1360","1360","362855","361371","1360","362463","363814","morph21_Oliver/Morris","15","20758","26","yes","1280","32"
"300","55.5555555556","55.5555555556","805.592592593","805.592592593","black","no","xpyriment","legacy","legacy","0","204","NA","uniform","57899","1000","0.0172714554656","0","undefined","0","0","26","26","26","0","26","26","26","NA","26","26","0","26","NA","26","26","0","26","NA","26","NA","26","0","0","26","26","0","26","26","27","z","11/30/17 16:05:56","The main experiment item","yes","FIN__AB__M21__7%3A10%3A17.osexp","C:\Users\ERP Testing Room\Desktop\Joanna\morph21","no","mono","no","18","no","white","no","yes","1080","legacy","26","26","C:/Users/ERP Testing Room/Desktop/Joanna/morph21/subject-116.csv","xpyriment","Jazzy James","3.1.4","0","None","NA","NA","NA","NA","/","None","993","NA","NA","NA","NA","270112","993","2","legacy","1024","2","48000","-16","AB_m21","116","even","NW_L_COMP","BINDIC","1359","368105","364989","366597","271482","NA","NA","NA","NA","363456","365486","NA","364489","NA","364485","366591","1369","368406","NA","NA","365597","1360","1360","365989","364485","1360","365597","368406","morph21_Oliver/Morris","15","21751","27","yes","1280","22"
"350","57.1428571429","57.1428571429","800.642857143","800.642857143","black","no","xpyriment","legacy","legacy","0","201","NA","uniform","68163","1000","0.0146707157842","1","undefined","1","0","27","27","27","0","27","27","27","NA","27","27","0","27","NA","27","27","0","27","NA","27","NA","27","0","0","27","27","0","27","27","28","/","11/30/17 16:05:56","The main experiment item","yes","FIN__AB__M21__7%3A10%3A17.osexp","C:\Users\ERP Testing Room\Desktop\Joanna\morph21","no","mono","no","18","no","white","no","yes","1080","legacy","27","27","C:/Users/ERP Testing Room/Desktop/Joanna/morph21/subject-116.csv","xpyriment","Jazzy James","3.1.4","0","/","NA","NA","NA","NA","/","/","667","NA","NA","NA","NA","270112","667","2","legacy","1024","2","48000","-16","AB_m21","116","even","CW_S","STRANGENESS","1359","371240","369622","366597","271482","NA","NA","NA","NA","371230","370119","NA","369122","NA","369114","371230","1369","371590","NA","NA","370239","1360","1360","370630","369113","1360","370239","371590","morph21_Oliver/Morris","16","22418","28","yes","1280","46"
"200","58.6206896552","58.6206896552","791.344827586","791.344827586","black","no","xpyriment","legacy","legacy","0","207","NA","uniform","72193","1000","0.0138517584807","1","undefined","1","0","28","28","28","0","28","28","28","NA","28","28","0","28","NA","28","28","0","28","NA","28","NA","28","0","0","28","28","0","28","28","29","/","11/30/17 16:05:56","The main experiment item","yes","FIN__AB__M21__7%3A10%3A17.osexp","C:\Users\ERP Testing Room\Desktop\Joanna\morph21","no","mono","no","18","no","white","no","yes","1080","legacy","28","28","C:/Users/ERP Testing Room/Desktop/Joanna/morph21/subject-116.csv","xpyriment","Jazzy James","3.1.4","0","/","NA","NA","NA","NA","/","/","531","NA","NA","NA","NA","270112","531","2","legacy","1024","2","48000","-16","AB_m21","116","even","FILL_W","WRECK","1359","374407","372823","366597","271482","NA","NA","NA","NA","374398","373320","NA","372323","NA","372313","374398","1369","374607","NA","NA","373407","1360","1360","373798","372313","1360","373407","374607","morph21_Oliver/Morris","17","22949","29","yes","1280","13"
"400","60","60","779.9","779.9","black","no","xpyriment","legacy","legacy","0","207","NA","uniform","79330","1000","0.0126055716627","1","undefined","1","0","29","29","29","0","29","29","29","NA","29","29","0","29","NA","29","29","0","29","NA","29","NA","29","0","0","29","29","0","29","29","30","/","11/30/17 16:05:56","The main experiment item","yes","FIN__AB__M21__7%3A10%3A17.osexp","C:\Users\ERP Testing Room\Desktop\Joanna\morph21","no","mono","no","18","no","white","no","yes","1080","legacy","29","29","C:/Users/ERP Testing Room/Desktop/Joanna/morph21/subject-116.csv","xpyriment","Jazzy James","3.1.4","0","/","NA","NA","NA","NA","/","/","448","NA","NA","NA","NA","270112","448","2","legacy","1024","2","48000","-16","AB_m21","116","even","FILL_W","EAT","1359","378982","375890","377473","271482","NA","NA","NA","NA","377467","376387","NA","375390","NA","375381","377467","1369","379382","NA","NA","376473","1360","1360","376865","375380","1360","376473","379382","morph21_Oliver/Morris","18","23397","30","yes","1280","25"
"300","58.064516129","58.064516129","774.774193548","774.774193548","black","no","xpyriment","legacy","legacy","0","205","NA","uniform","67952","1000","0.0147162703085","0","undefined","0","0","30","30","30","0","30","30","30","NA","30","30","0","30","NA","30","30","0","30","NA","30","NA","30","0","0","30","30","0","30","30","31","z","11/30/17 16:05:56","The main experiment item","yes","FIN__AB__M21__7%3A10%3A17.osexp","C:\Users\ERP Testing Room\Desktop\Joanna\morph21","no","mono","no","18","no","white","no","yes","1080","legacy","30","30","C:/Users/ERP Testing Room/Desktop/Joanna/morph21/subject-116.csv","xpyriment","Jazzy James","3.1.4","0","/","NA","NA","NA","NA","/","/","621","NA","NA","NA","NA","270112","621","2","legacy","1024","2","48000","-16","AB_m21","116","even","NW_S_SIMP","SOCKETEL","1359","382140","380549","377473","271482","NA","NA","NA","NA","377467","381046","NA","380049","NA","380042","382132","1369","382440","NA","NA","381140","1360","1360","381532","380042","1360","381140","382440","morph21_Oliver/Morris","18","24018","31","yes","1280","1"
"400","56.25","56.25","781.46875","781.46875","black","no","xpyriment","legacy","legacy","0","206","NA","uniform","60599","1000","0.016501922474","0","undefined","0","0","31","31","31","0","31","31","31","NA","31","31","0","31","NA","31","31","0","31","NA","31","NA","31","0","0","31","31","0","31","31","32","z","11/30/17 16:05:56","The main experiment item","yes","FIN__AB__M21__7%3A10%3A17.osexp","C:\Users\ERP Testing Room\Desktop\Joanna\morph21","no","mono","no","18","no","white","no","yes","1080","legacy","31","31","C:/Users/ERP Testing Room/Desktop/Joanna/morph21/subject-116.csv","xpyriment","Jazzy James","3.1.4","0","None","NA","NA","NA","NA","/","None","989","NA","NA","NA","NA","270112","989","2","legacy","1024","2","48000","-16","AB_m21","116","even","NW_L_SIMP","POORIDY","1359","385232","383640","377473","271482","NA","NA","NA","NA","377467","384137","NA","383140","NA","383133","385222","1369","385632","NA","NA","384232","1360","1360","384624","383133","1360","384232","385632","morph21_Oliver/Morris","18","25007","32","yes","1280","13"
"400","57.5757575758","57.5757575758","776.878787879","776.878787879","black","no","xpyriment","legacy","legacy","0","202","NA","uniform","69256","1000","0.0144391821647","1","undefined","1","0","32","32","32","0","32","32","32","NA","32","32","0","32","NA","32","32","0","32","NA","32","NA","32","0","0","32","32","0","32","32","33","/","11/30/17 16:05:56","The main experiment item","yes","FIN__AB__M21__7%3A10%3A17.osexp","C:\Users\ERP Testing Room\Desktop\Joanna\morph21","no","mono","no","18","no","white","no","yes","1080","legacy","32","32","C:/Users/ERP Testing Room/Desktop/Joanna/morph21/subject-116.csv","xpyriment","Jazzy James","3.1.4","0","/","NA","NA","NA","NA","/","/","630","NA","NA","NA","NA","270112","630","2","legacy","1024","2","48000","-16","AB_m21","116","even","CW_L","CONDUCTOR","1359","390033","386932","388525","271482","NA","NA","NA","NA","388521","387429","NA","386432","NA","386422","388521","1369","390434","NA","NA","387532","1360","1360","387924","386422","1360","387532","390434","morph21_Oliver/Morris","19","25637","33","yes","1280","44"
"400","58.8235294118","58.8235294118","768.647058824","768.647058824","black","no","xpyriment","legacy","legacy","0","202","NA","uniform","76361","1000","0.0130956902084","1","undefined","1","0","33","33","33","0","33","33","33","NA","33","33","0","33","NA","33","33","0","33","NA","33","NA","33","0","0","33","33","0","33","33","34","/","11/30/17 16:05:56","The main experiment item","yes","FIN__AB__M21__7%3A10%3A17.osexp","C:\Users\ERP Testing Room\Desktop\Joanna\morph21","no","mono","no","18","no","white","no","yes","1080","legacy","33","33","C:/Users/ERP Testing Room/Desktop/Joanna/morph21/subject-116.csv","xpyriment","Jazzy James","3.1.4","0","/","NA","NA","NA","NA","/","/","497","NA","NA","NA","NA","270112","497","2","legacy","1024","2","48000","-16","AB_m21","116","even","CW_L","CLOUDLESS","1359","393209","391617","388525","271482","NA","NA","NA","NA","393201","392114","NA","391117","NA","391111","393201","1369","393609","NA","NA","392209","1360","1360","392600","391111","1360","392208","393609","morph21_Oliver/Morris","20","26134","34","yes","1280","33"
"300","60","60","762.828571429","762.828571429","black","no","xpyriment","legacy","legacy","0","201","NA","uniform","68820","1000","0.014530659692","1","undefined","1","0","34","34","34","0","34","34","34","NA","34","34","0","34","NA","34","34","0","34","NA","34","NA","34","0","0","34","34","0","34","34","35","/","11/30/17 16:05:56","The main experiment item","yes","FIN__AB__M21__7%3A10%3A17.osexp","C:\Users\ERP Testing Room\Desktop\Joanna\morph21","no","mono","no","18","no","white","no","yes","1080","legacy","34","34","C:/Users/ERP Testing Room/Desktop/Joanna/morph21/subject-116.csv","xpyriment","Jazzy James","3.1.4","0","/","NA","NA","NA","NA","/","/","565","NA","NA","NA","NA","270112","565","2","legacy","1024","2","48000","-16","AB_m21","116","even","CW_S","DESTROYER","1359","396484","394900","388525","271482","NA","NA","NA","NA","396476","395397","NA","394400","NA","394389","396476","1369","396784","NA","NA","395484","1360","1360","395875","394389","1360","395484","396784","morph21_Oliver/Morris","21","26699","35","yes","1280","14"
"300","61.1111111111","61.1111111111","762.361111111","762.361111111","black","no","xpyriment","legacy","legacy","0","201","NA","uniform","67889","1000","0.0147299267923","1","undefined","1","0","35","35","35","0","35","35","35","NA","35","35","0","35","NA","35","35","0","35","NA","35","NA","35","0","0","35","35","0","35","35","36","/","11/30/17 16:05:56","The main experiment item","yes","FIN__AB__M21__7%3A10%3A17.osexp","C:\Users\ERP Testing Room\Desktop\Joanna\morph21","no","mono","no","18","no","white","no","yes","1080","legacy","35","35","C:/Users/ERP Testing Room/Desktop/Joanna/morph21/subject-116.csv","xpyriment","Jazzy James","3.1.4","0","/","NA","NA","NA","NA","/","/","746","NA","NA","NA","NA","270112","746","2","legacy","1024","2","48000","-16","AB_m21","116","even","CW_S","INSISTENT","1359","401076","397984","399567","271482","NA","NA","NA","NA","399564","398481","NA","397484","NA","397473","399564","1369","401376","NA","NA","398575","1360","1360","398967","397473","1360","398575","401376","morph21_Oliver/Morris","22","27445","36","yes","1280","9"
"200","62.1621621622","62.1621621622","759.972972973","759.972972973","black","no","xpyriment","legacy","legacy","0","203","NA","uniform","71037","1000","0.0140771710517","1","undefined","1","0","36","36","36","0","36","36","36","NA","36","36","0","36","NA","36","36","0","36","NA","36","NA","36","0","0","36","36","0","36","36","37","z","11/30/17 16:05:56","The main experiment item","yes","FIN__AB__M21__7%3A10%3A17.osexp","C:\Users\ERP Testing Room\Desktop\Joanna\morph21","no","mono","no","18","no","white","no","yes","1080","legacy","36","36","C:/Users/ERP Testing Room/Desktop/Joanna/morph21/subject-116.csv","xpyriment","Jazzy James","3.1.4","0","z","NA","NA","NA","NA","/","z","674","NA","NA","NA","NA","270112","674","2","legacy","1024","2","48000","-16","AB_m21","116","even","NW_S_COMP","PILLIZE","1359","404167","402584","399567","271482","NA","NA","NA","NA","404158","403081","NA","402084","NA","402077","404158","1369","404367","NA","NA","403167","1360","1360","403559","402077","1360","403167","404367","morph21_Oliver/Morris","23","28119","37","yes","1280","13"
"250","63.1578947368","63.1578947368","763.184210526","763.184210526","black","no","xpyriment","legacy","legacy","0","208","NA","uniform","64460","1000","0.0155134967422","1","undefined","1","0","37","37","37","0","37","37","37","NA","37","37","0","37","NA","37","37","0","37","NA","37","NA","37","0","0","37","37","0","37","37","38","z","11/30/17 16:05:56","The main experiment item","yes","FIN__AB__M21__7%3A10%3A17.osexp","C:\Users\ERP Testing Room\Desktop\Joanna\morph21","no","mono","no","18","no","white","no","yes","1080","legacy","37","37","C:/Users/ERP Testing Room/Desktop/Joanna/morph21/subject-116.csv","xpyriment","Jazzy James","3.1.4","0","z","NA","NA","NA","NA","/","z","882","NA","NA","NA","NA","270112","882","2","legacy","1024","2","48000","-16","AB_m21","116","even","FILL_NW","POLT","1359","407168","405584","399567","271482","NA","NA","NA","NA","407161","406081","NA","405084","NA","405078","407161","1369","407418","NA","NA","406168","1360","1360","406560","405078","1360","406168","407418","morph21_Oliver/Morris","24","29001","38","yes","1280","38"
"400","61.5384615385","61.5384615385","769.051282051","769.051282051","black","no","xpyriment","legacy","legacy","0","208","NA","uniform","57534","1000","0.0173810268711","0","undefined","0","0","38","38","38","0","38","38","38","NA","38","38","0","38","NA","38","38","0","38","NA","38","NA","38","0","0","38","38","0","38","38","39","z","11/30/17 16:05:56","The main experiment item","yes","FIN__AB__M21__7%3A10%3A17.osexp","C:\Users\ERP Testing Room\Desktop\Joanna\morph21","no","mono","no","18","no","white","no","yes","1080","legacy","38","38","C:/Users/ERP Testing Room/Desktop/Joanna/morph21/subject-116.csv","xpyriment","Jazzy James","3.1.4","0","None","NA","NA","NA","NA","/","None","992","NA","NA","NA","NA","270112","992","2","legacy","1024","2","48000","-16","AB_m21","116","even","FILL_NW","BUTE","1359","411794","408677","410285","271482","NA","NA","NA","NA","407161","409174","NA","408177","NA","408167","410277","1369","412194","NA","NA","409285","1360","1360","409677","408167","1360","409285","412194","morph21_Oliver/Morris","24","29993","39","yes","1280","5"
"400","60","60","774.65","774.65","black","no","xpyriment","legacy","legacy","0","208","NA","uniform","54294","1000","0.0184182414263","0","undefined","0","0","39","39","39","0","39","39","39","NA","39","39","0","39","NA","39","39","0","39","NA","39","NA","39","0","0","39","39","0","39","39","40","z","11/30/17 16:05:56","The main experiment item","yes","FIN__AB__M21__7%3A10%3A17.osexp","C:\Users\ERP Testing Room\Desktop\Joanna\morph21","no","mono","no","18","no","white","no","yes","1080","legacy","39","39","C:/Users/ERP Testing Room/Desktop/Joanna/morph21/subject-116.csv","xpyriment","Jazzy James","3.1.4","0","None","NA","NA","NA","NA","/","None","993","NA","NA","NA","NA","270112","993","2","legacy","1024","2","48000","-16","AB_m21","116","even","FILL_NW","VELT","1359","414977","413394","410285","271482","NA","NA","NA","NA","407161","413891","NA","412894","NA","412886","414971","1369","415377","NA","NA","413977","1360","1360","414369","412886","1360","413977","415377","morph21_Oliver/Morris","24","30986","40","yes","1280","46"
"300","60.9756097561","60.9756097561","773.487804878","773.487804878","black","no","xpyriment","legacy","legacy","0","208","NA","uniform","71402","1000","0.0140052099381","1","undefined","1","0","40","40","40","0","40","40","40","NA","40","40","0","40","NA","40","40","0","40","NA","40","NA","40","0","0","40","40","0","40","40","41","z","11/30/17 16:05:56","The main experiment item","yes","FIN__AB__M21__7%3A10%3A17.osexp","C:\Users\ERP Testing Room\Desktop\Joanna\morph21","no","mono","no","18","no","white","no","yes","1080","legacy","40","40","C:/Users/ERP Testing Room/Desktop/Joanna/morph21/subject-116.csv","xpyriment","Jazzy James","3.1.4","0","z","NA","NA","NA","NA","/","z","727","NA","NA","NA","NA","270112","727","2","legacy","1024","2","48000","-16","AB_m21","116","even","FILL_NW","BAFED","1359","418186","416569","410285","271482","NA","NA","NA","NA","418177","417066","NA","416069","NA","416060","418177","1369","418486","NA","NA","417186","1360","1360","417577","416060","1360","417185","418486","morph21_Oliver/Morris","25","31713","41","yes","1280","1"
"250","61.9047619048","61.9047619048","771.761904762","771.761904762","black","no","xpyriment","legacy","legacy","0","201","NA","uniform","66869","1000","0.0149546127503","1","undefined","1","0","41","41","41","0","41","41","41","NA","41","41","0","41","NA","41","41","0","41","NA","41","NA","41","0","0","41","41","0","41","41","42","/","11/30/17 16:05:56","The main experiment item","yes","FIN__AB__M21__7%3A10%3A17.osexp","C:\Users\ERP Testing Room\Desktop\Joanna\morph21","no","mono","no","18","no","white","no","yes","1080","legacy","41","41","C:/Users/ERP Testing Room/Desktop/Joanna/morph21/subject-116.csv","xpyriment","Jazzy James","3.1.4","0","/","NA","NA","NA","NA","/","/","701","NA","NA","NA","NA","270112","701","2","legacy","1024","2","48000","-16","AB_m21","116","even","CW_S","TOSSING","1359","422736","419644","421227","271482","NA","NA","NA","NA","421225","420141","NA","419144","NA","419134","421225","1369","422986","NA","NA","420236","1360","1360","420627","419134","1360","420236","422986","morph21_Oliver/Morris","26","32414","42","yes","1280","26"
"250","62.7906976744","62.7906976744","765.325581395","765.325581395","black","no","xpyriment","legacy","legacy","0","201","NA","uniform","80625","1000","0.0124031007752","1","undefined","1","0","42","42","42","0","42","42","42","NA","42","42","0","42","NA","42","42","0","42","NA","42","NA","42","0","0","42","42","0","42","42","43","/","11/30/17 16:05:56","The main experiment item","yes","FIN__AB__M21__7%3A10%3A17.osexp","C:\Users\ERP Testing Room\Desktop\Joanna\morph21","no","mono","no","18","no","white","no","yes","1080","legacy","42","42","C:/Users/ERP Testing Room/Desktop/Joanna/morph21/subject-116.csv","xpyriment","Jazzy James","3.1.4","0","/","NA","NA","NA","NA","/","/","495","NA","NA","NA","NA","270112","495","2","legacy","1024","2","48000","-16","AB_m21","116","even","CW_S","SEEKER","1359","425795","424212","421227","271482","NA","NA","NA","NA","425787","424709","NA","423712","NA","423701","425787","1369","426045","NA","NA","424795","1360","1360","425187","423701","1360","424795","426045","morph21_Oliver/Morris","27","32909","43","yes","1280","16"
"250","63.6363636364","63.6363636364","764.431818182","764.431818182","black","no","xpyriment","legacy","legacy","0","204","NA","uniform","63018","1000","0.015868482021","1","undefined","1","0","43","43","43","0","43","43","43","NA","43","43","0","43","NA","43","43","0","43","NA","43","NA","43","0","0","43","43","0","43","43","44","z","11/30/17 16:05:56","The main experiment item","yes","FIN__AB__M21__7%3A10%3A17.osexp","C:\Users\ERP Testing Room\Desktop\Joanna\morph21","no","mono","no","18","no","white","no","yes","1080","legacy","43","43","C:/Users/ERP Testing Room/Desktop/Joanna/morph21/subject-116.csv","xpyriment","Jazzy James","3.1.4","0","z","NA","NA","NA","NA","/","z","726","NA","NA","NA","NA","270112","726","2","legacy","1024","2","48000","-16","AB_m21","116","even","NW_L_COMP","MUDLY","1359","428812","427204","421227","271482","NA","NA","NA","NA","428802","427701","NA","426704","NA","426693","428802","1369","429062","NA","NA","427812","1360","1360","428204","426693","1360","427812","429062","morph21_Oliver/Morris","28","33635","44","yes","1280","12"
"400","64.4444444444","64.4444444444","761.733333333","761.733333333","black","no","xpyriment","legacy","legacy","0","208","NA","uniform","69186","1000","0.0144537912294","1","undefined","1","0","44","44","44","0","44","44","44","NA","44","44","0","44","NA","44","44","0","44","NA","44","NA","44","0","0","44","44","0","44","44","45","z","11/30/17 16:05:56","The main experiment item","yes","FIN__AB__M21__7%3A10%3A17.osexp","C:\Users\ERP Testing Room\Desktop\Joanna\morph21","no","mono","no","18","no","white","no","yes","1080","legacy","44","44","C:/Users/ERP Testing Room/Desktop/Joanna/morph21/subject-116.csv","xpyriment","Jazzy James","3.1.4","0","z","NA","NA","NA","NA","/","z","643","NA","NA","NA","NA","270112","643","2","legacy","1024","2","48000","-16","AB_m21","116","even","FILL_NW","BALFS","1359","433362","430262","431854","271482","NA","NA","NA","NA","431844","430759","NA","429762","NA","429753","431844","1369","433762","NA","NA","430854","1360","1360","431245","429753","1360","430854","433762","morph21_Oliver/Morris","29","34278","45","yes","1280","2"
"250","65.2173913043","65.2173913043","756.934782609","756.934782609","black","no","xpyriment","legacy","legacy","0","208","NA","uniform","77810","1000","0.0128518185323","1","undefined","1","0","45","45","45","0","45","45","45","NA","45","45","0","45","NA","45","45","0","45","NA","45","NA","45","0","0","45","45","0","45","45","46","z","11/30/17 16:05:56","The main experiment item","yes","FIN__AB__M21__7%3A10%3A17.osexp","C:\Users\ERP Testing Room\Desktop\Joanna\morph21","no","mono","no","18","no","white","no","yes","1080","legacy","45","45","C:/Users/ERP Testing Room/Desktop/Joanna/morph21/subject-116.csv","xpyriment","Jazzy James","3.1.4","0","z","NA","NA","NA","NA","/","z","541","NA","NA","NA","NA","270112","541","2","legacy","1024","2","48000","-16","AB_m21","116","even","FILL_NW","BUWL","1359","436612","435004","431854","271482","NA","NA","NA","NA","436603","435501","NA","434504","NA","434494","436603","1369","436862","NA","NA","435612","1360","1360","436004","434494","1360","435612","436862","morph21_Oliver/Morris","30","34819","46","yes","1280","9"
"350","65.9574468085","65.9574468085","753.872340426","753.872340426","black","no","xpyriment","legacy","legacy","0","208","NA","uniform","74960","1000","0.0133404482391","1","undefined","1","0","46","46","46","0","46","46","46","NA","46","46","0","46","NA","46","46","0","46","NA","46","NA","46","0","0","46","46","0","46","46","47","z","11/30/17 16:05:56","The main experiment item","yes","FIN__AB__M21__7%3A10%3A17.osexp","C:\Users\ERP Testing Room\Desktop\Joanna\morph21","no","mono","no","18","no","white","no","yes","1080","legacy","46","46","C:/Users/ERP Testing Room/Desktop/Joanna/morph21/subject-116.csv","xpyriment","Jazzy James","3.1.4","0","z","NA","NA","NA","NA","/","z","613","NA","NA","NA","NA","270112","613","2","legacy","1024","2","48000","-16","AB_m21","116","even","FILL_NW","KRAISE","1359","439596","438012","431854","271482","NA","NA","NA","NA","439587","438510","NA","437512","NA","437502","439587","1369","439946","NA","NA","438596","1360","1360","438987","437501","1360","438596","439946","morph21_Oliver/Morris","31","35432","47","yes","1280","33"
"300","66.6666666667","66.6666666667","756.479166667","756.479166667","black","no","xpyriment","legacy","legacy","0","208","NA","uniform","67001","1000","0.0149251503709","1","undefined","1","0","47","47","47","0","47","47","47","NA","47","47","0","47","NA","47","47","0","47","NA","47","NA","47","0","0","47","47","0","47","47","48","z","11/30/17 16:05:56","The main experiment item","yes","FIN__AB__M21__7%3A10%3A17.osexp","C:\Users\ERP Testing Room\Desktop\Joanna\morph21","no","mono","no","18","no","white","no","yes","1080","legacy","47","47","C:/Users/ERP Testing Room/Desktop/Joanna/morph21/subject-116.csv","xpyriment","Jazzy James","3.1.4","0","z","NA","NA","NA","NA","/","z","879","NA","NA","NA","NA","270112","879","2","legacy","1024","2","48000","-16","AB_m21","116","even","FILL_NW","HEEM","1359","444247","441155","442739","271482","NA","NA","NA","NA","442735","441652","NA","440655","NA","440645","442735","1369","444547","NA","NA","441739","1360","1360","442139","440645","1360","441739","444547","morph21_Oliver/Morris","32","36311","48","yes","1280","27"
"350","67.3469387755","67.3469387755","753.204081633","753.204081633","black","no","xpyriment","legacy","legacy","0","207","NA","uniform","77288","1000","0.0129386191906","1","undefined","1","0","48","48","48","0","48","48","48","NA","48","48","0","48","NA","48","48","0","48","NA","48","NA","48","0","0","48","48","0","48","48","49","/","11/30/17 16:05:56","The main experiment item","yes","FIN__AB__M21__7%3A10%3A17.osexp","C:\Users\ERP Testing Room\Desktop\Joanna\morph21","no","mono","no","18","no","white","no","yes","1080","legacy","48","48","C:/Users/ERP Testing Room/Desktop/Joanna/morph21/subject-116.csv","xpyriment","Jazzy James","3.1.4","0","/","NA","NA","NA","NA","/","/","596","NA","NA","NA","NA","270112","596","2","legacy","1024","2","48000","-16","AB_m21","116","even","FILL_W","LIFT","1359","447422","445847","442739","271482","NA","NA","NA","NA","447419","446344","NA","445347","NA","445339","447419","1369","447772","NA","NA","446422","1360","1360","446822","445339","1360","446422","447772","morph21_Oliver/Morris","33","36907","49","yes","1280","39"
"400","68","68","750.1","750.1","black","no","xpyriment","legacy","legacy","0","201","NA","uniform","68709","1000","0.0145541341018","1","undefined","1","0","49","49","49","0","49","49","49","NA","49","49","0","49","NA","49","49","0","49","NA","49","NA","49","0","0","49","49","0","49","49","50","/","11/30/17 16:05:56","The main experiment item","yes","FIN__AB__M21__7%3A10%3A17.osexp","C:\Users\ERP Testing Room\Desktop\Joanna\morph21","no","mono","no","18","no","white","no","yes","1080","legacy","49","49","C:/Users/ERP Testing Room/Desktop/Joanna/morph21/subject-116.csv","xpyriment","Jazzy James","3.1.4","0","/","NA","NA","NA","NA","/","/","598","NA","NA","NA","NA","270112","598","2","legacy","1024","2","48000","-16","AB_m21","116","even","CW_S","EFFORTLESS","1359","450547","448922","442739","271482","NA","NA","NA","NA","450539","449419","NA","448422","NA","448419","450539","1369","450947","NA","NA","449547","1360","1360","449939","448419","1360","449547","450947","morph21_Oliver/Morris","34","37505","50","yes","1280","30"
"350","68.6274509804","68.6274509804","747.156862745","747.156862745","black","no","xpyriment","legacy","legacy","0","204","NA","uniform","70924","1000","0.0140995995714","1","undefined","1","0","50","50","50","0","50","50","50","NA","50","50","0","50","NA","50","50","0","50","NA","50","NA","50","0","0","50","50","0","50","50","51","z","11/30/17 16:05:56","The main experiment item","yes","FIN__AB__M21__7%3A10%3A17.osexp","C:\Users\ERP Testing Room\Desktop\Joanna\morph21","no","mono","no","18","no","white","no","yes","1080","legacy","50","50","C:/Users/ERP Testing Room/Desktop/Joanna/morph21/subject-116.csv","xpyriment","Jazzy James","3.1.4","0","z","NA","NA","NA","NA","/","z","600","NA","NA","NA","NA","270112","600","2","legacy","1024","2","48000","-16","AB_m21","116","even","NW_L_COMP","INKISM","1359","455389","452281","453881","271482","NA","NA","NA","NA","453876","452778","NA","451781","NA","451773","453876","1369","455739","NA","NA","452881","1360","1360","453281","451773","1360","452881","455739","morph21_Oliver/Morris","35","38105","51","yes","1280","8"
"200","69.2307692308","69.2307692308","742.884615385","742.884615385","black","no","xpyriment","legacy","legacy","0","207","NA","uniform","79596","1000","0.0125634453993","1","undefined","1","0","51","51","51","0","51","51","51","NA","51","51","0","51","NA","51","51","0","51","NA","51","NA","51","0","0","51","51","0","51","51","52","/","11/30/17 16:05:56","The main experiment item","yes","FIN__AB__M21__7%3A10%3A17.osexp","C:\Users\ERP Testing Room\Desktop\Joanna\morph21","no","mono","no","18","no","white","no","yes","1080","legacy","51","51","C:/Users/ERP Testing Room/Desktop/Joanna/morph21/subject-116.csv","xpyriment","Jazzy James","3.1.4","0","/","NA","NA","NA","NA","/","/","525","NA","NA","NA","NA","270112","525","2","legacy","1024","2","48000","-16","AB_m21","116","even","FILL_W","FLESH","1359","458574","456964","453881","271482","NA","NA","NA","NA","458568","457461","NA","456464","NA","456453","458568","1369","458774","NA","NA","457573","1360","1360","457973","456453","1360","457573","458774","morph21_Oliver/Morris","36","38630","52","yes","1280","32"
"350","69.8113207547","69.8113207547","741.264150943","741.264150943","black","no","xpyriment","legacy","legacy","0","203","NA","uniform","73623","1000","0.0135827119243","1","undefined","1","0","52","52","52","0","52","52","52","NA","52","52","0","52","NA","52","52","0","52","NA","52","NA","52","0","0","52","52","0","52","52","53","z","11/30/17 16:05:56","The main experiment item","yes","FIN__AB__M21__7%3A10%3A17.osexp","C:\Users\ERP Testing Room\Desktop\Joanna\morph21","no","mono","no","18","no","white","no","yes","1080","legacy","52","52","C:/Users/ERP Testing Room/Desktop/Joanna/morph21/subject-116.csv","xpyriment","Jazzy James","3.1.4","0","z","NA","NA","NA","NA","/","z","657","NA","NA","NA","NA","270112","657","2","legacy","1024","2","48000","-16","AB_m21","116","even","NW_S_COMP","HUMIDOUS","1359","461657","460074","453881","271482","NA","NA","NA","NA","461652","460571","NA","459574","NA","459567","461652","1369","462007","NA","NA","460657","1360","1360","461057","459567","1360","460657","462007","morph21_Oliver/Morris","37","39287","53","yes","1280","25"
"400","70.3703703704","70.3703703704","742.574074074","742.574074074","black","no","xpyriment","legacy","legacy","0","206","NA","uniform","66290","1000","0.0150852315583","1","undefined","1","0","53","53","53","0","53","53","53","NA","53","53","0","53","NA","53","53","0","53","NA","53","NA","53","0","0","53","53","0","53","53","54","z","11/30/17 16:05:56","The main experiment item","yes","FIN__AB__M21__7%3A10%3A17.osexp","C:\Users\ERP Testing Room\Desktop\Joanna\morph21","no","mono","no","18","no","white","no","yes","1080","legacy","53","53","C:/Users/ERP Testing Room/Desktop/Joanna/morph21/subject-116.csv","xpyriment","Jazzy James","3.1.4","0","z","NA","NA","NA","NA","/","z","812","NA","NA","NA","NA","270112","812","2","legacy","1024","2","48000","-16","AB_m21","116","even","NW_L_SIMP","CLASSOES","1359","466291","463174","464782","271482","NA","NA","NA","NA","464772","463671","NA","462674","NA","462670","464772","1369","466691","NA","NA","463782","1360","1360","464174","462670","1360","463782","466691","morph21_Oliver/Morris","38","40099","54","yes","1280","18"
"400","70.9090909091","70.9090909091","744.909090909","744.909090909","black","no","xpyriment","legacy","legacy","0","204","NA","uniform","64404","1000","0.0155269859015","1","undefined","1","0","54","54","54","0","54","54","54","NA","54","54","0","54","NA","54","54","0","54","NA","54","NA","54","0","0","54","54","0","54","54","55","z","11/30/17 16:05:56","The main experiment item","yes","FIN__AB__M21__7%3A10%3A17.osexp","C:\Users\ERP Testing Room\Desktop\Joanna\morph21","no","mono","no","18","no","white","no","yes","1080","legacy","54","54","C:/Users/ERP Testing Room/Desktop/Joanna/morph21/subject-116.csv","xpyriment","Jazzy James","3.1.4","0","z","NA","NA","NA","NA","/","z","871","NA","NA","NA","NA","270112","871","2","legacy","1024","2","48000","-16","AB_m21","116","even","NW_L_COMP","RIPENCE","1359","469474","467874","464782","271482","NA","NA","NA","NA","469467","468371","NA","467374","NA","467367","469467","1369","469874","NA","NA","468474","1360","1360","468866","467366","1360","468474","469874","morph21_Oliver/Morris","39","40970","55","yes","1280","4"
"250","71.4285714286","71.4285714286","741.553571429","741.553571429","black","no","xpyriment","legacy","legacy","0","202","NA","uniform","73375","1000","0.0136286201022","1","undefined","1","0","55","55","55","0","55","55","55","NA","55","55","0","55","NA","55","55","0","55","NA","55","NA","55","0","0","55","55","0","55","55","56","/","11/30/17 16:05:56","The main experiment item","yes","FIN__AB__M21__7%3A10%3A17.osexp","C:\Users\ERP Testing Room\Desktop\Joanna\morph21","no","mono","no","18","no","white","no","yes","1080","legacy","55","55","C:/Users/ERP Testing Room/Desktop/Joanna/morph21/subject-116.csv","xpyriment","Jazzy James","3.1.4","0","/","NA","NA","NA","NA","/","/","557","NA","NA","NA","NA","270112","557","2","legacy","1024","2","48000","-16","AB_m21","116","even","CW_L","EXCITEMENT","1359","472724","471141","464782","271482","NA","NA","NA","NA","472717","471638","NA","470641","NA","470631","472717","1369","472974","NA","NA","471724","1360","1360","472116","470631","1360","471724","472974","morph21_Oliver/Morris","40","41527","56","yes","1280","38"
"200","71.9298245614","71.9298245614","744.140350877","744.140350877","black","no","xpyriment","legacy","legacy","0","201","NA","uniform","63584","1000","0.0157272269753","1","undefined","1","0","56","56","56","0","56","56","56","NA","56","56","0","56","NA","56","56","0","56","NA","56","NA","56","0","0","56","56","0","56","56","57","/","11/30/17 16:05:56","The main experiment item","yes","FIN__AB__M21__7%3A10%3A17.osexp","C:\Users\ERP Testing Room\Desktop\Joanna\morph21","no","mono","no","18","no","white","no","yes","1080","legacy","56","56","C:/Users/ERP Testing Room/Desktop/Joanna/morph21/subject-116.csv","xpyriment","Jazzy James","3.1.4","0","/","NA","NA","NA","NA","/","/","889","NA","NA","NA","NA","270112","889","2","legacy","1024","2","48000","-16","AB_m21","116","even","CW_S","LISTENER","1359","477342","474208","475834","271482","NA","NA","NA","NA","475831","474705","NA","473708","NA","473702","475831","1369","477542","NA","NA","474841","1360","1360","475233","473702","1360","474841","477542","morph21_Oliver/Morris","41","42416","57","yes","1280","18"
"400","72.4137931034","72.4137931034","742.206896552","742.206896552","black","no","xpyriment","legacy","legacy","0","203","NA","uniform","69471","1000","0.0143944955449","1","undefined","1","0","57","57","57","0","57","57","57","NA","57","57","0","57","NA","57","57","0","57","NA","57","NA","57","0","0","57","57","0","57","57","58","z","11/30/17 16:05:56","The main experiment item","yes","FIN__AB__M21__7%3A10%3A17.osexp","C:\Users\ERP Testing Room\Desktop\Joanna\morph21","no","mono","no","18","no","white","no","yes","1080","legacy","57","57","C:/Users/ERP Testing Room/Desktop/Joanna/morph21/subject-116.csv","xpyriment","Jazzy James","3.1.4","0","z","NA","NA","NA","NA","/","z","632","NA","NA","NA","NA","270112","632","2","legacy","1024","2","48000","-16","AB_m21","116","even","NW_S_COMP","ALTARIC","1359","480426","478842","475834","271482","NA","NA","NA","NA","480415","479339","NA","478342","NA","478333","480415","1369","480826","NA","NA","479426","1360","1360","479817","478333","1360","479426","480826","morph21_Oliver/Morris","42","43048","58","yes","1280","7"
"350","72.8813559322","72.8813559322","741.898305085","741.898305085","black","no","xpyriment","legacy","legacy","0","203","NA","uniform","66248","1000","0.0150947953146","1","undefined","1","0","58","58","58","0","58","58","58","NA","58","58","0","58","NA","58","58","0","58","NA","58","NA","58","0","0","58","58","0","58","58","59","z","11/30/17 16:05:56","The main experiment item","yes","FIN__AB__M21__7%3A10%3A17.osexp","C:\Users\ERP Testing Room\Desktop\Joanna\morph21","no","mono","no","18","no","white","no","yes","1080","legacy","58","58","C:/Users/ERP Testing Room/Desktop/Joanna/morph21/subject-116.csv","xpyriment","Jazzy James","3.1.4","0","z","NA","NA","NA","NA","/","z","724","NA","NA","NA","NA","270112","724","2","legacy","1024","2","48000","-16","AB_m21","116","even","NW_S_COMP","WELDIC","1359","483692","482092","475834","271482","NA","NA","NA","NA","483690","482590","NA","481592","NA","481582","483690","1369","484042","NA","NA","482701","1360","1360","483092","481582","1360","482701","484042","morph21_Oliver/Morris","43","43772","59","yes","1280","21"
"300","73.3333333333","73.3333333333","743.133333333","743.133333333","black","no","xpyriment","legacy","legacy","0","205","NA","uniform","65847","1000","0.0151867207314","1","undefined","1","0","59","59","59","0","59","59","59","NA","59","59","0","59","NA","59","59","0","59","NA","59","NA","59","0","0","59","59","0","59","59","60","z","11/30/17 16:05:56","The main experiment item","yes","FIN__AB__M21__7%3A10%3A17.osexp","C:\Users\ERP Testing Room\Desktop\Joanna\morph21","no","mono","no","18","no","white","no","yes","1080","legacy","59","59","C:/Users/ERP Testing Room/Desktop/Joanna/morph21/subject-116.csv","xpyriment","Jazzy James","3.1.4","0","z","NA","NA","NA","NA","/","z","816","NA","NA","NA","NA","270112","816","2","legacy","1024","2","48000","-16","AB_m21","116","even","NW_S_SIMP","HELMETOES","1359","488318","485234","486809","271482","NA","NA","NA","NA","486806","485731","NA","484734","NA","484727","486806","1369","488618","NA","NA","485809","1360","1360","486209","484727","1360","485809","488618","morph21_Oliver/Morris","44","44588","60","yes","1280","14"
"200","73.7704918033","73.7704918033","746.786885246","746.786885246","black","no","xpyriment","legacy","legacy","0","208","NA","uniform","59460","1000","0.016818028927","1","undefined","1","0","60","60","60","0","60","60","60","NA","60","60","0","60","NA","60","60","0","60","NA","60","NA","60","0","0","60","60","0","60","60","61","z","11/30/17 16:05:56","The main experiment item","yes","FIN__AB__M21__7%3A10%3A17.osexp","C:\Users\ERP Testing Room\Desktop\Joanna\morph21","no","mono","no","18","no","white","no","yes","1080","legacy","60","60","C:/Users/ERP Testing Room/Desktop/Joanna/morph21/subject-116.csv","xpyriment","Jazzy James","3.1.4","0","z","NA","NA","NA","NA","/","z","966","NA","NA","NA","NA","270112","966","2","legacy","1024","2","48000","-16","AB_m21","116","even","FILL_NW","DARM","1359","491443","489859","486809","271482","NA","NA","NA","NA","491437","490357","NA","489359","NA","489356","491437","1369","491643","NA","NA","490443","1360","1360","490834","489356","1360","490443","491643","morph21_Oliver/Morris","45","45554","61","yes","1280","11"
"400","74.1935483871","74.1935483871","745.596774194","745.596774194","black","no","xpyriment","legacy","legacy","0","208","NA","uniform","73168","1000","0.0136671769079","1","undefined","1","0","61","61","61","0","61","61","61","NA","61","61","0","61","NA","61","61","0","61","NA","61","NA","61","0","0","61","61","0","61","61","62","z","11/30/17 16:05:56","The main experiment item","yes","FIN__AB__M21__7%3A10%3A17.osexp","C:\Users\ERP Testing Room\Desktop\Joanna\morph21","no","mono","no","18","no","white","no","yes","1080","legacy","61","61","C:/Users/ERP Testing Room/Desktop/Joanna/morph21/subject-116.csv","xpyriment","Jazzy James","3.1.4","0","z","NA","NA","NA","NA","/","z","673","NA","NA","NA","NA","270112","673","2","legacy","1024","2","48000","-16","AB_m21","116","even","FILL_NW","FROES","1359","494377","492793","486809","271482","NA","NA","NA","NA","494368","493290","NA","492293","NA","492281","494368","1369","494777","NA","NA","493377","1360","1360","493769","492281","1360","493377","494777","morph21_Oliver/Morris","46","46227","62","yes","1280","21"
"400","74.6031746032","74.6031746032","742.031746032","742.031746032","black","no","xpyriment","legacy","legacy","0","202","NA","uniform","78516","1000","0.0127362575781","1","undefined","1","0","62","62","62","0","62","62","62","NA","62","62","0","62","NA","62","62","0","62","NA","62","NA","62","0","0","62","62","0","62","62","63","/","11/30/17 16:05:56","The main experiment item","yes","FIN__AB__M21__7%3A10%3A17.osexp","C:\Users\ERP Testing Room\Desktop\Joanna\morph21","no","mono","no","18","no","white","no","yes","1080","legacy","62","62","C:/Users/ERP Testing Room/Desktop/Joanna/morph21/subject-116.csv","xpyriment","Jazzy James","3.1.4","0","/","NA","NA","NA","NA","/","/","521","NA","NA","NA","NA","270112","521","2","legacy","1024","2","48000","-16","AB_m21","116","even","CW_L","FAITHFUL","1359","499077","495969","497569","271482","NA","NA","NA","NA","497559","496466","NA","495469","NA","495465","497559","1369","499478","NA","NA","496569","1360","1360","496961","495465","1360","496569","499478","morph21_Oliver/Morris","47","46748","63","yes","1280","20"
"350","75","75","739.578125","739.578125","black","no","xpyriment","legacy","legacy","0","207","NA","uniform","73393","1000","0.013625277615","1","undefined","1","0","63","63","63","0","63","63","63","NA","63","63","0","63","NA","63","63","0","63","NA","63","NA","63","0","0","63","63","0","63","63","64","/","11/30/17 16:05:56","The main experiment item","yes","FIN__AB__M21__7%3A10%3A17.osexp","C:\Users\ERP Testing Room\Desktop\Joanna\morph21","no","mono","no","18","no","white","no","yes","1080","legacy","63","63","C:/Users/ERP Testing Room/Desktop/Joanna/morph21/subject-116.csv","xpyriment","Jazzy James","3.1.4","0","/","NA","NA","NA","NA","/","/","585","NA","NA","NA","NA","270112","585","2","legacy","1024","2","48000","-16","AB_m21","116","even","FILL_W","FAINT","1359","502344","500736","497569","271482","NA","NA","NA","NA","502335","501233","NA","500236","NA","500225","502335","1369","502694","NA","NA","501344","1360","1360","501736","500225","1360","501344","502694","morph21_Oliver/Morris","48","47333","64","yes","1280","31"
"200","75.3846153846","75.3846153846","737.815384615","737.815384615","black","no","xpyriment","legacy","legacy","0","203","NA","uniform","67240","1000","0.0148720999405","1","undefined","1","0","64","64","64","0","64","64","64","NA","64","64","0","64","NA","64","64","0","64","NA","64","NA","64","0","0","64","64","0","64","64","65","z","11/30/17 16:05:56","The main experiment item","yes","FIN__AB__M21__7%3A10%3A17.osexp","C:\Users\ERP Testing Room\Desktop\Joanna\morph21","no","mono","no","18","no","white","no","yes","1080","legacy","64","64","C:/Users/ERP Testing Room/Desktop/Joanna/morph21/subject-116.csv","xpyriment","Jazzy James","3.1.4","0","z","NA","NA","NA","NA","/","z","625","NA","NA","NA","NA","270112","625","2","legacy","1024","2","48000","-16","AB_m21","116","even","NW_S_COMP","MELTANCE","1359","505528","503936","497569","271482","NA","NA","NA","NA","505521","504433","NA","503436","NA","503433","505521","1369","505728","NA","NA","504528","1360","1360","504919","503433","1360","504528","505728","morph21_Oliver/Morris","49","47958","65","yes","1280","1"
"300","75.7575757576","75.7575757576","733.803030303","733.803030303","black","no","xpyriment","legacy","legacy","0","201","NA","uniform","70421","1000","0.0142003095667","1","undefined","1","0","65","65","65","0","65","65","65","NA","65","65","0","65","NA","65","65","0","65","NA","65","NA","65","0","0","65","65","0","65","65","66","/","11/30/17 16:05:56","The main experiment item","yes","FIN__AB__M21__7%3A10%3A17.osexp","C:\Users\ERP Testing Room\Desktop\Joanna\morph21","no","mono","no","18","no","white","no","yes","1080","legacy","65","65","C:/Users/ERP Testing Room/Desktop/Joanna/morph21/subject-116.csv","xpyriment","Jazzy James","3.1.4","0","/","NA","NA","NA","NA","/","/","473","NA","NA","NA","NA","270112","473","2","legacy","1024","2","48000","-16","AB_m21","116","even","CW_S","GUILTY","1359","510028","506911","508520","271482","NA","NA","NA","NA","508512","507408","NA","506411","NA","506404","508512","1369","510328","NA","NA","507520","1360","1360","507911","506404","1360","507519","510328","morph21_Oliver/Morris","50","48431","66","yes","1280","34"
"300","76.1194029851","76.1194029851","737.432835821","737.432835821","black","no","xpyriment","legacy","legacy","0","205","NA","uniform","56330","1000","0.0177525297355","1","undefined","1","0","66","66","66","0","66","66","66","NA","66","66","0","66","NA","66","66","0","66","NA","66","NA","66","0","0","66","66","0","66","66","67","z","11/30/17 16:05:56","The main experiment item","yes","FIN__AB__M21__7%3A10%3A17.osexp","C:\Users\ERP Testing Room\Desktop\Joanna\morph21","no","mono","no","18","no","white","no","yes","1080","legacy","66","66","C:/Users/ERP Testing Room/Desktop/Joanna/morph21/subject-116.csv","xpyriment","Jazzy James","3.1.4","0","z","NA","NA","NA","NA","/","z","977","NA","NA","NA","NA","270112","977","2","legacy","1024","2","48000","-16","AB_m21","116","even","NW_S_SIMP","TILTADY","1359","513137","511554","508520","271482","NA","NA","NA","NA","513131","512051","NA","511054","NA","511045","513131","1369","513437","NA","NA","512137","1360","1360","512529","511045","1360","512137","513437","morph21_Oliver/Morris","51","49408","67","yes","1280","17"
"350","76.4705882353","76.4705882353","736.279411765","736.279411765","black","no","xpyriment","legacy","legacy","0","208","NA","uniform","69234","1000","0.0144437704018","1","undefined","1","0","67","67","67","0","67","67","67","NA","67","67","0","67","NA","67","67","0","67","NA","67","NA","67","0","0","67","67","0","67","67","68","z","11/30/17 16:05:56","The main experiment item","yes","FIN__AB__M21__7%3A10%3A17.osexp","C:\Users\ERP Testing Room\Desktop\Joanna\morph21","no","mono","no","18","no","white","no","yes","1080","legacy","67","67","C:/Users/ERP Testing Room/Desktop/Joanna/morph21/subject-116.csv","xpyriment","Jazzy James","3.1.4","0","z","NA","NA","NA","NA","/","z","659","NA","NA","NA","NA","270112","659","2","legacy","1024","2","48000","-16","AB_m21","116","even","FILL_NW","JADS","1359","516271","514671","508520","271482","NA","NA","NA","NA","516261","515168","NA","514171","NA","514159","516261","1369","516621","NA","NA","515271","1360","1360","515662","514159","1360","515271","516621","morph21_Oliver/Morris","52","50067","68","yes","1280","31"
"250","75.3623188406","75.3623188406","739.971014493","739.971014493","black","no","xpyriment","legacy","legacy","0","201","NA","uniform","62762","1000","0.0159332079921","0","undefined","0","0","68","68","68","0","68","68","68","NA","68","68","0","68","NA","68","68","0","68","NA","68","NA","68","0","0","68","68","0","68","68","69","/","11/30/17 16:05:56","The main experiment item","yes","FIN__AB__M21__7%3A10%3A17.osexp","C:\Users\ERP Testing Room\Desktop\Joanna\morph21","no","mono","no","18","no","white","no","yes","1080","legacy","68","68","C:/Users/ERP Testing Room/Desktop/Joanna/morph21/subject-116.csv","xpyriment","Jazzy James","3.1.4","0","None","NA","NA","NA","NA","/","None","991","NA","NA","NA","NA","270112","991","2","legacy","1024","2","48000","-16","AB_m21","116","even","CW_S","MILDNESS","1359","520938","517846","519429","271482","NA","NA","NA","NA","516261","518343","NA","517346","NA","517337","519420","1369","521188","NA","NA","518429","1360","1360","518821","517337","1360","518429","521188","morph21_Oliver/Morris","52","51058","69","yes","1280","42"
"350","75.7142857143","75.7142857143","740.2","740.2","black","no","xpyriment","legacy","legacy","0","202","NA","uniform","67170","1000","0.0148875986303","1","undefined","1","0","69","69","69","0","69","69","69","NA","69","69","0","69","NA","69","69","0","69","NA","69","NA","69","0","0","69","69","0","69","69","70","/","11/30/17 16:05:56","The main experiment item","yes","FIN__AB__M21__7%3A10%3A17.osexp","C:\Users\ERP Testing Room\Desktop\Joanna\morph21","no","mono","no","18","no","white","no","yes","1080","legacy","69","69","C:/Users/ERP Testing Room/Desktop/Joanna/morph21/subject-116.csv","xpyriment","Jazzy James","3.1.4","0","/","NA","NA","NA","NA","/","/","756","NA","NA","NA","NA","270112","756","2","legacy","1024","2","48000","-16","AB_m21","116","even","CW_L","SWIMMER","1359","524005","522388","519429","271482","NA","NA","NA","NA","523996","522885","NA","521888","NA","521880","523996","1369","524355","NA","NA","523005","1360","1360","523396","521880","1360","523005","524355","morph21_Oliver/Morris","53","51814","70","yes","1280","5"
"300","76.0563380282","76.0563380282","739.450704225","739.450704225","black","no","xpyriment","legacy","legacy","0","206","NA","uniform","70044","1000","0.0142767403346","1","undefined","1","0","70","70","70","0","70","70","70","NA","70","70","0","70","NA","70","70","0","70","NA","70","NA","70","0","0","70","70","0","70","70","71","z","11/30/17 16:05:56","The main experiment item","yes","FIN__AB__M21__7%3A10%3A17.osexp","C:\Users\ERP Testing Room\Desktop\Joanna\morph21","no","mono","no","18","no","white","no","yes","1080","legacy","70","70","C:/Users/ERP Testing Room/Desktop/Joanna/morph21/subject-116.csv","xpyriment","Jazzy James","3.1.4","0","z","NA","NA","NA","NA","/","z","687","NA","NA","NA","NA","270112","687","2","legacy","1024","2","48000","-16","AB_m21","116","even","NW_L_SIMP","PRAYANGE","1359","527146","525555","519429","271482","NA","NA","NA","NA","527136","526052","NA","525055","NA","525049","527136","1369","527446","NA","NA","526146","1360","1360","526538","525049","1360","526146","527446","morph21_Oliver/Morris","54","52501","71","yes","1280","1"
"400","76.3888888889","76.3888888889","737.125","737.125","black","no","xpyriment","legacy","legacy","0","207","NA","uniform","67741","1000","0.0147621086196","1","undefined","1","0","71","71","71","0","71","71","71","NA","71","71","0","71","NA","71","71","0","71","NA","71","NA","71","0","0","71","71","0","71","71","72","/","11/30/17 16:05:56","The main experiment item","yes","FIN__AB__M21__7%3A10%3A17.osexp","C:\Users\ERP Testing Room\Desktop\Joanna\morph21","no","mono","no","18","no","white","no","yes","1080","legacy","71","71","C:/Users/ERP Testing Room/Desktop/Joanna/morph21/subject-116.csv","xpyriment","Jazzy James","3.1.4","0","/","NA","NA","NA","NA","/","/","572","NA","NA","NA","NA","270112","572","2","legacy","1024","2","48000","-16","AB_m21","116","even","FILL_W","QUIT","1359","531723","528606","530214","271482","NA","NA","NA","NA","530211","529103","NA","528106","NA","528095","530211","1369","532123","NA","NA","529214","1360","1360","529614","528095","1360","529214","532123","morph21_Oliver/Morris","55","53073","72","yes","1280","21"
"400","76.7123287671","76.7123287671","737.328767123","737.328767123","black","no","xpyriment","legacy","legacy","0","201","NA","uniform","64722","1000","0.0154506968264","1","undefined","1","0","72","72","72","0","72","72","72","NA","72","72","0","72","NA","72","72","0","72","NA","72","NA","72","0","0","72","72","0","72","72","73","/","11/30/17 16:05:56","The main experiment item","yes","FIN__AB__M21__7%3A10%3A17.osexp","C:\Users\ERP Testing Room\Desktop\Joanna\morph21","no","mono","no","18","no","white","no","yes","1080","legacy","72","72","C:/Users/ERP Testing Room/Desktop/Joanna/morph21/subject-116.csv","xpyriment","Jazzy James","3.1.4","0","/","NA","NA","NA","NA","/","/","752","NA","NA","NA","NA","270112","752","2","legacy","1024","2","48000","-16","AB_m21","116","even","CW_S","ALLOWANCE","1359","534898","533314","530214","271482","NA","NA","NA","NA","534894","533811","NA","532814","NA","532803","534894","1369","535298","NA","NA","533898","1360","1360","534298","532803","1360","533898","535298","morph21_Oliver/Morris","56","53825","73","yes","1280","5"
"250","75.6756756757","75.6756756757","739.054054054","739.054054054","black","no","xpyriment","legacy","legacy","0","204","NA","uniform","66040","1000","0.015142337977","0","undefined","0","0","73","73","73","0","73","73","73","NA","73","73","0","73","NA","73","73","0","73","NA","73","NA","73","0","0","73","73","0","73","73","74","z","11/30/17 16:05:56","The main experiment item","yes","FIN__AB__M21__7%3A10%3A17.osexp","C:\Users\ERP Testing Room\Desktop\Joanna\morph21","no","mono","no","18","no","white","no","yes","1080","legacy","73","73","C:/Users/ERP Testing Room/Desktop/Joanna/morph21/subject-116.csv","xpyriment","Jazzy James","3.1.4","0","/","NA","NA","NA","NA","/","/","865","NA","NA","NA","NA","270112","865","2","legacy","1024","2","48000","-16","AB_m21","116","even","NW_L_COMP","FREENESS","1359","538064","536481","530214","271482","NA","NA","NA","NA","534894","536978","NA","535981","NA","535974","538058","1369","538314","NA","NA","537064","1360","1360","537456","535974","1360","537064","538314","morph21_Oliver/Morris","56","54690","74","yes","1280","15"
"350","74.6666666667","74.6666666667","738.466666667","738.466666667","black","no","xpyriment","legacy","legacy","0","203","NA","uniform","66752","1000","0.0149808245446","undefined","undefined","0","0","74","74","74","0","74","74","74","NA","74","74","0","74","NA","74","74","0","74","NA","74","NA","74","0","0","74","74","0","74","74","75","z","11/30/17 16:05:56","The main experiment item","yes","FIN__AB__M21__7%3A10%3A17.osexp","C:\Users\ERP Testing Room\Desktop\Joanna\morph21","no","mono","no","18","no","white","no","yes","1080","legacy","74","74","C:/Users/ERP Testing Room/Desktop/Joanna/morph21/subject-116.csv","xpyriment","Jazzy James","3.1.4","0","space","space","NA","NA","NA","/","/","50780","50780","NA","NA","NA","270112","695","2","legacy","1024","2","48000","-16","AB_m21","116","even","NW_S_COMP","HEIGHTENCE","1359","542615","539506","541106","271482","542973","NA","NA","NA","534894","540003","NA","539006","NA","539001","541101","1369","593754","NA","NA","540106","1360","1360","540506","539001","1360","540106","542965","morph21_Oliver/Morris","56","55385","75","yes","1280","18"
"200","75","75","736.842105263","736.842105263","black","no","xpyriment","legacy","legacy","0","201","NA","uniform","75678","1000","0.0132138798594","1","undefined","1","0","75","75","75","0","75","75","75","NA","75","75","0","75","NA","75","75","0","75","NA","75","NA","75","0","0","75","75","0","75","75","76","/","11/30/17 16:05:56","The main experiment item","yes","FIN__AB__M21__7%3A10%3A17.osexp","C:\Users\ERP Testing Room\Desktop\Joanna\morph21","no","mono","no","18","no","white","no","yes","1080","legacy","75","75","C:/Users/ERP Testing Room/Desktop/Joanna/morph21/subject-116.csv","xpyriment","Jazzy James","3.1.4","0","/","space","NA","NA","NA","/","/","615","50780","NA","NA","NA","270112","615","2","legacy","1024","2","48000","-16","AB_m21","116","even","CW_S","AMUSEMENT","1359","596562","594962","541106","271482","542973","NA","NA","NA","596552","595459","NA","594462","NA","594455","596552","1369","596762","NA","NA","595562","1360","1360","595953","594455","1360","595562","596762","morph21_Oliver/Morris","57","56000","76","yes","1280","38"
"200","75.3246753247","75.3246753247","734.727272727","734.727272727","black","no","xpyriment","legacy","legacy","0","203","NA","uniform","66731","1000","0.0149855389549","1","undefined","1","0","76","76","76","0","76","76","76","NA","76","76","0","76","NA","76","76","0","76","NA","76","NA","76","0","0","76","76","0","76","76","77","z","11/30/17 16:05:56","The main experiment item","yes","FIN__AB__M21__7%3A10%3A17.osexp","C:\Users\ERP Testing Room\Desktop\Joanna\morph21","no","mono","no","18","no","white","no","yes","1080","legacy","76","76","C:/Users/ERP Testing Room/Desktop/Joanna/morph21/subject-116.csv","xpyriment","Jazzy James","3.1.4","0","z","space","NA","NA","NA","/","z","574","50780","NA","NA","NA","270112","574","2","legacy","1024","2","48000","-16","AB_m21","116","even","NW_S_COMP","YANKORY","1359","599596","598004","541106","271482","542973","NA","NA","NA","599588","598502","NA","597504","NA","597500","599588","1369","599796","NA","NA","598596","1360","1360","598988","597500","1360","598596","599796","morph21_Oliver/Morris","58","56574","77","yes","1280","23"
"200","74.358974359","74.358974359","738","738","black","no","xpyriment","legacy","legacy","0","208","NA","uniform","49870","1000","0.0200521355524","0","undefined","0","0","77","77","77","0","77","77","77","NA","77","77","0","77","NA","77","77","0","77","NA","77","NA","77","0","0","77","77","0","77","77","78","z","11/30/17 16:05:56","The main experiment item","yes","FIN__AB__M21__7%3A10%3A17.osexp","C:\Users\ERP Testing Room\Desktop\Joanna\morph21","no","mono","no","18","no","white","no","yes","1080","legacy","77","77","C:/Users/ERP Testing Room/Desktop/Joanna/morph21/subject-116.csv","xpyriment","Jazzy James","3.1.4","0","None","space","NA","NA","NA","/","None","990","50780","NA","NA","NA","270112","990","2","legacy","1024","2","48000","-16","AB_m21","116","even","FILL_NW","FALONS","1359","604130","601013","602621","271482","542973","NA","NA","NA","599588","601510","NA","600505","NA","600497","602611","1369","604330","NA","NA","601621","1360","1360","602013","600497","1360","601621","604330","morph21_Oliver/Morris","58","57564","78","yes","1280","19"
"350","74.6835443038","74.6835443038","739.417721519","739.417721519","black","no","xpyriment","legacy","legacy","0","206","NA","uniform","64196","1000","0.0155772945355","1","undefined","1","0","78","78","78","0","78","78","78","NA","78","78","0","78","NA","78","78","0","78","NA","78","NA","78","0","0","78","78","0","78","78","79","z","11/30/17 16:05:56","The main experiment item","yes","FIN__AB__M21__7%3A10%3A17.osexp","C:\Users\ERP Testing Room\Desktop\Joanna\morph21","no","mono","no","18","no","white","no","yes","1080","legacy","78","78","C:/Users/ERP Testing Room/Desktop/Joanna/morph21/subject-116.csv","xpyriment","Jazzy James","3.1.4","0","z","space","NA","NA","NA","/","z","850","50780","NA","NA","NA","270112","850","2","legacy","1024","2","48000","-16","AB_m21","116","even","NW_L_SIMP","WIGITH","1359","607097","605513","602621","271482","542973","NA","NA","NA","607090","606010","NA","605013","NA","605006","607090","1369","607447","NA","NA","606096","1360","1360","606488","605006","1360","606096","607447","morph21_Oliver/Morris","59","58414","79","yes","1280","9"
"200","75","75","735.4","735.4","black","no","xpyriment","legacy","legacy","0","207","NA","uniform","74853","1000","0.0133595179886","1","undefined","1","0","79","79","79","0","79","79","79","NA","79","79","0","79","NA","79","79","0","79","NA","79","NA","79","0","0","79","79","0","79","79","80","/","11/30/17 16:05:56","The main experiment item","yes","FIN__AB__M21__7%3A10%3A17.osexp","C:\Users\ERP Testing Room\Desktop\Joanna\morph21","no","mono","no","18","no","white","no","yes","1080","legacy","79","79","C:/Users/ERP Testing Room/Desktop/Joanna/morph21/subject-116.csv","xpyriment","Jazzy James","3.1.4","0","/","space","NA","NA","NA","/","/","418","50780","NA","NA","NA","270112","418","2","legacy","1024","2","48000","-16","AB_m21","116","even","FILL_W","SAVE","1359","610247","608647","602621","271482","542973","NA","NA","NA","610244","609144","NA","608147","NA","608136","610244","1369","610447","NA","NA","609247","1360","1360","609647","608136","1360","609247","610447","morph21_Oliver/Morris","60","58832","80","yes","1280","46"
"400","74.0740740741","74.0740740741","732.074074074","732.074074074","black","no","xpyriment","legacy","legacy","0","202","NA","uniform","73299","1000","0.0136427509243","0","undefined","0","0","80","80","80","0","80","80","80","NA","80","80","0","80","NA","80","80","0","80","NA","80","NA","80","0","0","80","80","0","80","80","81","/","11/30/17 16:05:56","The main experiment item","yes","FIN__AB__M21__7%3A10%3A17.osexp","C:\Users\ERP Testing Room\Desktop\Joanna\morph21","no","mono","no","18","no","white","no","yes","1080","legacy","80","80","C:/Users/ERP Testing Room/Desktop/Joanna/morph21/subject-116.csv","xpyriment","Jazzy James","3.1.4","0","z","space","NA","NA","NA","/","z","466","50780","NA","NA","NA","270112","466","2","legacy","1024","2","48000","-16","AB_m21","116","even","CW_L","WRONGLY","1359","614755","611638","613247","271482","542973","NA","NA","NA","610244","612136","NA","611138","NA","611133","613237","1369","615155","NA","NA","612247","1360","1360","612638","611133","1360","612247","615155","morph21_Oliver/Morris","60","59298","81","yes","1280","37"
"300","74.3902439024","74.3902439024","732.402439024","732.402439024","black","no","xpyriment","legacy","legacy","0","206","NA","uniform","62383","1000","0.0160300081753","1","undefined","1","0","81","81","81","0","81","81","81","NA","81","81","0","81","NA","81","81","0","81","NA","81","NA","81","0","0","81","81","0","81","81","82","z","11/30/17 16:05:56","The main experiment item","yes","FIN__AB__M21__7%3A10%3A17.osexp","C:\Users\ERP Testing Room\Desktop\Joanna\morph21","no","mono","no","18","no","white","no","yes","1080","legacy","81","81","C:/Users/ERP Testing Room/Desktop/Joanna/morph21/subject-116.csv","xpyriment","Jazzy James","3.1.4","0","z","space","NA","NA","NA","/","z","759","50780","NA","NA","NA","270112","759","2","legacy","1024","2","48000","-16","AB_m21","116","even","NW_L_SIMP","LONGNELS","1359","617906","616323","613247","271482","542973","NA","NA","NA","617904","616820","NA","615823","NA","615818","617904","1369","618206","NA","NA","616915","1360","1360","617306","615818","1360","616915","618206","morph21_Oliver/Morris","61","60057","82","yes","1280","17"
"350","73.4939759036","73.4939759036","735.56626506","735.56626506","black","no","xpyriment","legacy","legacy","0","203","NA","uniform","58613","1000","0.0170610615392","0","undefined","0","0","82","82","82","0","82","82","82","NA","82","82","0","82","NA","82","82","0","82","NA","82","NA","82","0","0","82","82","0","82","82","83","z","11/30/17 16:05:56","The main experiment item","yes","FIN__AB__M21__7%3A10%3A17.osexp","C:\Users\ERP Testing Room\Desktop\Joanna\morph21","no","mono","no","18","no","white","no","yes","1080","legacy","82","82","C:/Users/ERP Testing Room/Desktop/Joanna/morph21/subject-116.csv","xpyriment","Jazzy James","3.1.4","0","None","space","NA","NA","NA","/","None","995","50780","NA","NA","NA","270112","995","2","legacy","1024","2","48000","-16","AB_m21","116","even","NW_S_COMP","EJECTENCE","1359","621015","619398","613247","271482","542973","NA","NA","NA","617904","619895","NA","618898","NA","618891","621012","1369","621365","NA","NA","620015","1360","1360","620415","618891","1360","620015","621365","morph21_Oliver/Morris","61","61052","83","yes","1280","20"
"250","73.8095238095","73.8095238095","736.416666667","736.416666667","black","no","xpyriment","legacy","legacy","0","201","NA","uniform","60218","1000","0.0166063303331","1","undefined","1","0","83","83","83","0","83","83","83","NA","83","83","0","83","NA","83","83","0","83","NA","83","NA","83","0","0","83","83","0","83","83","84","/","11/30/17 16:05:56","The main experiment item","yes","FIN__AB__M21__7%3A10%3A17.osexp","C:\Users\ERP Testing Room\Desktop\Joanna\morph21","no","mono","no","18","no","white","no","yes","1080","legacy","83","83","C:/Users/ERP Testing Room/Desktop/Joanna/morph21/subject-116.csv","xpyriment","Jazzy James","3.1.4","0","/","space","NA","NA","NA","/","/","807","50780","NA","NA","NA","270112","807","2","legacy","1024","2","48000","-16","AB_m21","116","even","CW_S","NOTICEABLE","1359","625632","622523","624123","271482","542973","NA","NA","NA","624115","623020","NA","622023","NA","622019","624115","1369","625882","NA","NA","623123","1360","1360","623515","622019","1360","623123","625882","morph21_Oliver/Morris","62","61859","84","yes","1280","3"
"300","74.1176470588","74.1176470588","735.647058824","735.647058824","black","no","xpyriment","legacy","legacy","0","202","NA","uniform","69662","1000","0.0143550285665","1","undefined","1","0","84","84","84","0","84","84","84","NA","84","84","0","84","NA","84","84","0","84","NA","84","NA","84","0","0","84","84","0","84","84","85","/","11/30/17 16:05:56","The main experiment item","yes","FIN__AB__M21__7%3A10%3A17.osexp","C:\Users\ERP Testing Room\Desktop\Joanna\morph21","no","mono","no","18","no","white","no","yes","1080","legacy","84","84","C:/Users/ERP Testing Room/Desktop/Joanna/morph21/subject-116.csv","xpyriment","Jazzy James","3.1.4","0","/","space","NA","NA","NA","/","/","671","50780","NA","NA","NA","270112","671","2","legacy","1024","2","48000","-16","AB_m21","116","even","CW_L","DOUBTFUL","1359","628690","627098","624123","271482","542973","NA","NA","NA","628684","627596","NA","626598","NA","626594","628684","1369","628990","NA","NA","627690","1360","1360","628082","626593","1360","627690","628990","morph21_Oliver/Morris","63","62530","85","yes","1280","21"
"250","74.4186046512","74.4186046512","736.453488372","736.453488372","black","no","xpyriment","legacy","legacy","0","202","NA","uniform","70104","1000","0.0142645212827","1","undefined","1","0","85","85","85","0","85","85","85","NA","85","85","0","85","NA","85","85","0","85","NA","85","NA","85","0","0","85","85","0","85","85","86","/","11/30/17 16:05:56","The main experiment item","yes","FIN__AB__M21__7%3A10%3A17.osexp","C:\Users\ERP Testing Room\Desktop\Joanna\morph21","no","mono","no","18","no","white","no","yes","1080","legacy","85","85","C:/Users/ERP Testing Room/Desktop/Joanna/morph21/subject-116.csv","xpyriment","Jazzy James","3.1.4","0","/","space","NA","NA","NA","/","/","805","50780","NA","NA","NA","270112","805","2","legacy","1024","2","48000","-16","AB_m21","116","even","CW_L","DREAMER","1359","631740","630157","624123","271482","542973","NA","NA","NA","631735","630654","NA","629657","NA","629648","631735","1369","631990","NA","NA","630740","1360","1360","631132","629648","1360","630740","631990","morph21_Oliver/Morris","64","63335","86","yes","1280","12"
"200","74.7126436782","74.7126436782","735.034482759","735.034482759","black","no","xpyriment","legacy","legacy","0","207","NA","uniform","70719","1000","0.0141404714433","1","undefined","1","0","86","86","86","0","86","86","86","NA","86","86","0","86","NA","86","86","0","86","NA","86","NA","86","0","0","86","86","0","86","86","87","/","11/30/17 16:05:56","The main experiment item","yes","FIN__AB__M21__7%3A10%3A17.osexp","C:\Users\ERP Testing Room\Desktop\Joanna\morph21","no","mono","no","18","no","white","no","yes","1080","legacy","86","86","C:/Users/ERP Testing Room/Desktop/Joanna/morph21/subject-116.csv","xpyriment","Jazzy James","3.1.4","0","/","space","NA","NA","NA","/","/","613","50780","NA","NA","NA","270112","613","2","legacy","1024","2","48000","-16","AB_m21","116","even","FILL_W","TAX","1359","636233","633133","634725","271482","542973","NA","NA","NA","634716","633630","NA","632632","NA","632627","634716","1369","636433","NA","NA","633725","1360","1360","634116","632627","1360","633725","636433","morph21_Oliver/Morris","65","63948","87","yes","1280","45"
"200","75","75","732.204545455","732.204545455","black","no","xpyriment","legacy","legacy","0","207","NA","uniform","70406","1000","0.014203334943","1","undefined","1","0","87","87","87","0","87","87","87","NA","87","87","0","87","NA","87","87","0","87","NA","87","NA","87","0","0","87","87","0","87","87","88","/","11/30/17 16:05:56","The main experiment item","yes","FIN__AB__M21__7%3A10%3A17.osexp","C:\Users\ERP Testing Room\Desktop\Joanna\morph21","no","mono","no","18","no","white","no","yes","1080","legacy","87","87","C:/Users/ERP Testing Room/Desktop/Joanna/morph21/subject-116.csv","xpyriment","Jazzy James","3.1.4","0","/","space","NA","NA","NA","/","/","486","50780","NA","NA","NA","270112","486","2","legacy","1024","2","48000","-16","AB_m21","116","even","FILL_W","TEST","1359","639300","637700","634725","271482","542973","NA","NA","NA","639297","638197","NA","637200","NA","637195","639297","1369","639500","NA","NA","638308","1360","1360","638700","637195","1360","638308","639500","morph21_Oliver/Morris","66","64434","88","yes","1280","47"
"300","75.2808988764","75.2808988764","730.797752809","730.797752809","black","no","xpyriment","legacy","legacy","0","201","NA","uniform","68451","1000","0.0146089903727","1","undefined","1","0","88","88","88","0","88","88","88","NA","88","88","0","88","NA","88","88","0","88","NA","88","NA","88","0","0","88","88","0","88","88","89","/","11/30/17 16:05:56","The main experiment item","yes","FIN__AB__M21__7%3A10%3A17.osexp","C:\Users\ERP Testing Room\Desktop\Joanna\morph21","no","mono","no","18","no","white","no","yes","1080","legacy","88","88","C:/Users/ERP Testing Room/Desktop/Joanna/morph21/subject-116.csv","xpyriment","Jazzy James","3.1.4","0","/","space","NA","NA","NA","/","/","607","50780","NA","NA","NA","270112","607","2","legacy","1024","2","48000","-16","AB_m21","116","even","CW_S","BUYER","1359","642267","640667","634725","271482","542973","NA","NA","NA","642258","641164","NA","640167","NA","640163","642258","1369","642567","NA","NA","641267","1360","1360","641658","640163","1360","641267","642567","morph21_Oliver/Morris","67","65041","89","yes","1280","21"
"200","75.5555555556","75.5555555556","729.733333333","729.733333333","black","no","xpyriment","legacy","legacy","0","208","NA","uniform","67805","1000","0.0147481749134","1","undefined","1","0","89","89","89","0","89","89","89","NA","89","89","0","89","NA","89","89","0","89","NA","89","NA","89","0","0","89","89","0","89","89","90","z","11/30/17 16:05:56","The main experiment item","yes","FIN__AB__M21__7%3A10%3A17.osexp","C:\Users\ERP Testing Room\Desktop\Joanna\morph21","no","mono","no","18","no","white","no","yes","1080","legacy","89","89","C:/Users/ERP Testing Room/Desktop/Joanna/morph21/subject-116.csv","xpyriment","Jazzy James","3.1.4","0","z","space","NA","NA","NA","/","z","635","50780","NA","NA","NA","270112","635","2","legacy","1024","2","48000","-16","AB_m21","116","even","FILL_NW","GAIRS","1359","646850","643758","645342","271482","542973","NA","NA","NA","645335","644256","NA","643258","NA","643254","645335","1369","647050","NA","NA","644342","1360","1360","644733","643254","1360","644342","647050","morph21_Oliver/Morris","68","65676","90","yes","1280","23"
"350","75.8241758242","75.8241758242","727.758241758","727.758241758","black","no","xpyriment","legacy","legacy","0","201","NA","uniform","78991","1000","0.012659670089","1","undefined","1","0","90","90","90","0","90","90","90","NA","90","90","0","90","NA","90","90","0","90","NA","90","NA","90","0","0","90","90","0","90","90","91","/","11/30/17 16:05:56","The main experiment item","yes","FIN__AB__M21__7%3A10%3A17.osexp","C:\Users\ERP Testing Room\Desktop\Joanna\morph21","no","mono","no","18","no","white","no","yes","1080","legacy","90","90","C:/Users/ERP Testing Room/Desktop/Joanna/morph21/subject-116.csv","xpyriment","Jazzy James","3.1.4","0","/","space","NA","NA","NA","/","/","550","50780","NA","NA","NA","270112","550","2","legacy","1024","2","48000","-16","AB_m21","116","even","CW_S","TOASTER","1359","649859","648259","645342","271482","542973","NA","NA","NA","649851","648756","NA","647759","NA","647749","649851","1369","650209","NA","NA","648859","1360","1360","649250","647749","1360","648859","650209","morph21_Oliver/Morris","69","66226","91","yes","1280","10"
