"ITI","acc","accuracy","average_response_time","avg_rt","background","bidi","canvas_backend","clock_backend","color_backend","compensation","cond_trig","condtrigtime","coordinates","coroutines_cycles","coroutines_duration","coroutines_mean_cycle_duration","correct","correct_instructions_1","correct_new_keyboard_response_1","count_AB_m21","count_ITI","count_blank_screen","count_blink_screen","count_block1","count_break1","count_break2","count_break3_1","count_canvas","count_correct_trigger","count_def_chain","count_end_screen","count_fixation_1","count_getting_started","count_inc_counter","count_incorrect_trigger","count_instructions_1","count_logger","count_logscript","count_new_coroutines","count_new_inline_script","count_new_keyboard_response_1","count_reset_counter_prep","count_reset_counter_run","count_responsescreen","count_sequence","count_start_trigger","count_target_present","count_word_trigger","counter","cresp","datetime","description","disable_garbage_collection","experiment_file","experiment_path","font_bold","font_family","font_italic","font_size","font_underline","foreground","form_clicks","fullscreen","height","keyboard_backend","live_row","live_row_block1","logfile","mouse_backend","opensesame_codename","opensesame_version","repeat_cycle","response","response_break1","response_break2","response_break3_1","response_end_screen","response_instructions_1","response_new_keyboard_response_1","response_time","response_time_break1","response_time_break2","response_time_break3_1","response_time_end_screen","response_time_instructions_1","response_time_new_keyboard_response_1","round_decimals","sampler_backend","sound_buf_size","sound_channels","sound_freq","sound_sample_size","start","subject_nr","subject_parity","targ_type","target","time_AB_m21","time_ITI","time_blank_screen","time_blink_screen","time_block1","time_break1","time_break2","time_break3_1","time_canvas","time_correct_trigger","time_def_chain","time_end_screen","time_fixation_1","time_getting_started","time_inc_counter","time_incorrect_trigger","time_instructions_1","time_logger","time_logscript","time_new_inline_script","time_new_keyboard_response_1","time_reset_counter_prep","time_reset_counter_run","time_responsescreen","time_sequence","time_start_trigger","time_target_present","time_word_trigger","title","total_correct","total_response_time","total_responses","uniform_coordinates","width","word_trig"
"400","0","0","994","994","black","no","xpyriment","legacy","legacy","0","207","NA","uniform","52376","1000","0.0190927142203","0","undefined","0","0","0","0","0","0","0","0","0","NA","0","0","0","0","NA","0","0","0","0","NA","0","NA","0","0","0","0","0","0","0","0","1","/","07/23/18 12:33:05","The main experiment item","yes","FIN__AB__M21__7%3A10%3A17.osexp","C:\Users\ERP Testing Room\Desktop\Joanna\morph21","no","mono","no","18","no","white","no","yes","1080","legacy","0","0","C:/Users/ERP Testing Room/Desktop/Joanna/morph21/subject-132.csv","xpyriment","Jazzy James","3.1.4","0","None","NA","NA","NA","NA","space","None","994","NA","NA","NA","NA","376292","994","2","legacy","1024","2","48000","-16","AB_m21","132","even","FILL_W","QUIT","2506","381677","380069","NA","378816","NA","NA","NA","NA","NA","380566","NA","379563","NA","379498","381671","2523","382077","NA","NA","380677","2507","2507","381069","379498","2507","380677","382077","morph21_Oliver/Morris","0","994","1","yes","1280","21"
"400","0","0","991.5","991.5","black","no","xpyriment","legacy","legacy","0","202","NA","uniform","61811","1000","0.0161783501319","0","undefined","0","0","1","1","1","0","1","1","1","NA","1","1","0","1","NA","1","1","0","1","NA","1","NA","1","0","0","1","1","0","1","1","2","/","07/23/18 12:33:05","The main experiment item","yes","FIN__AB__M21__7%3A10%3A17.osexp","C:\Users\ERP Testing Room\Desktop\Joanna\morph21","no","mono","no","18","no","white","no","yes","1080","legacy","1","1","C:/Users/ERP Testing Room/Desktop/Joanna/morph21/subject-132.csv","xpyriment","Jazzy James","3.1.4","0","None","NA","NA","NA","NA","space","None","989","NA","NA","NA","NA","376292","989","2","legacy","1024","2","48000","-16","AB_m21","132","even","CW_L","DRYNESS","2506","384877","383294","NA","378816","NA","NA","NA","NA","NA","383791","NA","382794","NA","382786","384875","2523","385277","NA","NA","383886","2507","2507","384277","382786","2507","383886","385277","morph21_Oliver/Morris","0","1983","2","yes","1280","42"
"350","0","0","992.666666667","992.666666667","black","no","xpyriment","legacy","legacy","0","201","NA","uniform","60480","1000","0.0165343915344","0","undefined","0","0","2","2","2","0","2","2","2","NA","2","2","0","2","NA","2","2","0","2","NA","2","NA","2","0","0","2","2","0","2","2","3","/","07/23/18 12:33:05","The main experiment item","yes","FIN__AB__M21__7%3A10%3A17.osexp","C:\Users\ERP Testing Room\Desktop\Joanna\morph21","no","mono","no","18","no","white","no","yes","1080","legacy","2","2","C:/Users/ERP Testing Room/Desktop/Joanna/morph21/subject-132.csv","xpyriment","Jazzy James","3.1.4","0","None","NA","NA","NA","NA","space","None","995","NA","NA","NA","NA","376292","995","2","legacy","1024","2","48000","-16","AB_m21","132","even","CW_S","CHILLY","2506","389594","386477","388086","378816","NA","NA","NA","NA","NA","386975","NA","385978","NA","385968","388081","2523","389945","NA","NA","387086","2507","2507","387486","385968","2507","387086","389945","morph21_Oliver/Morris","0","2978","3","yes","1280","48"
"400","25","25","864.5","864.5","black","no","xpyriment","legacy","legacy","0","208","NA","uniform","70226","1000","0.0142397402671","1","undefined","1","0","3","3","3","0","3","3","3","NA","3","3","0","3","NA","3","3","0","3","NA","3","NA","3","0","0","3","3","0","3","3","4","z","07/23/18 12:33:05","The main experiment item","yes","FIN__AB__M21__7%3A10%3A17.osexp","C:\Users\ERP Testing Room\Desktop\Joanna\morph21","no","mono","no","18","no","white","no","yes","1080","legacy","3","3","C:/Users/ERP Testing Room/Desktop/Joanna/morph21/subject-132.csv","xpyriment","Jazzy James","3.1.4","0","z","NA","NA","NA","NA","space","z","480","NA","NA","NA","NA","376292","480","2","legacy","1024","2","48000","-16","AB_m21","132","even","FILL_NW","FROES","2506","392720","391136","388086","378816","NA","NA","NA","NA","392711","391633","NA","390636","NA","390627","392711","2523","393121","NA","NA","391720","2507","2507","392112","390627","2507","391720","393121","morph21_Oliver/Morris","1","3458","4","yes","1280","21"
"350","40","40","826","826","black","no","xpyriment","legacy","legacy","0","206","NA","uniform","65304","1000","0.0153129976724","1","undefined","1","0","4","4","4","0","4","4","4","NA","4","4","0","4","NA","4","4","0","4","NA","4","NA","4","0","0","4","4","0","4","4","5","z","07/23/18 12:33:05","The main experiment item","yes","FIN__AB__M21__7%3A10%3A17.osexp","C:\Users\ERP Testing Room\Desktop\Joanna\morph21","no","mono","no","18","no","white","no","yes","1080","legacy","4","4","C:/Users/ERP Testing Room/Desktop/Joanna/morph21/subject-132.csv","xpyriment","Jazzy James","3.1.4","0","z","NA","NA","NA","NA","space","z","672","NA","NA","NA","NA","376292","672","2","legacy","1024","2","48000","-16","AB_m21","132","even","NW_L_SIMP","NUTLA","2506","396079","394496","388086","378816","NA","NA","NA","NA","396071","394993","NA","393996","NA","393986","396071","2523","396429","NA","NA","395079","2507","2507","395471","393986","2507","395079","396429","morph21_Oliver/Morris","2","4130","5","yes","1280","14"
"300","50","50","780.5","780.5","black","no","xpyriment","legacy","legacy","0","207","NA","uniform","68942","1000","0.0145049461866","1","undefined","1","0","5","5","5","0","5","5","5","NA","5","5","0","5","NA","5","5","0","5","NA","5","NA","5","0","0","5","5","0","5","5","6","/","07/23/18 12:33:05","The main experiment item","yes","FIN__AB__M21__7%3A10%3A17.osexp","C:\Users\ERP Testing Room\Desktop\Joanna\morph21","no","mono","no","18","no","white","no","yes","1080","legacy","5","5","C:/Users/ERP Testing Room/Desktop/Joanna/morph21/subject-132.csv","xpyriment","Jazzy James","3.1.4","0","/","NA","NA","NA","NA","space","/","553","NA","NA","NA","NA","376292","553","2","legacy","1024","2","48000","-16","AB_m21","132","even","FILL_W","BOX","2506","400763","397654","399254","378816","NA","NA","NA","NA","399250","398151","NA","397154","NA","397149","399250","2523","401063","NA","NA","398254","2507","2507","398654","397149","2507","398254","401063","morph21_Oliver/Morris","3","4683","6","yes","1280","42"
"400","57.1428571429","57.1428571429","752.857142857","752.857142857","black","no","xpyriment","legacy","legacy","0","202","NA","uniform","71299","1000","0.0140254421521","1","undefined","1","0","6","6","6","0","6","6","6","NA","6","6","0","6","NA","6","6","0","6","NA","6","NA","6","0","0","6","6","0","6","6","7","/","07/23/18 12:33:05","The main experiment item","yes","FIN__AB__M21__7%3A10%3A17.osexp","C:\Users\ERP Testing Room\Desktop\Joanna\morph21","no","mono","no","18","no","white","no","yes","1080","legacy","6","6","C:/Users/ERP Testing Room/Desktop/Joanna/morph21/subject-132.csv","xpyriment","Jazzy James","3.1.4","0","/","NA","NA","NA","NA","space","/","587","NA","NA","NA","NA","376292","587","2","legacy","1024","2","48000","-16","AB_m21","132","even","CW_L","COOLING","2506","403988","402363","399254","378816","NA","NA","NA","NA","403982","402860","NA","401863","NA","401856","403982","2523","404388","NA","NA","402988","2507","2507","403379","401856","2507","402988","404388","morph21_Oliver/Morris","4","5270","7","yes","1280","24"
"400","62.5","62.5","728.25","728.25","black","no","xpyriment","legacy","legacy","0","202","NA","uniform","69947","1000","0.014296538808","1","undefined","1","0","7","7","7","0","7","7","7","NA","7","7","0","7","NA","7","7","0","7","NA","7","NA","7","0","0","7","7","0","7","7","8","/","07/23/18 12:33:05","The main experiment item","yes","FIN__AB__M21__7%3A10%3A17.osexp","C:\Users\ERP Testing Room\Desktop\Joanna\morph21","no","mono","no","18","no","white","no","yes","1080","legacy","7","7","C:/Users/ERP Testing Room/Desktop/Joanna/morph21/subject-132.csv","xpyriment","Jazzy James","3.1.4","0","/","NA","NA","NA","NA","space","/","556","NA","NA","NA","NA","376292","556","2","legacy","1024","2","48000","-16","AB_m21","132","even","CW_L","CLEANER","2506","407363","405746","399254","378816","NA","NA","NA","NA","407352","406243","NA","405246","NA","405235","407352","2523","407763","NA","NA","406363","2507","2507","406754","405235","2507","406363","407763","morph21_Oliver/Morris","5","5826","8","yes","1280","15"
"200","66.6666666667","66.6666666667","717","717","black","no","xpyriment","legacy","legacy","0","203","NA","uniform","72521","1000","0.0137891093614","1","undefined","1","0","8","8","8","0","8","8","8","NA","8","8","0","8","NA","8","8","0","8","NA","8","NA","8","0","0","8","8","0","8","8","9","z","07/23/18 12:33:05","The main experiment item","yes","FIN__AB__M21__7%3A10%3A17.osexp","C:\Users\ERP Testing Room\Desktop\Joanna\morph21","no","mono","no","18","no","white","no","yes","1080","legacy","8","8","C:/Users/ERP Testing Room/Desktop/Joanna/morph21/subject-132.csv","xpyriment","Jazzy James","3.1.4","0","z","NA","NA","NA","NA","space","z","627","NA","NA","NA","NA","376292","627","2","legacy","1024","2","48000","-16","AB_m21","132","even","NW_S_COMP","FANFUL","2506","412106","408988","410597","378816","NA","NA","NA","NA","410587","409485","NA","408488","NA","408477","410587","2523","412306","NA","NA","409597","2507","2507","409989","408477","2507","409597","412306","morph21_Oliver/Morris","6","6453","9","yes","1280","6"
"250","70","70","712.8","712.8","black","no","xpyriment","legacy","legacy","0","201","NA","uniform","67771","1000","0.014755573918","1","undefined","1","0","9","9","9","0","9","9","9","NA","9","9","0","9","NA","9","9","0","9","NA","9","NA","9","0","0","9","9","0","9","9","10","/","07/23/18 12:33:05","The main experiment item","yes","FIN__AB__M21__7%3A10%3A17.osexp","C:\Users\ERP Testing Room\Desktop\Joanna\morph21","no","mono","no","18","no","white","no","yes","1080","legacy","9","9","C:/Users/ERP Testing Room/Desktop/Joanna/morph21/subject-132.csv","xpyriment","Jazzy James","3.1.4","0","/","NA","NA","NA","NA","space","/","675","NA","NA","NA","NA","376292","675","2","legacy","1024","2","48000","-16","AB_m21","132","even","CW_S","GRIMLY","2506","415147","413564","410597","378816","NA","NA","NA","NA","415145","414061","NA","413064","NA","413056","415145","2523","415397","NA","NA","414156","2507","2507","414547","413056","2507","414156","415397","morph21_Oliver/Morris","7","7128","10","yes","1280","31"
"400","72.7272727273","72.7272727273","706.272727273","706.272727273","black","no","xpyriment","legacy","legacy","0","204","NA","uniform","68969","1000","0.014499267787","1","undefined","1","0","10","10","10","0","10","10","10","NA","10","10","0","10","NA","10","10","0","10","NA","10","NA","10","0","0","10","10","0","10","10","11","z","07/23/18 12:33:05","The main experiment item","yes","FIN__AB__M21__7%3A10%3A17.osexp","C:\Users\ERP Testing Room\Desktop\Joanna\morph21","no","mono","no","18","no","white","no","yes","1080","legacy","10","10","C:/Users/ERP Testing Room/Desktop/Joanna/morph21/subject-132.csv","xpyriment","Jazzy James","3.1.4","0","z","NA","NA","NA","NA","space","z","641","NA","NA","NA","NA","376292","641","2","legacy","1024","2","48000","-16","AB_m21","132","even","NW_L_COMP","FLITENCE","2506","418214","416606","410597","378816","NA","NA","NA","NA","418206","417103","NA","416098","NA","416093","418206","2523","418614","NA","NA","417214","2507","2507","417606","416093","2507","417214","418614","morph21_Oliver/Morris","8","7769","11","yes","1280","3"
"400","75","75","701.25","701.25","black","no","xpyriment","legacy","legacy","0","208","NA","uniform","65102","1000","0.0153605111978","1","undefined","1","0","11","11","11","0","11","11","11","NA","11","11","0","11","NA","11","11","0","11","NA","11","NA","11","0","0","11","11","0","11","11","12","z","07/23/18 12:33:05","The main experiment item","yes","FIN__AB__M21__7%3A10%3A17.osexp","C:\Users\ERP Testing Room\Desktop\Joanna\morph21","no","mono","no","18","no","white","no","yes","1080","legacy","11","11","C:/Users/ERP Testing Room/Desktop/Joanna/morph21/subject-132.csv","xpyriment","Jazzy James","3.1.4","0","z","NA","NA","NA","NA","space","z","646","NA","NA","NA","NA","376292","646","2","legacy","1024","2","48000","-16","AB_m21","132","even","FILL_NW","DROES","2506","422990","419864","421481","378816","NA","NA","NA","NA","421478","420362","NA","419364","NA","419356","421478","2523","423390","NA","NA","420489","2507","2507","420881","419356","2507","420489","423390","morph21_Oliver/Morris","9","8415","12","yes","1280","17"
"200","76.9230769231","76.9230769231","698.307692308","698.307692308","black","no","xpyriment","legacy","legacy","0","204","NA","uniform","63066","1000","0.0158564044017","1","undefined","1","0","12","12","12","0","12","12","12","NA","12","12","0","12","NA","12","12","0","12","NA","12","NA","12","0","0","12","12","0","12","12","13","z","07/23/18 12:33:05","The main experiment item","yes","FIN__AB__M21__7%3A10%3A17.osexp","C:\Users\ERP Testing Room\Desktop\Joanna\morph21","no","mono","no","18","no","white","no","yes","1080","legacy","12","12","C:/Users/ERP Testing Room/Desktop/Joanna/morph21/subject-132.csv","xpyriment","Jazzy James","3.1.4","0","z","NA","NA","NA","NA","space","z","663","NA","NA","NA","NA","376292","663","2","legacy","1024","2","48000","-16","AB_m21","132","even","NW_L_COMP","PITCHORY","2506","426231","424615","421481","378816","NA","NA","NA","NA","426227","425112","NA","424115","NA","424109","426227","2523","426431","NA","NA","425240","2507","2507","425631","424109","2507","425240","426431","morph21_Oliver/Morris","10","9078","13","yes","1280","25"
"200","78.5714285714","78.5714285714","697.785714286","697.785714286","black","no","xpyriment","legacy","legacy","0","208","NA","uniform","67813","1000","0.0147464350493","1","undefined","1","0","13","13","13","0","13","13","13","NA","13","13","0","13","NA","13","13","0","13","NA","13","NA","13","0","0","13","13","0","13","13","14","z","07/23/18 12:33:05","The main experiment item","yes","FIN__AB__M21__7%3A10%3A17.osexp","C:\Users\ERP Testing Room\Desktop\Joanna\morph21","no","mono","no","18","no","white","no","yes","1080","legacy","13","13","C:/Users/ERP Testing Room/Desktop/Joanna/morph21/subject-132.csv","xpyriment","Jazzy James","3.1.4","0","z","NA","NA","NA","NA","space","z","691","NA","NA","NA","NA","376292","691","2","legacy","1024","2","48000","-16","AB_m21","132","even","FILL_NW","CINDS","2506","429332","427741","421481","378816","NA","NA","NA","NA","429330","428238","NA","427241","NA","427236","429330","2523","429532","NA","NA","428341","2507","2507","428732","427236","2507","428341","429532","morph21_Oliver/Morris","11","9769","14","yes","1280","6"
"350","80","80","685.933333333","685.933333333","black","no","xpyriment","legacy","legacy","0","206","NA","uniform","77001","1000","0.0129868443267","1","undefined","1","0","14","14","14","0","14","14","14","NA","14","14","0","14","NA","14","14","0","14","NA","14","NA","14","0","0","14","14","0","14","14","15","z","07/23/18 12:33:05","The main experiment item","yes","FIN__AB__M21__7%3A10%3A17.osexp","C:\Users\ERP Testing Room\Desktop\Joanna\morph21","no","mono","no","18","no","white","no","yes","1080","legacy","14","14","C:/Users/ERP Testing Room/Desktop/Joanna/morph21/subject-132.csv","xpyriment","Jazzy James","3.1.4","0","z","NA","NA","NA","NA","space","z","520","NA","NA","NA","NA","376292","520","2","legacy","1024","2","48000","-16","AB_m21","132","even","NW_L_SIMP","WIGITH","2506","433891","430799","432383","378816","NA","NA","NA","NA","432375","431296","NA","430299","NA","430295","432375","2523","434241","NA","NA","431383","2507","2507","431774","430295","2507","431383","434241","morph21_Oliver/Morris","12","10289","15","yes","1280","9"
"300","81.25","81.25","682.5","682.5","black","no","xpyriment","legacy","legacy","0","206","NA","uniform","74951","1000","0.0133420501394","1","undefined","1","0","15","15","15","0","15","15","15","NA","15","15","0","15","NA","15","15","0","15","NA","15","NA","15","0","0","15","15","0","15","15","16","z","07/23/18 12:33:05","The main experiment item","yes","FIN__AB__M21__7%3A10%3A17.osexp","C:\Users\ERP Testing Room\Desktop\Joanna\morph21","no","mono","no","18","no","white","no","yes","1080","legacy","15","15","C:/Users/ERP Testing Room/Desktop/Joanna/morph21/subject-132.csv","xpyriment","Jazzy James","3.1.4","0","z","NA","NA","NA","NA","space","z","631","NA","NA","NA","NA","376292","631","2","legacy","1024","2","48000","-16","AB_m21","132","even","NW_L_SIMP","EARILT","2506","437016","435424","432383","378816","NA","NA","NA","NA","437006","435922","NA","434924","NA","434918","437006","2523","437316","NA","NA","436016","2507","2507","436408","434918","2507","436016","437316","morph21_Oliver/Morris","13","10920","16","yes","1280","12"
"350","82.3529411765","82.3529411765","678.352941176","678.352941176","black","no","xpyriment","legacy","legacy","0","201","NA","uniform","69313","1000","0.0144273080086","1","undefined","1","0","16","16","16","0","16","16","16","NA","16","16","0","16","NA","16","16","0","16","NA","16","NA","16","0","0","16","16","0","16","16","17","/","07/23/18 12:33:05","The main experiment item","yes","FIN__AB__M21__7%3A10%3A17.osexp","C:\Users\ERP Testing Room\Desktop\Joanna\morph21","no","mono","no","18","no","white","no","yes","1080","legacy","16","16","C:/Users/ERP Testing Room/Desktop/Joanna/morph21/subject-132.csv","xpyriment","Jazzy James","3.1.4","0","/","NA","NA","NA","NA","space","/","612","NA","NA","NA","NA","376292","612","2","legacy","1024","2","48000","-16","AB_m21","132","even","CW_S","LENDER","2506","440083","438466","432383","378816","NA","NA","NA","NA","440080","438963","NA","437966","NA","437959","440080","2523","440433","NA","NA","439091","2507","2507","439483","437959","2507","439091","440433","morph21_Oliver/Morris","14","11532","17","yes","1280","11"
"400","83.3333333333","83.3333333333","673.055555556","673.055555556","black","no","xpyriment","legacy","legacy","0","208","NA","uniform","77022","1000","0.0129833034717","1","undefined","1","0","17","17","17","0","17","17","17","NA","17","17","0","17","NA","17","17","0","17","NA","17","NA","17","0","0","17","17","0","17","17","18","z","07/23/18 12:33:05","The main experiment item","yes","FIN__AB__M21__7%3A10%3A17.osexp","C:\Users\ERP Testing Room\Desktop\Joanna\morph21","no","mono","no","18","no","white","no","yes","1080","legacy","17","17","C:/Users/ERP Testing Room/Desktop/Joanna/morph21/subject-132.csv","xpyriment","Jazzy James","3.1.4","0","z","NA","NA","NA","NA","space","z","583","NA","NA","NA","NA","376292","583","2","legacy","1024","2","48000","-16","AB_m21","132","even","FILL_NW","GIKE","2506","444709","441616","443200","378816","NA","NA","NA","NA","443196","442113","NA","441116","NA","441109","443196","2523","445109","NA","NA","442200","2507","2507","442600","441109","2507","442200","445109","morph21_Oliver/Morris","15","12115","18","yes","1280","24"
"300","84.2105263158","84.2105263158","668.842105263","668.842105263","black","no","xpyriment","legacy","legacy","0","208","NA","uniform","63321","1000","0.0157925490753","1","undefined","1","0","18","18","18","0","18","18","18","NA","18","18","0","18","NA","18","18","0","18","NA","18","NA","18","0","0","18","18","0","18","18","19","z","07/23/18 12:33:05","The main experiment item","yes","FIN__AB__M21__7%3A10%3A17.osexp","C:\Users\ERP Testing Room\Desktop\Joanna\morph21","no","mono","no","18","no","white","no","yes","1080","legacy","18","18","C:/Users/ERP Testing Room/Desktop/Joanna/morph21/subject-132.csv","xpyriment","Jazzy James","3.1.4","0","z","NA","NA","NA","NA","space","z","593","NA","NA","NA","NA","376292","593","2","legacy","1024","2","48000","-16","AB_m21","132","even","FILL_NW","VOOFS","2506","447951","446318","443200","378816","NA","NA","NA","NA","447942","446815","NA","445818","NA","445811","447942","2523","448251","NA","NA","446951","2507","2507","447343","445811","2507","446951","448251","morph21_Oliver/Morris","16","12708","19","yes","1280","48"
"300","85","85","670.45","670.45","black","no","xpyriment","legacy","legacy","0","208","NA","uniform","59186","1000","0.016895887541","1","undefined","1","0","19","19","19","0","19","19","19","NA","19","19","0","19","NA","19","19","0","19","NA","19","NA","19","0","0","19","19","0","19","19","20","z","07/23/18 12:33:05","The main experiment item","yes","FIN__AB__M21__7%3A10%3A17.osexp","C:\Users\ERP Testing Room\Desktop\Joanna\morph21","no","mono","no","18","no","white","no","yes","1080","legacy","19","19","C:/Users/ERP Testing Room/Desktop/Joanna/morph21/subject-132.csv","xpyriment","Jazzy James","3.1.4","0","z","NA","NA","NA","NA","space","z","701","NA","NA","NA","NA","376292","701","2","legacy","1024","2","48000","-16","AB_m21","132","even","FILL_NW","SCURE","2506","451026","449418","443200","378816","NA","NA","NA","NA","451016","449915","NA","448918","NA","448910","451016","2523","451326","NA","NA","450026","2507","2507","450418","448910","2507","450026","451326","morph21_Oliver/Morris","17","13409","20","yes","1280","41"
"300","85.7142857143","85.7142857143","666.333333333","666.333333333","black","no","xpyriment","legacy","legacy","0","202","NA","uniform","67859","1000","0.0147364387922","1","undefined","1","0","20","20","20","0","20","20","20","NA","20","20","0","20","NA","20","20","0","20","NA","20","NA","20","0","0","20","20","0","20","20","21","/","07/23/18 12:33:05","The main experiment item","yes","FIN__AB__M21__7%3A10%3A17.osexp","C:\Users\ERP Testing Room\Desktop\Joanna\morph21","no","mono","no","18","no","white","no","yes","1080","legacy","20","20","C:/Users/ERP Testing Room/Desktop/Joanna/morph21/subject-132.csv","xpyriment","Jazzy James","3.1.4","0","/","NA","NA","NA","NA","space","/","584","NA","NA","NA","NA","376292","584","2","legacy","1024","2","48000","-16","AB_m21","132","even","CW_L","DOUBTFUL","2506","455660","452568","454151","378816","NA","NA","NA","NA","454147","453065","NA","452068","NA","452060","454147","2523","455960","NA","NA","453151","2507","2507","453551","452060","2507","453151","455960","morph21_Oliver/Morris","18","13993","21","yes","1280","21"
"300","86.3636363636","86.3636363636","669.090909091","669.090909091","black","no","xpyriment","legacy","legacy","0","204","NA","uniform","68789","1000","0.0145372079838","1","undefined","1","0","21","21","21","0","21","21","21","NA","21","21","0","21","NA","21","21","0","21","NA","21","NA","21","0","0","21","21","0","21","21","22","z","07/23/18 12:33:05","The main experiment item","yes","FIN__AB__M21__7%3A10%3A17.osexp","C:\Users\ERP Testing Room\Desktop\Joanna\morph21","no","mono","no","18","no","white","no","yes","1080","legacy","21","21","C:/Users/ERP Testing Room/Desktop/Joanna/morph21/subject-132.csv","xpyriment","Jazzy James","3.1.4","0","z","NA","NA","NA","NA","space","z","727","NA","NA","NA","NA","376292","727","2","legacy","1024","2","48000","-16","AB_m21","132","even","NW_L_COMP","NORTHIZE","2506","458768","457168","454151","378816","NA","NA","NA","NA","458763","457665","NA","456668","NA","456660","458763","2523","459068","NA","NA","457768","2507","2507","458168","456660","2507","457768","459068","morph21_Oliver/Morris","19","14720","22","yes","1280","20"
"300","86.9565217391","86.9565217391","662.043478261","662.043478261","black","no","xpyriment","legacy","legacy","0","207","NA","uniform","79269","1000","0.0126152720483","1","undefined","1","0","22","22","22","0","22","22","22","NA","22","22","0","22","NA","22","22","0","22","NA","22","NA","22","0","0","22","22","0","22","22","23","/","07/23/18 12:33:05","The main experiment item","yes","FIN__AB__M21__7%3A10%3A17.osexp","C:\Users\ERP Testing Room\Desktop\Joanna\morph21","no","mono","no","18","no","white","no","yes","1080","legacy","22","22","C:/Users/ERP Testing Room/Desktop/Joanna/morph21/subject-132.csv","xpyriment","Jazzy James","3.1.4","0","/","NA","NA","NA","NA","space","/","507","NA","NA","NA","NA","376292","507","2","legacy","1024","2","48000","-16","AB_m21","132","even","FILL_W","SICK","2506","461878","460293","454151","378816","NA","NA","NA","NA","461872","460790","NA","459793","NA","459788","461872","2523","462178","NA","NA","460876","2507","2507","461276","459788","2507","460876","462178","morph21_Oliver/Morris","20","15227","23","yes","1280","36"
"350","87.5","87.5","663.958333333","663.958333333","black","no","xpyriment","legacy","legacy","0","202","NA","uniform","66682","1000","0.0149965507933","1","undefined","1","0","23","23","23","0","23","23","23","NA","23","23","0","23","NA","23","23","0","23","NA","23","NA","23","0","0","23","23","0","23","23","24","/","07/23/18 12:33:05","The main experiment item","yes","FIN__AB__M21__7%3A10%3A17.osexp","C:\Users\ERP Testing Room\Desktop\Joanna\morph21","no","mono","no","18","no","white","no","yes","1080","legacy","23","23","C:/Users/ERP Testing Room/Desktop/Joanna/morph21/subject-132.csv","xpyriment","Jazzy James","3.1.4","0","/","NA","NA","NA","NA","space","/","708","NA","NA","NA","NA","376292","708","2","legacy","1024","2","48000","-16","AB_m21","132","even","CW_L","EDITOR","2506","466553","463419","465044","378816","NA","NA","NA","NA","465039","463917","NA","462919","NA","462910","465039","2523","466903","NA","NA","464044","2507","2507","464444","462910","2507","464044","466903","morph21_Oliver/Morris","21","15935","24","yes","1280","45"
"400","84","84","659","659","black","no","xpyriment","legacy","legacy","0","207","NA","uniform","75565","1000","0.0132336399127","0","undefined","0","0","24","24","24","0","24","24","24","NA","24","24","0","24","NA","24","24","0","24","NA","24","NA","24","0","0","24","24","0","24","24","25","/","07/23/18 12:33:05","The main experiment item","yes","FIN__AB__M21__7%3A10%3A17.osexp","C:\Users\ERP Testing Room\Desktop\Joanna\morph21","no","mono","no","18","no","white","no","yes","1080","legacy","24","24","C:/Users/ERP Testing Room/Desktop/Joanna/morph21/subject-132.csv","xpyriment","Jazzy James","3.1.4","0","z","NA","NA","NA","NA","space","z","540","NA","NA","NA","NA","376292","540","2","legacy","1024","2","48000","-16","AB_m21","132","even","FILL_W","LITHE","2506","469795","468186","465044","378816","NA","NA","NA","NA","465039","468683","NA","467686","NA","467680","469792","2523","470195","NA","NA","468803","2507","2507","469195","467680","2507","468803","470195","morph21_Oliver/Morris","21","16475","25","yes","1280","23"
"300","84.6153846154","84.6153846154","650.653846154","650.653846154","black","no","xpyriment","legacy","legacy","0","207","NA","uniform","67488","1000","0.014817449028","1","undefined","1","0","25","25","25","0","25","25","25","NA","25","25","0","25","NA","25","25","0","25","NA","25","NA","25","0","0","25","25","0","25","25","26","/","07/23/18 12:33:05","The main experiment item","yes","FIN__AB__M21__7%3A10%3A17.osexp","C:\Users\ERP Testing Room\Desktop\Joanna\morph21","no","mono","no","18","no","white","no","yes","1080","legacy","25","25","C:/Users/ERP Testing Room/Desktop/Joanna/morph21/subject-132.csv","xpyriment","Jazzy James","3.1.4","0","/","NA","NA","NA","NA","space","/","442","NA","NA","NA","NA","376292","442","2","legacy","1024","2","48000","-16","AB_m21","132","even","FILL_W","BAKE","2506","473036","471428","465044","378816","NA","NA","NA","NA","473032","471925","NA","470928","NA","470923","473032","2523","473336","NA","NA","472045","2507","2507","472436","470923","2507","472045","473336","morph21_Oliver/Morris","22","16917","26","yes","1280","29"
"400","85.1851851852","85.1851851852","650.222222222","650.222222222","black","no","xpyriment","legacy","legacy","0","202","NA","uniform","69428","1000","0.0144034107277","1","undefined","1","0","26","26","26","0","26","26","26","NA","26","26","0","26","NA","26","26","0","26","NA","26","NA","26","0","0","26","26","0","26","26","27","/","07/23/18 12:33:05","The main experiment item","yes","FIN__AB__M21__7%3A10%3A17.osexp","C:\Users\ERP Testing Room\Desktop\Joanna\morph21","no","mono","no","18","no","white","no","yes","1080","legacy","26","26","C:/Users/ERP Testing Room/Desktop/Joanna/morph21/subject-132.csv","xpyriment","Jazzy James","3.1.4","0","/","NA","NA","NA","NA","space","/","639","NA","NA","NA","NA","376292","639","2","legacy","1024","2","48000","-16","AB_m21","132","even","CW_L","BLINDNESS","2506","477820","474695","476312","378816","NA","NA","NA","NA","476301","475192","NA","474186","NA","474176","476301","2523","478220","NA","NA","475312","2507","2507","475703","474176","2507","475312","478220","morph21_Oliver/Morris","23","17556","27","yes","1280","40"
"300","85.7142857143","85.7142857143","652.285714286","652.285714286","black","no","xpyriment","legacy","legacy","0","205","NA","uniform","69795","1000","0.0143276739021","1","undefined","1","0","27","27","27","0","27","27","27","NA","27","27","0","27","NA","27","27","0","27","NA","27","NA","27","0","0","27","27","0","27","27","28","z","07/23/18 12:33:05","The main experiment item","yes","FIN__AB__M21__7%3A10%3A17.osexp","C:\Users\ERP Testing Room\Desktop\Joanna\morph21","no","mono","no","18","no","white","no","yes","1080","legacy","27","27","C:/Users/ERP Testing Room/Desktop/Joanna/morph21/subject-132.csv","xpyriment","Jazzy James","3.1.4","0","z","NA","NA","NA","NA","space","z","708","NA","NA","NA","NA","376292","708","2","legacy","1024","2","48000","-16","AB_m21","132","even","NW_S_SIMP","HELMETOES","2506","480996","479421","476312","378816","NA","NA","NA","NA","480989","479918","NA","478920","NA","478915","480989","2523","481296","NA","NA","479996","2507","2507","480388","478914","2507","479996","481296","morph21_Oliver/Morris","24","18264","28","yes","1280","14"
"300","86.2068965517","86.2068965517","654.344827586","654.344827586","black","no","xpyriment","legacy","legacy","0","202","NA","uniform","65591","1000","0.015245994115","1","undefined","1","0","28","28","28","0","28","28","28","NA","28","28","0","28","NA","28","28","0","28","NA","28","NA","28","0","0","28","28","0","28","28","29","/","07/23/18 12:33:05","The main experiment item","yes","FIN__AB__M21__7%3A10%3A17.osexp","C:\Users\ERP Testing Room\Desktop\Joanna\morph21","no","mono","no","18","no","white","no","yes","1080","legacy","28","28","C:/Users/ERP Testing Room/Desktop/Joanna/morph21/subject-132.csv","xpyriment","Jazzy James","3.1.4","0","/","NA","NA","NA","NA","space","/","712","NA","NA","NA","NA","376292","712","2","legacy","1024","2","48000","-16","AB_m21","132","even","CW_L","HEATER","2506","484071","482488","476312","378816","NA","NA","NA","NA","484062","482985","NA","481988","NA","481983","484062","2523","484371","NA","NA","483071","2507","2507","483463","481983","2507","483071","484371","morph21_Oliver/Morris","25","18976","29","yes","1280","16"
"250","86.6666666667","86.6666666667","650.8","650.8","black","no","xpyriment","legacy","legacy","0","207","NA","uniform","67799","1000","0.0147494800808","1","undefined","1","0","29","29","29","0","29","29","29","NA","29","29","0","29","NA","29","29","0","29","NA","29","NA","29","0","0","29","29","0","29","29","30","/","07/23/18 12:33:05","The main experiment item","yes","FIN__AB__M21__7%3A10%3A17.osexp","C:\Users\ERP Testing Room\Desktop\Joanna\morph21","no","mono","no","18","no","white","no","yes","1080","legacy","29","29","C:/Users/ERP Testing Room/Desktop/Joanna/morph21/subject-132.csv","xpyriment","Jazzy James","3.1.4","0","/","NA","NA","NA","NA","space","/","548","NA","NA","NA","NA","376292","548","2","legacy","1024","2","48000","-16","AB_m21","132","even","FILL_W","TASTE","2506","488680","485563","487171","378816","NA","NA","NA","NA","487163","486060","NA","485063","NA","485057","487163","2523","488930","NA","NA","486171","2507","2507","486563","485057","2507","486171","488930","morph21_Oliver/Morris","26","19524","30","yes","1280","34"
"250","87.0967741935","87.0967741935","651.161290323","651.161290323","black","no","xpyriment","legacy","legacy","0","202","NA","uniform","65188","1000","0.0153402466712","1","undefined","1","0","30","30","30","0","30","30","30","NA","30","30","0","30","NA","30","30","0","30","NA","30","NA","30","0","0","30","30","0","30","30","31","/","07/23/18 12:33:05","The main experiment item","yes","FIN__AB__M21__7%3A10%3A17.osexp","C:\Users\ERP Testing Room\Desktop\Joanna\morph21","no","mono","no","18","no","white","no","yes","1080","legacy","30","30","C:/Users/ERP Testing Room/Desktop/Joanna/morph21/subject-132.csv","xpyriment","Jazzy James","3.1.4","0","/","NA","NA","NA","NA","space","/","662","NA","NA","NA","NA","376292","662","2","legacy","1024","2","48000","-16","AB_m21","132","even","CW_L","LAUGHING","2506","491705","490122","487171","378816","NA","NA","NA","NA","491696","490619","NA","489622","NA","489610","491696","2523","491955","NA","NA","490705","2507","2507","491096","489610","2507","490705","491955","morph21_Oliver/Morris","27","20186","31","yes","1280","27"
"250","84.375","84.375","653.15625","653.15625","black","no","xpyriment","legacy","legacy","0","207","NA","uniform","63195","1000","0.0158240367118","0","undefined","0","0","31","31","31","0","31","31","31","NA","31","31","0","31","NA","31","31","0","31","NA","31","NA","31","0","0","31","31","0","31","31","32","/","07/23/18 12:33:05","The main experiment item","yes","FIN__AB__M21__7%3A10%3A17.osexp","C:\Users\ERP Testing Room\Desktop\Joanna\morph21","no","mono","no","18","no","white","no","yes","1080","legacy","31","31","C:/Users/ERP Testing Room/Desktop/Joanna/morph21/subject-132.csv","xpyriment","Jazzy James","3.1.4","0","z","NA","NA","NA","NA","space","z","715","NA","NA","NA","NA","376292","715","2","legacy","1024","2","48000","-16","AB_m21","132","even","FILL_W","SUIT","2506","494772","493188","487171","378816","NA","NA","NA","NA","491696","493685","NA","492688","NA","492677","494766","2523","495022","NA","NA","493772","2507","2507","494163","492677","2507","493772","495022","morph21_Oliver/Morris","27","20901","32","yes","1280","49"
"200","84.8484848485","84.8484848485","646.515151515","646.515151515","black","no","xpyriment","legacy","legacy","0","207","NA","uniform","66830","1000","0.0149633398174","1","undefined","1","0","32","32","32","0","32","32","32","NA","32","32","0","32","NA","32","32","0","32","NA","32","NA","32","0","0","32","32","0","32","32","33","/","07/23/18 12:33:05","The main experiment item","yes","FIN__AB__M21__7%3A10%3A17.osexp","C:\Users\ERP Testing Room\Desktop\Joanna\morph21","no","mono","no","18","no","white","no","yes","1080","legacy","32","32","C:/Users/ERP Testing Room/Desktop/Joanna/morph21/subject-132.csv","xpyriment","Jazzy James","3.1.4","0","/","NA","NA","NA","NA","space","/","434","NA","NA","NA","NA","376292","434","2","legacy","1024","2","48000","-16","AB_m21","132","even","FILL_W","FLESH","2506","499515","496413","498006","378816","NA","NA","NA","NA","497996","496911","NA","495913","NA","495908","497996","2523","499715","NA","NA","497006","2507","2507","497398","495908","2507","497006","499715","morph21_Oliver/Morris","28","21335","33","yes","1280","32"
"300","85.2941176471","85.2941176471","648.029411765","648.029411765","black","no","xpyriment","legacy","legacy","0","205","NA","uniform","68445","1000","0.0146102710205","1","undefined","1","0","33","33","33","0","33","33","33","NA","33","33","0","33","NA","33","33","0","33","NA","33","NA","33","0","0","33","33","0","33","33","34","z","07/23/18 12:33:05","The main experiment item","yes","FIN__AB__M21__7%3A10%3A17.osexp","C:\Users\ERP Testing Room\Desktop\Joanna\morph21","no","mono","no","18","no","white","no","yes","1080","legacy","33","33","C:/Users/ERP Testing Room/Desktop/Joanna/morph21/subject-132.csv","xpyriment","Jazzy James","3.1.4","0","z","NA","NA","NA","NA","space","z","698","NA","NA","NA","NA","376292","698","2","legacy","1024","2","48000","-16","AB_m21","132","even","NW_S_SIMP","FEVERIME","2506","502573","500981","498006","378816","NA","NA","NA","NA","502564","501478","NA","500481","NA","500472","502564","2523","502873","NA","NA","501573","2507","2507","501965","500472","2507","501573","502873","morph21_Oliver/Morris","29","22033","34","yes","1280","24"
"200","82.8571428571","82.8571428571","657.971428571","657.971428571","black","no","xpyriment","legacy","legacy","0","208","NA","uniform","58425","1000","0.0171159606333","0","undefined","0","0","34","34","34","0","34","34","34","NA","34","34","0","34","NA","34","34","0","34","NA","34","NA","34","0","0","34","34","0","34","34","35","z","07/23/18 12:33:05","The main experiment item","yes","FIN__AB__M21__7%3A10%3A17.osexp","C:\Users\ERP Testing Room\Desktop\Joanna\morph21","no","mono","no","18","no","white","no","yes","1080","legacy","34","34","C:/Users/ERP Testing Room/Desktop/Joanna/morph21/subject-132.csv","xpyriment","Jazzy James","3.1.4","0","None","NA","NA","NA","NA","space","None","996","NA","NA","NA","NA","376292","996","2","legacy","1024","2","48000","-16","AB_m21","132","even","FILL_NW","BLAYS","2506","505748","504140","498006","378816","NA","NA","NA","NA","502564","504637","NA","503640","NA","503636","505744","2523","505948","NA","NA","504748","2507","2507","505148","503636","2507","504748","505948","morph21_Oliver/Morris","29","23029","35","yes","1280","8"
"200","83.3333333333","83.3333333333","661.25","661.25","black","no","xpyriment","legacy","legacy","0","208","NA","uniform","66400","1000","0.0150602409639","1","undefined","1","0","35","35","35","0","35","35","35","NA","35","35","0","35","NA","35","35","0","35","NA","35","NA","35","0","0","35","35","0","35","35","36","z","07/23/18 12:33:05","The main experiment item","yes","FIN__AB__M21__7%3A10%3A17.osexp","C:\Users\ERP Testing Room\Desktop\Joanna\morph21","no","mono","no","18","no","white","no","yes","1080","legacy","35","35","C:/Users/ERP Testing Room/Desktop/Joanna/morph21/subject-132.csv","xpyriment","Jazzy James","3.1.4","0","z","NA","NA","NA","NA","space","z","776","NA","NA","NA","NA","376292","776","2","legacy","1024","2","48000","-16","AB_m21","132","even","FILL_NW","FROT","2506","510315","507207","508807","378816","NA","NA","NA","NA","508801","507704","NA","506707","NA","506702","508801","2523","510515","NA","NA","507807","2507","2507","508198","506701","2507","507807","510515","morph21_Oliver/Morris","30","23805","36","yes","1280","22"
"350","83.7837837838","83.7837837838","659.837837838","659.837837838","black","no","xpyriment","legacy","legacy","0","201","NA","uniform","69244","1000","0.0144416844781","1","undefined","1","0","36","36","36","0","36","36","36","NA","36","36","0","36","NA","36","36","0","36","NA","36","NA","36","0","0","36","36","0","36","36","37","/","07/23/18 12:33:05","The main experiment item","yes","FIN__AB__M21__7%3A10%3A17.osexp","C:\Users\ERP Testing Room\Desktop\Joanna\morph21","no","mono","no","18","no","white","no","yes","1080","legacy","36","36","C:/Users/ERP Testing Room/Desktop/Joanna/morph21/subject-132.csv","xpyriment","Jazzy James","3.1.4","0","/","NA","NA","NA","NA","space","/","609","NA","NA","NA","NA","376292","609","2","legacy","1024","2","48000","-16","AB_m21","132","even","CW_S","TOASTER","2506","513382","511773","508807","378816","NA","NA","NA","NA","513379","512271","NA","511273","NA","511265","513379","2523","513732","NA","NA","512390","2507","2507","512782","511265","2507","512390","513732","morph21_Oliver/Morris","31","24414","37","yes","1280","10"
"400","81.5789473684","81.5789473684","668.710526316","668.710526316","black","no","xpyriment","legacy","legacy","0","205","NA","uniform","53733","1000","0.0186105372862","0","undefined","0","0","37","37","37","0","37","37","37","NA","37","37","0","37","NA","37","37","0","37","NA","37","NA","37","0","0","37","37","0","37","37","38","z","07/23/18 12:33:05","The main experiment item","yes","FIN__AB__M21__7%3A10%3A17.osexp","C:\Users\ERP Testing Room\Desktop\Joanna\morph21","no","mono","no","18","no","white","no","yes","1080","legacy","37","37","C:/Users/ERP Testing Room/Desktop/Joanna/morph21/subject-132.csv","xpyriment","Jazzy James","3.1.4","0","None","NA","NA","NA","NA","space","None","997","NA","NA","NA","NA","376292","997","2","legacy","1024","2","48000","-16","AB_m21","132","even","NW_S_SIMP","MEDICALADY","2506","516666","515066","508807","378816","NA","NA","NA","NA","513379","515563","NA","514566","NA","514560","516663","2523","517066","NA","NA","515666","2507","2507","516066","514560","2507","515666","517066","morph21_Oliver/Morris","31","25411","38","yes","1280","18"
"350","82.0512820513","82.0512820513","672","672","black","no","xpyriment","legacy","legacy","0","203","NA","uniform","60721","1000","0.0164687669834","1","undefined","1","0","38","38","38","0","38","38","38","NA","38","38","0","38","NA","38","38","0","38","NA","38","NA","38","0","0","38","38","0","38","38","39","z","07/23/18 12:33:05","The main experiment item","yes","FIN__AB__M21__7%3A10%3A17.osexp","C:\Users\ERP Testing Room\Desktop\Joanna\morph21","no","mono","no","18","no","white","no","yes","1080","legacy","38","38","C:/Users/ERP Testing Room/Desktop/Joanna/morph21/subject-132.csv","xpyriment","Jazzy James","3.1.4","0","z","NA","NA","NA","NA","space","z","797","NA","NA","NA","NA","376292","797","2","legacy","1024","2","48000","-16","AB_m21","132","even","NW_S_COMP","HEIGHTENCE","2506","521367","518275","519858","378816","NA","NA","NA","NA","519848","518772","NA","517775","NA","517763","519848","2523","521717","NA","NA","518858","2507","2507","519250","517762","2507","518858","521717","morph21_Oliver/Morris","32","26208","39","yes","1280","18"
"250","82.5","82.5","669.15","669.15","black","no","xpyriment","legacy","legacy","0","201","NA","uniform","66426","1000","0.0150543461897","1","undefined","1","0","39","39","39","0","39","39","39","NA","39","39","0","39","NA","39","39","0","39","NA","39","NA","39","0","0","39","39","0","39","39","40","/","07/23/18 12:33:05","The main experiment item","yes","FIN__AB__M21__7%3A10%3A17.osexp","C:\Users\ERP Testing Room\Desktop\Joanna\morph21","no","mono","no","18","no","white","no","yes","1080","legacy","39","39","C:/Users/ERP Testing Room/Desktop/Joanna/morph21/subject-132.csv","xpyriment","Jazzy James","3.1.4","0","/","NA","NA","NA","NA","space","/","558","NA","NA","NA","NA","376292","558","2","legacy","1024","2","48000","-16","AB_m21","132","even","CW_S","AWARENESS","2506","524617","523050","519858","378816","NA","NA","NA","NA","524611","523547","NA","522550","NA","522542","524611","2523","524867","NA","NA","523617","2507","2507","524008","522542","2507","523617","524867","morph21_Oliver/Morris","33","26766","40","yes","1280","44"
"400","82.9268292683","82.9268292683","667.731707317","667.731707317","black","no","xpyriment","legacy","legacy","0","207","NA","uniform","67513","1000","0.0148119621406","1","undefined","1","0","40","40","40","0","40","40","40","NA","40","40","0","40","NA","40","40","0","40","NA","40","NA","40","0","0","40","40","0","40","40","41","/","07/23/18 12:33:05","The main experiment item","yes","FIN__AB__M21__7%3A10%3A17.osexp","C:\Users\ERP Testing Room\Desktop\Joanna\morph21","no","mono","no","18","no","white","no","yes","1080","legacy","40","40","C:/Users/ERP Testing Room/Desktop/Joanna/morph21/subject-132.csv","xpyriment","Jazzy James","3.1.4","0","/","NA","NA","NA","NA","space","/","611","NA","NA","NA","NA","376292","611","2","legacy","1024","2","48000","-16","AB_m21","132","even","FILL_W","FLIRT","2506","527692","526075","519858","378816","NA","NA","NA","NA","527688","526572","NA","525575","NA","525567","527688","2523","528092","NA","NA","526692","2507","2507","527092","525567","2507","526692","528092","morph21_Oliver/Morris","34","27377","41","yes","1280","1"
"200","80.9523809524","80.9523809524","668.261904762","668.261904762","black","no","xpyriment","legacy","legacy","0","201","NA","uniform","72399","1000","0.0138123454744","0","undefined","0","0","41","41","41","0","41","41","41","NA","41","41","0","41","NA","41","41","0","41","NA","41","NA","41","0","0","41","41","0","41","41","42","/","07/23/18 12:33:05","The main experiment item","yes","FIN__AB__M21__7%3A10%3A17.osexp","C:\Users\ERP Testing Room\Desktop\Joanna\morph21","no","mono","no","18","no","white","no","yes","1080","legacy","41","41","C:/Users/ERP Testing Room/Desktop/Joanna/morph21/subject-132.csv","xpyriment","Jazzy James","3.1.4","0","z","NA","NA","NA","NA","space","z","690","NA","NA","NA","NA","376292","690","2","legacy","1024","2","48000","-16","AB_m21","132","even","CW_S","THRUSTER","2506","532435","529342","530925","378816","NA","NA","NA","NA","527688","529839","NA","528842","NA","528833","530920","2523","532635","NA","NA","529925","2507","2507","530325","528833","2507","529925","532635","morph21_Oliver/Morris","34","28067","42","yes","1280","24"
"400","81.3953488372","81.3953488372","665.837209302","665.837209302","black","no","xpyriment","legacy","legacy","0","201","NA","uniform","71237","1000","0.0140376489745","1","undefined","1","0","42","42","42","0","42","42","42","NA","42","42","0","42","NA","42","42","0","42","NA","42","NA","42","0","0","42","42","0","42","42","43","/","07/23/18 12:33:05","The main experiment item","yes","FIN__AB__M21__7%3A10%3A17.osexp","C:\Users\ERP Testing Room\Desktop\Joanna\morph21","no","mono","no","18","no","white","no","yes","1080","legacy","42","42","C:/Users/ERP Testing Room/Desktop/Joanna/morph21/subject-132.csv","xpyriment","Jazzy James","3.1.4","0","/","NA","NA","NA","NA","space","/","564","NA","NA","NA","NA","376292","564","2","legacy","1024","2","48000","-16","AB_m21","132","even","CW_S","DESIGN","2506","535460","533868","530925","378816","NA","NA","NA","NA","535456","534365","NA","533368","NA","533363","535456","2523","535860","NA","NA","534460","2507","2507","534860","533363","2507","534460","535860","morph21_Oliver/Morris","35","28631","43","yes","1280","19"
"350","81.8181818182","81.8181818182","663.977272727","663.977272727","black","no","xpyriment","legacy","legacy","0","202","NA","uniform","73451","1000","0.0136145185226","1","undefined","1","0","43","43","43","0","43","43","43","NA","43","43","0","43","NA","43","43","0","43","NA","43","NA","43","0","0","43","43","0","43","43","44","/","07/23/18 12:33:05","The main experiment item","yes","FIN__AB__M21__7%3A10%3A17.osexp","C:\Users\ERP Testing Room\Desktop\Joanna\morph21","no","mono","no","18","no","white","no","yes","1080","legacy","43","43","C:/Users/ERP Testing Room/Desktop/Joanna/morph21/subject-132.csv","xpyriment","Jazzy James","3.1.4","0","/","NA","NA","NA","NA","space","/","584","NA","NA","NA","NA","376292","584","2","legacy","1024","2","48000","-16","AB_m21","132","even","CW_L","JUMPING","2506","538743","537143","530925","378816","NA","NA","NA","NA","538736","537640","NA","536643","NA","536632","538736","2523","539093","NA","NA","537743","2507","2507","538135","536632","2507","537743","539093","morph21_Oliver/Morris","36","29215","44","yes","1280","30"
"300","80","80","666.444444444","666.444444444","black","no","xpyriment","legacy","legacy","0","202","NA","uniform","57971","1000","0.0172500043125","0","undefined","0","0","44","44","44","0","44","44","44","NA","44","44","0","44","NA","44","44","0","44","NA","44","NA","44","0","0","44","44","0","44","44","45","/","07/23/18 12:33:05","The main experiment item","yes","FIN__AB__M21__7%3A10%3A17.osexp","C:\Users\ERP Testing Room\Desktop\Joanna\morph21","no","mono","no","18","no","white","no","yes","1080","legacy","44","44","C:/Users/ERP Testing Room/Desktop/Joanna/morph21/subject-132.csv","xpyriment","Jazzy James","3.1.4","0","z","NA","NA","NA","NA","space","z","775","NA","NA","NA","NA","376292","775","2","legacy","1024","2","48000","-16","AB_m21","132","even","CW_L","DAMPISH","2506","543460","540352","541952","378816","NA","NA","NA","NA","538736","540849","NA","539852","NA","539845","541943","2523","543760","NA","NA","540952","2507","2507","541343","539845","2507","540952","543760","morph21_Oliver/Morris","36","29990","45","yes","1280","28"
"250","80.4347826087","80.4347826087","665.108695652","665.108695652","black","no","xpyriment","legacy","legacy","0","201","NA","uniform","66721","1000","0.0149877849553","1","undefined","1","0","45","45","45","0","45","45","45","NA","45","45","0","45","NA","45","45","0","45","NA","45","NA","45","0","0","45","45","0","45","45","46","/","07/23/18 12:33:05","The main experiment item","yes","FIN__AB__M21__7%3A10%3A17.osexp","C:\Users\ERP Testing Room\Desktop\Joanna\morph21","no","mono","no","18","no","white","no","yes","1080","legacy","45","45","C:/Users/ERP Testing Room/Desktop/Joanna/morph21/subject-132.csv","xpyriment","Jazzy James","3.1.4","0","/","NA","NA","NA","NA","space","/","605","NA","NA","NA","NA","376292","605","2","legacy","1024","2","48000","-16","AB_m21","132","even","CW_S","TUTORING","2506","546610","545027","541952","378816","NA","NA","NA","NA","546605","545524","NA","544527","NA","544516","546605","2523","546860","NA","NA","545610","2507","2507","546010","544516","2507","545610","546860","morph21_Oliver/Morris","37","30595","46","yes","1280","27"
"300","80.8510638298","80.8510638298","664.70212766","664.70212766","black","no","xpyriment","legacy","legacy","0","208","NA","uniform","65019","1000","0.0153801196573","1","undefined","1","0","46","46","46","0","46","46","46","NA","46","46","0","46","NA","46","46","0","46","NA","46","NA","46","0","0","46","46","0","46","46","47","z","07/23/18 12:33:05","The main experiment item","yes","FIN__AB__M21__7%3A10%3A17.osexp","C:\Users\ERP Testing Room\Desktop\Joanna\morph21","no","mono","no","18","no","white","no","yes","1080","legacy","46","46","C:/Users/ERP Testing Room/Desktop/Joanna/morph21/subject-132.csv","xpyriment","Jazzy James","3.1.4","0","z","NA","NA","NA","NA","space","z","646","NA","NA","NA","NA","376292","646","2","legacy","1024","2","48000","-16","AB_m21","132","even","FILL_NW","KEMT","2506","549778","548185","541952","378816","NA","NA","NA","NA","549775","548683","NA","547685","NA","547674","549775","2523","550078","NA","NA","548786","2507","2507","549178","547674","2507","548785","550078","morph21_Oliver/Morris","38","31241","47","yes","1280","32"
"200","81.25","81.25","663.895833333","663.895833333","black","no","xpyriment","legacy","legacy","0","208","NA","uniform","68523","1000","0.0145936400916","1","undefined","1","0","47","47","47","0","47","47","47","NA","47","47","0","47","NA","47","47","0","47","NA","47","NA","47","0","0","47","47","0","47","47","48","z","07/23/18 12:33:05","The main experiment item","yes","FIN__AB__M21__7%3A10%3A17.osexp","C:\Users\ERP Testing Room\Desktop\Joanna\morph21","no","mono","no","18","no","white","no","yes","1080","legacy","47","47","C:/Users/ERP Testing Room/Desktop/Joanna/morph21/subject-132.csv","xpyriment","Jazzy James","3.1.4","0","z","NA","NA","NA","NA","space","z","626","NA","NA","NA","NA","376292","626","2","legacy","1024","2","48000","-16","AB_m21","132","even","FILL_NW","BROUPS","2506","554370","551278","552862","378816","NA","NA","NA","NA","552854","551775","NA","550778","NA","550770","552854","2523","554570","NA","NA","551862","2507","2507","552253","550770","2507","551862","554570","morph21_Oliver/Morris","39","31867","48","yes","1280","4"
"350","81.6326530612","81.6326530612","663.979591837","663.979591837","black","no","xpyriment","legacy","legacy","0","208","NA","uniform","67664","1000","0.0147789075432","1","undefined","1","0","48","48","48","0","48","48","48","NA","48","48","0","48","NA","48","48","0","48","NA","48","NA","48","0","0","48","48","0","48","48","49","z","07/23/18 12:33:05","The main experiment item","yes","FIN__AB__M21__7%3A10%3A17.osexp","C:\Users\ERP Testing Room\Desktop\Joanna\morph21","no","mono","no","18","no","white","no","yes","1080","legacy","48","48","C:/Users/ERP Testing Room/Desktop/Joanna/morph21/subject-132.csv","xpyriment","Jazzy James","3.1.4","0","z","NA","NA","NA","NA","space","z","668","NA","NA","NA","NA","376292","668","2","legacy","1024","2","48000","-16","AB_m21","132","even","FILL_NW","KRAISE","2506","557395","555812","552862","378816","NA","NA","NA","NA","557391","556309","NA","555312","NA","555301","557391","2523","557745","NA","NA","556395","2507","2507","556795","555301","2507","556395","557745","morph21_Oliver/Morris","40","32535","49","yes","1280","33"
"300","82","82","660.72","660.72","black","no","xpyriment","legacy","legacy","0","208","NA","uniform","63747","1000","0.0156870127222","1","undefined","1","0","49","49","49","0","49","49","49","NA","49","49","0","49","NA","49","49","0","49","NA","49","NA","49","0","0","49","49","0","49","49","50","z","07/23/18 12:33:05","The main experiment item","yes","FIN__AB__M21__7%3A10%3A17.osexp","C:\Users\ERP Testing Room\Desktop\Joanna\morph21","no","mono","no","18","no","white","no","yes","1080","legacy","49","49","C:/Users/ERP Testing Room/Desktop/Joanna/morph21/subject-132.csv","xpyriment","Jazzy James","3.1.4","0","z","NA","NA","NA","NA","space","z","501","NA","NA","NA","NA","376292","501","2","legacy","1024","2","48000","-16","AB_m21","132","even","FILL_NW","VOGS","2506","560562","558962","552862","378816","NA","NA","NA","NA","560558","559459","NA","558462","NA","558454","560558","2523","560862","NA","NA","559562","2507","2507","559962","558454","2507","559562","560862","morph21_Oliver/Morris","41","33036","50","yes","1280","47"
"250","82.3529411765","82.3529411765","661.666666667","661.666666667","black","no","xpyriment","legacy","legacy","0","201","NA","uniform","57455","1000","0.0174049255939","1","undefined","1","0","50","50","50","0","50","50","50","NA","50","50","0","50","NA","50","50","0","50","NA","50","NA","50","0","0","50","50","0","50","50","51","/","07/23/18 12:33:05","The main experiment item","yes","FIN__AB__M21__7%3A10%3A17.osexp","C:\Users\ERP Testing Room\Desktop\Joanna\morph21","no","mono","no","18","no","white","no","yes","1080","legacy","50","50","C:/Users/ERP Testing Room/Desktop/Joanna/morph21/subject-132.csv","xpyriment","Jazzy James","3.1.4","0","/","NA","NA","NA","NA","space","/","709","NA","NA","NA","NA","376292","709","2","legacy","1024","2","48000","-16","AB_m21","132","even","CW_S","JAILER","2506","565262","562162","563754","378816","NA","NA","NA","NA","563745","562659","NA","561662","NA","561659","563745","2523","565512","NA","NA","562754","2507","2507","563145","561658","2507","562754","565512","morph21_Oliver/Morris","42","33745","51","yes","1280","13"
"200","82.6923076923","82.6923076923","659.442307692","659.442307692","black","no","xpyriment","legacy","legacy","0","205","NA","uniform","68067","1000","0.014691406996","1","undefined","1","0","51","51","51","0","51","51","51","NA","51","51","0","51","NA","51","51","0","51","NA","51","NA","51","0","0","51","51","0","51","51","52","z","07/23/18 12:33:05","The main experiment item","yes","FIN__AB__M21__7%3A10%3A17.osexp","C:\Users\ERP Testing Room\Desktop\Joanna\morph21","no","mono","no","18","no","white","no","yes","1080","legacy","51","51","C:/Users/ERP Testing Room/Desktop/Joanna/morph21/subject-132.csv","xpyriment","Jazzy James","3.1.4","0","z","NA","NA","NA","NA","space","z","546","NA","NA","NA","NA","376292","546","2","legacy","1024","2","48000","-16","AB_m21","132","even","NW_S_SIMP","NULLITH","2506","568430","566822","563754","378816","NA","NA","NA","NA","568420","567319","NA","566321","NA","566313","568420","2523","568630","NA","NA","567430","2507","2507","567822","566313","2507","567430","568630","morph21_Oliver/Morris","43","34291","52","yes","1280","23"
"300","83.0188679245","83.0188679245","659.773584906","659.773584906","black","no","xpyriment","legacy","legacy","0","201","NA","uniform","70307","1000","0.0142233348031","1","undefined","1","0","52","52","52","0","52","52","52","NA","52","52","0","52","NA","52","52","0","52","NA","52","NA","52","0","0","52","52","0","52","52","53","/","07/23/18 12:33:05","The main experiment item","yes","FIN__AB__M21__7%3A10%3A17.osexp","C:\Users\ERP Testing Room\Desktop\Joanna\morph21","no","mono","no","18","no","white","no","yes","1080","legacy","52","52","C:/Users/ERP Testing Room/Desktop/Joanna/morph21/subject-132.csv","xpyriment","Jazzy James","3.1.4","0","/","NA","NA","NA","NA","space","/","677","NA","NA","NA","NA","376292","677","2","legacy","1024","2","48000","-16","AB_m21","132","even","CW_S","INSISTENT","2506","571547","569963","563754","378816","NA","NA","NA","NA","571540","570461","NA","569463","NA","569460","571540","2523","571847","NA","NA","570547","2507","2507","570938","569460","2507","570547","571847","morph21_Oliver/Morris","44","34968","53","yes","1280","9"
"350","83.3333333333","83.3333333333","659.759259259","659.759259259","black","no","xpyriment","legacy","legacy","0","208","NA","uniform","66897","1000","0.0149483534389","1","undefined","1","0","53","53","53","0","53","53","53","NA","53","53","0","53","NA","53","53","0","53","NA","53","NA","53","0","0","53","53","0","53","53","54","z","07/23/18 12:33:05","The main experiment item","yes","FIN__AB__M21__7%3A10%3A17.osexp","C:\Users\ERP Testing Room\Desktop\Joanna\morph21","no","mono","no","18","no","white","no","yes","1080","legacy","53","53","C:/Users/ERP Testing Room/Desktop/Joanna/morph21/subject-132.csv","xpyriment","Jazzy James","3.1.4","0","z","NA","NA","NA","NA","space","z","659","NA","NA","NA","NA","376292","659","2","legacy","1024","2","48000","-16","AB_m21","132","even","FILL_NW","DARF","2506","576280","573172","574772","378816","NA","NA","NA","NA","574766","573669","NA","572672","NA","572665","574766","2523","576631","NA","NA","573772","2507","2507","574164","572665","2507","573772","576631","morph21_Oliver/Morris","45","35627","54","yes","1280","10"
"400","83.6363636364","83.6363636364","659.836363636","659.836363636","black","no","xpyriment","legacy","legacy","0","204","NA","uniform","73068","1000","0.0136858816445","1","undefined","1","0","54","54","54","0","54","54","54","NA","54","54","0","54","NA","54","54","0","54","NA","54","NA","54","0","0","54","54","0","54","54","55","z","07/23/18 12:33:05","The main experiment item","yes","FIN__AB__M21__7%3A10%3A17.osexp","C:\Users\ERP Testing Room\Desktop\Joanna\morph21","no","mono","no","18","no","white","no","yes","1080","legacy","54","54","C:/Users/ERP Testing Room/Desktop/Joanna/morph21/subject-132.csv","xpyriment","Jazzy James","3.1.4","0","z","NA","NA","NA","NA","space","z","664","NA","NA","NA","NA","376292","664","2","legacy","1024","2","48000","-16","AB_m21","132","even","NW_L_COMP","RIPENCE","2506","579447","577839","574772","378816","NA","NA","NA","NA","579442","578336","NA","577339","NA","577333","579442","2523","579847","NA","NA","578447","2507","2507","578847","577333","2507","578447","579847","morph21_Oliver/Morris","46","36291","55","yes","1280","4"
"200","83.9285714286","83.9285714286","660.589285714","660.589285714","black","no","xpyriment","legacy","legacy","0","202","NA","uniform","67951","1000","0.0147164868803","1","undefined","1","0","55","55","55","0","55","55","55","NA","55","55","0","55","NA","55","55","0","55","NA","55","NA","55","0","0","55","55","0","55","55","56","/","07/23/18 12:33:05","The main experiment item","yes","FIN__AB__M21__7%3A10%3A17.osexp","C:\Users\ERP Testing Room\Desktop\Joanna\morph21","no","mono","no","18","no","white","no","yes","1080","legacy","55","55","C:/Users/ERP Testing Room/Desktop/Joanna/morph21/subject-132.csv","xpyriment","Jazzy James","3.1.4","0","/","NA","NA","NA","NA","space","/","702","NA","NA","NA","NA","376292","702","2","legacy","1024","2","48000","-16","AB_m21","132","even","CW_L","COLLECTOR","2506","582689","581081","574772","378816","NA","NA","NA","NA","582683","581578","NA","580581","NA","580572","582683","2523","582889","NA","NA","581689","2507","2507","582081","580572","2507","581689","582889","morph21_Oliver/Morris","47","36993","56","yes","1280","46"
"250","84.2105263158","84.2105263158","660.561403509","660.561403509","black","no","xpyriment","legacy","legacy","0","204","NA","uniform","64891","1000","0.0154104575365","1","undefined","1","0","56","56","56","0","56","56","56","NA","56","56","0","56","NA","56","56","0","56","NA","56","NA","56","0","0","56","56","0","56","56","57","z","07/23/18 12:33:05","The main experiment item","yes","FIN__AB__M21__7%3A10%3A17.osexp","C:\Users\ERP Testing Room\Desktop\Joanna\morph21","no","mono","no","18","no","white","no","yes","1080","legacy","56","56","C:/Users/ERP Testing Room/Desktop/Joanna/morph21/subject-132.csv","xpyriment","Jazzy James","3.1.4","0","z","NA","NA","NA","NA","space","z","659","NA","NA","NA","NA","376292","659","2","legacy","1024","2","48000","-16","AB_m21","132","even","NW_L_COMP","BREAKITY","2506","587282","584148","585773","378816","NA","NA","NA","NA","585763","584646","NA","583647","NA","583642","585763","2523","587532","NA","NA","584773","2507","2507","585165","583641","2507","584773","587532","morph21_Oliver/Morris","48","37652","57","yes","1280","23"
"200","84.4827586207","84.4827586207","660.362068966","660.362068966","black","no","xpyriment","legacy","legacy","0","203","NA","uniform","64261","1000","0.0155615381024","1","undefined","1","0","57","57","57","0","57","57","57","NA","57","57","0","57","NA","57","57","0","57","NA","57","NA","57","0","0","57","57","0","57","57","58","z","07/23/18 12:33:05","The main experiment item","yes","FIN__AB__M21__7%3A10%3A17.osexp","C:\Users\ERP Testing Room\Desktop\Joanna\morph21","no","mono","no","18","no","white","no","yes","1080","legacy","57","57","C:/Users/ERP Testing Room/Desktop/Joanna/morph21/subject-132.csv","xpyriment","Jazzy James","3.1.4","0","z","NA","NA","NA","NA","space","z","649","NA","NA","NA","NA","376292","649","2","legacy","1024","2","48000","-16","AB_m21","132","even","NW_S_COMP","ELMIST","2506","590374","588774","585773","378816","NA","NA","NA","NA","590371","589271","NA","588274","NA","588266","590371","2523","590574","NA","NA","589382","2507","2507","589774","588266","2507","589382","590574","morph21_Oliver/Morris","49","38301","58","yes","1280","10"
"400","84.7457627119","84.7457627119","659.949152542","659.949152542","black","no","xpyriment","legacy","legacy","0","205","NA","uniform","62369","1000","0.0160336064391","1","undefined","1","0","58","58","58","0","58","58","58","NA","58","58","0","58","NA","58","58","0","58","NA","58","NA","58","0","0","58","58","0","58","58","59","z","07/23/18 12:33:05","The main experiment item","yes","FIN__AB__M21__7%3A10%3A17.osexp","C:\Users\ERP Testing Room\Desktop\Joanna\morph21","no","mono","no","18","no","white","no","yes","1080","legacy","58","58","C:/Users/ERP Testing Room/Desktop/Joanna/morph21/subject-132.csv","xpyriment","Jazzy James","3.1.4","0","z","NA","NA","NA","NA","space","z","636","NA","NA","NA","NA","376292","636","2","legacy","1024","2","48000","-16","AB_m21","132","even","NW_S_SIMP","SCHEMENELS","2506","593507","591874","585773","378816","NA","NA","NA","NA","593501","592371","NA","591365","NA","591362","593501","2523","593907","NA","NA","592507","2507","2507","592899","591362","2507","592507","593907","morph21_Oliver/Morris","50","38937","59","yes","1280","15"
"350","85","85","659.55","659.55","black","no","xpyriment","legacy","legacy","0","208","NA","uniform","62826","1000","0.0159169770477","1","undefined","1","0","59","59","59","0","59","59","59","NA","59","59","0","59","NA","59","59","0","59","NA","59","NA","59","0","0","59","59","0","59","59","60","z","07/23/18 12:33:05","The main experiment item","yes","FIN__AB__M21__7%3A10%3A17.osexp","C:\Users\ERP Testing Room\Desktop\Joanna\morph21","no","mono","no","18","no","white","no","yes","1080","legacy","59","59","C:/Users/ERP Testing Room/Desktop/Joanna/morph21/subject-132.csv","xpyriment","Jazzy James","3.1.4","0","z","NA","NA","NA","NA","space","z","636","NA","NA","NA","NA","376292","636","2","legacy","1024","2","48000","-16","AB_m21","132","even","FILL_NW","DOADS","2506","598207","595099","596699","378816","NA","NA","NA","NA","596694","595596","NA","594599","NA","594590","596694","2523","598558","NA","NA","595699","2507","2507","596099","594590","2507","595699","598558","morph21_Oliver/Morris","51","39573","60","yes","1280","15"
"200","83.606557377","83.606557377","665","665","black","no","xpyriment","legacy","legacy","0","202","NA","uniform","56769","1000","0.0176152477585","0","undefined","0","0","60","60","60","0","60","60","60","NA","60","60","0","60","NA","60","60","0","60","NA","60","NA","60","0","0","60","60","0","60","60","61","/","07/23/18 12:33:05","The main experiment item","yes","FIN__AB__M21__7%3A10%3A17.osexp","C:\Users\ERP Testing Room\Desktop\Joanna\morph21","no","mono","no","18","no","white","no","yes","1080","legacy","60","60","C:/Users/ERP Testing Room/Desktop/Joanna/morph21/subject-132.csv","xpyriment","Jazzy James","3.1.4","0","None","NA","NA","NA","NA","space","None","992","NA","NA","NA","NA","376292","992","2","legacy","1024","2","48000","-16","AB_m21","132","even","CW_L","BOOTLESS","2506","601424","599816","596699","378816","NA","NA","NA","NA","596694","600313","NA","599316","NA","599310","601416","2523","601624","NA","NA","600424","2507","2507","600816","599310","2507","600424","601624","morph21_Oliver/Morris","51","40565","61","yes","1280","32"
"400","83.8709677419","83.8709677419","662.935483871","662.935483871","black","no","xpyriment","legacy","legacy","0","205","NA","uniform","75282","1000","0.0132833877952","1","undefined","1","0","61","61","61","0","61","61","61","NA","61","61","0","61","NA","61","61","0","61","NA","61","NA","61","0","0","61","61","0","61","61","62","z","07/23/18 12:33:05","The main experiment item","yes","FIN__AB__M21__7%3A10%3A17.osexp","C:\Users\ERP Testing Room\Desktop\Joanna\morph21","no","mono","no","18","no","white","no","yes","1080","legacy","61","61","C:/Users/ERP Testing Room/Desktop/Joanna/morph21/subject-132.csv","xpyriment","Jazzy James","3.1.4","0","z","NA","NA","NA","NA","space","z","537","NA","NA","NA","NA","376292","537","2","legacy","1024","2","48000","-16","AB_m21","132","even","NW_S_SIMP","AIDIG","2506","604559","602942","596699","378816","NA","NA","NA","NA","604553","603439","NA","602434","NA","602427","604553","2523","604959","NA","NA","603559","2507","2507","603950","602427","2507","603559","604959","morph21_Oliver/Morris","52","41102","62","yes","1280","4"
"300","82.5396825397","82.5396825397","668.19047619","668.19047619","black","no","xpyriment","legacy","legacy","0","208","NA","uniform","54662","1000","0.0182942446306","0","undefined","0","0","62","62","62","0","62","62","62","NA","62","62","0","62","NA","62","62","0","62","NA","62","NA","62","0","0","62","62","0","62","62","63","z","07/23/18 12:33:05","The main experiment item","yes","FIN__AB__M21__7%3A10%3A17.osexp","C:\Users\ERP Testing Room\Desktop\Joanna\morph21","no","mono","no","18","no","white","no","yes","1080","legacy","62","62","C:/Users/ERP Testing Room/Desktop/Joanna/morph21/subject-132.csv","xpyriment","Jazzy James","3.1.4","0","None","NA","NA","NA","NA","space","None","994","NA","NA","NA","NA","376292","994","2","legacy","1024","2","48000","-16","AB_m21","132","even","FILL_NW","DASK","2506","609392","606300","607884","378816","NA","NA","NA","NA","604553","606797","NA","605800","NA","605792","607878","2523","609692","NA","NA","606884","2507","2507","607275","605792","2507","606884","609692","morph21_Oliver/Morris","52","42096","63","yes","1280","12"
"400","82.8125","82.8125","668.125","668.125","black","no","xpyriment","legacy","legacy","0","208","NA","uniform","70201","1000","0.0142448113275","1","undefined","1","0","63","63","63","0","63","63","63","NA","63","63","0","63","NA","63","63","0","63","NA","63","NA","63","0","0","63","63","0","63","63","64","z","07/23/18 12:33:05","The main experiment item","yes","FIN__AB__M21__7%3A10%3A17.osexp","C:\Users\ERP Testing Room\Desktop\Joanna\morph21","no","mono","no","18","no","white","no","yes","1080","legacy","63","63","C:/Users/ERP Testing Room/Desktop/Joanna/morph21/subject-132.csv","xpyriment","Jazzy James","3.1.4","0","z","NA","NA","NA","NA","space","z","664","NA","NA","NA","NA","376292","664","2","legacy","1024","2","48000","-16","AB_m21","132","even","FILL_NW","BALFS","2506","612559","610959","607884","378816","NA","NA","NA","NA","612556","611456","NA","610459","NA","610453","612556","2523","612959","NA","NA","611559","2507","2507","611959","610453","2507","611559","612959","morph21_Oliver/Morris","53","42760","64","yes","1280","2"
"300","83.0769230769","83.0769230769","666.646153846","666.646153846","black","no","xpyriment","legacy","legacy","0","201","NA","uniform","73912","1000","0.0135296027709","1","undefined","1","0","64","64","64","0","64","64","64","NA","64","64","0","64","NA","64","64","0","64","NA","64","NA","64","0","0","64","64","0","64","64","65","/","07/23/18 12:33:05","The main experiment item","yes","FIN__AB__M21__7%3A10%3A17.osexp","C:\Users\ERP Testing Room\Desktop\Joanna\morph21","no","mono","no","18","no","white","no","yes","1080","legacy","64","64","C:/Users/ERP Testing Room/Desktop/Joanna/morph21/subject-132.csv","xpyriment","Jazzy James","3.1.4","0","/","NA","NA","NA","NA","space","/","572","NA","NA","NA","NA","376292","572","2","legacy","1024","2","48000","-16","AB_m21","132","even","CW_S","ATTACKER","2506","615851","614251","607884","378816","NA","NA","NA","NA","615847","614748","NA","613751","NA","613745","615847","2523","616151","NA","NA","614851","2507","2507","615251","613745","2507","614851","616151","morph21_Oliver/Morris","54","43332","65","yes","1280","20"
"400","83.3333333333","83.3333333333","666.545454545","666.545454545","black","no","xpyriment","legacy","legacy","0","207","NA","uniform","71026","1000","0.0140793512235","1","undefined","1","0","65","65","65","0","65","65","65","NA","65","65","0","65","NA","65","65","0","65","NA","65","NA","65","0","0","65","65","0","65","65","66","/","07/23/18 12:33:05","The main experiment item","yes","FIN__AB__M21__7%3A10%3A17.osexp","C:\Users\ERP Testing Room\Desktop\Joanna\morph21","no","mono","no","18","no","white","no","yes","1080","legacy","65","65","C:/Users/ERP Testing Room/Desktop/Joanna/morph21/subject-132.csv","xpyriment","Jazzy James","3.1.4","0","/","NA","NA","NA","NA","space","/","660","NA","NA","NA","NA","376292","660","2","legacy","1024","2","48000","-16","AB_m21","132","even","FILL_W","DRUNK","2506","620560","617443","619052","378816","NA","NA","NA","NA","619044","617940","NA","616943","NA","616939","619044","2523","620960","NA","NA","618051","2507","2507","618443","616939","2507","618051","620960","morph21_Oliver/Morris","55","43992","66","yes","1280","19"
"350","83.5820895522","83.5820895522","667.671641791","667.671641791","black","no","xpyriment","legacy","legacy","0","203","NA","uniform","64743","1000","0.0154456852478","1","undefined","1","0","66","66","66","0","66","66","66","NA","66","66","0","66","NA","66","66","0","66","NA","66","NA","66","0","0","66","66","0","66","66","67","z","07/23/18 12:33:05","The main experiment item","yes","FIN__AB__M21__7%3A10%3A17.osexp","C:\Users\ERP Testing Room\Desktop\Joanna\morph21","no","mono","no","18","no","white","no","yes","1080","legacy","66","66","C:/Users/ERP Testing Room/Desktop/Joanna/morph21/subject-132.csv","xpyriment","Jazzy James","3.1.4","0","z","NA","NA","NA","NA","space","z","742","NA","NA","NA","NA","376292","742","2","legacy","1024","2","48000","-16","AB_m21","132","even","NW_S_COMP","WELDIC","2506","623810","622185","619052","378816","NA","NA","NA","NA","623802","622683","NA","621685","NA","621682","623802","2523","624161","NA","NA","622810","2507","2507","623202","621682","2507","622810","624161","morph21_Oliver/Morris","56","44734","67","yes","1280","21"
"250","83.8235294118","83.8235294118","666.926470588","666.926470588","black","no","xpyriment","legacy","legacy","0","201","NA","uniform","68242","1000","0.0146537323056","1","undefined","1","0","67","67","67","0","67","67","67","NA","67","67","0","67","NA","67","67","0","67","NA","67","NA","67","0","0","67","67","0","67","67","68","/","07/23/18 12:33:05","The main experiment item","yes","FIN__AB__M21__7%3A10%3A17.osexp","C:\Users\ERP Testing Room\Desktop\Joanna\morph21","no","mono","no","18","no","white","no","yes","1080","legacy","67","67","C:/Users/ERP Testing Room/Desktop/Joanna/morph21/subject-132.csv","xpyriment","Jazzy James","3.1.4","0","/","NA","NA","NA","NA","space","/","617","NA","NA","NA","NA","376292","617","2","legacy","1024","2","48000","-16","AB_m21","132","even","CW_S","NOTICEABLE","2506","627086","625469","619052","378816","NA","NA","NA","NA","627077","625966","NA","624969","NA","624961","627077","2523","627336","NA","NA","626086","2507","2507","626477","624961","2507","626086","627336","morph21_Oliver/Morris","57","45351","68","yes","1280","3"
"250","82.6086956522","82.6086956522","671.579710145","671.579710145","black","no","xpyriment","legacy","legacy","0","201","NA","uniform","59973","1000","0.0166741700432","0","undefined","0","0","68","68","68","0","68","68","68","NA","68","68","0","68","NA","68","68","0","68","NA","68","NA","68","0","0","68","68","0","68","68","69","/","07/23/18 12:33:05","The main experiment item","yes","FIN__AB__M21__7%3A10%3A17.osexp","C:\Users\ERP Testing Room\Desktop\Joanna\morph21","no","mono","no","18","no","white","no","yes","1080","legacy","68","68","C:/Users/ERP Testing Room/Desktop/Joanna/morph21/subject-132.csv","xpyriment","Jazzy James","3.1.4","0","None","NA","NA","NA","NA","space","None","988","NA","NA","NA","NA","376292","988","2","legacy","1024","2","48000","-16","AB_m21","132","even","CW_S","HUGELY","2506","631703","628577","630194","378816","NA","NA","NA","NA","627077","629075","NA","628077","NA","628071","630191","2523","631953","NA","NA","629202","2507","2507","629594","628071","2507","629202","631953","morph21_Oliver/Morris","57","46339","69","yes","1280","35"
"350","82.8571428571","82.8571428571","675.3","675.3","black","no","xpyriment","legacy","legacy","0","204","NA","uniform","64300","1000","0.0155520995334","1","undefined","1","0","69","69","69","0","69","69","69","NA","69","69","0","69","NA","69","69","0","69","NA","69","NA","69","0","0","69","69","0","69","69","70","z","07/23/18 12:33:05","The main experiment item","yes","FIN__AB__M21__7%3A10%3A17.osexp","C:\Users\ERP Testing Room\Desktop\Joanna\morph21","no","mono","no","18","no","white","no","yes","1080","legacy","69","69","C:/Users/ERP Testing Room/Desktop/Joanna/morph21/subject-132.csv","xpyriment","Jazzy James","3.1.4","0","z","NA","NA","NA","NA","space","z","932","NA","NA","NA","NA","376292","932","2","legacy","1024","2","48000","-16","AB_m21","132","even","NW_L_COMP","INKISM","2506","634811","633236","630194","378816","NA","NA","NA","NA","634808","633733","NA","632736","NA","632728","634808","2523","635161","NA","NA","633811","2507","2507","634211","632728","2507","633811","635161","morph21_Oliver/Morris","58","47271","70","yes","1280","8"
"400","83.0985915493","83.0985915493","674.690140845","674.690140845","black","no","xpyriment","legacy","legacy","0","207","NA","uniform","69370","1000","0.014415453366","1","undefined","1","0","70","70","70","0","70","70","70","NA","70","70","0","70","NA","70","70","0","70","NA","70","NA","70","0","0","70","70","0","70","70","71","/","07/23/18 12:33:05","The main experiment item","yes","FIN__AB__M21__7%3A10%3A17.osexp","C:\Users\ERP Testing Room\Desktop\Joanna\morph21","no","mono","no","18","no","white","no","yes","1080","legacy","70","70","C:/Users/ERP Testing Room/Desktop/Joanna/morph21/subject-132.csv","xpyriment","Jazzy James","3.1.4","0","/","NA","NA","NA","NA","space","/","632","NA","NA","NA","NA","376292","632","2","legacy","1024","2","48000","-16","AB_m21","132","even","FILL_W","CEASE","2506","638112","636487","630194","378816","NA","NA","NA","NA","638109","636984","NA","635986","NA","635976","638109","2523","638512","NA","NA","637120","2507","2507","637512","635976","2507","637120","638512","morph21_Oliver/Morris","59","47903","71","yes","1280","18"
"350","83.3333333333","83.3333333333","672.555555556","672.555555556","black","no","xpyriment","legacy","legacy","0","208","NA","uniform","72495","1000","0.0137940547624","1","undefined","1","0","71","71","71","0","71","71","71","NA","71","71","0","71","NA","71","71","0","71","NA","71","NA","71","0","0","71","71","0","71","71","72","z","07/23/18 12:33:05","The main experiment item","yes","FIN__AB__M21__7%3A10%3A17.osexp","C:\Users\ERP Testing Room\Desktop\Joanna\morph21","no","mono","no","18","no","white","no","yes","1080","legacy","71","71","C:/Users/ERP Testing Room/Desktop/Joanna/morph21/subject-132.csv","xpyriment","Jazzy James","3.1.4","0","z","NA","NA","NA","NA","space","z","521","NA","NA","NA","NA","376292","521","2","legacy","1024","2","48000","-16","AB_m21","132","even","FILL_NW","HEAS","2506","642979","639879","641471","378816","NA","NA","NA","NA","641464","640376","NA","639379","NA","639369","641464","2523","643329","NA","NA","640471","2507","2507","640862","639369","2507","640471","643329","morph21_Oliver/Morris","60","48424","72","yes","1280","26"
"300","83.5616438356","83.5616438356","671.931506849","671.931506849","black","no","xpyriment","legacy","legacy","0","204","NA","uniform","67588","1000","0.014795525833","1","undefined","1","0","72","72","72","0","72","72","72","NA","72","72","0","72","NA","72","72","0","72","NA","72","NA","72","0","0","72","72","0","72","72","73","z","07/23/18 12:33:05","The main experiment item","yes","FIN__AB__M21__7%3A10%3A17.osexp","C:\Users\ERP Testing Room\Desktop\Joanna\morph21","no","mono","no","18","no","white","no","yes","1080","legacy","72","72","C:/Users/ERP Testing Room/Desktop/Joanna/morph21/subject-132.csv","xpyriment","Jazzy James","3.1.4","0","z","NA","NA","NA","NA","space","z","627","NA","NA","NA","NA","376292","627","2","legacy","1024","2","48000","-16","AB_m21","132","even","NW_L_COMP","KINGISM","2506","646212","644621","641471","378816","NA","NA","NA","NA","646205","645118","NA","644121","NA","644112","646205","2523","646513","NA","NA","645212","2507","2507","645604","644112","2507","645212","646513","morph21_Oliver/Morris","61","49051","73","yes","1280","19"
"350","83.7837837838","83.7837837838","669.837837838","669.837837838","black","no","xpyriment","legacy","legacy","0","207","NA","uniform","77466","1000","0.012908889061","1","undefined","1","0","73","73","73","0","73","73","73","NA","73","73","0","73","NA","73","73","0","73","NA","73","NA","73","0","0","73","73","0","73","73","74","/","07/23/18 12:33:05","The main experiment item","yes","FIN__AB__M21__7%3A10%3A17.osexp","C:\Users\ERP Testing Room\Desktop\Joanna\morph21","no","mono","no","18","no","white","no","yes","1080","legacy","73","73","C:/Users/ERP Testing Room/Desktop/Joanna/morph21/subject-132.csv","xpyriment","Jazzy James","3.1.4","0","/","NA","NA","NA","NA","space","/","517","NA","NA","NA","NA","376292","517","2","legacy","1024","2","48000","-16","AB_m21","132","even","FILL_W","LIFT","2506","649346","647746","641471","378816","NA","NA","NA","NA","649343","648243","NA","647246","NA","647242","649343","2523","649696","NA","NA","648354","2507","2507","648746","647242","2507","648354","649696","morph21_Oliver/Morris","62","49568","74","yes","1280","39"
"250","84","84","672.4","672.4","black","no","xpyriment","legacy","legacy","0","207","NA","uniform","60663","1000","0.0164845128002","undefined","undefined","1","0","74","74","74","0","74","74","74","NA","74","74","0","74","NA","74","74","0","74","NA","74","NA","74","0","0","74","74","0","74","74","75","/","07/23/18 12:33:05","The main experiment item","yes","FIN__AB__M21__7%3A10%3A17.osexp","C:\Users\ERP Testing Room\Desktop\Joanna\morph21","no","mono","no","18","no","white","no","yes","1080","legacy","74","74","C:/Users/ERP Testing Room/Desktop/Joanna/morph21/subject-132.csv","xpyriment","Jazzy James","3.1.4","0","space","space","NA","NA","NA","space","/","32790","32790","NA","NA","NA","376292","862","2","legacy","1024","2","48000","-16","AB_m21","132","even","FILL_W","SPLICE","2506","654039","650929","652529","378816","654297","NA","NA","NA","652519","651426","NA","650429","NA","650419","652519","2523","687088","NA","NA","651529","2507","2507","651921","650419","2507","651529","654289","morph21_Oliver/Morris","63","50430","75","yes","1280","22"
"250","84.2105263158","84.2105263158","671.394736842","671.394736842","black","no","xpyriment","legacy","legacy","0","207","NA","uniform","72249","1000","0.0138410220211","1","undefined","1","0","75","75","75","0","75","75","75","NA","75","75","0","75","NA","75","75","0","75","NA","75","NA","75","0","0","75","75","0","75","75","76","/","07/23/18 12:33:05","The main experiment item","yes","FIN__AB__M21__7%3A10%3A17.osexp","C:\Users\ERP Testing Room\Desktop\Joanna\morph21","no","mono","no","18","no","white","no","yes","1080","legacy","75","75","C:/Users/ERP Testing Room/Desktop/Joanna/morph21/subject-132.csv","xpyriment","Jazzy James","3.1.4","0","/","space","NA","NA","NA","space","/","596","32790","NA","NA","NA","376292","596","2","legacy","1024","2","48000","-16","AB_m21","132","even","FILL_W","SHIP","2506","689876","688291","652529","378816","654297","NA","NA","NA","689870","688788","NA","687791","NA","687782","689870","2523","690126","NA","NA","688876","2507","2507","689267","687782","2507","688876","690126","morph21_Oliver/Morris","64","51026","76","yes","1280","37"
"200","84.4155844156","84.4155844156","670.675324675","670.675324675","black","no","xpyriment","legacy","legacy","0","208","NA","uniform","59726","1000","0.0167431269464","1","undefined","1","0","76","76","76","0","76","76","76","NA","76","76","0","76","NA","76","76","0","76","NA","76","NA","76","0","0","76","76","0","76","76","77","z","07/23/18 12:33:05","The main experiment item","yes","FIN__AB__M21__7%3A10%3A17.osexp","C:\Users\ERP Testing Room\Desktop\Joanna\morph21","no","mono","no","18","no","white","no","yes","1080","legacy","76","76","C:/Users/ERP Testing Room/Desktop/Joanna/morph21/subject-132.csv","xpyriment","Jazzy James","3.1.4","0","z","space","NA","NA","NA","space","z","616","32790","NA","NA","NA","376292","616","2","legacy","1024","2","48000","-16","AB_m21","132","even","FILL_NW","HESK","2506","692976","691367","652529","378816","654297","NA","NA","NA","692972","691865","NA","690867","NA","690861","692972","2523","693176","NA","NA","691976","2507","2507","692376","690861","2507","691976","693176","morph21_Oliver/Morris","65","51642","77","yes","1280","29"
"200","83.3333333333","83.3333333333","669.025641026","669.025641026","black","no","xpyriment","legacy","legacy","0","203","NA","uniform","74913","1000","0.0133488179622","0","undefined","0","0","77","77","77","0","77","77","77","NA","77","77","0","77","NA","77","77","0","77","NA","77","NA","77","0","0","77","77","0","77","77","78","z","07/23/18 12:33:05","The main experiment item","yes","FIN__AB__M21__7%3A10%3A17.osexp","C:\Users\ERP Testing Room\Desktop\Joanna\morph21","no","mono","no","18","no","white","no","yes","1080","legacy","77","77","C:/Users/ERP Testing Room/Desktop/Joanna/morph21/subject-132.csv","xpyriment","Jazzy James","3.1.4","0","/","space","NA","NA","NA","space","/","542","32790","NA","NA","NA","376292","542","2","legacy","1024","2","48000","-16","AB_m21","132","even","NW_S_COMP","HAPPENANCE","2506","697534","694443","696026","378816","654297","NA","NA","NA","692972","694940","NA","693943","NA","693934","696022","2523","697735","NA","NA","695026","2507","2507","695426","693934","2507","695026","697735","morph21_Oliver/Morris","65","52184","78","yes","1280","2"
"300","83.5443037975","83.5443037975","668.025316456","668.025316456","black","no","xpyriment","legacy","legacy","0","205","NA","uniform","72968","1000","0.0137046376494","1","undefined","1","0","78","78","78","0","78","78","78","NA","78","78","0","78","NA","78","78","0","78","NA","78","NA","78","0","0","78","78","0","78","78","79","z","07/23/18 12:33:05","The main experiment item","yes","FIN__AB__M21__7%3A10%3A17.osexp","C:\Users\ERP Testing Room\Desktop\Joanna\morph21","no","mono","no","18","no","white","no","yes","1080","legacy","78","78","C:/Users/ERP Testing Room/Desktop/Joanna/morph21/subject-132.csv","xpyriment","Jazzy James","3.1.4","0","z","space","NA","NA","NA","space","z","590","32790","NA","NA","NA","376292","590","2","legacy","1024","2","48000","-16","AB_m21","132","even","NW_S_SIMP","WARNODY","2506","700610","699026","696026","378816","654297","NA","NA","NA","700601","699523","NA","698526","NA","698518","700601","2523","700910","NA","NA","699609","2507","2507","700001","698518","2507","699609","700910","morph21_Oliver/Morris","66","52774","79","yes","1280","12"
"350","83.75","83.75","666.325","666.325","black","no","xpyriment","legacy","legacy","0","202","NA","uniform","70313","1000","0.0142221210871","1","undefined","1","0","79","79","79","0","79","79","79","NA","79","79","0","79","NA","79","79","0","79","NA","79","NA","79","0","0","79","79","0","79","79","80","/","07/23/18 12:33:05","The main experiment item","yes","FIN__AB__M21__7%3A10%3A17.osexp","C:\Users\ERP Testing Room\Desktop\Joanna\morph21","no","mono","no","18","no","white","no","yes","1080","legacy","79","79","C:/Users/ERP Testing Room/Desktop/Joanna/morph21/subject-132.csv","xpyriment","Jazzy James","3.1.4","0","/","space","NA","NA","NA","space","/","532","32790","NA","NA","NA","376292","532","2","legacy","1024","2","48000","-16","AB_m21","132","even","CW_L","HUNTER","2506","703835","702226","696026","378816","654297","NA","NA","NA","703828","702723","NA","701726","NA","701721","703828","2523","704185","NA","NA","702835","2507","2507","703226","701721","2507","702835","704185","morph21_Oliver/Morris","67","53306","80","yes","1280","10"
"300","83.950617284","83.950617284","665.592592593","665.592592593","black","no","xpyriment","legacy","legacy","0","201","NA","uniform","71389","1000","0.0140077602992","1","undefined","1","0","80","80","80","0","80","80","80","NA","80","80","0","80","NA","80","80","0","80","NA","80","NA","80","0","0","80","80","0","80","80","81","/","07/23/18 12:33:05","The main experiment item","yes","FIN__AB__M21__7%3A10%3A17.osexp","C:\Users\ERP Testing Room\Desktop\Joanna\morph21","no","mono","no","18","no","white","no","yes","1080","legacy","80","80","C:/Users/ERP Testing Room/Desktop/Joanna/morph21/subject-132.csv","xpyriment","Jazzy James","3.1.4","0","/","space","NA","NA","NA","space","/","607","32790","NA","NA","NA","376292","607","2","legacy","1024","2","48000","-16","AB_m21","132","even","CW_S","RISKY","2506","708503","705393","706994","378816","654297","NA","NA","NA","706989","705890","NA","704893","NA","704883","706989","2523","708803","NA","NA","705993","2507","2507","706394","704883","2507","705993","708803","morph21_Oliver/Morris","68","53913","81","yes","1280","50"
"300","84.1463414634","84.1463414634","664.243902439","664.243902439","black","no","xpyriment","legacy","legacy","0","201","NA","uniform","77828","1000","0.0128488461736","1","undefined","1","0","81","81","81","0","81","81","81","NA","81","81","0","81","NA","81","81","0","81","NA","81","NA","81","0","0","81","81","0","81","81","82","/","07/23/18 12:33:05","The main experiment item","yes","FIN__AB__M21__7%3A10%3A17.osexp","C:\Users\ERP Testing Room\Desktop\Joanna\morph21","no","mono","no","18","no","white","no","yes","1080","legacy","81","81","C:/Users/ERP Testing Room/Desktop/Joanna/morph21/subject-132.csv","xpyriment","Jazzy James","3.1.4","0","/","space","NA","NA","NA","space","/","555","32790","NA","NA","NA","376292","555","2","legacy","1024","2","48000","-16","AB_m21","132","even","CW_S","GUILTY","2506","711653","710069","706994","378816","654297","NA","NA","NA","711646","710566","NA","709569","NA","709561","711646","2523","711953","NA","NA","710653","2507","2507","711044","709561","2507","710653","711953","morph21_Oliver/Morris","69","54468","82","yes","1280","34"
"250","84.3373493976","84.3373493976","664.795180723","664.795180723","black","no","xpyriment","legacy","legacy","0","203","NA","uniform","63356","1000","0.0157838247364","1","undefined","1","0","82","82","82","0","82","82","82","NA","82","82","0","82","NA","82","82","0","82","NA","82","NA","82","0","0","82","82","0","82","82","83","z","07/23/18 12:33:05","The main experiment item","yes","FIN__AB__M21__7%3A10%3A17.osexp","C:\Users\ERP Testing Room\Desktop\Joanna\morph21","no","mono","no","18","no","white","no","yes","1080","legacy","82","82","C:/Users/ERP Testing Room/Desktop/Joanna/morph21/subject-132.csv","xpyriment","Jazzy James","3.1.4","0","z","space","NA","NA","NA","space","z","710","32790","NA","NA","NA","376292","710","2","legacy","1024","2","48000","-16","AB_m21","132","even","NW_S_COMP","TREASONIZE","2506","714761","713178","706994","378816","654297","NA","NA","NA","714757","713675","NA","712678","NA","712669","714757","2523","715011","NA","NA","713761","2507","2507","714161","712669","2507","713761","715011","morph21_Oliver/Morris","70","55178","83","yes","1280","14"
"200","84.5238095238","84.5238095238","665.202380952","665.202380952","black","no","xpyriment","legacy","legacy","0","203","NA","uniform","67360","1000","0.0148456057007","1","undefined","1","0","83","83","83","0","83","83","83","NA","83","83","0","83","NA","83","83","0","83","NA","83","NA","83","0","0","83","83","0","83","83","84","z","07/23/18 12:33:05","The main experiment item","yes","FIN__AB__M21__7%3A10%3A17.osexp","C:\Users\ERP Testing Room\Desktop\Joanna\morph21","no","mono","no","18","no","white","no","yes","1080","legacy","83","83","C:/Users/ERP Testing Room/Desktop/Joanna/morph21/subject-132.csv","xpyriment","Jazzy James","3.1.4","0","z","space","NA","NA","NA","space","z","699","32790","NA","NA","NA","376292","699","2","legacy","1024","2","48000","-16","AB_m21","132","even","NW_S_COMP","DUMBITY","2506","719345","716253","717836","378816","654297","NA","NA","NA","717826","716750","NA","715753","NA","715741","717826","2523","719545","NA","NA","716836","2507","2507","717228","715741","2507","716836","719545","morph21_Oliver/Morris","71","55877","84","yes","1280","12"
"200","84.7058823529","84.7058823529","664.647058824","664.647058824","black","no","xpyriment","legacy","legacy","0","201","NA","uniform","67330","1000","0.014852220407","1","undefined","1","0","84","84","84","0","84","84","84","NA","84","84","0","84","NA","84","84","0","84","NA","84","NA","84","0","0","84","84","0","84","84","85","/","07/23/18 12:33:05","The main experiment item","yes","FIN__AB__M21__7%3A10%3A17.osexp","C:\Users\ERP Testing Room\Desktop\Joanna\morph21","no","mono","no","18","no","white","no","yes","1080","legacy","84","84","C:/Users/ERP Testing Room/Desktop/Joanna/morph21/subject-132.csv","xpyriment","Jazzy James","3.1.4","0","/","space","NA","NA","NA","space","/","618","32790","NA","NA","NA","376292","618","2","legacy","1024","2","48000","-16","AB_m21","132","even","CW_S","ANGELIC","2506","722445","720845","717836","378816","654297","NA","NA","NA","722442","721342","NA","720345","NA","720339","722442","2523","722645","NA","NA","721453","2507","2507","721845","720339","2507","721453","722645","morph21_Oliver/Morris","72","56495","85","yes","1280","25"
"400","84.8837209302","84.8837209302","664.720930233","664.720930233","black","no","xpyriment","legacy","legacy","0","202","NA","uniform","72985","1000","0.0137014455025","1","undefined","1","0","85","85","85","0","85","85","85","NA","85","85","0","85","NA","85","85","0","85","NA","85","NA","85","0","0","85","85","0","85","85","86","/","07/23/18 12:33:05","The main experiment item","yes","FIN__AB__M21__7%3A10%3A17.osexp","C:\Users\ERP Testing Room\Desktop\Joanna\morph21","no","mono","no","18","no","white","no","yes","1080","legacy","85","85","C:/Users/ERP Testing Room/Desktop/Joanna/morph21/subject-132.csv","xpyriment","Jazzy James","3.1.4","0","/","space","NA","NA","NA","space","/","671","32790","NA","NA","NA","376292","671","2","legacy","1024","2","48000","-16","AB_m21","132","even","CW_L","QUIETLY","2506","725513","723896","717836","378816","654297","NA","NA","NA","725509","724393","NA","723395","NA","723387","725509","2523","725913","NA","NA","724513","2507","2507","724913","723387","2507","724513","725913","morph21_Oliver/Morris","73","57166","86","yes","1280","36"
"250","85.0574712644","85.0574712644","664.689655172","664.689655172","black","no","xpyriment","legacy","legacy","0","201","NA","uniform","67721","1000","0.0147664683038","1","undefined","1","0","86","86","86","0","86","86","86","NA","86","86","0","86","NA","86","86","0","86","NA","86","NA","86","0","0","86","86","0","86","86","87","/","07/23/18 12:33:05","The main experiment item","yes","FIN__AB__M21__7%3A10%3A17.osexp","C:\Users\ERP Testing Room\Desktop\Joanna\morph21","no","mono","no","18","no","white","no","yes","1080","legacy","86","86","C:/Users/ERP Testing Room/Desktop/Joanna/morph21/subject-132.csv","xpyriment","Jazzy James","3.1.4","0","/","space","NA","NA","NA","space","/","662","32790","NA","NA","NA","376292","662","2","legacy","1024","2","48000","-16","AB_m21","132","even","CW_S","SEEKER","2506","730255","727138","728746","378816","654297","NA","NA","NA","728738","727635","NA","726638","NA","726631","728738","2523","730505","NA","NA","727746","2507","2507","728138","726631","2507","727746","730505","morph21_Oliver/Morris","74","57828","87","yes","1280","16"
"300","85.2272727273","85.2272727273","667.738636364","667.738636364","black","no","xpyriment","legacy","legacy","0","207","NA","uniform","62350","1000","0.0160384923817","1","undefined","1","0","87","87","87","0","87","87","87","NA","87","87","0","87","NA","87","87","0","87","NA","87","NA","87","0","0","87","87","0","87","87","88","/","07/23/18 12:33:05","The main experiment item","yes","FIN__AB__M21__7%3A10%3A17.osexp","C:\Users\ERP Testing Room\Desktop\Joanna\morph21","no","mono","no","18","no","white","no","yes","1080","legacy","87","87","C:/Users/ERP Testing Room/Desktop/Joanna/morph21/subject-132.csv","xpyriment","Jazzy James","3.1.4","0","/","space","NA","NA","NA","space","/","933","32790","NA","NA","NA","376292","933","2","legacy","1024","2","48000","-16","AB_m21","132","even","FILL_W","BLUNT","2506","733338","731746","728746","378816","654297","NA","NA","NA","733331","732243","NA","731246","NA","731238","733331","2523","733638","NA","NA","732338","2507","2507","732730","731238","2507","732338","733638","morph21_Oliver/Morris","75","58761","88","yes","1280","4"
"200","85.393258427","85.393258427","667.561797753","667.561797753","black","no","xpyriment","legacy","legacy","0","203","NA","uniform","70239","1000","0.0142371047424","1","undefined","1","0","88","88","88","0","88","88","88","NA","88","88","0","88","NA","88","88","0","88","NA","88","NA","88","0","0","88","88","0","88","88","89","z","07/23/18 12:33:05","The main experiment item","yes","FIN__AB__M21__7%3A10%3A17.osexp","C:\Users\ERP Testing Room\Desktop\Joanna\morph21","no","mono","no","18","no","white","no","yes","1080","legacy","88","88","C:/Users/ERP Testing Room/Desktop/Joanna/morph21/subject-132.csv","xpyriment","Jazzy James","3.1.4","0","z","space","NA","NA","NA","space","z","652","32790","NA","NA","NA","376292","652","2","legacy","1024","2","48000","-16","AB_m21","132","even","NW_S_COMP","YANKORY","2506","736571","734988","728746","378816","654297","NA","NA","NA","736566","735485","NA","734488","NA","734477","736566","2523","736772","NA","NA","735571","2507","2507","735963","734477","2507","735571","736772","morph21_Oliver/Morris","76","59413","89","yes","1280","23"
"300","85.5555555556","85.5555555556","667.533333333","667.533333333","black","no","xpyriment","legacy","legacy","0","206","NA","uniform","72887","1000","0.0137198677405","1","undefined","1","0","89","89","89","0","89","89","89","NA","89","89","0","89","NA","89","89","0","89","NA","89","NA","89","0","0","89","89","0","89","89","90","z","07/23/18 12:33:05","The main experiment item","yes","FIN__AB__M21__7%3A10%3A17.osexp","C:\Users\ERP Testing Room\Desktop\Joanna\morph21","no","mono","no","18","no","white","no","yes","1080","legacy","89","89","C:/Users/ERP Testing Room/Desktop/Joanna/morph21/subject-132.csv","xpyriment","Jazzy James","3.1.4","0","z","space","NA","NA","NA","space","z","665","32790","NA","NA","NA","376292","665","2","legacy","1024","2","48000","-16","AB_m21","132","even","NW_L_SIMP","PRAYANGE","2506","741138","738055","739630","378816","654297","NA","NA","NA","739627","738552","NA","737555","NA","737551","739627","2523","741439","NA","NA","738638","2507","2507","739030","737551","2507","738638","741439","morph21_Oliver/Morris","77","60078","90","yes","1280","1"
"250","85.7142857143","85.7142857143","667.395604396","667.395604396","black","no","xpyriment","legacy","legacy","0","204","NA","uniform","67961","1000","0.0147143214491","1","undefined","1","0","90","90","90","0","90","90","90","NA","90","90","0","90","NA","90","90","0","90","NA","90","NA","90","0","0","90","90","0","90","90","91","z","07/23/18 12:33:05","The main experiment item","yes","FIN__AB__M21__7%3A10%3A17.osexp","C:\Users\ERP Testing Room\Desktop\Joanna\morph21","no","mono","no","18","no","white","no","yes","1080","legacy","90","90","C:/Users/ERP Testing Room/Desktop/Joanna/morph21/subject-132.csv","xpyriment","Jazzy James","3.1.4","0","z","space","NA","NA","NA","space","z","655","32790","NA","NA","NA","376292","655","2","legacy","1024","2","48000","-16","AB_m21","132","even","NW_L_COMP","STIRANCE","2506","744281","742698","739630","378816","654297","NA","NA","NA","744279","743195","NA","742198","NA","742187","744279","2523","744531","NA","NA","743289","2507","2507","743681","742187","2507","743289","744531","morph21_Oliver/Morris","78","60733","91","yes","1280","1"
