"ITI","acc","accuracy","average_response_time","avg_rt","background","bidi","canvas_backend","clock_backend","color_backend","compensation","cond_trig","condtrigtime","coordinates","coroutines_cycles","coroutines_duration","coroutines_mean_cycle_duration","correct","correct_instructions_1","correct_new_keyboard_response_1","count_AB_m21","count_ITI","count_blank_screen","count_blink_screen","count_block1","count_break1","count_break2","count_break3_1","count_canvas","count_correct_trigger","count_def_chain","count_end_screen","count_fixation_1","count_getting_started","count_inc_counter","count_incorrect_trigger","count_instructions_1","count_logger","count_logscript","count_new_coroutines","count_new_inline_script","count_new_keyboard_response_1","count_reset_counter_prep","count_reset_counter_run","count_responsescreen","count_sequence","count_start_trigger","count_target_present","count_word_trigger","counter","cresp","datetime","description","disable_garbage_collection","experiment_file","experiment_path","font_bold","font_family","font_italic","font_size","font_underline","foreground","form_clicks","fullscreen","height","keyboard_backend","live_row","live_row_block1","logfile","mouse_backend","opensesame_codename","opensesame_version","repeat_cycle","response","response_break1","response_break2","response_break3_1","response_end_screen","response_instructions_1","response_new_keyboard_response_1","response_time","response_time_break1","response_time_break2","response_time_break3_1","response_time_end_screen","response_time_instructions_1","response_time_new_keyboard_response_1","round_decimals","sampler_backend","sound_buf_size","sound_channels","sound_freq","sound_sample_size","start","subject_nr","subject_parity","targ_type","target","time_AB_m21","time_ITI","time_blank_screen","time_blink_screen","time_block1","time_break1","time_break2","time_break3_1","time_canvas","time_correct_trigger","time_def_chain","time_end_screen","time_fixation_1","time_getting_started","time_inc_counter","time_incorrect_trigger","time_instructions_1","time_logger","time_logscript","time_new_inline_script","time_new_keyboard_response_1","time_reset_counter_prep","time_reset_counter_run","time_responsescreen","time_sequence","time_start_trigger","time_target_present","time_word_trigger","title","total_correct","total_response_time","total_responses","uniform_coordinates","width","word_trig"
"350","100","100","901","901","black","no","xpyriment","legacy","legacy","0","208","NA","uniform","59835","1000","0.0167126263892","1","undefined","1","0","0","0","0","0","0","0","0","NA","0","0","0","0","NA","0","0","0","0","NA","0","NA","0","0","0","0","0","0","0","0","1","z","01/31/19 12:49:37","The main experiment item","yes","FIN__AB__M21__7%3A10%3A17.osexp","C:\Users\ERP Testing Room\Desktop\Joanna\morph21","no","mono","no","18","no","white","no","yes","1080","legacy","0","0","C:/Users/ERP Testing Room/Desktop/Joanna/morph21/subject-156.csv","xpyriment","Kafkaesque Koffka","3.2.5","0","z","NA","NA","NA","NA","return","z","901","NA","NA","NA","NA","212976","901","2","legacy","1024","2","48000","-16","AB_m21","156","even","FILL_NW","DASP","1965","217721","216063","NA","214950","NA","NA","NA","NA","217712","216560","NA","215561","NA","215488","217712","1974","218071","NA","NA","216721","1965","1965","217113","215488","1965","216721","218071","morph21_Oliver/Morris","1","901","1","yes","1280","13"
"250","50","50","801","801","black","no","xpyriment","legacy","legacy","0","204","NA","uniform","68531","1000","0.0145919364959","0","undefined","0","0","1","1","1","0","1","1","1","NA","1","1","0","1","NA","1","1","0","1","NA","1","NA","1","0","0","1","1","0","1","1","2","z","01/31/19 12:49:37","The main experiment item","yes","FIN__AB__M21__7%3A10%3A17.osexp","C:\Users\ERP Testing Room\Desktop\Joanna\morph21","no","mono","no","18","no","white","no","yes","1080","legacy","1","1","C:/Users/ERP Testing Room/Desktop/Joanna/morph21/subject-156.csv","xpyriment","Kafkaesque Koffka","3.2.5","0","/","NA","NA","NA","NA","return","/","701","NA","NA","NA","NA","212976","701","2","legacy","1024","2","48000","-16","AB_m21","156","even","NW_L_COMP","BREAKITY","1965","220888","219213","NA","214950","NA","NA","NA","NA","217712","219710","NA","218713","NA","218705","220885","1974","221138","NA","NA","219888","1965","1965","220288","218704","1965","219888","221138","morph21_Oliver/Morris","1","1602","2","yes","1280","23"
"300","66.6666666667","66.6666666667","779.333333333","779.333333333","black","no","xpyriment","legacy","legacy","0","205","NA","uniform","60839","1000","0.0164368250629","1","undefined","1","0","2","2","2","0","2","2","2","NA","2","2","0","2","NA","2","2","0","2","NA","2","NA","2","0","0","2","2","0","2","2","3","z","01/31/19 12:49:37","The main experiment item","yes","FIN__AB__M21__7%3A10%3A17.osexp","C:\Users\ERP Testing Room\Desktop\Joanna\morph21","no","mono","no","18","no","white","no","yes","1080","legacy","2","2","C:/Users/ERP Testing Room/Desktop/Joanna/morph21/subject-156.csv","xpyriment","Kafkaesque Koffka","3.2.5","0","z","NA","NA","NA","NA","return","z","736","NA","NA","NA","NA","212976","736","2","legacy","1024","2","48000","-16","AB_m21","156","even","NW_S_SIMP","BOLTOES","1965","225513","222305","224005","214950","NA","NA","NA","NA","223997","222802","NA","221805","NA","221797","223997","1974","225813","NA","NA","223005","1965","1965","223396","221797","1965","223005","225813","morph21_Oliver/Morris","2","2338","3","yes","1280","13"
"400","75","75","764.75","764.75","black","no","xpyriment","legacy","legacy","0","208","NA","uniform","64022","1000","0.0156196307519","1","undefined","1","0","3","3","3","0","3","3","3","NA","3","3","0","3","NA","3","3","0","3","NA","3","NA","3","0","0","3","3","0","3","3","4","z","01/31/19 12:49:37","The main experiment item","yes","FIN__AB__M21__7%3A10%3A17.osexp","C:\Users\ERP Testing Room\Desktop\Joanna\morph21","no","mono","no","18","no","white","no","yes","1080","legacy","3","3","C:/Users/ERP Testing Room/Desktop/Joanna/morph21/subject-156.csv","xpyriment","Kafkaesque Koffka","3.2.5","0","z","NA","NA","NA","NA","return","z","721","NA","NA","NA","NA","212976","721","2","legacy","1024","2","48000","-16","AB_m21","156","even","FILL_NW","BORMS","1965","228572","226905","224005","214950","NA","NA","NA","NA","228563","227402","NA","226405","NA","226394","228563","1974","228972","NA","NA","227572","1965","1965","227963","226393","1965","227572","228972","morph21_Oliver/Morris","3","3059","4","yes","1280","50"
"350","80","80","742.4","742.4","black","no","xpyriment","legacy","legacy","0","201","NA","uniform","60906","1000","0.0164187436377","1","undefined","1","0","4","4","4","0","4","4","4","NA","4","4","0","4","NA","4","4","0","4","NA","4","NA","4","0","0","4","4","0","4","4","5","/","01/31/19 12:49:37","The main experiment item","yes","FIN__AB__M21__7%3A10%3A17.osexp","C:\Users\ERP Testing Room\Desktop\Joanna\morph21","no","mono","no","18","no","white","no","yes","1080","legacy","4","4","C:/Users/ERP Testing Room/Desktop/Joanna/morph21/subject-156.csv","xpyriment","Kafkaesque Koffka","3.2.5","0","/","NA","NA","NA","NA","return","/","653","NA","NA","NA","NA","212976","653","2","legacy","1024","2","48000","-16","AB_m21","156","even","CW_S","NEATLY","1965","231889","230197","224005","214950","NA","NA","NA","NA","231881","230694","NA","229697","NA","229690","231881","1974","232239","NA","NA","230889","1965","1965","231281","229690","1965","230889","232239","morph21_Oliver/Morris","4","3712","5","yes","1280","33"
"350","66.6666666667","66.6666666667","784.666666667","784.666666667","black","no","xpyriment","legacy","legacy","0","203","NA","uniform","56611","1000","0.0176644115101","0","undefined","0","0","5","5","5","0","5","5","5","NA","5","5","0","5","NA","5","5","0","5","NA","5","NA","5","0","0","5","5","0","5","5","6","z","01/31/19 12:49:37","The main experiment item","yes","FIN__AB__M21__7%3A10%3A17.osexp","C:\Users\ERP Testing Room\Desktop\Joanna\morph21","no","mono","no","18","no","white","no","yes","1080","legacy","5","5","C:/Users/ERP Testing Room/Desktop/Joanna/morph21/subject-156.csv","xpyriment","Kafkaesque Koffka","3.2.5","0","None","NA","NA","NA","NA","return","None","996","NA","NA","NA","NA","212976","996","2","legacy","1024","2","48000","-16","AB_m21","156","even","NW_S_COMP","FIENDISM","1965","236648","233473","235139","214950","NA","NA","NA","NA","231881","233970","NA","232964","NA","232960","235135","1974","236998","NA","NA","234139","1965","1965","234539","232960","1965","234139","236998","morph21_Oliver/Morris","4","4708","6","yes","1280","24"
"200","71.4285714286","71.4285714286","755.142857143","755.142857143","black","no","xpyriment","legacy","legacy","0","202","NA","uniform","64060","1000","0.0156103652825","1","undefined","1","0","6","6","6","0","6","6","6","NA","6","6","0","6","NA","6","6","0","6","NA","6","NA","6","0","0","6","6","0","6","6","7","/","01/31/19 12:49:37","The main experiment item","yes","FIN__AB__M21__7%3A10%3A17.osexp","C:\Users\ERP Testing Room\Desktop\Joanna\morph21","no","mono","no","18","no","white","no","yes","1080","legacy","6","6","C:/Users/ERP Testing Room/Desktop/Joanna/morph21/subject-156.csv","xpyriment","Kafkaesque Koffka","3.2.5","0","/","NA","NA","NA","NA","return","/","578","NA","NA","NA","NA","212976","578","2","legacy","1024","2","48000","-16","AB_m21","156","even","CW_L","VERBAL","1965","239748","238098","235139","214950","NA","NA","NA","NA","239739","238595","NA","237598","NA","237594","239739","1974","239948","NA","NA","238748","1965","1965","239140","237594","1965","238748","239948","morph21_Oliver/Morris","5","5286","7","yes","1280","50"
"300","75","75","777.625","777.625","black","no","xpyriment","legacy","legacy","0","204","NA","uniform","57511","1000","0.017387977952","1","undefined","1","0","7","7","7","0","7","7","7","NA","7","7","0","7","NA","7","7","0","7","NA","7","NA","7","0","0","7","7","0","7","7","8","z","01/31/19 12:49:37","The main experiment item","yes","FIN__AB__M21__7%3A10%3A17.osexp","C:\Users\ERP Testing Room\Desktop\Joanna\morph21","no","mono","no","18","no","white","no","yes","1080","legacy","7","7","C:/Users/ERP Testing Room/Desktop/Joanna/morph21/subject-156.csv","xpyriment","Kafkaesque Koffka","3.2.5","0","z","NA","NA","NA","NA","return","z","935","NA","NA","NA","NA","212976","935","2","legacy","1024","2","48000","-16","AB_m21","156","even","NW_L_COMP","KINGISM","1965","242781","241098","235139","214950","NA","NA","NA","NA","242777","241595","NA","240598","NA","240591","242777","1974","243082","NA","NA","241790","1965","1965","242181","240591","1965","241790","243082","morph21_Oliver/Morris","6","6221","8","yes","1280","19"
"400","66.6666666667","66.6666666667","801.777777778","801.777777778","black","no","xpyriment","legacy","legacy","0","204","NA","uniform","54414","1000","0.0183776234057","0","undefined","0","0","8","8","8","0","8","8","8","NA","8","8","0","8","NA","8","8","0","8","NA","8","NA","8","0","0","8","8","0","8","8","9","z","01/31/19 12:49:37","The main experiment item","yes","FIN__AB__M21__7%3A10%3A17.osexp","C:\Users\ERP Testing Room\Desktop\Joanna\morph21","no","mono","no","18","no","white","no","yes","1080","legacy","8","8","C:/Users/ERP Testing Room/Desktop/Joanna/morph21/subject-156.csv","xpyriment","Kafkaesque Koffka","3.2.5","0","None","NA","NA","NA","NA","return","None","995","NA","NA","NA","NA","212976","995","2","legacy","1024","2","48000","-16","AB_m21","156","even","NW_L_COMP","ANGELISH","1965","247448","244282","245940","214950","NA","NA","NA","NA","242777","244779","NA","243782","NA","243773","245935","1974","247849","NA","NA","244940","1965","1965","245340","243773","1965","244940","247849","morph21_Oliver/Morris","6","7216","9","yes","1280","7"
"250","70","70","787.8","787.8","black","no","xpyriment","legacy","legacy","0","207","NA","uniform","62004","1000","0.0161279917425","1","undefined","1","0","9","9","9","0","9","9","9","NA","9","9","0","9","NA","9","9","0","9","NA","9","NA","9","0","0","9","9","0","9","9","10","/","01/31/19 12:49:37","The main experiment item","yes","FIN__AB__M21__7%3A10%3A17.osexp","C:\Users\ERP Testing Room\Desktop\Joanna\morph21","no","mono","no","18","no","white","no","yes","1080","legacy","9","9","C:/Users/ERP Testing Room/Desktop/Joanna/morph21/subject-156.csv","xpyriment","Kafkaesque Koffka","3.2.5","0","/","NA","NA","NA","NA","return","/","662","NA","NA","NA","NA","212976","662","2","legacy","1024","2","48000","-16","AB_m21","156","even","FILL_W","SLIM","1965","250616","248925","245940","214950","NA","NA","NA","NA","250613","249422","NA","248424","NA","248417","250613","1974","250866","NA","NA","249616","1965","1965","250016","248417","1965","249616","250866","morph21_Oliver/Morris","7","7878","10","yes","1280","6"
"200","72.7272727273","72.7272727273","771.545454545","771.545454545","black","no","xpyriment","legacy","legacy","0","207","NA","uniform","66671","1000","0.0149990250634","1","undefined","1","0","10","10","10","0","10","10","10","NA","10","10","0","10","NA","10","10","0","10","NA","10","NA","10","0","0","10","10","0","10","10","11","/","01/31/19 12:49:37","The main experiment item","yes","FIN__AB__M21__7%3A10%3A17.osexp","C:\Users\ERP Testing Room\Desktop\Joanna\morph21","no","mono","no","18","no","white","no","yes","1080","legacy","10","10","C:/Users/ERP Testing Room/Desktop/Joanna/morph21/subject-156.csv","xpyriment","Kafkaesque Koffka","3.2.5","0","/","NA","NA","NA","NA","return","/","609","NA","NA","NA","NA","212976","609","2","legacy","1024","2","48000","-16","AB_m21","156","even","FILL_W","FLOAT","1965","253725","252075","245940","214950","NA","NA","NA","NA","253717","252572","NA","251575","NA","251565","253717","1974","253925","NA","NA","252725","1965","1965","253116","251565","1965","252725","253925","morph21_Oliver/Morris","8","8487","11","yes","1280","30"
"200","75","75","767","767","black","no","xpyriment","legacy","legacy","0","208","NA","uniform","67863","1000","0.0147355701929","1","undefined","1","0","11","11","11","0","11","11","11","NA","11","11","0","11","NA","11","11","0","11","NA","11","NA","11","0","0","11","11","0","11","11","12","z","01/31/19 12:49:37","The main experiment item","yes","FIN__AB__M21__7%3A10%3A17.osexp","C:\Users\ERP Testing Room\Desktop\Joanna\morph21","no","mono","no","18","no","white","no","yes","1080","legacy","11","11","C:/Users/ERP Testing Room/Desktop/Joanna/morph21/subject-156.csv","xpyriment","Kafkaesque Koffka","3.2.5","0","z","NA","NA","NA","NA","return","z","717","NA","NA","NA","NA","212976","717","2","legacy","1024","2","48000","-16","AB_m21","156","even","FILL_NW","VUNKS","1965","258308","255116","256800","214950","NA","NA","NA","NA","256794","255614","NA","254616","NA","254613","256794","1974","258508","NA","NA","255800","1965","1965","256191","254613","1965","255800","258508","morph21_Oliver/Morris","9","9204","12","yes","1280","49"
"400","76.9230769231","76.9230769231","759.538461538","759.538461538","black","no","xpyriment","legacy","legacy","0","208","NA","uniform","67421","1000","0.0148321739517","1","undefined","1","0","12","12","12","0","12","12","12","NA","12","12","0","12","NA","12","12","0","12","NA","12","NA","12","0","0","12","12","0","12","12","13","z","01/31/19 12:49:37","The main experiment item","yes","FIN__AB__M21__7%3A10%3A17.osexp","C:\Users\ERP Testing Room\Desktop\Joanna\morph21","no","mono","no","18","no","white","no","yes","1080","legacy","12","12","C:/Users/ERP Testing Room/Desktop/Joanna/morph21/subject-156.csv","xpyriment","Kafkaesque Koffka","3.2.5","0","z","NA","NA","NA","NA","return","z","670","NA","NA","NA","NA","212976","670","2","legacy","1024","2","48000","-16","AB_m21","156","even","FILL_NW","SOISE","1965","261383","259683","256800","214950","NA","NA","NA","NA","261376","260180","NA","259183","NA","259178","261376","1974","261783","NA","NA","260383","1965","1965","260775","259178","1965","260383","261783","morph21_Oliver/Morris","10","9874","13","yes","1280","43"
"250","78.5714285714","78.5714285714","759.071428571","759.071428571","black","no","xpyriment","legacy","legacy","0","208","NA","uniform","62452","1000","0.0160122974444","1","undefined","1","0","13","13","13","0","13","13","13","NA","13","13","0","13","NA","13","13","0","13","NA","13","NA","13","0","0","13","13","0","13","13","14","z","01/31/19 12:49:37","The main experiment item","yes","FIN__AB__M21__7%3A10%3A17.osexp","C:\Users\ERP Testing Room\Desktop\Joanna\morph21","no","mono","no","18","no","white","no","yes","1080","legacy","13","13","C:/Users/ERP Testing Room/Desktop/Joanna/morph21/subject-156.csv","xpyriment","Kafkaesque Koffka","3.2.5","0","z","NA","NA","NA","NA","return","z","753","NA","NA","NA","NA","212976","753","2","legacy","1024","2","48000","-16","AB_m21","156","even","FILL_NW","PIFTH","1965","264692","263033","256800","214950","NA","NA","NA","NA","264686","263531","NA","262533","NA","262525","264686","1974","264942","NA","NA","263692","1965","1965","264083","262525","1965","263692","264942","morph21_Oliver/Morris","11","10627","14","yes","1280","36"
"250","73.3333333333","73.3333333333","774.666666667","774.666666667","black","no","xpyriment","legacy","legacy","0","204","NA","uniform","56583","1000","0.0176731527137","0","undefined","0","0","14","14","14","0","14","14","14","NA","14","14","0","14","NA","14","14","0","14","NA","14","NA","14","0","0","14","14","0","14","14","15","z","01/31/19 12:49:37","The main experiment item","yes","FIN__AB__M21__7%3A10%3A17.osexp","C:\Users\ERP Testing Room\Desktop\Joanna\morph21","no","mono","no","18","no","white","no","yes","1080","legacy","14","14","C:/Users/ERP Testing Room/Desktop/Joanna/morph21/subject-156.csv","xpyriment","Kafkaesque Koffka","3.2.5","0","None","NA","NA","NA","NA","return","None","993","NA","NA","NA","NA","212976","993","2","legacy","1024","2","48000","-16","AB_m21","156","even","NW_L_COMP","STIRANCE","1965","269393","266193","267885","214950","NA","NA","NA","NA","264686","266690","NA","265692","NA","265685","267878","1974","269643","NA","NA","266885","1965","1965","267276","265685","1965","266885","269643","morph21_Oliver/Morris","11","11620","15","yes","1280","1"
"350","75","75","778.9375","778.9375","black","no","xpyriment","legacy","legacy","0","203","NA","uniform","62459","1000","0.0160105028899","1","undefined","1","0","15","15","15","0","15","15","15","NA","15","15","0","15","NA","15","15","0","15","NA","15","NA","15","0","0","15","15","0","15","15","16","z","01/31/19 12:49:37","The main experiment item","yes","FIN__AB__M21__7%3A10%3A17.osexp","C:\Users\ERP Testing Room\Desktop\Joanna\morph21","no","mono","no","18","no","white","no","yes","1080","legacy","15","15","C:/Users/ERP Testing Room/Desktop/Joanna/morph21/subject-156.csv","xpyriment","Kafkaesque Koffka","3.2.5","0","z","NA","NA","NA","NA","return","z","843","NA","NA","NA","NA","212976","843","2","legacy","1024","2","48000","-16","AB_m21","156","even","NW_S_COMP","DEBTISH","1965","272435","270751","267885","214950","NA","NA","NA","NA","272426","271249","NA","270251","NA","270241","272426","1974","272785","NA","NA","271435","1965","1965","271826","270241","1965","271435","272785","morph21_Oliver/Morris","12","12463","16","yes","1280","22"
"400","76.4705882353","76.4705882353","771.823529412","771.823529412","black","no","xpyriment","legacy","legacy","0","202","NA","uniform","62798","1000","0.0159240740151","1","undefined","1","0","16","16","16","0","16","16","16","NA","16","16","0","16","NA","16","16","0","16","NA","16","NA","16","0","0","16","16","0","16","16","17","/","01/31/19 12:49:37","The main experiment item","yes","FIN__AB__M21__7%3A10%3A17.osexp","C:\Users\ERP Testing Room\Desktop\Joanna\morph21","no","mono","no","18","no","white","no","yes","1080","legacy","16","16","C:/Users/ERP Testing Room/Desktop/Joanna/morph21/subject-156.csv","xpyriment","Kafkaesque Koffka","3.2.5","0","/","NA","NA","NA","NA","return","/","658","NA","NA","NA","NA","212976","658","2","legacy","1024","2","48000","-16","AB_m21","156","even","CW_L","FAITHFUL","1965","275643","273968","267885","214950","NA","NA","NA","NA","275633","274465","NA","273468","NA","273462","275633","1974","276043","NA","NA","274643","1965","1965","275035","273462","1965","274643","276043","morph21_Oliver/Morris","13","13121","17","yes","1280","20"
"200","77.7777777778","77.7777777778","775.5","775.5","black","no","xpyriment","legacy","legacy","0","207","NA","uniform","57469","1000","0.017400685587","1","undefined","1","0","17","17","17","0","17","17","17","NA","17","17","0","17","NA","17","17","0","17","NA","17","NA","17","0","0","17","17","0","17","17","18","/","01/31/19 12:49:37","The main experiment item","yes","FIN__AB__M21__7%3A10%3A17.osexp","C:\Users\ERP Testing Room\Desktop\Joanna\morph21","no","mono","no","18","no","white","no","yes","1080","legacy","17","17","C:/Users/ERP Testing Room/Desktop/Joanna/morph21/subject-156.csv","xpyriment","Kafkaesque Koffka","3.2.5","0","/","NA","NA","NA","NA","return","/","838","NA","NA","NA","NA","212976","838","2","legacy","1024","2","48000","-16","AB_m21","156","even","FILL_W","BLEAK","1965","280452","277268","278943","214950","NA","NA","NA","NA","278935","277765","NA","276768","NA","276760","278935","1974","280652","NA","NA","277943","1965","1965","278335","276760","1965","277943","280652","morph21_Oliver/Morris","14","13959","18","yes","1280","5"
"300","73.6842105263","73.6842105263","786.894736842","786.894736842","black","no","xpyriment","legacy","legacy","0","204","NA","uniform","52564","1000","0.0190244273647","0","undefined","0","0","18","18","18","0","18","18","18","NA","18","18","0","18","NA","18","18","0","18","NA","18","NA","18","0","0","18","18","0","18","18","19","z","01/31/19 12:49:37","The main experiment item","yes","FIN__AB__M21__7%3A10%3A17.osexp","C:\Users\ERP Testing Room\Desktop\Joanna\morph21","no","mono","no","18","no","white","no","yes","1080","legacy","18","18","C:/Users/ERP Testing Room/Desktop/Joanna/morph21/subject-156.csv","xpyriment","Kafkaesque Koffka","3.2.5","0","None","NA","NA","NA","NA","return","None","992","NA","NA","NA","NA","212976","992","2","legacy","1024","2","48000","-16","AB_m21","156","even","NW_L_COMP","ADDMENT","1965","283386","281727","278943","214950","NA","NA","NA","NA","278935","282224","NA","281227","NA","281222","283377","1974","283686","NA","NA","282385","1965","1965","282777","281221","1965","282385","283686","morph21_Oliver/Morris","14","14951","19","yes","1280","13"
"200","75","75","781.8","781.8","black","no","xpyriment","legacy","legacy","0","201","NA","uniform","59191","1000","0.0168944603065","1","undefined","1","0","19","19","19","0","19","19","19","NA","19","19","0","19","NA","19","19","0","19","NA","19","NA","19","0","0","19","19","0","19","19","20","/","01/31/19 12:49:37","The main experiment item","yes","FIN__AB__M21__7%3A10%3A17.osexp","C:\Users\ERP Testing Room\Desktop\Joanna\morph21","no","mono","no","18","no","white","no","yes","1080","legacy","19","19","C:/Users/ERP Testing Room/Desktop/Joanna/morph21/subject-156.csv","xpyriment","Kafkaesque Koffka","3.2.5","0","/","NA","NA","NA","NA","return","/","685","NA","NA","NA","NA","212976","685","2","legacy","1024","2","48000","-16","AB_m21","156","even","CW_S","AMUSEMENT","1965","286553","284895","278943","214950","NA","NA","NA","NA","286549","285392","NA","284395","NA","284384","286549","1974","286753","NA","NA","285561","1965","1965","285953","284384","1965","285561","286753","morph21_Oliver/Morris","15","15636","20","yes","1280","38"
"250","71.4285714286","71.4285714286","791.857142857","791.857142857","black","no","xpyriment","legacy","legacy","0","204","NA","uniform","54997","1000","0.0181828099715","0","undefined","0","0","20","20","20","0","20","20","20","NA","20","20","0","20","NA","20","20","0","20","NA","20","NA","20","0","0","20","20","0","20","20","21","z","01/31/19 12:49:37","The main experiment item","yes","FIN__AB__M21__7%3A10%3A17.osexp","C:\Users\ERP Testing Room\Desktop\Joanna\morph21","no","mono","no","18","no","white","no","yes","1080","legacy","20","20","C:/Users/ERP Testing Room/Desktop/Joanna/morph21/subject-156.csv","xpyriment","Kafkaesque Koffka","3.2.5","0","None","NA","NA","NA","NA","return","None","993","NA","NA","NA","NA","212976","993","2","legacy","1024","2","48000","-16","AB_m21","156","even","NW_L_COMP","MUDLY","1965","291162","287995","289653","214950","NA","NA","NA","NA","286549","288492","NA","287495","NA","287488","289646","1974","291412","NA","NA","288653","1965","1965","289045","287488","1965","288653","291412","morph21_Oliver/Morris","15","16629","21","yes","1280","12"
"350","68.1818181818","68.1818181818","800.909090909","800.909090909","black","no","xpyriment","legacy","legacy","0","204","NA","uniform","48173","1000","0.0207585161813","0","undefined","0","0","21","21","21","0","21","21","21","NA","21","21","0","21","NA","21","21","0","21","NA","21","NA","21","0","0","21","21","0","21","21","22","z","01/31/19 12:49:37","The main experiment item","yes","FIN__AB__M21__7%3A10%3A17.osexp","C:\Users\ERP Testing Room\Desktop\Joanna\morph21","no","mono","no","18","no","white","no","yes","1080","legacy","21","21","C:/Users/ERP Testing Room/Desktop/Joanna/morph21/subject-156.csv","xpyriment","Kafkaesque Koffka","3.2.5","0","None","NA","NA","NA","NA","return","None","991","NA","NA","NA","NA","212976","991","2","legacy","1024","2","48000","-16","AB_m21","156","even","NW_L_COMP","INKISM","1965","294187","292528","289653","214950","NA","NA","NA","NA","286549","293025","NA","292028","NA","292024","294178","1974","294537","NA","NA","293187","1965","1965","293578","292024","1965","293187","294537","morph21_Oliver/Morris","15","17620","22","yes","1280","8"
"200","69.5652173913","69.5652173913","792.52173913","792.52173913","black","no","xpyriment","legacy","legacy","0","202","NA","uniform","71962","1000","0.0138962230066","1","undefined","1","0","22","22","22","0","22","22","22","NA","22","22","0","22","NA","22","22","0","22","NA","22","NA","22","0","0","22","22","0","22","22","23","/","01/31/19 12:49:37","The main experiment item","yes","FIN__AB__M21__7%3A10%3A17.osexp","C:\Users\ERP Testing Room\Desktop\Joanna\morph21","no","mono","no","18","no","white","no","yes","1080","legacy","22","22","C:/Users/ERP Testing Room/Desktop/Joanna/morph21/subject-156.csv","xpyriment","Kafkaesque Koffka","3.2.5","0","/","NA","NA","NA","NA","return","/","608","NA","NA","NA","NA","212976","608","2","legacy","1024","2","48000","-16","AB_m21","156","even","CW_L","SHAMEFUL","1965","297453","295787","289653","214950","NA","NA","NA","NA","297448","296284","NA","295287","NA","295278","297448","1974","297654","NA","NA","296453","1965","1965","296845","295278","1965","296453","297654","morph21_Oliver/Morris","16","18228","23","yes","1280","19"
"300","66.6666666667","66.6666666667","800.625","800.625","black","no","xpyriment","legacy","legacy","0","205","NA","uniform","52617","1000","0.0190052644583","0","undefined","0","0","23","23","23","0","23","23","23","NA","23","23","0","23","NA","23","23","0","23","NA","23","NA","23","0","0","23","23","0","23","23","24","z","01/31/19 12:49:37","The main experiment item","yes","FIN__AB__M21__7%3A10%3A17.osexp","C:\Users\ERP Testing Room\Desktop\Joanna\morph21","no","mono","no","18","no","white","no","yes","1080","legacy","23","23","C:/Users/ERP Testing Room/Desktop/Joanna/morph21/subject-156.csv","xpyriment","Kafkaesque Koffka","3.2.5","0","None","NA","NA","NA","NA","return","None","987","NA","NA","NA","NA","212976","987","2","legacy","1024","2","48000","-16","AB_m21","156","even","NW_S_SIMP","YIELDILT","1965","302038","298862","300529","214950","NA","NA","NA","NA","297448","299359","NA","298362","NA","298358","300524","1974","302338","NA","NA","299537","1965","1965","299929","298358","1965","299537","302338","morph21_Oliver/Morris","16","19215","24","yes","1280","20"
"250","68","68","805","805","black","no","xpyriment","legacy","legacy","0","202","NA","uniform","58158","1000","0.0171945390144","1","undefined","1","0","24","24","24","0","24","24","24","NA","24","24","0","24","NA","24","24","0","24","NA","24","NA","24","0","0","24","24","0","24","24","25","/","01/31/19 12:49:37","The main experiment item","yes","FIN__AB__M21__7%3A10%3A17.osexp","C:\Users\ERP Testing Room\Desktop\Joanna\morph21","no","mono","no","18","no","white","no","yes","1080","legacy","24","24","C:/Users/ERP Testing Room/Desktop/Joanna/morph21/subject-156.csv","xpyriment","Kafkaesque Koffka","3.2.5","0","/","NA","NA","NA","NA","return","/","910","NA","NA","NA","NA","212976","910","2","legacy","1024","2","48000","-16","AB_m21","156","even","CW_L","PUSHER","1965","305080","303405","300529","214950","NA","NA","NA","NA","305072","303902","NA","302905","NA","302897","305072","1974","305330","NA","NA","304080","1965","1965","304471","302897","1965","304080","305330","morph21_Oliver/Morris","17","20125","25","yes","1280","13"
"300","69.2307692308","69.2307692308","806.423076923","806.423076923","black","no","xpyriment","legacy","legacy","0","206","NA","uniform","56213","1000","0.0177894793019","1","undefined","1","0","25","25","25","0","25","25","25","NA","25","25","0","25","NA","25","25","0","25","NA","25","NA","25","0","0","25","25","0","25","25","26","z","01/31/19 12:49:37","The main experiment item","yes","FIN__AB__M21__7%3A10%3A17.osexp","C:\Users\ERP Testing Room\Desktop\Joanna\morph21","no","mono","no","18","no","white","no","yes","1080","legacy","25","25","C:/Users/ERP Testing Room/Desktop/Joanna/morph21/subject-156.csv","xpyriment","Kafkaesque Koffka","3.2.5","0","z","NA","NA","NA","NA","return","z","842","NA","NA","NA","NA","212976","842","2","legacy","1024","2","48000","-16","AB_m21","156","even","NW_L_SIMP","EARILT","1965","308188","306505","300529","214950","NA","NA","NA","NA","308178","307002","NA","306005","NA","305999","308178","1974","308488","NA","NA","307188","1965","1965","307580","305999","1965","307188","308488","morph21_Oliver/Morris","18","20967","26","yes","1280","12"
"250","70.3703703704","70.3703703704","811.62962963","811.62962963","black","no","xpyriment","legacy","legacy","0","206","NA","uniform","55315","1000","0.0180782789478","1","undefined","1","0","26","26","26","0","26","26","26","NA","26","26","0","26","NA","26","26","0","26","NA","26","NA","26","0","0","26","26","0","26","26","27","z","01/31/19 12:49:37","The main experiment item","yes","FIN__AB__M21__7%3A10%3A17.osexp","C:\Users\ERP Testing Room\Desktop\Joanna\morph21","no","mono","no","18","no","white","no","yes","1080","legacy","26","26","C:/Users/ERP Testing Room/Desktop/Joanna/morph21/subject-156.csv","xpyriment","Kafkaesque Koffka","3.2.5","0","z","NA","NA","NA","NA","return","z","947","NA","NA","NA","NA","212976","947","2","legacy","1024","2","48000","-16","AB_m21","156","even","NW_L_SIMP","SHOOTMANT","1965","312830","309647","311322","214950","NA","NA","NA","NA","311313","310144","NA","309147","NA","309143","311313","1974","313080","NA","NA","310322","1965","1965","310713","309143","1965","310322","313080","morph21_Oliver/Morris","19","21914","27","yes","1280","16"
"350","71.4285714286","71.4285714286","809.071428571","809.071428571","black","no","xpyriment","legacy","legacy","0","202","NA","uniform","61983","1000","0.0161334559476","1","undefined","1","0","27","27","27","0","27","27","27","NA","27","27","0","27","NA","27","27","0","27","NA","27","NA","27","0","0","27","27","0","27","27","28","/","01/31/19 12:49:37","The main experiment item","yes","FIN__AB__M21__7%3A10%3A17.osexp","C:\Users\ERP Testing Room\Desktop\Joanna\morph21","no","mono","no","18","no","white","no","yes","1080","legacy","27","27","C:/Users/ERP Testing Room/Desktop/Joanna/morph21/subject-156.csv","xpyriment","Kafkaesque Koffka","3.2.5","0","/","NA","NA","NA","NA","return","/","740","NA","NA","NA","NA","212976","740","2","legacy","1024","2","48000","-16","AB_m21","156","even","CW_L","PUNCHER","1965","315897","314189","311322","214950","NA","NA","NA","NA","315891","314686","NA","313689","NA","313686","315891","1974","316247","NA","NA","314897","1965","1965","315289","313686","1965","314897","316247","morph21_Oliver/Morris","20","22654","28","yes","1280","1"
"200","68.9655172414","68.9655172414","815.275862069","815.275862069","black","no","xpyriment","legacy","legacy","0","208","NA","uniform","52851","1000","0.0189211178596","0","undefined","0","0","28","28","28","0","28","28","28","NA","28","28","0","28","NA","28","28","0","28","NA","28","NA","28","0","0","28","28","0","28","28","29","z","01/31/19 12:49:37","The main experiment item","yes","FIN__AB__M21__7%3A10%3A17.osexp","C:\Users\ERP Testing Room\Desktop\Joanna\morph21","no","mono","no","18","no","white","no","yes","1080","legacy","28","28","C:/Users/ERP Testing Room/Desktop/Joanna/morph21/subject-156.csv","xpyriment","Kafkaesque Koffka","3.2.5","0","None","NA","NA","NA","NA","return","None","989","NA","NA","NA","NA","212976","989","2","legacy","1024","2","48000","-16","AB_m21","156","even","FILL_NW","SMADE","1965","319081","317405","311322","214950","NA","NA","NA","NA","315891","317903","NA","316905","NA","316898","319071","1974","319281","NA","NA","318081","1965","1965","318473","316898","1965","318080","319281","morph21_Oliver/Morris","20","23643","29","yes","1280","42"
"200","66.6666666667","66.6666666667","821.266666667","821.266666667","black","no","xpyriment","legacy","legacy","0","205","NA","uniform","52094","1000","0.0191960686451","0","undefined","0","0","29","29","29","0","29","29","29","NA","29","29","0","29","NA","29","29","0","29","NA","29","NA","29","0","0","29","29","0","29","29","30","z","01/31/19 12:49:37","The main experiment item","yes","FIN__AB__M21__7%3A10%3A17.osexp","C:\Users\ERP Testing Room\Desktop\Joanna\morph21","no","mono","no","18","no","white","no","yes","1080","legacy","29","29","C:/Users/ERP Testing Room/Desktop/Joanna/morph21/subject-156.csv","xpyriment","Kafkaesque Koffka","3.2.5","0","None","NA","NA","NA","NA","return","None","995","NA","NA","NA","NA","212976","995","2","legacy","1024","2","48000","-16","AB_m21","156","even","NW_S_SIMP","THRILLANGE","1965","323707","320523","322198","214950","NA","NA","NA","NA","315891","321020","NA","320023","NA","320012","322193","1974","323907","NA","NA","321198","1965","1965","321598","320012","1965","321198","323907","morph21_Oliver/Morris","20","24638","30","yes","1280","22"
"400","64.5161290323","64.5161290323","826.870967742","826.870967742","black","no","xpyriment","legacy","legacy","0","201","NA","uniform","52595","1000","0.0190132141839","0","undefined","0","0","30","30","30","0","30","30","30","NA","30","30","0","30","NA","30","30","0","30","NA","30","NA","30","0","0","30","30","0","30","30","31","/","01/31/19 12:49:37","The main experiment item","yes","FIN__AB__M21__7%3A10%3A17.osexp","C:\Users\ERP Testing Room\Desktop\Joanna\morph21","no","mono","no","18","no","white","no","yes","1080","legacy","30","30","C:/Users/ERP Testing Room/Desktop/Joanna/morph21/subject-156.csv","xpyriment","Kafkaesque Koffka","3.2.5","0","None","NA","NA","NA","NA","return","None","995","NA","NA","NA","NA","212976","995","2","legacy","1024","2","48000","-16","AB_m21","156","even","CW_S","RAIDER","1965","326740","325040","322198","214950","NA","NA","NA","NA","315891","325537","NA","324540","NA","324530","326735","1974","327140","NA","NA","325740","1965","1965","326140","324530","1965","325740","327140","morph21_Oliver/Morris","20","25633","31","yes","1280","12"
"350","65.625","65.625","822.5","822.5","black","no","xpyriment","legacy","legacy","0","202","NA","uniform","63719","1000","0.0156939060563","1","undefined","1","0","31","31","31","0","31","31","31","NA","31","31","0","31","NA","31","31","0","31","NA","31","NA","31","0","0","31","31","0","31","31","32","/","01/31/19 12:49:37","The main experiment item","yes","FIN__AB__M21__7%3A10%3A17.osexp","C:\Users\ERP Testing Room\Desktop\Joanna\morph21","no","mono","no","18","no","white","no","yes","1080","legacy","31","31","C:/Users/ERP Testing Room/Desktop/Joanna/morph21/subject-156.csv","xpyriment","Kafkaesque Koffka","3.2.5","0","/","NA","NA","NA","NA","return","/","687","NA","NA","NA","NA","212976","687","2","legacy","1024","2","48000","-16","AB_m21","156","even","CW_L","HUNTER","1965","329965","328265","322198","214950","NA","NA","NA","NA","329961","328762","NA","327765","NA","327755","329961","1974","330315","NA","NA","328974","1965","1965","329365","327755","1965","328974","330315","morph21_Oliver/Morris","21","26320","32","yes","1280","10"
"250","66.6666666667","66.6666666667","822.090909091","822.090909091","black","no","xpyriment","legacy","legacy","0","208","NA","uniform","60269","1000","0.0165922779538","1","undefined","1","0","32","32","32","0","32","32","32","NA","32","32","0","32","NA","32","32","0","32","NA","32","NA","32","0","0","32","32","0","32","32","33","z","01/31/19 12:49:37","The main experiment item","yes","FIN__AB__M21__7%3A10%3A17.osexp","C:\Users\ERP Testing Room\Desktop\Joanna\morph21","no","mono","no","18","no","white","no","yes","1080","legacy","32","32","C:/Users/ERP Testing Room/Desktop/Joanna/morph21/subject-156.csv","xpyriment","Kafkaesque Koffka","3.2.5","0","z","NA","NA","NA","NA","return","z","809","NA","NA","NA","NA","212976","809","2","legacy","1024","2","48000","-16","AB_m21","156","even","FILL_NW","LOLDS","1965","334632","331457","333124","214950","NA","NA","NA","NA","333120","331954","NA","330957","NA","330946","333120","1974","334882","NA","NA","332132","1965","1965","332524","330946","1965","332132","334882","morph21_Oliver/Morris","22","27129","33","yes","1280","34"
"250","67.6470588235","67.6470588235","813.470588235","813.470588235","black","no","xpyriment","legacy","legacy","0","207","NA","uniform","73149","1000","0.0136707268725","1","undefined","1","0","33","33","33","0","33","33","33","NA","33","33","0","33","NA","33","33","0","33","NA","33","NA","33","0","0","33","33","0","33","33","34","/","01/31/19 12:49:37","The main experiment item","yes","FIN__AB__M21__7%3A10%3A17.osexp","C:\Users\ERP Testing Room\Desktop\Joanna\morph21","no","mono","no","18","no","white","no","yes","1080","legacy","33","33","C:/Users/ERP Testing Room/Desktop/Joanna/morph21/subject-156.csv","xpyriment","Kafkaesque Koffka","3.2.5","0","/","NA","NA","NA","NA","return","/","529","NA","NA","NA","NA","212976","529","2","legacy","1024","2","48000","-16","AB_m21","156","even","FILL_W","COOK","1965","337741","336033","333124","214950","NA","NA","NA","NA","337735","336530","NA","335532","NA","335521","337735","1974","337992","NA","NA","336741","1965","1965","337133","335521","1965","336741","337992","morph21_Oliver/Morris","23","27658","34","yes","1280","38"
"400","68.5714285714","68.5714285714","813.828571429","813.828571429","black","no","xpyriment","legacy","legacy","0","208","NA","uniform","58227","1000","0.0171741631889","1","undefined","1","0","34","34","34","0","34","34","34","NA","34","34","0","34","NA","34","34","0","34","NA","34","NA","34","0","0","34","34","0","34","34","35","z","01/31/19 12:49:37","The main experiment item","yes","FIN__AB__M21__7%3A10%3A17.osexp","C:\Users\ERP Testing Room\Desktop\Joanna\morph21","no","mono","no","18","no","white","no","yes","1080","legacy","34","34","C:/Users/ERP Testing Room/Desktop/Joanna/morph21/subject-156.csv","xpyriment","Kafkaesque Koffka","3.2.5","0","z","NA","NA","NA","NA","return","z","826","NA","NA","NA","NA","212976","826","2","legacy","1024","2","48000","-16","AB_m21","156","even","FILL_NW","HEND","1965","340892","339208","333124","214950","NA","NA","NA","NA","340887","339705","NA","338708","NA","338700","340887","1974","341292","NA","NA","339892","1965","1965","340292","338700","1965","339892","341292","morph21_Oliver/Morris","24","28484","35","yes","1280","28"
"400","66.6666666667","66.6666666667","818.722222222","818.722222222","black","no","xpyriment","legacy","legacy","0","204","NA","uniform","52008","1000","0.019227811106","0","undefined","0","0","35","35","35","0","35","35","35","NA","35","35","0","35","NA","35","35","0","35","NA","35","NA","35","0","0","35","35","0","35","35","36","z","01/31/19 12:49:37","The main experiment item","yes","FIN__AB__M21__7%3A10%3A17.osexp","C:\Users\ERP Testing Room\Desktop\Joanna\morph21","no","mono","no","18","no","white","no","yes","1080","legacy","35","35","C:/Users/ERP Testing Room/Desktop/Joanna/morph21/subject-156.csv","xpyriment","Kafkaesque Koffka","3.2.5","0","None","NA","NA","NA","NA","return","None","990","NA","NA","NA","NA","212976","990","2","legacy","1024","2","48000","-16","AB_m21","156","even","NW_L_COMP","PASSMENT","1965","345684","342492","344175","214950","NA","NA","NA","NA","340887","342989","NA","341992","NA","341988","344166","1974","346084","NA","NA","343175","1965","1965","343567","341988","1965","343175","346084","morph21_Oliver/Morris","24","29474","36","yes","1280","14"
"350","67.5675675676","67.5675675676","818.216216216","818.216216216","black","no","xpyriment","legacy","legacy","0","202","NA","uniform","64024","1000","0.0156191428214","1","undefined","1","0","36","36","36","0","36","36","36","NA","36","36","0","36","NA","36","36","0","36","NA","36","NA","36","0","0","36","36","0","36","36","37","/","01/31/19 12:49:37","The main experiment item","yes","FIN__AB__M21__7%3A10%3A17.osexp","C:\Users\ERP Testing Room\Desktop\Joanna\morph21","no","mono","no","18","no","white","no","yes","1080","legacy","36","36","C:/Users/ERP Testing Room/Desktop/Joanna/morph21/subject-156.csv","xpyriment","Kafkaesque Koffka","3.2.5","0","/","NA","NA","NA","NA","return","/","800","NA","NA","NA","NA","212976","800","2","legacy","1024","2","48000","-16","AB_m21","156","even","CW_L","SWIMMER","1965","348909","347259","344175","214950","NA","NA","NA","NA","348902","347756","NA","346759","NA","346749","348902","1974","349259","NA","NA","347909","1965","1965","348300","346749","1965","347909","349259","morph21_Oliver/Morris","25","30274","37","yes","1280","5"
"350","68.4210526316","68.4210526316","815.973684211","815.973684211","black","no","xpyriment","legacy","legacy","0","207","NA","uniform","64727","1000","0.0154495032985","1","undefined","1","0","37","37","37","0","37","37","37","NA","37","37","0","37","NA","37","37","0","37","NA","37","NA","37","0","0","37","37","0","37","37","38","/","01/31/19 12:49:37","The main experiment item","yes","FIN__AB__M21__7%3A10%3A17.osexp","C:\Users\ERP Testing Room\Desktop\Joanna\morph21","no","mono","no","18","no","white","no","yes","1080","legacy","37","37","C:/Users/ERP Testing Room/Desktop/Joanna/morph21/subject-156.csv","xpyriment","Kafkaesque Koffka","3.2.5","0","/","NA","NA","NA","NA","return","/","733","NA","NA","NA","NA","212976","733","2","legacy","1024","2","48000","-16","AB_m21","156","even","FILL_W","BRISK","1965","352184","350534","344175","214950","NA","NA","NA","NA","352178","351031","NA","350025","NA","350015","352178","1974","352534","NA","NA","351184","1965","1965","351575","350015","1965","351184","352534","morph21_Oliver/Morris","26","31007","38","yes","1280","8"
"350","66.6666666667","66.6666666667","820.58974359","820.58974359","black","no","xpyriment","legacy","legacy","0","203","NA","uniform","50181","1000","0.0199278611427","0","undefined","0","0","38","38","38","0","38","38","38","NA","38","38","0","38","NA","38","38","0","38","NA","38","NA","38","0","0","38","38","0","38","38","39","z","01/31/19 12:49:37","The main experiment item","yes","FIN__AB__M21__7%3A10%3A17.osexp","C:\Users\ERP Testing Room\Desktop\Joanna\morph21","no","mono","no","18","no","white","no","yes","1080","legacy","38","38","C:/Users/ERP Testing Room/Desktop/Joanna/morph21/subject-156.csv","xpyriment","Kafkaesque Koffka","3.2.5","0","None","NA","NA","NA","NA","return","None","996","NA","NA","NA","NA","212976","996","2","legacy","1024","2","48000","-16","AB_m21","156","even","NW_S_COMP","WELDIC","1965","356968","353777","355460","214950","NA","NA","NA","NA","352178","354274","NA","353277","NA","353269","355456","1974","357319","NA","NA","354460","1965","1965","354860","353269","1965","354460","357319","morph21_Oliver/Morris","26","32003","39","yes","1280","21"
"300","67.5","67.5","820.225","820.225","black","no","xpyriment","legacy","legacy","0","207","NA","uniform","60310","1000","0.0165809981761","1","undefined","1","0","39","39","39","0","39","39","39","NA","39","39","0","39","NA","39","39","0","39","NA","39","NA","39","0","0","39","39","0","39","39","40","/","01/31/19 12:49:37","The main experiment item","yes","FIN__AB__M21__7%3A10%3A17.osexp","C:\Users\ERP Testing Room\Desktop\Joanna\morph21","no","mono","no","18","no","white","no","yes","1080","legacy","39","39","C:/Users/ERP Testing Room/Desktop/Joanna/morph21/subject-156.csv","xpyriment","Kafkaesque Koffka","3.2.5","0","/","NA","NA","NA","NA","return","/","806","NA","NA","NA","NA","212976","806","2","legacy","1024","2","48000","-16","AB_m21","156","even","FILL_W","BOX","1965","360160","358460","355460","214950","NA","NA","NA","NA","360154","358957","NA","357960","NA","357950","360154","1974","360460","NA","NA","359160","1965","1965","359552","357950","1965","359160","360460","morph21_Oliver/Morris","27","32809","40","yes","1280","42"
"400","68.2926829268","68.2926829268","817.243902439","817.243902439","black","no","xpyriment","legacy","legacy","0","206","NA","uniform","67746","1000","0.0147610191008","1","undefined","1","0","40","40","40","0","40","40","40","NA","40","40","0","40","NA","40","40","0","40","NA","40","NA","40","0","0","40","40","0","40","40","41","z","01/31/19 12:49:37","The main experiment item","yes","FIN__AB__M21__7%3A10%3A17.osexp","C:\Users\ERP Testing Room\Desktop\Joanna\morph21","no","mono","no","18","no","white","no","yes","1080","legacy","40","40","C:/Users/ERP Testing Room/Desktop/Joanna/morph21/subject-156.csv","xpyriment","Kafkaesque Koffka","3.2.5","0","z","NA","NA","NA","NA","return","z","698","NA","NA","NA","NA","212976","698","2","legacy","1024","2","48000","-16","AB_m21","156","even","NW_L_SIMP","CLASSOES","1965","363427","361752","355460","214950","NA","NA","NA","NA","363423","362249","NA","361252","NA","361242","363423","1974","363827","NA","NA","362427","1965","1965","362827","361242","1965","362427","363827","morph21_Oliver/Morris","28","33507","41","yes","1280","18"
"250","69.0476190476","69.0476190476","813","813","black","no","xpyriment","legacy","legacy","0","201","NA","uniform","63836","1000","0.0156651419262","1","undefined","1","0","41","41","41","0","41","41","41","NA","41","41","0","41","NA","41","41","0","41","NA","41","NA","41","0","0","41","41","0","41","41","42","/","01/31/19 12:49:37","The main experiment item","yes","FIN__AB__M21__7%3A10%3A17.osexp","C:\Users\ERP Testing Room\Desktop\Joanna\morph21","no","mono","no","18","no","white","no","yes","1080","legacy","41","41","C:/Users/ERP Testing Room/Desktop/Joanna/morph21/subject-156.csv","xpyriment","Kafkaesque Koffka","3.2.5","0","/","NA","NA","NA","NA","return","/","639","NA","NA","NA","NA","212976","639","2","legacy","1024","2","48000","-16","AB_m21","156","even","CW_S","NOTICEABLE","1965","368211","365027","366702","214950","NA","NA","NA","NA","366694","365524","NA","364527","NA","364521","366694","1974","368461","NA","NA","365702","1965","1965","366094","364521","1965","365702","368461","morph21_Oliver/Morris","29","34146","42","yes","1280","3"
"250","69.7674418605","69.7674418605","812","812","black","no","xpyriment","legacy","legacy","0","208","NA","uniform","62241","1000","0.0160665799071","1","undefined","1","0","42","42","42","0","42","42","42","NA","42","42","0","42","NA","42","42","0","42","NA","42","NA","42","0","0","42","42","0","42","42","43","z","01/31/19 12:49:37","The main experiment item","yes","FIN__AB__M21__7%3A10%3A17.osexp","C:\Users\ERP Testing Room\Desktop\Joanna\morph21","no","mono","no","18","no","white","no","yes","1080","legacy","42","42","C:/Users/ERP Testing Room/Desktop/Joanna/morph21/subject-156.csv","xpyriment","Kafkaesque Koffka","3.2.5","0","z","NA","NA","NA","NA","return","z","770","NA","NA","NA","NA","212976","770","2","legacy","1024","2","48000","-16","AB_m21","156","even","FILL_NW","POLT","1965","371253","369561","366702","214950","NA","NA","NA","NA","371245","370058","NA","369061","NA","369051","371245","1974","371503","NA","NA","370252","1965","1965","370645","369051","1965","370252","371503","morph21_Oliver/Morris","30","34916","43","yes","1280","38"
"200","70.4545454545","70.4545454545","804.727272727","804.727272727","black","no","xpyriment","legacy","legacy","0","207","NA","uniform","70182","1000","0.0142486677496","1","undefined","1","0","43","43","43","0","43","43","43","NA","43","43","0","43","NA","43","43","0","43","NA","43","NA","43","0","0","43","43","0","43","43","44","/","01/31/19 12:49:37","The main experiment item","yes","FIN__AB__M21__7%3A10%3A17.osexp","C:\Users\ERP Testing Room\Desktop\Joanna\morph21","no","mono","no","18","no","white","no","yes","1080","legacy","43","43","C:/Users/ERP Testing Room/Desktop/Joanna/morph21/subject-156.csv","xpyriment","Kafkaesque Koffka","3.2.5","0","/","NA","NA","NA","NA","return","/","492","NA","NA","NA","NA","212976","492","2","legacy","1024","2","48000","-16","AB_m21","156","even","FILL_W","SAVE","1965","374378","372678","366702","214950","NA","NA","NA","NA","374374","373176","NA","372178","NA","372170","374374","1974","374579","NA","NA","373378","1965","1965","373778","372170","1965","373378","374579","morph21_Oliver/Morris","31","35408","44","yes","1280","46"
"400","71.1111111111","71.1111111111","801.266666667","801.266666667","black","no","xpyriment","legacy","legacy","0","207","NA","uniform","67753","1000","0.0147594940445","1","undefined","1","0","44","44","44","0","44","44","44","NA","44","44","0","44","NA","44","44","0","44","NA","44","NA","44","0","0","44","44","0","44","44","45","/","01/31/19 12:49:37","The main experiment item","yes","FIN__AB__M21__7%3A10%3A17.osexp","C:\Users\ERP Testing Room\Desktop\Joanna\morph21","no","mono","no","18","no","white","no","yes","1080","legacy","44","44","C:/Users/ERP Testing Room/Desktop/Joanna/morph21/subject-156.csv","xpyriment","Kafkaesque Koffka","3.2.5","0","/","NA","NA","NA","NA","return","/","649","NA","NA","NA","NA","212976","649","2","legacy","1024","2","48000","-16","AB_m21","156","even","FILL_W","CHIP","1965","378929","375737","377420","214950","NA","NA","NA","NA","377417","376234","NA","375237","NA","375226","377417","1974","379329","NA","NA","376429","1965","1965","376820","375226","1965","376428","379329","morph21_Oliver/Morris","32","36057","45","yes","1280","11"
"200","69.5652173913","69.5652173913","805.347826087","805.347826087","black","no","xpyriment","legacy","legacy","0","203","NA","uniform","56022","1000","0.017850130306","0","undefined","0","0","45","45","45","0","45","45","45","NA","45","45","0","45","NA","45","45","0","45","NA","45","NA","45","0","0","45","45","0","45","45","46","z","01/31/19 12:49:37","The main experiment item","yes","FIN__AB__M21__7%3A10%3A17.osexp","C:\Users\ERP Testing Room\Desktop\Joanna\morph21","no","mono","no","18","no","white","no","yes","1080","legacy","45","45","C:/Users/ERP Testing Room/Desktop/Joanna/morph21/subject-156.csv","xpyriment","Kafkaesque Koffka","3.2.5","0","None","NA","NA","NA","NA","return","None","989","NA","NA","NA","NA","212976","989","2","legacy","1024","2","48000","-16","AB_m21","156","even","NW_S_COMP","FANFUL","1965","382104","380404","377420","214950","NA","NA","NA","NA","377417","380901","NA","379904","NA","379897","382094","1974","382304","NA","NA","381104","1965","1965","381495","379896","1965","381104","382304","morph21_Oliver/Morris","32","37046","46","yes","1280","6"
"250","70.2127659574","70.2127659574","803.574468085","803.574468085","black","no","xpyriment","legacy","legacy","0","208","NA","uniform","59968","1000","0.0166755602988","1","undefined","1","0","46","46","46","0","46","46","46","NA","46","46","0","46","NA","46","46","0","46","NA","46","NA","46","0","0","46","46","0","46","46","47","z","01/31/19 12:49:37","The main experiment item","yes","FIN__AB__M21__7%3A10%3A17.osexp","C:\Users\ERP Testing Room\Desktop\Joanna\morph21","no","mono","no","18","no","white","no","yes","1080","legacy","46","46","C:/Users/ERP Testing Room/Desktop/Joanna/morph21/subject-156.csv","xpyriment","Kafkaesque Koffka","3.2.5","0","z","NA","NA","NA","NA","return","z","722","NA","NA","NA","NA","212976","722","2","legacy","1024","2","48000","-16","AB_m21","156","even","FILL_NW","PLAODS","1965","385187","383537","377420","214950","NA","NA","NA","NA","385182","384034","NA","383037","NA","383033","385182","1974","385437","NA","NA","384187","1965","1965","384587","383033","1965","384187","385437","morph21_Oliver/Morris","33","37768","47","yes","1280","37"
"300","70.8333333333","70.8333333333","800.375","800.375","black","no","xpyriment","legacy","legacy","0","207","NA","uniform","69301","1000","0.0144298062077","1","undefined","1","0","47","47","47","0","47","47","47","NA","47","47","0","47","NA","47","47","0","47","NA","47","NA","47","0","0","47","47","0","47","47","48","/","01/31/19 12:49:37","The main experiment item","yes","FIN__AB__M21__7%3A10%3A17.osexp","C:\Users\ERP Testing Room\Desktop\Joanna\morph21","no","mono","no","18","no","white","no","yes","1080","legacy","47","47","C:/Users/ERP Testing Room/Desktop/Joanna/morph21/subject-156.csv","xpyriment","Kafkaesque Koffka","3.2.5","0","/","NA","NA","NA","NA","return","/","650","NA","NA","NA","NA","212976","650","2","legacy","1024","2","48000","-16","AB_m21","156","even","FILL_W","BLUNT","1965","389872","386679","388363","214950","NA","NA","NA","NA","388360","387176","NA","386179","NA","386170","388360","1974","390172","NA","NA","387371","1965","1965","387762","386170","1965","387371","390172","morph21_Oliver/Morris","34","38418","48","yes","1280","4"
"300","69.387755102","69.387755102","804.224489796","804.224489796","black","no","xpyriment","legacy","legacy","0","204","NA","uniform","52076","1000","0.0192027037407","0","undefined","0","0","48","48","48","0","48","48","48","NA","48","48","0","48","NA","48","48","0","48","NA","48","NA","48","0","0","48","48","0","48","48","49","z","01/31/19 12:49:37","The main experiment item","yes","FIN__AB__M21__7%3A10%3A17.osexp","C:\Users\ERP Testing Room\Desktop\Joanna\morph21","no","mono","no","18","no","white","no","yes","1080","legacy","48","48","C:/Users/ERP Testing Room/Desktop/Joanna/morph21/subject-156.csv","xpyriment","Kafkaesque Koffka","3.2.5","0","None","NA","NA","NA","NA","return","None","989","NA","NA","NA","NA","212976","989","2","legacy","1024","2","48000","-16","AB_m21","156","even","NW_L_COMP","FELLOWOUS","1965","392972","391322","388363","214950","NA","NA","NA","NA","388360","391819","NA","390822","NA","390816","392969","1974","393272","NA","NA","391980","1965","1965","392372","390816","1965","391980","393272","morph21_Oliver/Morris","34","39407","49","yes","1280","17"
"200","70","70","805.62","805.62","black","no","xpyriment","legacy","legacy","0","206","NA","uniform","57354","1000","0.0174355755483","1","undefined","1","0","49","49","49","0","49","49","49","NA","49","49","0","49","NA","49","49","0","49","NA","49","NA","49","0","0","49","49","0","49","49","50","z","01/31/19 12:49:37","The main experiment item","yes","FIN__AB__M21__7%3A10%3A17.osexp","C:\Users\ERP Testing Room\Desktop\Joanna\morph21","no","mono","no","18","no","white","no","yes","1080","legacy","49","49","C:/Users/ERP Testing Room/Desktop/Joanna/morph21/subject-156.csv","xpyriment","Kafkaesque Koffka","3.2.5","0","z","NA","NA","NA","NA","return","z","874","NA","NA","NA","NA","212976","874","2","legacy","1024","2","48000","-16","AB_m21","156","even","NW_L_SIMP","GROWILT","1965","396164","394505","388363","214950","NA","NA","NA","NA","396156","395002","NA","394005","NA","393998","396156","1974","396364","NA","NA","395164","1965","1965","395555","393998","1965","395164","396364","morph21_Oliver/Morris","35","40281","50","yes","1280","20"
"200","70.5882352941","70.5882352941","804.215686275","804.215686275","black","no","xpyriment","legacy","legacy","0","208","NA","uniform","57049","1000","0.0175287910393","1","undefined","1","0","50","50","50","0","50","50","50","NA","50","50","0","50","NA","50","50","0","50","NA","50","NA","50","0","0","50","50","0","50","50","51","z","01/31/19 12:49:37","The main experiment item","yes","FIN__AB__M21__7%3A10%3A17.osexp","C:\Users\ERP Testing Room\Desktop\Joanna\morph21","no","mono","no","18","no","white","no","yes","1080","legacy","50","50","C:/Users/ERP Testing Room/Desktop/Joanna/morph21/subject-156.csv","xpyriment","Kafkaesque Koffka","3.2.5","0","z","NA","NA","NA","NA","return","z","734","NA","NA","NA","NA","212976","734","2","legacy","1024","2","48000","-16","AB_m21","156","even","FILL_NW","BROUPS","1965","400747","397572","399239","214950","NA","NA","NA","NA","399232","398069","NA","397072","NA","397063","399232","1974","400947","NA","NA","398239","1965","1965","398630","397063","1965","398239","400947","morph21_Oliver/Morris","36","41015","51","yes","1280","4"
"300","71.1538461538","71.1538461538","807.115384615","807.115384615","black","no","xpyriment","legacy","legacy","0","206","NA","uniform","56321","1000","0.0177553665595","1","undefined","1","0","51","51","51","0","51","51","51","NA","51","51","0","51","NA","51","51","0","51","NA","51","NA","51","0","0","51","51","0","51","51","52","z","01/31/19 12:49:37","The main experiment item","yes","FIN__AB__M21__7%3A10%3A17.osexp","C:\Users\ERP Testing Room\Desktop\Joanna\morph21","no","mono","no","18","no","white","no","yes","1080","legacy","51","51","C:/Users/ERP Testing Room/Desktop/Joanna/morph21/subject-156.csv","xpyriment","Kafkaesque Koffka","3.2.5","0","z","NA","NA","NA","NA","return","z","955","NA","NA","NA","NA","212976","955","2","legacy","1024","2","48000","-16","AB_m21","156","even","NW_L_SIMP","BANDADY","1965","403714","402022","399239","214950","NA","NA","NA","NA","403705","402519","NA","401522","NA","401512","403705","1974","404014","NA","NA","402714","1965","1965","403106","401512","1965","402714","404014","morph21_Oliver/Morris","37","41970","52","yes","1280","3"
"350","71.6981132075","71.6981132075","800.981132075","800.981132075","black","no","xpyriment","legacy","legacy","0","207","NA","uniform","69831","1000","0.0143202875514","1","undefined","1","0","52","52","52","0","52","52","52","NA","52","52","0","52","NA","52","52","0","52","NA","52","NA","52","0","0","52","52","0","52","52","53","/","01/31/19 12:49:37","The main experiment item","yes","FIN__AB__M21__7%3A10%3A17.osexp","C:\Users\ERP Testing Room\Desktop\Joanna\morph21","no","mono","no","18","no","white","no","yes","1080","legacy","52","52","C:/Users/ERP Testing Room/Desktop/Joanna/morph21/subject-156.csv","xpyriment","Kafkaesque Koffka","3.2.5","0","/","NA","NA","NA","NA","return","/","482","NA","NA","NA","NA","212976","482","2","legacy","1024","2","48000","-16","AB_m21","156","even","FILL_W","LIFT","1965","406932","405256","399239","214950","NA","NA","NA","NA","406928","405753","NA","404756","NA","404747","406928","1974","407282","NA","NA","405932","1965","1965","406332","404747","1965","405932","407282","morph21_Oliver/Morris","38","42452","53","yes","1280","39"
"300","72.2222222222","72.2222222222","795.648148148","795.648148148","black","no","xpyriment","legacy","legacy","0","202","NA","uniform","74888","1000","0.0133532742228","1","undefined","1","0","53","53","53","0","53","53","53","NA","53","53","0","53","NA","53","53","0","53","NA","53","NA","53","0","0","53","53","0","53","53","54","/","01/31/19 12:49:37","The main experiment item","yes","FIN__AB__M21__7%3A10%3A17.osexp","C:\Users\ERP Testing Room\Desktop\Joanna\morph21","no","mono","no","18","no","white","no","yes","1080","legacy","53","53","C:/Users/ERP Testing Room/Desktop/Joanna/morph21/subject-156.csv","xpyriment","Kafkaesque Koffka","3.2.5","0","/","NA","NA","NA","NA","return","/","513","NA","NA","NA","NA","212976","513","2","legacy","1024","2","48000","-16","AB_m21","156","even","CW_L","DOUBTFUL","1965","411657","408490","410149","214950","NA","NA","NA","NA","410139","408987","NA","407990","NA","407983","410139","1974","411957","NA","NA","409149","1965","1965","409540","407983","1965","409149","411957","morph21_Oliver/Morris","39","42965","54","yes","1280","21"
"400","72.7272727273","72.7272727273","796.763636364","796.763636364","black","no","xpyriment","legacy","legacy","0","207","NA","uniform","57504","1000","0.0173900946021","1","undefined","1","0","54","54","54","0","54","54","54","NA","54","54","0","54","NA","54","54","0","54","NA","54","NA","54","0","0","54","54","0","54","54","55","/","01/31/19 12:49:37","The main experiment item","yes","FIN__AB__M21__7%3A10%3A17.osexp","C:\Users\ERP Testing Room\Desktop\Joanna\morph21","no","mono","no","18","no","white","no","yes","1080","legacy","54","54","C:/Users/ERP Testing Room/Desktop/Joanna/morph21/subject-156.csv","xpyriment","Kafkaesque Koffka","3.2.5","0","/","NA","NA","NA","NA","return","/","857","NA","NA","NA","NA","212976","857","2","legacy","1024","2","48000","-16","AB_m21","156","even","FILL_W","DRUNK","1965","414749","413082","410149","214950","NA","NA","NA","NA","414746","413579","NA","412582","NA","412576","414746","1974","415149","NA","NA","413757","1965","1965","414149","412575","1965","413757","415149","morph21_Oliver/Morris","40","43822","55","yes","1280","19"
"300","71.4285714286","71.4285714286","800.178571429","800.178571429","black","no","xpyriment","legacy","legacy","0","206","NA","uniform","53106","1000","0.0188302640003","0","undefined","0","0","55","55","55","0","55","55","55","NA","55","55","0","55","NA","55","55","0","55","NA","55","NA","55","0","0","55","55","0","55","55","56","z","01/31/19 12:49:37","The main experiment item","yes","FIN__AB__M21__7%3A10%3A17.osexp","C:\Users\ERP Testing Room\Desktop\Joanna\morph21","no","mono","no","18","no","white","no","yes","1080","legacy","55","55","C:/Users/ERP Testing Room/Desktop/Joanna/morph21/subject-156.csv","xpyriment","Kafkaesque Koffka","3.2.5","0","None","NA","NA","NA","NA","return","None","988","NA","NA","NA","NA","212976","988","2","legacy","1024","2","48000","-16","AB_m21","156","even","NW_L_SIMP","ELBOWILM","1965","417999","416341","410149","214950","NA","NA","NA","NA","414746","416838","NA","415841","NA","415830","417995","1974","418299","NA","NA","417007","1965","1965","417399","415830","1965","417007","418299","morph21_Oliver/Morris","40","44810","56","yes","1280","10"
"400","71.9298245614","71.9298245614","796.228070175","796.228070175","black","no","xpyriment","legacy","legacy","0","202","NA","uniform","67064","1000","0.0149111296672","1","undefined","1","0","56","56","56","0","56","56","56","NA","56","56","0","56","NA","56","56","0","56","NA","56","NA","56","0","0","56","56","0","56","56","57","/","01/31/19 12:49:37","The main experiment item","yes","FIN__AB__M21__7%3A10%3A17.osexp","C:\Users\ERP Testing Room\Desktop\Joanna\morph21","no","mono","no","18","no","white","no","yes","1080","legacy","56","56","C:/Users/ERP Testing Room/Desktop/Joanna/morph21/subject-156.csv","xpyriment","Kafkaesque Koffka","3.2.5","0","/","NA","NA","NA","NA","return","/","575","NA","NA","NA","NA","212976","575","2","legacy","1024","2","48000","-16","AB_m21","156","even","CW_L","CLEANER","1965","422683","419499","421174","214950","NA","NA","NA","NA","421168","419996","NA","418999","NA","418993","421168","1974","423083","NA","NA","420174","1965","1965","420566","418993","1965","420174","423083","morph21_Oliver/Morris","41","45385","57","yes","1280","15"
"400","72.4137931034","72.4137931034","793.310344828","793.310344828","black","no","xpyriment","legacy","legacy","0","201","NA","uniform","71083","1000","0.0140680612805","1","undefined","1","0","57","57","57","0","57","57","57","NA","57","57","0","57","NA","57","57","0","57","NA","57","NA","57","0","0","57","57","0","57","57","58","/","01/31/19 12:49:37","The main experiment item","yes","FIN__AB__M21__7%3A10%3A17.osexp","C:\Users\ERP Testing Room\Desktop\Joanna\morph21","no","mono","no","18","no","white","no","yes","1080","legacy","57","57","C:/Users/ERP Testing Room/Desktop/Joanna/morph21/subject-156.csv","xpyriment","Kafkaesque Koffka","3.2.5","0","/","NA","NA","NA","NA","return","/","627","NA","NA","NA","NA","212976","627","2","legacy","1024","2","48000","-16","AB_m21","156","even","CW_S","WIDOWED","1965","425859","424209","421174","214950","NA","NA","NA","NA","425852","424706","NA","423709","NA","423704","425852","1974","426259","NA","NA","424859","1965","1965","425250","423704","1965","424859","426259","morph21_Oliver/Morris","42","46012","58","yes","1280","7"
"200","72.8813559322","72.8813559322","791.406779661","791.406779661","black","no","xpyriment","legacy","legacy","0","207","NA","uniform","64867","1000","0.0154161592181","1","undefined","1","0","58","58","58","0","58","58","58","NA","58","58","0","58","NA","58","58","0","58","NA","58","NA","58","0","0","58","58","0","58","58","59","/","01/31/19 12:49:37","The main experiment item","yes","FIN__AB__M21__7%3A10%3A17.osexp","C:\Users\ERP Testing Room\Desktop\Joanna\morph21","no","mono","no","18","no","white","no","yes","1080","legacy","58","58","C:/Users/ERP Testing Room/Desktop/Joanna/morph21/subject-156.csv","xpyriment","Kafkaesque Koffka","3.2.5","0","/","NA","NA","NA","NA","return","/","681","NA","NA","NA","NA","212976","681","2","legacy","1024","2","48000","-16","AB_m21","156","even","FILL_W","STALK","1965","429117","427442","421174","214950","NA","NA","NA","NA","429109","427939","NA","426942","NA","426931","429109","1974","429317","NA","NA","428117","1965","1965","428509","426931","1965","428117","429317","morph21_Oliver/Morris","43","46693","59","yes","1280","27"
"250","71.6666666667","71.6666666667","794.733333333","794.733333333","black","no","xpyriment","legacy","legacy","0","201","NA","uniform","56043","1000","0.017843441643","0","undefined","0","0","59","59","59","0","59","59","59","NA","59","59","0","59","NA","59","59","0","59","NA","59","NA","59","0","0","59","59","0","59","59","60","/","01/31/19 12:49:37","The main experiment item","yes","FIN__AB__M21__7%3A10%3A17.osexp","C:\Users\ERP Testing Room\Desktop\Joanna\morph21","no","mono","no","18","no","white","no","yes","1080","legacy","59","59","C:/Users/ERP Testing Room/Desktop/Joanna/morph21/subject-156.csv","xpyriment","Kafkaesque Koffka","3.2.5","0","None","NA","NA","NA","NA","return","None","991","NA","NA","NA","NA","212976","991","2","legacy","1024","2","48000","-16","AB_m21","156","even","CW_S","HUGELY","1965","433734","430509","432226","214950","NA","NA","NA","NA","429109","431006","NA","430009","NA","429999","432218","1974","433984","NA","NA","431226","1965","1965","431617","429999","1965","431226","433984","morph21_Oliver/Morris","43","47684","60","yes","1280","35"
"400","70.4918032787","70.4918032787","798","798","black","no","xpyriment","legacy","legacy","0","202","NA","uniform","56547","1000","0.017684404124","0","undefined","0","0","60","60","60","0","60","60","60","NA","60","60","0","60","NA","60","60","0","60","NA","60","NA","60","0","0","60","60","0","60","60","61","/","01/31/19 12:49:37","The main experiment item","yes","FIN__AB__M21__7%3A10%3A17.osexp","C:\Users\ERP Testing Room\Desktop\Joanna\morph21","no","mono","no","18","no","white","no","yes","1080","legacy","60","60","C:/Users/ERP Testing Room/Desktop/Joanna/morph21/subject-156.csv","xpyriment","Kafkaesque Koffka","3.2.5","0","None","NA","NA","NA","NA","return","None","994","NA","NA","NA","NA","212976","994","2","legacy","1024","2","48000","-16","AB_m21","156","even","CW_L","COOLING","1965","436709","435042","432226","214950","NA","NA","NA","NA","429109","435539","NA","434542","NA","434536","436704","1974","437109","NA","NA","435709","1965","1965","436101","434536","1965","435709","437109","morph21_Oliver/Morris","43","48678","61","yes","1280","24"
"400","69.3548387097","69.3548387097","801.096774194","801.096774194","black","no","xpyriment","legacy","legacy","0","202","NA","uniform","53840","1000","0.018573551263","0","undefined","0","0","61","61","61","0","61","61","61","NA","61","61","0","61","NA","61","61","0","61","NA","61","NA","61","0","0","61","61","0","61","61","62","/","01/31/19 12:49:37","The main experiment item","yes","FIN__AB__M21__7%3A10%3A17.osexp","C:\Users\ERP Testing Room\Desktop\Joanna\morph21","no","mono","no","18","no","white","no","yes","1080","legacy","61","61","C:/Users/ERP Testing Room/Desktop/Joanna/morph21/subject-156.csv","xpyriment","Kafkaesque Koffka","3.2.5","0","None","NA","NA","NA","NA","return","None","990","NA","NA","NA","NA","212976","990","2","legacy","1024","2","48000","-16","AB_m21","156","even","CW_L","WRONGLY","1965","439943","438251","432226","214950","NA","NA","NA","NA","429109","438748","NA","437743","NA","437737","439933","1974","440343","NA","NA","438943","1965","1965","439334","437737","1965","438942","440343","morph21_Oliver/Morris","43","49668","62","yes","1280","37"
"400","69.8412698413","69.8412698413","797.619047619","797.619047619","black","no","xpyriment","legacy","legacy","0","202","NA","uniform","71755","1000","0.0139363110585","1","undefined","1","0","62","62","62","0","62","62","62","NA","62","62","0","62","NA","62","62","0","62","NA","62","NA","62","0","0","62","62","0","62","62","63","/","01/31/19 12:49:37","The main experiment item","yes","FIN__AB__M21__7%3A10%3A17.osexp","C:\Users\ERP Testing Room\Desktop\Joanna\morph21","no","mono","no","18","no","white","no","yes","1080","legacy","62","62","C:/Users/ERP Testing Room/Desktop/Joanna/morph21/subject-156.csv","xpyriment","Kafkaesque Koffka","3.2.5","0","/","NA","NA","NA","NA","return","/","582","NA","NA","NA","NA","212976","582","2","legacy","1024","2","48000","-16","AB_m21","156","even","CW_L","CLOUDLESS","1965","444661","441469","443152","214950","NA","NA","NA","NA","443148","441966","NA","440969","NA","440962","443148","1974","445061","NA","NA","442160","1965","1965","442552","440962","1965","442160","445061","morph21_Oliver/Morris","44","50250","63","yes","1280","33"
"350","68.75","68.75","800.6875","800.6875","black","no","xpyriment","legacy","legacy","0","202","NA","uniform","52867","1000","0.018915391454","0","undefined","0","0","63","63","63","0","63","63","63","NA","63","63","0","63","NA","63","63","0","63","NA","63","NA","63","0","0","63","63","0","63","63","64","/","01/31/19 12:49:37","The main experiment item","yes","FIN__AB__M21__7%3A10%3A17.osexp","C:\Users\ERP Testing Room\Desktop\Joanna\morph21","no","mono","no","18","no","white","no","yes","1080","legacy","63","63","C:/Users/ERP Testing Room/Desktop/Joanna/morph21/subject-156.csv","xpyriment","Kafkaesque Koffka","3.2.5","0","None","NA","NA","NA","NA","return","None","994","NA","NA","NA","NA","212976","994","2","legacy","1024","2","48000","-16","AB_m21","156","even","CW_L","GUILELESS","1965","447886","446211","443152","214950","NA","NA","NA","NA","443148","446708","NA","445711","NA","445701","447880","1974","448236","NA","NA","446886","1965","1965","447277","445701","1965","446886","448236","morph21_Oliver/Morris","44","51244","64","yes","1280","31"
"400","69.2307692308","69.2307692308","800.107692308","800.107692308","black","no","xpyriment","legacy","legacy","0","208","NA","uniform","60547","1000","0.0165160949345","1","undefined","1","0","64","64","64","0","64","64","64","NA","64","64","0","64","NA","64","64","0","64","NA","64","NA","64","0","0","64","64","0","64","64","65","z","01/31/19 12:49:37","The main experiment item","yes","FIN__AB__M21__7%3A10%3A17.osexp","C:\Users\ERP Testing Room\Desktop\Joanna\morph21","no","mono","no","18","no","white","no","yes","1080","legacy","64","64","C:/Users/ERP Testing Room/Desktop/Joanna/morph21/subject-156.csv","xpyriment","Kafkaesque Koffka","3.2.5","0","z","NA","NA","NA","NA","return","z","763","NA","NA","NA","NA","212976","763","2","legacy","1024","2","48000","-16","AB_m21","156","even","FILL_NW","DROES","1965","451194","449502","443152","214950","NA","NA","NA","NA","451191","449999","NA","449002","NA","448992","451191","1974","451594","NA","NA","450202","1965","1965","450594","448992","1965","450202","451594","morph21_Oliver/Morris","45","52007","65","yes","1280","17"
"400","68.1818181818","68.1818181818","802.984848485","802.984848485","black","no","xpyriment","legacy","legacy","0","206","NA","uniform","53439","1000","0.0187129250173","0","undefined","0","0","65","65","65","0","65","65","65","NA","65","65","0","65","NA","65","65","0","65","NA","65","NA","65","0","0","65","65","0","65","65","66","z","01/31/19 12:49:37","The main experiment item","yes","FIN__AB__M21__7%3A10%3A17.osexp","C:\Users\ERP Testing Room\Desktop\Joanna\morph21","no","mono","no","18","no","white","no","yes","1080","legacy","65","65","C:/Users/ERP Testing Room/Desktop/Joanna/morph21/subject-156.csv","xpyriment","Kafkaesque Koffka","3.2.5","0","None","NA","NA","NA","NA","return","None","990","NA","NA","NA","NA","212976","990","2","legacy","1024","2","48000","-16","AB_m21","156","even","NW_L_SIMP","VALIDEL","1965","456036","452836","454528","214950","NA","NA","NA","NA","451191","453333","NA","452336","NA","452331","454518","1974","456436","NA","NA","453528","1965","1965","453919","452331","1965","453528","456436","morph21_Oliver/Morris","45","52997","66","yes","1280","23"
"300","68.6567164179","68.6567164179","799.492537313","799.492537313","black","no","xpyriment","legacy","legacy","0","207","NA","uniform","65794","1000","0.0151989543119","1","undefined","1","0","66","66","66","0","66","66","66","NA","66","66","0","66","NA","66","66","0","66","NA","66","NA","66","0","0","66","66","0","66","66","67","/","01/31/19 12:49:37","The main experiment item","yes","FIN__AB__M21__7%3A10%3A17.osexp","C:\Users\ERP Testing Room\Desktop\Joanna\morph21","no","mono","no","18","no","white","no","yes","1080","legacy","66","66","C:/Users/ERP Testing Room/Desktop/Joanna/morph21/subject-156.csv","xpyriment","Kafkaesque Koffka","3.2.5","0","/","NA","NA","NA","NA","return","/","569","NA","NA","NA","NA","212976","569","2","legacy","1024","2","48000","-16","AB_m21","156","even","FILL_W","BALD","1965","459237","457561","454528","214950","NA","NA","NA","NA","459231","458058","NA","457061","NA","457054","459231","1974","459537","NA","NA","458237","1965","1965","458629","457053","1965","458237","459537","morph21_Oliver/Morris","46","53566","67","yes","1280","3"
"250","67.6470588235","67.6470588235","802.279411765","802.279411765","black","no","xpyriment","legacy","legacy","0","202","NA","uniform","50460","1000","0.0198176773682","0","undefined","0","0","67","67","67","0","67","67","67","NA","67","67","0","67","NA","67","67","0","67","NA","67","NA","67","0","0","67","67","0","67","67","68","/","01/31/19 12:49:37","The main experiment item","yes","FIN__AB__M21__7%3A10%3A17.osexp","C:\Users\ERP Testing Room\Desktop\Joanna\morph21","no","mono","no","18","no","white","no","yes","1080","legacy","67","67","C:/Users/ERP Testing Room/Desktop/Joanna/morph21/subject-156.csv","xpyriment","Kafkaesque Koffka","3.2.5","0","None","NA","NA","NA","NA","return","None","989","NA","NA","NA","NA","212976","989","2","legacy","1024","2","48000","-16","AB_m21","156","even","CW_L","LAUGHING","1965","462379","460704","454528","214950","NA","NA","NA","NA","459231","461201","NA","460195","NA","460189","462368","1974","462629","NA","NA","461379","1965","1965","461770","460189","1965","461379","462629","morph21_Oliver/Morris","46","54555","68","yes","1280","27"
"400","66.6666666667","66.6666666667","805.014492754","805.014492754","black","no","xpyriment","legacy","legacy","0","208","NA","uniform","51279","1000","0.019501160319","0","undefined","0","0","68","68","68","0","68","68","68","NA","68","68","0","68","NA","68","68","0","68","NA","68","NA","68","0","0","68","68","0","68","68","69","z","01/31/19 12:49:37","The main experiment item","yes","FIN__AB__M21__7%3A10%3A17.osexp","C:\Users\ERP Testing Room\Desktop\Joanna\morph21","no","mono","no","18","no","white","no","yes","1080","legacy","68","68","C:/Users/ERP Testing Room/Desktop/Joanna/morph21/subject-156.csv","xpyriment","Kafkaesque Koffka","3.2.5","0","None","NA","NA","NA","NA","return","None","991","NA","NA","NA","NA","212976","991","2","legacy","1024","2","48000","-16","AB_m21","156","even","FILL_NW","BUTE","1965","467021","463829","465512","214950","NA","NA","NA","NA","459231","464326","NA","463329","NA","463323","465503","1974","467421","NA","NA","464512","1965","1965","464904","463323","1965","464512","467421","morph21_Oliver/Morris","46","55546","69","yes","1280","5"
"400","65.7142857143","65.7142857143","807.7","807.7","black","no","xpyriment","legacy","legacy","0","208","NA","uniform","53703","1000","0.0186209336536","0","undefined","0","0","69","69","69","0","69","69","69","NA","69","69","0","69","NA","69","69","0","69","NA","69","NA","69","0","0","69","69","0","69","69","70","z","01/31/19 12:49:37","The main experiment item","yes","FIN__AB__M21__7%3A10%3A17.osexp","C:\Users\ERP Testing Room\Desktop\Joanna\morph21","no","mono","no","18","no","white","no","yes","1080","legacy","69","69","C:/Users/ERP Testing Room/Desktop/Joanna/morph21/subject-156.csv","xpyriment","Kafkaesque Koffka","3.2.5","0","None","NA","NA","NA","NA","return","None","993","NA","NA","NA","NA","212976","993","2","legacy","1024","2","48000","-16","AB_m21","156","even","FILL_NW","VELT","1965","470163","468496","465512","214950","NA","NA","NA","NA","459231","468993","NA","467987","NA","467982","470157","1974","470563","NA","NA","469163","1965","1965","469554","467982","1965","469162","470563","morph21_Oliver/Morris","46","56539","70","yes","1280","46"
"300","66.1971830986","66.1971830986","806.098591549","806.098591549","black","no","xpyriment","legacy","legacy","0","205","NA","uniform","65232","1000","0.0153298994359","1","undefined","1","0","70","70","70","0","70","70","70","NA","70","70","0","70","NA","70","70","0","70","NA","70","NA","70","0","0","70","70","0","70","70","71","z","01/31/19 12:49:37","The main experiment item","yes","FIN__AB__M21__7%3A10%3A17.osexp","C:\Users\ERP Testing Room\Desktop\Joanna\morph21","no","mono","no","18","no","white","no","yes","1080","legacy","70","70","C:/Users/ERP Testing Room/Desktop/Joanna/morph21/subject-156.csv","xpyriment","Kafkaesque Koffka","3.2.5","0","z","NA","NA","NA","NA","return","z","694","NA","NA","NA","NA","212976","694","2","legacy","1024","2","48000","-16","AB_m21","156","even","NW_S_SIMP","WARNODY","1965","473471","471788","465512","214950","NA","NA","NA","NA","473468","472285","NA","471288","NA","471281","473468","1974","473771","NA","NA","472479","1965","1965","472871","471281","1965","472479","473771","morph21_Oliver/Morris","47","57233","71","yes","1280","12"
"400","66.6666666667","66.6666666667","805.680555556","805.680555556","black","no","xpyriment","legacy","legacy","0","208","NA","uniform","62162","1000","0.0160869984878","1","undefined","1","0","71","71","71","0","71","71","71","NA","71","71","0","71","NA","71","71","0","71","NA","71","NA","71","0","0","71","71","0","71","71","72","z","01/31/19 12:49:37","The main experiment item","yes","FIN__AB__M21__7%3A10%3A17.osexp","C:\Users\ERP Testing Room\Desktop\Joanna\morph21","no","mono","no","18","no","white","no","yes","1080","legacy","71","71","C:/Users/ERP Testing Room/Desktop/Joanna/morph21/subject-156.csv","xpyriment","Kafkaesque Koffka","3.2.5","0","z","NA","NA","NA","NA","return","z","776","NA","NA","NA","NA","212976","776","2","legacy","1024","2","48000","-16","AB_m21","156","even","FILL_NW","FROES","1965","478131","474938","476622","214950","NA","NA","NA","NA","476613","475435","NA","474438","NA","474430","476613","1974","478531","NA","NA","475622","1965","1965","476014","474430","1965","475622","478531","morph21_Oliver/Morris","48","58009","72","yes","1280","21"
"400","67.1232876712","67.1232876712","803.890410959","803.890410959","black","no","xpyriment","legacy","legacy","0","205","NA","uniform","66458","1000","0.0150470974149","1","undefined","1","0","72","72","72","0","72","72","72","NA","72","72","0","72","NA","72","72","0","72","NA","72","NA","72","0","0","72","72","0","72","72","73","z","01/31/19 12:49:37","The main experiment item","yes","FIN__AB__M21__7%3A10%3A17.osexp","C:\Users\ERP Testing Room\Desktop\Joanna\morph21","no","mono","no","18","no","white","no","yes","1080","legacy","72","72","C:/Users/ERP Testing Room/Desktop/Joanna/morph21/subject-156.csv","xpyriment","Kafkaesque Koffka","3.2.5","0","z","NA","NA","NA","NA","return","z","675","NA","NA","NA","NA","212976","675","2","legacy","1024","2","48000","-16","AB_m21","156","even","NW_S_SIMP","SCHEMENELS","1965","481339","479656","476622","214950","NA","NA","NA","NA","481334","480153","NA","479156","NA","479148","481334","1974","481739","NA","NA","480339","1965","1965","480739","479148","1965","480339","481739","morph21_Oliver/Morris","49","58684","73","yes","1280","15"
"250","67.5675675676","67.5675675676","800.216216216","800.216216216","black","no","xpyriment","legacy","legacy","0","202","NA","uniform","69525","1000","0.0143833153542","1","undefined","1","0","73","73","73","0","73","73","73","NA","73","73","0","73","NA","73","73","0","73","NA","73","NA","73","0","0","73","73","0","73","73","74","/","01/31/19 12:49:37","The main experiment item","yes","FIN__AB__M21__7%3A10%3A17.osexp","C:\Users\ERP Testing Room\Desktop\Joanna\morph21","no","mono","no","18","no","white","no","yes","1080","legacy","73","73","C:/Users/ERP Testing Room/Desktop/Joanna/morph21/subject-156.csv","xpyriment","Kafkaesque Koffka","3.2.5","0","/","NA","NA","NA","NA","return","/","532","NA","NA","NA","NA","212976","532","2","legacy","1024","2","48000","-16","AB_m21","156","even","CW_L","DREAMER","1965","484706","482964","476622","214950","NA","NA","NA","NA","484700","483461","NA","482464","NA","482458","484700","1974","484956","NA","NA","483706","1965","1965","484097","482458","1965","483706","484956","morph21_Oliver/Morris","50","59216","74","yes","1280","12"
"250","68","68","795.533333333","795.533333333","black","no","xpyriment","legacy","legacy","0","207","NA","uniform","76981","1000","0.0129902183656","undefined","undefined","1","0","74","74","74","0","74","74","74","NA","74","74","0","74","NA","74","74","0","74","NA","74","NA","74","0","0","74","74","0","74","74","75","/","01/31/19 12:49:37","The main experiment item","yes","FIN__AB__M21__7%3A10%3A17.osexp","C:\Users\ERP Testing Room\Desktop\Joanna\morph21","no","mono","no","18","no","white","no","yes","1080","legacy","74","74","C:/Users/ERP Testing Room/Desktop/Joanna/morph21/subject-156.csv","xpyriment","Kafkaesque Koffka","3.2.5","0","space","space","NA","NA","NA","return","/","33722","33722","NA","NA","NA","212976","449","2","legacy","1024","2","48000","-16","AB_m21","156","even","FILL_W","FIERCE","1965","489264","486073","487756","214950","489523","NA","NA","NA","487747","486570","NA","485573","NA","485568","487747","1974","523247","NA","NA","486756","1965","1965","487148","485568","1965","486756","489515","morph21_Oliver/Morris","51","59665","75","yes","1280","24"
"250","68.4210526316","68.4210526316","791.973684211","791.973684211","black","no","xpyriment","legacy","legacy","0","207","NA","uniform","70891","1000","0.0141061629826","1","undefined","1","0","75","75","75","0","75","75","75","NA","75","75","0","75","NA","75","75","0","75","NA","75","NA","75","0","0","75","75","0","75","75","76","/","01/31/19 12:49:37","The main experiment item","yes","FIN__AB__M21__7%3A10%3A17.osexp","C:\Users\ERP Testing Room\Desktop\Joanna\morph21","no","mono","no","18","no","white","no","yes","1080","legacy","75","75","C:/Users/ERP Testing Room/Desktop/Joanna/morph21/subject-156.csv","xpyriment","Kafkaesque Koffka","3.2.5","0","/","space","NA","NA","NA","return","/","525","33722","NA","NA","NA","212976","525","2","legacy","1024","2","48000","-16","AB_m21","156","even","FILL_W","SHIP","1965","525968","524293","487756","214950","489523","NA","NA","NA","525965","524790","NA","523784","NA","523777","525965","1974","526218","NA","NA","524976","1965","1965","525368","523777","1965","524976","526218","morph21_Oliver/Morris","52","60190","76","yes","1280","37"
"250","68.8311688312","68.8311688312","788.454545455","788.454545455","black","no","xpyriment","legacy","legacy","0","207","NA","uniform","75620","1000","0.0132240148109","1","undefined","1","0","76","76","76","0","76","76","76","NA","76","76","0","76","NA","76","76","0","76","NA","76","NA","76","0","0","76","76","0","76","76","77","/","01/31/19 12:49:37","The main experiment item","yes","FIN__AB__M21__7%3A10%3A17.osexp","C:\Users\ERP Testing Room\Desktop\Joanna\morph21","no","mono","no","18","no","white","no","yes","1080","legacy","76","76","C:/Users/ERP Testing Room/Desktop/Joanna/morph21/subject-156.csv","xpyriment","Kafkaesque Koffka","3.2.5","0","/","space","NA","NA","NA","return","/","521","33722","NA","NA","NA","212976","521","2","legacy","1024","2","48000","-16","AB_m21","156","even","FILL_W","PREACH","1965","529069","527418","487756","214950","489523","NA","NA","NA","529062","527915","NA","526918","NA","526907","529062","1974","529319","NA","NA","528069","1965","1965","528461","526907","1965","528069","529319","morph21_Oliver/Morris","53","60711","77","yes","1280","7"
"400","69.2307692308","69.2307692308","786.525641026","786.525641026","black","no","xpyriment","legacy","legacy","0","202","NA","uniform","70275","1000","0.014229811455","1","undefined","1","0","77","77","77","0","77","77","77","NA","77","77","0","77","NA","77","77","0","77","NA","77","NA","77","0","0","77","77","0","77","77","78","/","01/31/19 12:49:37","The main experiment item","yes","FIN__AB__M21__7%3A10%3A17.osexp","C:\Users\ERP Testing Room\Desktop\Joanna\morph21","no","mono","no","18","no","white","no","yes","1080","legacy","77","77","C:/Users/ERP Testing Room/Desktop/Joanna/morph21/subject-156.csv","xpyriment","Kafkaesque Koffka","3.2.5","0","/","space","NA","NA","NA","return","/","638","33722","NA","NA","NA","212976","638","2","legacy","1024","2","48000","-16","AB_m21","156","even","CW_L","DRYNESS","1965","533644","530469","532136","214950","489523","NA","NA","NA","532131","530966","NA","529969","NA","529961","532131","1974","534044","NA","NA","531136","1965","1965","531536","529961","1965","531136","534044","morph21_Oliver/Morris","54","61349","78","yes","1280","42"
"250","69.6202531646","69.6202531646","787.303797468","787.303797468","black","no","xpyriment","legacy","legacy","0","206","NA","uniform","56315","1000","0.0177572582793","1","undefined","1","0","78","78","78","0","78","78","78","NA","78","78","0","78","NA","78","78","0","78","NA","78","NA","78","0","0","78","78","0","78","78","79","z","01/31/19 12:49:37","The main experiment item","yes","FIN__AB__M21__7%3A10%3A17.osexp","C:\Users\ERP Testing Room\Desktop\Joanna\morph21","no","mono","no","18","no","white","no","yes","1080","legacy","78","78","C:/Users/ERP Testing Room/Desktop/Joanna/morph21/subject-156.csv","xpyriment","Kafkaesque Koffka","3.2.5","0","z","space","NA","NA","NA","return","z","848","33722","NA","NA","NA","212976","848","2","legacy","1024","2","48000","-16","AB_m21","156","even","NW_L_SIMP","SMOOTHFIL","1965","536869","535169","532136","214950","489523","NA","NA","NA","536866","535666","NA","534669","NA","534661","536866","1974","537119","NA","NA","535878","1965","1965","536269","534661","1965","535878","537119","morph21_Oliver/Morris","55","62197","79","yes","1280","19"
"300","68.75","68.75","789.875","789.875","black","no","xpyriment","legacy","legacy","0","208","NA","uniform","49500","1000","0.020202020202","0","undefined","0","0","79","79","79","0","79","79","79","NA","79","79","0","79","NA","79","79","0","79","NA","79","NA","79","0","0","79","79","0","79","79","80","z","01/31/19 12:49:37","The main experiment item","yes","FIN__AB__M21__7%3A10%3A17.osexp","C:\Users\ERP Testing Room\Desktop\Joanna\morph21","no","mono","no","18","no","white","no","yes","1080","legacy","79","79","C:/Users/ERP Testing Room/Desktop/Joanna/morph21/subject-156.csv","xpyriment","Kafkaesque Koffka","3.2.5","0","None","space","NA","NA","NA","return","None","993","33722","NA","NA","NA","212976","993","2","legacy","1024","2","48000","-16","AB_m21","156","even","FILL_NW","KEMT","1965","540136","538444","532136","214950","489523","NA","NA","NA","536866","538942","NA","537944","NA","537934","540129","1974","540436","NA","NA","539136","1965","1965","539528","537934","1965","539136","540436","morph21_Oliver/Morris","55","63190","80","yes","1280","32"
"400","69.1358024691","69.1358024691","785.24691358","785.24691358","black","no","xpyriment","legacy","legacy","0","201","NA","uniform","78883","1000","0.0126770026495","1","undefined","1","0","80","80","80","0","80","80","80","NA","80","80","0","80","NA","80","80","0","80","NA","80","NA","80","0","0","80","80","0","80","80","81","/","01/31/19 12:49:37","The main experiment item","yes","FIN__AB__M21__7%3A10%3A17.osexp","C:\Users\ERP Testing Room\Desktop\Joanna\morph21","no","mono","no","18","no","white","no","yes","1080","legacy","80","80","C:/Users/ERP Testing Room/Desktop/Joanna/morph21/subject-156.csv","xpyriment","Kafkaesque Koffka","3.2.5","0","/","space","NA","NA","NA","return","/","415","33722","NA","NA","NA","212976","415","2","legacy","1024","2","48000","-16","AB_m21","156","even","CW_S","DESIGN","1965","544786","541620","543278","214950","489523","NA","NA","NA","543269","542117","NA","541120","NA","541110","543269","1974","545187","NA","NA","542278","1965","1965","542670","541110","1965","542278","545187","morph21_Oliver/Morris","56","63605","81","yes","1280","19"
"350","69.512195122","69.512195122","784.87804878","784.87804878","black","no","xpyriment","legacy","legacy","0","203","NA","uniform","62888","1000","0.0159012848238","1","undefined","1","0","81","81","81","0","81","81","81","NA","81","81","0","81","NA","81","81","0","81","NA","81","NA","81","0","0","81","81","0","81","81","82","z","01/31/19 12:49:37","The main experiment item","yes","FIN__AB__M21__7%3A10%3A17.osexp","C:\Users\ERP Testing Room\Desktop\Joanna\morph21","no","mono","no","18","no","white","no","yes","1080","legacy","81","81","C:/Users/ERP Testing Room/Desktop/Joanna/morph21/subject-156.csv","xpyriment","Kafkaesque Koffka","3.2.5","0","z","space","NA","NA","NA","return","z","755","33722","NA","NA","NA","212976","755","2","legacy","1024","2","48000","-16","AB_m21","156","even","NW_S_COMP","EJECTENCE","1965","547987","546312","543278","214950","489523","NA","NA","NA","547980","546810","NA","545812","NA","545807","547980","1974","548338","NA","NA","546987","1965","1965","547379","545807","1965","546987","548338","morph21_Oliver/Morris","57","64360","82","yes","1280","20"
"350","69.8795180723","69.8795180723","783.807228916","783.807228916","black","no","xpyriment","legacy","legacy","0","208","NA","uniform","64114","1000","0.0155972174564","1","undefined","1","0","82","82","82","0","82","82","82","NA","82","82","0","82","NA","82","82","0","82","NA","82","NA","82","0","0","82","82","0","82","82","83","z","01/31/19 12:49:37","The main experiment item","yes","FIN__AB__M21__7%3A10%3A17.osexp","C:\Users\ERP Testing Room\Desktop\Joanna\morph21","no","mono","no","18","no","white","no","yes","1080","legacy","82","82","C:/Users/ERP Testing Room/Desktop/Joanna/morph21/subject-156.csv","xpyriment","Kafkaesque Koffka","3.2.5","0","z","space","NA","NA","NA","return","z","696","33722","NA","NA","NA","212976","696","2","legacy","1024","2","48000","-16","AB_m21","156","even","FILL_NW","JADS","1965","551246","549579","543278","214950","489523","NA","NA","NA","551241","550076","NA","549079","NA","549073","551241","1974","551596","NA","NA","550246","1965","1965","550646","549073","1965","550246","551596","morph21_Oliver/Morris","58","65056","83","yes","1280","31"
"400","70.2380952381","70.2380952381","783.238095238","783.238095238","black","no","xpyriment","legacy","legacy","0","207","NA","uniform","64981","1000","0.0153891137409","1","undefined","1","0","83","83","83","0","83","83","83","NA","83","83","0","83","NA","83","83","0","83","NA","83","NA","83","0","0","83","83","0","83","83","84","/","01/31/19 12:49:37","The main experiment item","yes","FIN__AB__M21__7%3A10%3A17.osexp","C:\Users\ERP Testing Room\Desktop\Joanna\morph21","no","mono","no","18","no","white","no","yes","1080","legacy","83","83","C:/Users/ERP Testing Room/Desktop/Joanna/morph21/subject-156.csv","xpyriment","Kafkaesque Koffka","3.2.5","0","/","space","NA","NA","NA","return","/","736","33722","NA","NA","NA","212976","736","2","legacy","1024","2","48000","-16","AB_m21","156","even","FILL_W","CEASE","1965","555955","552771","554446","214950","489523","NA","NA","NA","554440","553268","NA","552271","NA","552260","554440","1974","556355","NA","NA","553446","1965","1965","553838","552260","1965","553446","556355","morph21_Oliver/Morris","59","65792","84","yes","1280","18"
"200","70.5882352941","70.5882352941","782.611764706","782.611764706","black","no","xpyriment","legacy","legacy","0","208","NA","uniform","61151","1000","0.0163529623391","1","undefined","1","0","84","84","84","0","84","84","84","NA","84","84","0","84","NA","84","84","0","84","NA","84","NA","84","0","0","84","84","0","84","84","85","z","01/31/19 12:49:37","The main experiment item","yes","FIN__AB__M21__7%3A10%3A17.osexp","C:\Users\ERP Testing Room\Desktop\Joanna\morph21","no","mono","no","18","no","white","no","yes","1080","legacy","84","84","C:/Users/ERP Testing Room/Desktop/Joanna/morph21/subject-156.csv","xpyriment","Kafkaesque Koffka","3.2.5","0","z","space","NA","NA","NA","return","z","730","33722","NA","NA","NA","212976","730","2","legacy","1024","2","48000","-16","AB_m21","156","even","FILL_NW","CINDS","1965","559171","557488","554446","214950","489523","NA","NA","NA","559168","557985","NA","556988","NA","556975","559168","1974","559371","NA","NA","558171","1965","1965","558571","556975","1965","558171","559371","morph21_Oliver/Morris","60","66522","85","yes","1280","6"
"300","70.9302325581","70.9302325581","783.976744186","783.976744186","black","no","xpyriment","legacy","legacy","0","205","NA","uniform","53687","1000","0.0186264831337","1","undefined","1","0","85","85","85","0","85","85","85","NA","85","85","0","85","NA","85","85","0","85","NA","85","NA","85","0","0","85","85","0","85","85","86","z","01/31/19 12:49:37","The main experiment item","yes","FIN__AB__M21__7%3A10%3A17.osexp","C:\Users\ERP Testing Room\Desktop\Joanna\morph21","no","mono","no","18","no","white","no","yes","1080","legacy","85","85","C:/Users/ERP Testing Room/Desktop/Joanna/morph21/subject-156.csv","xpyriment","Kafkaesque Koffka","3.2.5","0","z","space","NA","NA","NA","return","z","900","33722","NA","NA","NA","212976","900","2","legacy","1024","2","48000","-16","AB_m21","156","even","NW_S_SIMP","FEVERIME","1965","562296","560580","554446","214950","489523","NA","NA","NA","562287","561077","NA","560080","NA","560074","562287","1974","562597","NA","NA","561297","1965","1965","561688","560074","1965","561296","562597","morph21_Oliver/Morris","61","67422","86","yes","1280","24"
"400","71.2643678161","71.2643678161","781.057471264","781.057471264","black","no","xpyriment","legacy","legacy","0","202","NA","uniform","67709","1000","0.0147690853505","1","undefined","1","0","86","86","86","0","86","86","86","NA","86","86","0","86","NA","86","86","0","86","NA","86","NA","86","0","0","86","86","0","86","86","87","/","01/31/19 12:49:37","The main experiment item","yes","FIN__AB__M21__7%3A10%3A17.osexp","C:\Users\ERP Testing Room\Desktop\Joanna\morph21","no","mono","no","18","no","white","no","yes","1080","legacy","86","86","C:/Users/ERP Testing Room/Desktop/Joanna/morph21/subject-156.csv","xpyriment","Kafkaesque Koffka","3.2.5","0","/","space","NA","NA","NA","return","/","530","33722","NA","NA","NA","212976","530","2","legacy","1024","2","48000","-16","AB_m21","156","even","CW_L","LOCKER","1965","567073","563889","565564","214950","489523","NA","NA","NA","565555","564386","NA","563389","NA","563379","565555","1974","567473","NA","NA","564564","1965","1965","564956","563379","1965","564564","567473","morph21_Oliver/Morris","62","67952","87","yes","1280","8"
"400","71.5909090909","71.5909090909","779.522727273","779.522727273","black","no","xpyriment","legacy","legacy","0","201","NA","uniform","64570","1000","0.015487068298","1","undefined","1","0","87","87","87","0","87","87","87","NA","87","87","0","87","NA","87","87","0","87","NA","87","NA","87","0","0","87","87","0","87","87","88","/","01/31/19 12:49:37","The main experiment item","yes","FIN__AB__M21__7%3A10%3A17.osexp","C:\Users\ERP Testing Room\Desktop\Joanna\morph21","no","mono","no","18","no","white","no","yes","1080","legacy","87","87","C:/Users/ERP Testing Room/Desktop/Joanna/morph21/subject-156.csv","xpyriment","Kafkaesque Koffka","3.2.5","0","/","space","NA","NA","NA","return","/","646","33722","NA","NA","NA","212976","646","2","legacy","1024","2","48000","-16","AB_m21","156","even","CW_S","ALLOWANCE","1965","570256","568573","565564","214950","489523","NA","NA","NA","570249","569070","NA","568073","NA","568066","570249","1974","570656","NA","NA","569256","1965","1965","569648","568066","1965","569256","570656","morph21_Oliver/Morris","63","68598","88","yes","1280","5"
"250","70.7865168539","70.7865168539","780.247191011","780.247191011","black","no","xpyriment","legacy","legacy","0","201","NA","uniform","61862","1000","0.0161650124471","0","undefined","0","0","88","88","88","0","88","88","88","NA","88","88","0","88","NA","88","88","0","88","NA","88","NA","88","0","0","88","88","0","88","88","89","/","01/31/19 12:49:37","The main experiment item","yes","FIN__AB__M21__7%3A10%3A17.osexp","C:\Users\ERP Testing Room\Desktop\Joanna\morph21","no","mono","no","18","no","white","no","yes","1080","legacy","88","88","C:/Users/ERP Testing Room/Desktop/Joanna/morph21/subject-156.csv","xpyriment","Kafkaesque Koffka","3.2.5","0","z","space","NA","NA","NA","return","z","844","33722","NA","NA","NA","212976","844","2","legacy","1024","2","48000","-16","AB_m21","156","even","CW_S","PLANNER","1965","573498","571823","565564","214950","489523","NA","NA","NA","570249","572320","NA","571315","NA","571304","573493","1974","573748","NA","NA","572498","1965","1965","572898","571304","1965","572498","573748","morph21_Oliver/Morris","63","69442","89","yes","1280","22"
"200","71.1111111111","71.1111111111","782.055555556","782.055555556","black","no","xpyriment","legacy","legacy","0","203","NA","uniform","55618","1000","0.0179797907152","1","undefined","1","0","89","89","89","0","89","89","89","NA","89","89","0","89","NA","89","89","0","89","NA","89","NA","89","0","0","89","89","0","89","89","90","z","01/31/19 12:49:37","The main experiment item","yes","FIN__AB__M21__7%3A10%3A17.osexp","C:\Users\ERP Testing Room\Desktop\Joanna\morph21","no","mono","no","18","no","white","no","yes","1080","legacy","89","89","C:/Users/ERP Testing Room/Desktop/Joanna/morph21/subject-156.csv","xpyriment","Kafkaesque Koffka","3.2.5","0","z","space","NA","NA","NA","return","z","943","33722","NA","NA","NA","212976","943","2","legacy","1024","2","48000","-16","AB_m21","156","even","NW_S_COMP","DUMBITY","1965","578098","574915","576590","214950","489523","NA","NA","NA","576586","575412","NA","574415","NA","574410","576586","1974","578298","NA","NA","575590","1965","1965","575990","574410","1965","575590","578298","morph21_Oliver/Morris","64","70385","90","yes","1280","12"
