"ITI","acc","accuracy","average_response_time","avg_rt","background","bidi","canvas_backend","clock_backend","color_backend","compensation","cond_trig","condtrigtime","coordinates","coroutines_cycles","coroutines_duration","coroutines_mean_cycle_duration","correct","correct_instructions_1","correct_new_keyboard_response_1","count_AB_m21","count_ITI","count_blank_screen","count_blink_screen","count_block1","count_break1","count_break2","count_break3_1","count_canvas","count_correct_trigger","count_def_chain","count_end_screen","count_fixation_1","count_getting_started","count_inc_counter","count_incorrect_trigger","count_instructions_1","count_logger","count_logscript","count_new_coroutines","count_new_inline_script","count_new_keyboard_response_1","count_reset_counter_prep","count_reset_counter_run","count_responsescreen","count_sequence","count_start_trigger","count_target_present","count_word_trigger","counter","cresp","datetime","description","disable_garbage_collection","experiment_file","experiment_path","font_bold","font_family","font_italic","font_size","font_underline","foreground","form_clicks","fullscreen","height","keyboard_backend","live_row","live_row_block1","logfile","mouse_backend","opensesame_codename","opensesame_version","repeat_cycle","response","response_break1","response_break2","response_break3_1","response_end_screen","response_instructions_1","response_new_keyboard_response_1","response_time","response_time_break1","response_time_break2","response_time_break3_1","response_time_end_screen","response_time_instructions_1","response_time_new_keyboard_response_1","round_decimals","sampler_backend","sound_buf_size","sound_channels","sound_freq","sound_sample_size","start","subject_nr","subject_parity","targ_type","target","time_AB_m21","time_ITI","time_blank_screen","time_blink_screen","time_block1","time_break1","time_break2","time_break3_1","time_canvas","time_correct_trigger","time_def_chain","time_end_screen","time_fixation_1","time_getting_started","time_inc_counter","time_incorrect_trigger","time_instructions_1","time_logger","time_logscript","time_new_inline_script","time_new_keyboard_response_1","time_reset_counter_prep","time_reset_counter_run","time_responsescreen","time_sequence","time_start_trigger","time_target_present","time_word_trigger","title","total_correct","total_response_time","total_responses","uniform_coordinates","width","word_trig"
"300","0","0","990","990","black","no","xpyriment","legacy","legacy","0","206","NA","uniform","63437","1000","0.0157636710437","0","undefined","0","0","0","0","0","0","0","0","0","NA","0","0","0","0","NA","0","0","0","0","NA","0","NA","0","0","0","0","0","0","0","0","1","z","03/01/18 15:23:49","The main experiment item","yes","FIN__AB__M21__7%3A10%3A17.osexp","C:\Users\ERP Testing Room\Desktop\Joanna\morph21","no","mono","no","18","no","white","no","yes","1080","legacy","0","0","C:/Users/ERP Testing Room/Desktop/Joanna/morph21/subject-126.csv","xpyriment","Jazzy James","3.1.4","0","None","NA","NA","NA","NA","/","None","990","NA","NA","NA","NA","196551","990","2","legacy","1024","2","48000","-16","AB_m21","124","even","NW_L_SIMP","EARILT","1356","200806","199215","NA","197916","NA","NA","NA","NA","NA","199712","NA","198712","NA","198639","200797","1365","201106","NA","NA","199806","1356","1356","200198","198639","1356","199806","201106","morph21_Oliver/Morris","0","990","1","yes","1280","12"
"250","50","50","870.5","870.5","black","no","xpyriment","legacy","legacy","0","208","NA","uniform","68932","1000","0.0145070504265","1","undefined","1","0","1","1","1","0","1","1","1","NA","1","1","0","1","NA","1","1","0","1","NA","1","NA","1","0","0","1","1","0","1","1","2","z","03/01/18 15:23:49","The main experiment item","yes","FIN__AB__M21__7%3A10%3A17.osexp","C:\Users\ERP Testing Room\Desktop\Joanna\morph21","no","mono","no","18","no","white","no","yes","1080","legacy","1","1","C:/Users/ERP Testing Room/Desktop/Joanna/morph21/subject-126.csv","xpyriment","Jazzy James","3.1.4","0","z","NA","NA","NA","NA","/","z","751","NA","NA","NA","NA","196551","751","2","legacy","1024","2","48000","-16","AB_m21","124","even","FILL_NW","PHEEKS","1356","203965","202356","NA","197916","NA","NA","NA","NA","203962","202854","NA","201856","NA","201849","203962","1365","204215","NA","NA","202973","1356","1356","203365","201849","1356","202973","204215","morph21_Oliver/Morris","1","1741","2","yes","1280","35"
"300","66.6666666667","66.6666666667","763.666666667","763.666666667","black","no","xpyriment","legacy","legacy","0","202","NA","uniform","70854","1000","0.0141135292291","1","undefined","1","0","2","2","2","0","2","2","2","NA","2","2","0","2","NA","2","2","0","2","NA","2","NA","2","0","0","2","2","0","2","2","3","/","03/01/18 15:23:49","The main experiment item","yes","FIN__AB__M21__7%3A10%3A17.osexp","C:\Users\ERP Testing Room\Desktop\Joanna\morph21","no","mono","no","18","no","white","no","yes","1080","legacy","2","2","C:/Users/ERP Testing Room/Desktop/Joanna/morph21/subject-126.csv","xpyriment","Jazzy James","3.1.4","0","/","NA","NA","NA","NA","/","/","550","NA","NA","NA","NA","196551","550","2","legacy","1024","2","48000","-16","AB_m21","124","even","CW_L","MADNESS","1356","208533","205440","207024","197916","NA","NA","NA","NA","207017","205937","NA","204940","NA","204929","207017","1365","208833","NA","NA","206023","1356","1356","206416","204929","1356","206023","208833","morph21_Oliver/Morris","2","2291","3","yes","1280","41"
"200","50","50","821","821","black","no","xpyriment","legacy","legacy","0","207","NA","uniform","55609","1000","0.017982700642","0","undefined","0","0","3","3","3","0","3","3","3","NA","3","3","0","3","NA","3","3","0","3","NA","3","NA","3","0","0","3","3","0","3","3","4","/","03/01/18 15:23:49","The main experiment item","yes","FIN__AB__M21__7%3A10%3A17.osexp","C:\Users\ERP Testing Room\Desktop\Joanna\morph21","no","mono","no","18","no","white","no","yes","1080","legacy","3","3","C:/Users/ERP Testing Room/Desktop/Joanna/morph21/subject-126.csv","xpyriment","Jazzy James","3.1.4","0","None","NA","NA","NA","NA","/","None","993","NA","NA","NA","NA","196551","993","2","legacy","1024","2","48000","-16","AB_m21","124","even","FILL_W","TAX","1356","211616","210033","207024","197916","NA","NA","NA","NA","207017","210530","NA","209533","NA","209526","211610","1365","211816","NA","NA","210616","1356","1356","211008","209526","1356","210616","211816","morph21_Oliver/Morris","2","3284","4","yes","1280","45"
"200","60","60","775.4","775.4","black","no","xpyriment","legacy","legacy","0","201","NA","uniform","67902","1000","0.0147271067126","1","undefined","1","0","4","4","4","0","4","4","4","NA","4","4","0","4","NA","4","4","0","4","NA","4","NA","4","0","0","4","4","0","4","4","5","/","03/01/18 15:23:49","The main experiment item","yes","FIN__AB__M21__7%3A10%3A17.osexp","C:\Users\ERP Testing Room\Desktop\Joanna\morph21","no","mono","no","18","no","white","no","yes","1080","legacy","4","4","C:/Users/ERP Testing Room/Desktop/Joanna/morph21/subject-126.csv","xpyriment","Jazzy James","3.1.4","0","/","NA","NA","NA","NA","/","/","593","NA","NA","NA","NA","196551","593","2","legacy","1024","2","48000","-16","AB_m21","124","even","CW_S","ANGELIC","1356","214675","213041","207024","197916","NA","NA","NA","NA","214669","213538","NA","212541","NA","212535","214669","1365","214875","NA","NA","213675","1356","1356","214066","212535","1356","213675","214875","morph21_Oliver/Morris","3","3877","5","yes","1280","25"
"400","66.6666666667","66.6666666667","759.833333333","759.833333333","black","no","xpyriment","legacy","legacy","0","208","NA","uniform","73284","1000","0.0136455433655","1","undefined","1","0","5","5","5","0","5","5","5","NA","5","5","0","5","NA","5","5","0","5","NA","5","NA","5","0","0","5","5","0","5","5","6","z","03/01/18 15:23:49","The main experiment item","yes","FIN__AB__M21__7%3A10%3A17.osexp","C:\Users\ERP Testing Room\Desktop\Joanna\morph21","no","mono","no","18","no","white","no","yes","1080","legacy","5","5","C:/Users/ERP Testing Room/Desktop/Joanna/morph21/subject-126.csv","xpyriment","Jazzy James","3.1.4","0","z","NA","NA","NA","NA","/","z","682","NA","NA","NA","NA","196551","682","2","legacy","1024","2","48000","-16","AB_m21","124","even","FILL_NW","BALFS","1356","219166","216066","217658","197916","NA","NA","NA","NA","217653","216563","NA","215566","NA","215556","217653","1365","219567","NA","NA","216658","1356","1356","217058","215556","1356","216658","219567","morph21_Oliver/Morris","4","4559","6","yes","1280","2"
"350","71.4285714286","71.4285714286","776","776","black","no","xpyriment","legacy","legacy","0","208","NA","uniform","63678","1000","0.0157040108044","1","undefined","1","0","6","6","6","0","6","6","6","NA","6","6","0","6","NA","6","6","0","6","NA","6","NA","6","0","0","6","6","0","6","6","7","z","03/01/18 15:23:49","The main experiment item","yes","FIN__AB__M21__7%3A10%3A17.osexp","C:\Users\ERP Testing Room\Desktop\Joanna\morph21","no","mono","no","18","no","white","no","yes","1080","legacy","6","6","C:/Users/ERP Testing Room/Desktop/Joanna/morph21/subject-126.csv","xpyriment","Jazzy James","3.1.4","0","z","NA","NA","NA","NA","/","z","873","NA","NA","NA","NA","196551","873","2","legacy","1024","2","48000","-16","AB_m21","124","even","FILL_NW","DARF","1356","222467","220850","217658","197916","NA","NA","NA","NA","222463","221347","NA","220350","NA","220340","222463","1365","222817","NA","NA","221467","1356","1356","221866","220340","1356","221467","222817","morph21_Oliver/Morris","5","5432","7","yes","1280","10"
"250","75","75","754.125","754.125","black","no","xpyriment","legacy","legacy","0","207","NA","uniform","71542","1000","0.0139778032484","1","undefined","1","0","7","7","7","0","7","7","7","NA","7","7","0","7","NA","7","7","0","7","NA","7","NA","7","0","0","7","7","0","7","7","8","/","03/01/18 15:23:49","The main experiment item","yes","FIN__AB__M21__7%3A10%3A17.osexp","C:\Users\ERP Testing Room\Desktop\Joanna\morph21","no","mono","no","18","no","white","no","yes","1080","legacy","7","7","C:/Users/ERP Testing Room/Desktop/Joanna/morph21/subject-126.csv","xpyriment","Jazzy James","3.1.4","0","/","NA","NA","NA","NA","/","/","601","NA","NA","NA","NA","196551","601","2","legacy","1024","2","48000","-16","AB_m21","124","even","FILL_W","SOUGHT","1356","225676","224093","217658","197916","NA","NA","NA","NA","225668","224590","NA","223592","NA","223585","225668","1365","225926","NA","NA","224676","1356","1356","225068","223585","1356","224676","225926","morph21_Oliver/Morris","6","6033","8","yes","1280","40"
"200","66.6666666667","66.6666666667","770.222222222","770.222222222","black","no","xpyriment","legacy","legacy","0","208","NA","uniform","64221","1000","0.0155712305944","0","undefined","0","0","8","8","8","0","8","8","8","NA","8","8","0","8","NA","8","8","0","8","NA","8","NA","8","0","0","8","8","0","8","8","9","z","03/01/18 15:23:49","The main experiment item","yes","FIN__AB__M21__7%3A10%3A17.osexp","C:\Users\ERP Testing Room\Desktop\Joanna\morph21","no","mono","no","18","no","white","no","yes","1080","legacy","8","8","C:/Users/ERP Testing Room/Desktop/Joanna/morph21/subject-126.csv","xpyriment","Jazzy James","3.1.4","0","/","NA","NA","NA","NA","/","/","899","NA","NA","NA","NA","196551","899","2","legacy","1024","2","48000","-16","AB_m21","124","even","FILL_NW","SMADE","1356","230310","227168","228801","197916","NA","NA","NA","NA","225668","227665","NA","226668","NA","226661","228794","1365","230510","NA","NA","227801","1356","1356","228193","226661","1356","227801","230510","morph21_Oliver/Morris","6","6932","9","yes","1280","42"
"350","60","60","792.4","792.4","black","no","xpyriment","legacy","legacy","0","208","NA","uniform","58118","1000","0.0172063732406","0","undefined","0","0","9","9","9","0","9","9","9","NA","9","9","0","9","NA","9","9","0","9","NA","9","NA","9","0","0","9","9","0","9","9","10","z","03/01/18 15:23:49","The main experiment item","yes","FIN__AB__M21__7%3A10%3A17.osexp","C:\Users\ERP Testing Room\Desktop\Joanna\morph21","no","mono","no","18","no","white","no","yes","1080","legacy","9","9","C:/Users/ERP Testing Room/Desktop/Joanna/morph21/subject-126.csv","xpyriment","Jazzy James","3.1.4","0","None","NA","NA","NA","NA","/","None","992","NA","NA","NA","NA","196551","992","2","legacy","1024","2","48000","-16","AB_m21","124","even","FILL_NW","DELP","1356","233326","231743","228801","197916","NA","NA","NA","NA","225668","232240","NA","231243","NA","231238","233318","1365","233676","NA","NA","232326","1356","1356","232718","231238","1356","232326","233676","morph21_Oliver/Morris","6","7924","10","yes","1280","14"
"300","54.5454545455","54.5454545455","810.181818182","810.181818182","black","no","xpyriment","legacy","legacy","0","206","NA","uniform","62249","1000","0.0160645150926","0","undefined","0","0","10","10","10","0","10","10","10","NA","10","10","0","10","NA","10","10","0","10","NA","10","NA","10","0","0","10","10","0","10","10","11","z","03/01/18 15:23:49","The main experiment item","yes","FIN__AB__M21__7%3A10%3A17.osexp","C:\Users\ERP Testing Room\Desktop\Joanna\morph21","no","mono","no","18","no","white","no","yes","1080","legacy","10","10","C:/Users/ERP Testing Room/Desktop/Joanna/morph21/subject-126.csv","xpyriment","Jazzy James","3.1.4","0","/","NA","NA","NA","NA","/","/","988","NA","NA","NA","NA","196551","988","2","legacy","1024","2","48000","-16","AB_m21","124","even","NW_L_SIMP","BANDADY","1356","236560","234943","228801","197916","NA","NA","NA","NA","225668","235440","NA","234443","NA","234433","236554","1365","236860","NA","NA","235560","1356","1356","235951","234433","1356","235560","236860","morph21_Oliver/Morris","6","8912","11","yes","1280","3"
"300","50","50","801.416666667","801.416666667","black","no","xpyriment","legacy","legacy","0","204","NA","uniform","65338","1000","0.0153050292326","0","undefined","0","0","11","11","11","0","11","11","11","NA","11","11","0","11","NA","11","11","0","11","NA","11","NA","11","0","0","11","11","0","11","11","12","z","03/01/18 15:23:49","The main experiment item","yes","FIN__AB__M21__7%3A10%3A17.osexp","C:\Users\ERP Testing Room\Desktop\Joanna\morph21","no","mono","no","18","no","white","no","yes","1080","legacy","11","11","C:/Users/ERP Testing Room/Desktop/Joanna/morph21/subject-126.csv","xpyriment","Jazzy James","3.1.4","0","/","NA","NA","NA","NA","/","/","705","NA","NA","NA","NA","196551","705","2","legacy","1024","2","48000","-16","AB_m21","124","even","NW_L_COMP","KINGISM","1356","241135","238043","239627","197916","NA","NA","NA","NA","225668","238540","NA","237543","NA","237535","239618","1365","241435","NA","NA","238627","1356","1356","239018","237535","1356","238627","241435","morph21_Oliver/Morris","6","9617","12","yes","1280","19"
"300","46.1538461538","46.1538461538","816.076923077","816.076923077","black","no","xpyriment","legacy","legacy","0","208","NA","uniform","55888","1000","0.0178929287146","0","undefined","0","0","12","12","12","0","12","12","12","NA","12","12","0","12","NA","12","12","0","12","NA","12","NA","12","0","0","12","12","0","12","12","13","z","03/01/18 15:23:49","The main experiment item","yes","FIN__AB__M21__7%3A10%3A17.osexp","C:\Users\ERP Testing Room\Desktop\Joanna\morph21","no","mono","no","18","no","white","no","yes","1080","legacy","12","12","C:/Users/ERP Testing Room/Desktop/Joanna/morph21/subject-126.csv","xpyriment","Jazzy James","3.1.4","0","None","NA","NA","NA","NA","/","None","992","NA","NA","NA","NA","196551","992","2","legacy","1024","2","48000","-16","AB_m21","124","even","FILL_NW","BAFED","1356","244311","242694","239627","197916","NA","NA","NA","NA","225668","243192","NA","242194","NA","242185","244303","1365","244611","NA","NA","243311","1356","1356","243703","242185","1356","243311","244611","morph21_Oliver/Morris","6","10609","13","yes","1280","1"
"250","50","50","812.428571429","812.428571429","black","no","xpyriment","legacy","legacy","0","205","NA","uniform","65079","1000","0.0153659398577","1","undefined","1","0","13","13","13","0","13","13","13","NA","13","13","0","13","NA","13","13","0","13","NA","13","NA","13","0","0","13","13","0","13","13","14","z","03/01/18 15:23:49","The main experiment item","yes","FIN__AB__M21__7%3A10%3A17.osexp","C:\Users\ERP Testing Room\Desktop\Joanna\morph21","no","mono","no","18","no","white","no","yes","1080","legacy","13","13","C:/Users/ERP Testing Room/Desktop/Joanna/morph21/subject-126.csv","xpyriment","Jazzy James","3.1.4","0","z","NA","NA","NA","NA","/","z","765","NA","NA","NA","NA","196551","765","2","legacy","1024","2","48000","-16","AB_m21","124","even","NW_S_SIMP","ZOOMFIL","1356","247495","245911","239627","197916","NA","NA","NA","NA","247488","246408","NA","245411","NA","245401","247488","1365","247745","NA","NA","246495","1356","1356","246886","245401","1356","246495","247745","morph21_Oliver/Morris","7","11374","14","yes","1280","19"
"250","46.6666666667","46.6666666667","824.333333333","824.333333333","black","no","xpyriment","legacy","legacy","0","206","NA","uniform","59518","1000","0.01680163984","0","undefined","0","0","14","14","14","0","14","14","14","NA","14","14","0","14","NA","14","14","0","14","NA","14","NA","14","0","0","14","14","0","14","14","15","z","03/01/18 15:23:49","The main experiment item","yes","FIN__AB__M21__7%3A10%3A17.osexp","C:\Users\ERP Testing Room\Desktop\Joanna\morph21","no","mono","no","18","no","white","no","yes","1080","legacy","14","14","C:/Users/ERP Testing Room/Desktop/Joanna/morph21/subject-126.csv","xpyriment","Jazzy James","3.1.4","0","None","NA","NA","NA","NA","/","None","991","NA","NA","NA","NA","196551","991","2","legacy","1024","2","48000","-16","AB_m21","124","even","NW_L_SIMP","SMOOTHFIL","1356","252087","248995","250578","197916","NA","NA","NA","NA","247488","249492","NA","248495","NA","248484","250570","1365","252337","NA","NA","249578","1356","1356","249970","248484","1356","249578","252337","morph21_Oliver/Morris","7","12365","15","yes","1280","19"
"400","50","50","806.375","806.375","black","no","xpyriment","legacy","legacy","0","202","NA","uniform","79458","1000","0.0125852651715","1","undefined","1","0","15","15","15","0","15","15","15","NA","15","15","0","15","NA","15","15","0","15","NA","15","NA","15","0","0","15","15","0","15","15","16","/","03/01/18 15:23:49","The main experiment item","yes","FIN__AB__M21__7%3A10%3A17.osexp","C:\Users\ERP Testing Room\Desktop\Joanna\morph21","no","mono","no","18","no","white","no","yes","1080","legacy","15","15","C:/Users/ERP Testing Room/Desktop/Joanna/morph21/subject-126.csv","xpyriment","Jazzy James","3.1.4","0","/","NA","NA","NA","NA","/","/","537","NA","NA","NA","NA","196551","537","2","legacy","1024","2","48000","-16","AB_m21","124","even","CW_L","WRONGLY","1356","255203","253620","250578","197916","NA","NA","NA","NA","255197","254117","NA","253120","NA","253110","255197","1365","255603","NA","NA","254203","1356","1356","254595","253109","1356","254203","255603","morph21_Oliver/Morris","8","12902","16","yes","1280","37"
"300","47.0588235294","47.0588235294","807.882352941","807.882352941","black","no","xpyriment","legacy","legacy","0","203","NA","uniform","65500","1000","0.0152671755725","0","undefined","0","0","16","16","16","0","16","16","16","NA","16","16","0","16","NA","16","16","0","16","NA","16","NA","16","0","0","16","16","0","16","16","17","z","03/01/18 15:23:49","The main experiment item","yes","FIN__AB__M21__7%3A10%3A17.osexp","C:\Users\ERP Testing Room\Desktop\Joanna\morph21","no","mono","no","18","no","white","no","yes","1080","legacy","16","16","C:/Users/ERP Testing Room/Desktop/Joanna/morph21/subject-126.csv","xpyriment","Jazzy James","3.1.4","0","/","NA","NA","NA","NA","/","/","832","NA","NA","NA","NA","196551","832","2","legacy","1024","2","48000","-16","AB_m21","124","even","NW_S_COMP","FIGER","1356","258420","256820","250578","197916","NA","NA","NA","NA","255197","257317","NA","256320","NA","256310","258411","1365","258720","NA","NA","257420","1356","1356","257812","256310","1356","257420","258720","morph21_Oliver/Morris","8","13734","17","yes","1280","4"
"350","50","50","798.111111111","798.111111111","black","no","xpyriment","legacy","legacy","0","202","NA","uniform","73046","1000","0.0136900035594","1","undefined","1","0","17","17","17","0","17","17","17","NA","17","17","0","17","NA","17","17","0","17","NA","17","NA","17","0","0","17","17","0","17","17","18","/","03/01/18 15:23:49","The main experiment item","yes","FIN__AB__M21__7%3A10%3A17.osexp","C:\Users\ERP Testing Room\Desktop\Joanna\morph21","no","mono","no","18","no","white","no","yes","1080","legacy","17","17","C:/Users/ERP Testing Room/Desktop/Joanna/morph21/subject-126.csv","xpyriment","Jazzy James","3.1.4","0","/","NA","NA","NA","NA","/","/","632","NA","NA","NA","NA","196551","632","2","legacy","1024","2","48000","-16","AB_m21","124","even","CW_L","JUMPING","1356","263088","259979","261580","197916","NA","NA","NA","NA","261574","260477","NA","259480","NA","259473","261574","1365","263438","NA","NA","260580","1356","1356","260971","259473","1356","260580","263438","morph21_Oliver/Morris","9","14366","18","yes","1280","30"
"300","52.6315789474","52.6315789474","796.368421053","796.368421053","black","no","xpyriment","legacy","legacy","0","201","NA","uniform","70636","1000","0.0141570870378","1","undefined","1","0","18","18","18","0","18","18","18","NA","18","18","0","18","NA","18","18","0","18","NA","18","NA","18","0","0","18","18","0","18","18","19","/","03/01/18 15:23:49","The main experiment item","yes","FIN__AB__M21__7%3A10%3A17.osexp","C:\Users\ERP Testing Room\Desktop\Joanna\morph21","no","mono","no","18","no","white","no","yes","1080","legacy","18","18","C:/Users/ERP Testing Room/Desktop/Joanna/morph21/subject-126.csv","xpyriment","Jazzy James","3.1.4","0","/","NA","NA","NA","NA","/","/","765","NA","NA","NA","NA","196551","765","2","legacy","1024","2","48000","-16","AB_m21","124","even","CW_S","GUILTY","1356","266263","264671","261580","197916","NA","NA","NA","NA","266255","265169","NA","264171","NA","264160","266255","1365","266563","NA","NA","265263","1356","1356","265655","264160","1356","265263","266563","morph21_Oliver/Morris","10","15131","19","yes","1280","34"
"350","55","55","786.6","786.6","black","no","xpyriment","legacy","legacy","0","201","NA","uniform","76348","1000","0.0130979200503","1","undefined","1","0","19","19","19","0","19","19","19","NA","19","19","0","19","NA","19","19","0","19","NA","19","NA","19","0","0","19","19","0","19","19","20","/","03/01/18 15:23:49","The main experiment item","yes","FIN__AB__M21__7%3A10%3A17.osexp","C:\Users\ERP Testing Room\Desktop\Joanna\morph21","no","mono","no","18","no","white","no","yes","1080","legacy","19","19","C:/Users/ERP Testing Room/Desktop/Joanna/morph21/subject-126.csv","xpyriment","Jazzy James","3.1.4","0","/","NA","NA","NA","NA","/","/","601","NA","NA","NA","NA","196551","601","2","legacy","1024","2","48000","-16","AB_m21","124","even","CW_S","DULLNESS","1356","269355","267772","261580","197916","NA","NA","NA","NA","269346","268269","NA","267272","NA","267263","269346","1365","269705","NA","NA","268355","1356","1356","268747","267263","1356","268355","269705","morph21_Oliver/Morris","11","15732","20","yes","1280","43"
"300","52.380952381","52.380952381","796.285714286","796.285714286","black","no","xpyriment","legacy","legacy","0","205","NA","uniform","61278","1000","0.0163190704657","0","undefined","0","0","20","20","20","0","20","20","20","NA","20","20","0","20","NA","20","20","0","20","NA","20","NA","20","0","0","20","20","0","20","20","21","z","03/01/18 15:23:49","The main experiment item","yes","FIN__AB__M21__7%3A10%3A17.osexp","C:\Users\ERP Testing Room\Desktop\Joanna\morph21","no","mono","no","18","no","white","no","yes","1080","legacy","20","20","C:/Users/ERP Testing Room/Desktop/Joanna/morph21/subject-126.csv","xpyriment","Jazzy James","3.1.4","0","None","NA","NA","NA","NA","/","None","990","NA","NA","NA","NA","196551","990","2","legacy","1024","2","48000","-16","AB_m21","124","even","NW_S_SIMP","YIELDILT","1356","274005","270888","272497","197916","NA","NA","NA","NA","269346","271386","NA","270388","NA","270384","272487","1365","274305","NA","NA","271497","1356","1356","271888","270384","1356","271497","274305","morph21_Oliver/Morris","11","16722","21","yes","1280","20"
"300","50","50","805.272727273","805.272727273","black","no","xpyriment","legacy","legacy","0","204","NA","uniform","58314","1000","0.0171485406592","0","undefined","0","0","21","21","21","0","21","21","21","NA","21","21","0","21","NA","21","21","0","21","NA","21","NA","21","0","0","21","21","0","21","21","22","z","03/01/18 15:23:49","The main experiment item","yes","FIN__AB__M21__7%3A10%3A17.osexp","C:\Users\ERP Testing Room\Desktop\Joanna\morph21","no","mono","no","18","no","white","no","yes","1080","legacy","21","21","C:/Users/ERP Testing Room/Desktop/Joanna/morph21/subject-126.csv","xpyriment","Jazzy James","3.1.4","0","None","NA","NA","NA","NA","/","None","994","NA","NA","NA","NA","196551","994","2","legacy","1024","2","48000","-16","AB_m21","124","even","NW_L_COMP","ILLIST","1356","277131","275547","272497","197916","NA","NA","NA","NA","269346","276044","NA","275047","NA","275039","277124","1365","277431","NA","NA","276130","1356","1356","276523","275039","1356","276130","277431","morph21_Oliver/Morris","11","17716","22","yes","1280","9"
"200","52.1739130435","52.1739130435","813.217391304","813.217391304","black","no","xpyriment","legacy","legacy","0","201","NA","uniform","60488","1000","0.0165322047348","1","undefined","1","0","22","22","22","0","22","22","22","NA","22","22","0","22","NA","22","22","0","22","NA","22","NA","22","0","0","22","22","0","22","22","23","/","03/01/18 15:23:49","The main experiment item","yes","FIN__AB__M21__7%3A10%3A17.osexp","C:\Users\ERP Testing Room\Desktop\Joanna\morph21","no","mono","no","18","no","white","no","yes","1080","legacy","22","22","C:/Users/ERP Testing Room/Desktop/Joanna/morph21/subject-126.csv","xpyriment","Jazzy James","3.1.4","0","/","NA","NA","NA","NA","/","/","988","NA","NA","NA","NA","196551","988","2","legacy","1024","2","48000","-16","AB_m21","124","even","CW_S","AMUSEMENT","1356","280248","278656","272497","197916","NA","NA","NA","NA","280240","279154","NA","278156","NA","278151","280240","1365","280448","NA","NA","279248","1356","1356","279640","278151","1356","279248","280448","morph21_Oliver/Morris","12","18704","23","yes","1280","38"
"300","54.1666666667","54.1666666667","818.208333333","818.208333333","black","no","xpyriment","legacy","legacy","0","204","NA","uniform","59250","1000","0.0168776371308","1","undefined","1","0","23","23","23","0","23","23","23","NA","23","23","0","23","NA","23","23","0","23","NA","23","NA","23","0","0","23","23","0","23","23","24","z","03/01/18 15:23:49","The main experiment item","yes","FIN__AB__M21__7%3A10%3A17.osexp","C:\Users\ERP Testing Room\Desktop\Joanna\morph21","no","mono","no","18","no","white","no","yes","1080","legacy","23","23","C:/Users/ERP Testing Room/Desktop/Joanna/morph21/subject-126.csv","xpyriment","Jazzy James","3.1.4","0","z","NA","NA","NA","NA","/","z","933","NA","NA","NA","NA","196551","933","2","legacy","1024","2","48000","-16","AB_m21","124","even","NW_L_COMP","FELLOWOUS","1356","284732","281640","283223","197916","NA","NA","NA","NA","283217","282137","NA","281140","NA","281133","283217","1365","285032","NA","NA","282223","1356","1356","282615","281132","1356","282223","285032","morph21_Oliver/Morris","13","19637","24","yes","1280","17"
"300","56","56","812","812","black","no","xpyriment","legacy","legacy","0","207","NA","uniform","70797","1000","0.0141248922977","1","undefined","1","0","24","24","24","0","24","24","24","NA","24","24","0","24","NA","24","24","0","24","NA","24","NA","24","0","0","24","24","0","24","24","25","/","03/01/18 15:23:49","The main experiment item","yes","FIN__AB__M21__7%3A10%3A17.osexp","C:\Users\ERP Testing Room\Desktop\Joanna\morph21","no","mono","no","18","no","white","no","yes","1080","legacy","24","24","C:/Users/ERP Testing Room/Desktop/Joanna/morph21/subject-126.csv","xpyriment","Jazzy James","3.1.4","0","/","NA","NA","NA","NA","/","/","663","NA","NA","NA","NA","196551","663","2","legacy","1024","2","48000","-16","AB_m21","124","even","FILL_W","BALD","1356","287957","286348","283223","197916","NA","NA","NA","NA","287953","286846","NA","285848","NA","285841","287953","1365","288257","NA","NA","286957","1356","1356","287357","285841","1356","286957","288257","morph21_Oliver/Morris","14","20300","25","yes","1280","3"
"400","57.6923076923","57.6923076923","801.807692308","801.807692308","black","no","xpyriment","legacy","legacy","0","202","NA","uniform","75087","1000","0.0133178845872","1","undefined","1","0","25","25","25","0","25","25","25","NA","25","25","0","25","NA","25","25","0","25","NA","25","NA","25","0","0","25","25","0","25","25","26","/","03/01/18 15:23:49","The main experiment item","yes","FIN__AB__M21__7%3A10%3A17.osexp","C:\Users\ERP Testing Room\Desktop\Joanna\morph21","no","mono","no","18","no","white","no","yes","1080","legacy","25","25","C:/Users/ERP Testing Room/Desktop/Joanna/morph21/subject-126.csv","xpyriment","Jazzy James","3.1.4","0","/","NA","NA","NA","NA","/","/","547","NA","NA","NA","NA","196551","547","2","legacy","1024","2","48000","-16","AB_m21","124","even","CW_L","CLOUDLESS","1356","291057","289465","283223","197916","NA","NA","NA","NA","291050","289962","NA","288965","NA","288955","291050","1365","291457","NA","NA","290057","1356","1356","290449","288955","1356","290057","291457","morph21_Oliver/Morris","15","20847","26","yes","1280","33"
"400","55.5555555556","55.5555555556","793.222222222","793.222222222","black","no","xpyriment","legacy","legacy","0","204","NA","uniform","64416","1000","0.0155240933929","0","undefined","0","0","26","26","26","0","26","26","26","NA","26","26","0","26","NA","26","26","0","26","NA","26","NA","26","0","0","26","26","0","26","26","27","z","03/01/18 15:23:49","The main experiment item","yes","FIN__AB__M21__7%3A10%3A17.osexp","C:\Users\ERP Testing Room\Desktop\Joanna\morph21","no","mono","no","18","no","white","no","yes","1080","legacy","26","26","C:/Users/ERP Testing Room/Desktop/Joanna/morph21/subject-126.csv","xpyriment","Jazzy James","3.1.4","0","/","NA","NA","NA","NA","/","/","570","NA","NA","NA","NA","196551","570","2","legacy","1024","2","48000","-16","AB_m21","124","even","NW_L_COMP","ANGELISH","1356","295817","292715","294308","197916","NA","NA","NA","NA","291050","293212","NA","292215","NA","292206","294302","1365","296217","NA","NA","293307","1356","1356","293707","292206","1356","293307","296217","morph21_Oliver/Morris","15","21417","27","yes","1280","7"
"400","57.1428571429","57.1428571429","790.357142857","790.357142857","black","no","xpyriment","legacy","legacy","0","201","NA","uniform","66368","1000","0.0150675024108","1","undefined","1","0","27","27","27","0","27","27","27","NA","27","27","0","27","NA","27","27","0","27","NA","27","NA","27","0","0","27","27","0","27","27","28","/","03/01/18 15:23:49","The main experiment item","yes","FIN__AB__M21__7%3A10%3A17.osexp","C:\Users\ERP Testing Room\Desktop\Joanna\morph21","no","mono","no","18","no","white","no","yes","1080","legacy","27","27","C:/Users/ERP Testing Room/Desktop/Joanna/morph21/subject-126.csv","xpyriment","Jazzy James","3.1.4","0","/","NA","NA","NA","NA","/","/","713","NA","NA","NA","NA","196551","713","2","legacy","1024","2","48000","-16","AB_m21","124","even","CW_S","EFFORTLESS","1356","299067","297458","294308","197916","NA","NA","NA","NA","299064","297955","NA","296958","NA","296946","299064","1365","299467","NA","NA","298075","1356","1356","298467","296946","1356","298075","299467","morph21_Oliver/Morris","16","22130","28","yes","1280","30"
"350","58.6206896552","58.6206896552","782.137931034","782.137931034","black","no","xpyriment","legacy","legacy","0","202","NA","uniform","71501","1000","0.0139858183802","1","undefined","1","0","28","28","28","0","28","28","28","NA","28","28","0","28","NA","28","28","0","28","NA","28","NA","28","0","0","28","28","0","28","28","29","/","03/01/18 15:23:49","The main experiment item","yes","FIN__AB__M21__7%3A10%3A17.osexp","C:\Users\ERP Testing Room\Desktop\Joanna\morph21","no","mono","no","18","no","white","no","yes","1080","legacy","28","28","C:/Users/ERP Testing Room/Desktop/Joanna/morph21/subject-126.csv","xpyriment","Jazzy James","3.1.4","0","/","NA","NA","NA","NA","/","/","552","NA","NA","NA","NA","196551","552","2","legacy","1024","2","48000","-16","AB_m21","124","even","CW_L","EDITOR","1356","302300","300717","294308","197916","NA","NA","NA","NA","302294","301214","NA","300217","NA","300210","302294","1365","302650","NA","NA","301300","1356","1356","301692","300210","1356","301300","302650","morph21_Oliver/Morris","17","22682","29","yes","1280","45"
"350","60","60","778.166666667","778.166666667","black","no","xpyriment","legacy","legacy","0","201","NA","uniform","70836","1000","0.0141171155909","1","undefined","1","0","29","29","29","0","29","29","29","NA","29","29","0","29","NA","29","29","0","29","NA","29","NA","29","0","0","29","29","0","29","29","30","/","03/01/18 15:23:49","The main experiment item","yes","FIN__AB__M21__7%3A10%3A17.osexp","C:\Users\ERP Testing Room\Desktop\Joanna\morph21","no","mono","no","18","no","white","no","yes","1080","legacy","29","29","C:/Users/ERP Testing Room/Desktop/Joanna/morph21/subject-126.csv","xpyriment","Jazzy James","3.1.4","0","/","NA","NA","NA","NA","/","/","663","NA","NA","NA","NA","196551","663","2","legacy","1024","2","48000","-16","AB_m21","124","even","CW_S","CHILLY","1356","307025","303917","305517","197916","NA","NA","NA","NA","305509","304414","NA","303409","NA","303397","305509","1365","307376","NA","NA","304517","1356","1356","304909","303397","1356","304517","307376","morph21_Oliver/Morris","18","23345","30","yes","1280","48"
"200","61.2903225806","61.2903225806","779.258064516","779.258064516","black","no","xpyriment","legacy","legacy","0","203","NA","uniform","69105","1000","0.0144707329426","1","undefined","1","0","30","30","30","0","30","30","30","NA","30","30","0","30","NA","30","30","0","30","NA","30","NA","30","0","0","30","30","0","30","30","31","z","03/01/18 15:23:49","The main experiment item","yes","FIN__AB__M21__7%3A10%3A17.osexp","C:\Users\ERP Testing Room\Desktop\Joanna\morph21","no","mono","no","18","no","white","no","yes","1080","legacy","30","30","C:/Users/ERP Testing Room/Desktop/Joanna/morph21/subject-126.csv","xpyriment","Jazzy James","3.1.4","0","z","NA","NA","NA","NA","/","z","812","NA","NA","NA","NA","196551","812","2","legacy","1024","2","48000","-16","AB_m21","124","even","NW_S_COMP","PILLIZE","1356","310192","308609","305517","197916","NA","NA","NA","NA","310185","309106","NA","308109","NA","308103","310185","1365","310392","NA","NA","309192","1356","1356","309584","308103","1356","309192","310392","morph21_Oliver/Morris","19","24157","31","yes","1280","13"
"250","62.5","62.5","776.25","776.25","black","no","xpyriment","legacy","legacy","0","207","NA","uniform","67699","1000","0.0147712669316","1","undefined","1","0","31","31","31","0","31","31","31","NA","31","31","0","31","NA","31","31","0","31","NA","31","NA","31","0","0","31","31","0","31","31","32","/","03/01/18 15:23:49","The main experiment item","yes","FIN__AB__M21__7%3A10%3A17.osexp","C:\Users\ERP Testing Room\Desktop\Joanna\morph21","no","mono","no","18","no","white","no","yes","1080","legacy","31","31","C:/Users/ERP Testing Room/Desktop/Joanna/morph21/subject-126.csv","xpyriment","Jazzy James","3.1.4","0","/","NA","NA","NA","NA","/","/","683","NA","NA","NA","NA","196551","683","2","legacy","1024","2","48000","-16","AB_m21","124","even","FILL_W","SPLICE","1356","313210","311618","305517","197916","NA","NA","NA","NA","313203","312115","NA","311117","NA","311114","313203","1365","313460","NA","NA","312210","1356","1356","312602","311114","1356","312210","313460","morph21_Oliver/Morris","20","24840","32","yes","1280","22"
"400","63.6363636364","63.6363636364","774.757575758","774.757575758","black","no","xpyriment","legacy","legacy","0","205","NA","uniform","64733","1000","0.0154480713083","1","undefined","1","0","32","32","32","0","32","32","32","NA","32","32","0","32","NA","32","32","0","32","NA","32","NA","32","0","0","32","32","0","32","32","33","z","03/01/18 15:23:49","The main experiment item","yes","FIN__AB__M21__7%3A10%3A17.osexp","C:\Users\ERP Testing Room\Desktop\Joanna\morph21","no","mono","no","18","no","white","no","yes","1080","legacy","32","32","C:/Users/ERP Testing Room/Desktop/Joanna/morph21/subject-126.csv","xpyriment","Jazzy James","3.1.4","0","z","NA","NA","NA","NA","/","z","727","NA","NA","NA","NA","196551","727","2","legacy","1024","2","48000","-16","AB_m21","124","even","NW_S_SIMP","URNILT","1356","317793","314702","316285","197916","NA","NA","NA","NA","316280","315199","NA","314202","NA","314195","316280","1365","318194","NA","NA","315285","1356","1356","315685","314195","1356","315285","318194","morph21_Oliver/Morris","21","25567","33","yes","1280","5"
"400","64.7058823529","64.7058823529","770.5","770.5","black","no","xpyriment","legacy","legacy","0","201","NA","uniform","70920","1000","0.0141003948111","1","undefined","1","0","33","33","33","0","33","33","33","NA","33","33","0","33","NA","33","33","0","33","NA","33","NA","33","0","0","33","33","0","33","33","34","/","03/01/18 15:23:49","The main experiment item","yes","FIN__AB__M21__7%3A10%3A17.osexp","C:\Users\ERP Testing Room\Desktop\Joanna\morph21","no","mono","no","18","no","white","no","yes","1080","legacy","33","33","C:/Users/ERP Testing Room/Desktop/Joanna/morph21/subject-126.csv","xpyriment","Jazzy James","3.1.4","0","/","NA","NA","NA","NA","/","/","630","NA","NA","NA","NA","196551","630","2","legacy","1024","2","48000","-16","AB_m21","124","even","CW_S","DESIGN","1356","321085","319477","316285","197916","NA","NA","NA","NA","321082","319974","NA","318977","NA","318967","321082","1365","321485","NA","NA","320094","1356","1356","320485","318967","1356","320094","321485","morph21_Oliver/Morris","22","26197","34","yes","1280","19"
"350","62.8571428571","62.8571428571","770.628571429","770.628571429","black","no","xpyriment","legacy","legacy","0","203","NA","uniform","66993","1000","0.0149269326646","0","undefined","0","0","34","34","34","0","34","34","34","NA","34","34","0","34","NA","34","34","0","34","NA","34","NA","34","0","0","34","34","0","34","34","35","z","03/01/18 15:23:49","The main experiment item","yes","FIN__AB__M21__7%3A10%3A17.osexp","C:\Users\ERP Testing Room\Desktop\Joanna\morph21","no","mono","no","18","no","white","no","yes","1080","legacy","34","34","C:/Users/ERP Testing Room/Desktop/Joanna/morph21/subject-126.csv","xpyriment","Jazzy James","3.1.4","0","/","NA","NA","NA","NA","/","/","775","NA","NA","NA","NA","196551","775","2","legacy","1024","2","48000","-16","AB_m21","124","even","NW_S_COMP","PRINCEMENT","1356","324277","322669","316285","197916","NA","NA","NA","NA","321082","323166","NA","322169","NA","322160","324271","1365","324627","NA","NA","323277","1356","1356","323669","322160","1356","323277","324627","morph21_Oliver/Morris","22","26972","35","yes","1280","17"
"400","63.8888888889","63.8888888889","770.722222222","770.722222222","black","no","xpyriment","legacy","legacy","0","205","NA","uniform","71366","1000","0.0140122747527","1","undefined","1","0","35","35","35","0","35","35","35","NA","35","35","0","35","NA","35","35","0","35","NA","35","NA","35","0","0","35","35","0","35","35","36","z","03/01/18 15:23:49","The main experiment item","yes","FIN__AB__M21__7%3A10%3A17.osexp","C:\Users\ERP Testing Room\Desktop\Joanna\morph21","no","mono","no","18","no","white","no","yes","1080","legacy","35","35","C:/Users/ERP Testing Room/Desktop/Joanna/morph21/subject-126.csv","xpyriment","Jazzy James","3.1.4","0","z","NA","NA","NA","NA","/","z","774","NA","NA","NA","NA","196551","774","2","legacy","1024","2","48000","-16","AB_m21","124","even","NW_S_SIMP","SCHEMENELS","1356","329003","325910","327494","197916","NA","NA","NA","NA","327487","326408","NA","325410","NA","325399","327487","1365","329404","NA","NA","326494","1356","1356","326885","325399","1356","326494","329404","morph21_Oliver/Morris","23","27746","36","yes","1280","15"
"350","64.8648648649","64.8648648649","762.675675676","762.675675676","black","no","xpyriment","legacy","legacy","0","202","NA","uniform","75975","1000","0.0131622244159","1","undefined","1","0","36","36","36","0","36","36","36","NA","36","36","0","36","NA","36","36","0","36","NA","36","NA","36","0","0","36","36","0","36","36","37","/","03/01/18 15:23:49","The main experiment item","yes","FIN__AB__M21__7%3A10%3A17.osexp","C:\Users\ERP Testing Room\Desktop\Joanna\morph21","no","mono","no","18","no","white","no","yes","1080","legacy","36","36","C:/Users/ERP Testing Room/Desktop/Joanna/morph21/subject-126.csv","xpyriment","Jazzy James","3.1.4","0","/","NA","NA","NA","NA","/","/","473","NA","NA","NA","NA","196551","473","2","legacy","1024","2","48000","-16","AB_m21","124","even","CW_L","HUNTER","1356","332212","330628","327494","197916","NA","NA","NA","NA","332204","331125","NA","330128","NA","330120","332204","1365","332562","NA","NA","331212","1356","1356","331603","330120","1356","331212","332562","morph21_Oliver/Morris","24","28219","37","yes","1280","10"
"250","63.1578947368","63.1578947368","764.947368421","764.947368421","black","no","xpyriment","legacy","legacy","0","203","NA","uniform","56770","1000","0.017614937467","0","undefined","0","0","37","37","37","0","37","37","37","NA","37","37","0","37","NA","37","37","0","37","NA","37","NA","37","0","0","37","37","0","37","37","38","z","03/01/18 15:23:49","The main experiment item","yes","FIN__AB__M21__7%3A10%3A17.osexp","C:\Users\ERP Testing Room\Desktop\Joanna\morph21","no","mono","no","18","no","white","no","yes","1080","legacy","37","37","C:/Users/ERP Testing Room/Desktop/Joanna/morph21/subject-126.csv","xpyriment","Jazzy James","3.1.4","0","/","NA","NA","NA","NA","/","/","849","NA","NA","NA","NA","196551","849","2","legacy","1024","2","48000","-16","AB_m21","124","even","NW_S_COMP","BRANCHER","1356","335395","333787","327494","197916","NA","NA","NA","NA","332204","334284","NA","333287","NA","333276","335391","1365","335645","NA","NA","334395","1356","1356","334795","333276","1356","334395","335645","morph21_Oliver/Morris","24","29068","38","yes","1280","16"
"400","64.1025641026","64.1025641026","764.128205128","764.128205128","black","no","xpyriment","legacy","legacy","0","201","NA","uniform","64240","1000","0.0155666251557","1","undefined","1","0","38","38","38","0","38","38","38","NA","38","38","0","38","NA","38","38","0","38","NA","38","NA","38","0","0","38","38","0","38","38","39","/","03/01/18 15:23:49","The main experiment item","yes","FIN__AB__M21__7%3A10%3A17.osexp","C:\Users\ERP Testing Room\Desktop\Joanna\morph21","no","mono","no","18","no","white","no","yes","1080","legacy","38","38","C:/Users/ERP Testing Room/Desktop/Joanna/morph21/subject-126.csv","xpyriment","Jazzy James","3.1.4","0","/","NA","NA","NA","NA","/","/","733","NA","NA","NA","NA","196551","733","2","legacy","1024","2","48000","-16","AB_m21","124","even","CW_S","WIDOWED","1356","339987","336854","338479","197916","NA","NA","NA","NA","338473","337351","NA","336354","NA","336344","338473","1365","340387","NA","NA","337479","1356","1356","337870","336344","1356","337479","340387","morph21_Oliver/Morris","25","29801","39","yes","1280","7"
"250","65","65","763.8","763.8","black","no","xpyriment","legacy","legacy","0","208","NA","uniform","72564","1000","0.0137809382063","1","undefined","1","0","39","39","39","0","39","39","39","NA","39","39","0","39","NA","39","39","0","39","NA","39","NA","39","0","0","39","39","0","39","39","40","z","03/01/18 15:23:49","The main experiment item","yes","FIN__AB__M21__7%3A10%3A17.osexp","C:\Users\ERP Testing Room\Desktop\Joanna\morph21","no","mono","no","18","no","white","no","yes","1080","legacy","39","39","C:/Users/ERP Testing Room/Desktop/Joanna/morph21/subject-126.csv","xpyriment","Jazzy James","3.1.4","0","z","NA","NA","NA","NA","/","z","751","NA","NA","NA","NA","196551","751","2","legacy","1024","2","48000","-16","AB_m21","124","even","FILL_NW","PLAODS","1356","343237","341637","338479","197916","NA","NA","NA","NA","343232","342134","NA","341137","NA","341134","343232","1365","343487","NA","NA","342237","1356","1356","342629","341134","1356","342237","343487","morph21_Oliver/Morris","26","30552","40","yes","1280","37"
"350","63.4146341463","63.4146341463","759.975609756","759.975609756","black","no","xpyriment","legacy","legacy","0","203","NA","uniform","75329","1000","0.0132750998951","0","undefined","0","0","40","40","40","0","40","40","40","NA","40","40","0","40","NA","40","40","0","40","NA","40","NA","40","0","0","40","40","0","40","40","41","z","03/01/18 15:23:49","The main experiment item","yes","FIN__AB__M21__7%3A10%3A17.osexp","C:\Users\ERP Testing Room\Desktop\Joanna\morph21","no","mono","no","18","no","white","no","yes","1080","legacy","40","40","C:/Users/ERP Testing Room/Desktop/Joanna/morph21/subject-126.csv","xpyriment","Jazzy James","3.1.4","0","/","NA","NA","NA","NA","/","/","607","NA","NA","NA","NA","196551","607","2","legacy","1024","2","48000","-16","AB_m21","124","even","NW_S_COMP","HEIGHTENCE","1356","346230","344654","338479","197916","NA","NA","NA","NA","343232","345151","NA","344154","NA","344149","346225","1365","346580","NA","NA","345229","1356","1356","345629","344149","1356","345229","346580","morph21_Oliver/Morris","26","31159","41","yes","1280","18"
"350","64.2857142857","64.2857142857","756.976190476","756.976190476","black","no","xpyriment","legacy","legacy","0","201","NA","uniform","70179","1000","0.0142492768492","1","undefined","1","0","41","41","41","0","41","41","41","NA","41","41","0","41","NA","41","41","0","41","NA","41","NA","41","0","0","41","41","0","41","41","42","/","03/01/18 15:23:49","The main experiment item","yes","FIN__AB__M21__7%3A10%3A17.osexp","C:\Users\ERP Testing Room\Desktop\Joanna\morph21","no","mono","no","18","no","white","no","yes","1080","legacy","41","41","C:/Users/ERP Testing Room/Desktop/Joanna/morph21/subject-126.csv","xpyriment","Jazzy James","3.1.4","0","/","NA","NA","NA","NA","/","/","634","NA","NA","NA","NA","196551","634","2","legacy","1024","2","48000","-16","AB_m21","124","even","CW_S","TOASTER","1356","350839","347747","349330","197916","NA","NA","NA","NA","349326","348244","NA","347247","NA","347243","349326","1365","351189","NA","NA","348338","1356","1356","348730","347243","1356","348338","351189","morph21_Oliver/Morris","27","31793","42","yes","1280","10"
"300","65.1162790698","65.1162790698","752.697674419","752.697674419","black","no","xpyriment","legacy","legacy","0","207","NA","uniform","78729","1000","0.012701799845","1","undefined","1","0","42","42","42","0","42","42","42","NA","42","42","0","42","NA","42","42","0","42","NA","42","NA","42","0","0","42","42","0","42","42","43","/","03/01/18 15:23:49","The main experiment item","yes","FIN__AB__M21__7%3A10%3A17.osexp","C:\Users\ERP Testing Room\Desktop\Joanna\morph21","no","mono","no","18","no","white","no","yes","1080","legacy","42","42","C:/Users/ERP Testing Room/Desktop/Joanna/morph21/subject-126.csv","xpyriment","Jazzy James","3.1.4","0","/","NA","NA","NA","NA","/","/","573","NA","NA","NA","NA","196551","573","2","legacy","1024","2","48000","-16","AB_m21","124","even","FILL_W","IRON","1356","354039","352439","349330","197916","NA","NA","NA","NA","354035","352936","NA","351939","NA","351934","354035","1365","354339","NA","NA","353039","1356","1356","353439","351934","1356","353039","354339","morph21_Oliver/Morris","28","32366","43","yes","1280","33"
"300","63.6363636364","63.6363636364","758.181818182","758.181818182","black","no","xpyriment","legacy","legacy","0","204","NA","uniform","61187","1000","0.0163433409057","0","undefined","0","0","43","43","43","0","43","43","43","NA","43","43","0","43","NA","43","43","0","43","NA","43","NA","43","0","0","43","43","0","43","43","44","z","03/01/18 15:23:49","The main experiment item","yes","FIN__AB__M21__7%3A10%3A17.osexp","C:\Users\ERP Testing Room\Desktop\Joanna\morph21","no","mono","no","18","no","white","no","yes","1080","legacy","43","43","C:/Users/ERP Testing Room/Desktop/Joanna/morph21/subject-126.csv","xpyriment","Jazzy James","3.1.4","0","None","NA","NA","NA","NA","/","None","994","NA","NA","NA","NA","196551","994","2","legacy","1024","2","48000","-16","AB_m21","124","even","NW_L_COMP","SHEETER","1356","357172","355589","349330","197916","NA","NA","NA","NA","354035","356086","NA","355080","NA","355071","357166","1365","357472","NA","NA","356172","1356","1356","356564","355071","1356","356172","357472","morph21_Oliver/Morris","28","33360","44","yes","1280","5"
"350","62.2222222222","62.2222222222","763.333333333","763.333333333","black","no","xpyriment","legacy","legacy","0","206","NA","uniform","61091","1000","0.0163690232604","0","undefined","0","0","44","44","44","0","44","44","44","NA","44","44","0","44","NA","44","44","0","44","NA","44","NA","44","0","0","44","44","0","44","44","45","z","03/01/18 15:23:49","The main experiment item","yes","FIN__AB__M21__7%3A10%3A17.osexp","C:\Users\ERP Testing Room\Desktop\Joanna\morph21","no","mono","no","18","no","white","no","yes","1080","legacy","44","44","C:/Users/ERP Testing Room/Desktop/Joanna/morph21/subject-126.csv","xpyriment","Jazzy James","3.1.4","0","None","NA","NA","NA","NA","/","None","990","NA","NA","NA","NA","196551","990","2","legacy","1024","2","48000","-16","AB_m21","124","even","NW_L_SIMP","WITCHITH","1356","361889","358772","360381","197916","NA","NA","NA","NA","354035","359269","NA","358272","NA","358263","360371","1365","362239","NA","NA","359381","1356","1356","359772","358263","1356","359381","362239","morph21_Oliver/Morris","28","34350","45","yes","1280","11"
"250","60.8695652174","60.8695652174","768.347826087","768.347826087","black","no","xpyriment","legacy","legacy","0","204","NA","uniform","59118","1000","0.0169153218986","0","undefined","0","0","45","45","45","0","45","45","45","NA","45","45","0","45","NA","45","45","0","45","NA","45","NA","45","0","0","45","45","0","45","45","46","z","03/01/18 15:23:49","The main experiment item","yes","FIN__AB__M21__7%3A10%3A17.osexp","C:\Users\ERP Testing Room\Desktop\Joanna\morph21","no","mono","no","18","no","white","no","yes","1080","legacy","45","45","C:/Users/ERP Testing Room/Desktop/Joanna/morph21/subject-126.csv","xpyriment","Jazzy James","3.1.4","0","None","NA","NA","NA","NA","/","None","994","NA","NA","NA","NA","196551","994","2","legacy","1024","2","48000","-16","AB_m21","124","even","NW_L_COMP","TRIPARY","1356","365149","363514","360381","197916","NA","NA","NA","NA","354035","364011","NA","363014","NA","363010","365142","1365","365399","NA","NA","364148","1356","1356","364540","363010","1356","364148","365399","morph21_Oliver/Morris","28","35344","46","yes","1280","2"
"300","59.5744680851","59.5744680851","773.063829787","773.063829787","black","no","xpyriment","legacy","legacy","0","208","NA","uniform","58719","1000","0.017030262777","0","undefined","0","0","46","46","46","0","46","46","46","NA","46","46","0","46","NA","46","46","0","46","NA","46","NA","46","0","0","46","46","0","46","46","47","z","03/01/18 15:23:49","The main experiment item","yes","FIN__AB__M21__7%3A10%3A17.osexp","C:\Users\ERP Testing Room\Desktop\Joanna\morph21","no","mono","no","18","no","white","no","yes","1080","legacy","46","46","C:/Users/ERP Testing Room/Desktop/Joanna/morph21/subject-126.csv","xpyriment","Jazzy James","3.1.4","0","None","NA","NA","NA","NA","/","None","990","NA","NA","NA","NA","196551","990","2","legacy","1024","2","48000","-16","AB_m21","124","even","FILL_NW","VOGS","1356","368257","366649","360381","197916","NA","NA","NA","NA","354035","367146","NA","366149","NA","366138","368247","1365","368557","NA","NA","367257","1356","1356","367649","366138","1356","367257","368557","morph21_Oliver/Morris","28","36334","47","yes","1280","47"
"200","60.4166666667","60.4166666667","768.354166667","768.354166667","black","no","xpyriment","legacy","legacy","0","207","NA","uniform","77345","1000","0.0129290839744","1","undefined","1","0","47","47","47","0","47","47","47","NA","47","47","0","47","NA","47","47","0","47","NA","47","NA","47","0","0","47","47","0","47","47","48","/","03/01/18 15:23:49","The main experiment item","yes","FIN__AB__M21__7%3A10%3A17.osexp","C:\Users\ERP Testing Room\Desktop\Joanna\morph21","no","mono","no","18","no","white","no","yes","1080","legacy","47","47","C:/Users/ERP Testing Room/Desktop/Joanna/morph21/subject-126.csv","xpyriment","Jazzy James","3.1.4","0","/","NA","NA","NA","NA","/","/","547","NA","NA","NA","NA","196551","547","2","legacy","1024","2","48000","-16","AB_m21","124","even","FILL_W","TEST","1356","372957","369865","371449","197916","NA","NA","NA","NA","371442","370363","NA","369365","NA","369356","371442","1365","373157","NA","NA","370449","1356","1356","370840","369355","1356","370449","373157","morph21_Oliver/Morris","29","36881","48","yes","1280","47"
"300","61.2244897959","61.2244897959","768.979591837","768.979591837","black","no","xpyriment","legacy","legacy","0","205","NA","uniform","68309","1000","0.0146393593816","1","undefined","1","0","48","48","48","0","48","48","48","NA","48","48","0","48","NA","48","48","0","48","NA","48","NA","48","0","0","48","48","0","48","48","49","z","03/01/18 15:23:49","The main experiment item","yes","FIN__AB__M21__7%3A10%3A17.osexp","C:\Users\ERP Testing Room\Desktop\Joanna\morph21","no","mono","no","18","no","white","no","yes","1080","legacy","48","48","C:/Users/ERP Testing Room/Desktop/Joanna/morph21/subject-126.csv","xpyriment","Jazzy James","3.1.4","0","z","NA","NA","NA","NA","/","z","799","NA","NA","NA","NA","196551","799","2","legacy","1024","2","48000","-16","AB_m21","124","even","NW_S_SIMP","SOCKETEL","1356","375957","374349","371449","197916","NA","NA","NA","NA","375948","374846","NA","373849","NA","373840","375948","1365","376257","NA","NA","374957","1356","1356","375349","373840","1356","374957","376257","morph21_Oliver/Morris","30","37680","49","yes","1280","1"
"400","60","60","766.9","766.9","black","no","xpyriment","legacy","legacy","0","203","NA","uniform","66794","1000","0.0149714046172","0","undefined","0","0","49","49","49","0","49","49","49","NA","49","49","0","49","NA","49","49","0","49","NA","49","NA","49","0","0","49","49","0","49","49","50","z","03/01/18 15:23:49","The main experiment item","yes","FIN__AB__M21__7%3A10%3A17.osexp","C:\Users\ERP Testing Room\Desktop\Joanna\morph21","no","mono","no","18","no","white","no","yes","1080","legacy","49","49","C:/Users/ERP Testing Room/Desktop/Joanna/morph21/subject-126.csv","xpyriment","Jazzy James","3.1.4","0","/","NA","NA","NA","NA","/","/","665","NA","NA","NA","NA","196551","665","2","legacy","1024","2","48000","-16","AB_m21","124","even","NW_S_COMP","TRUENESS","1356","379107","377524","371449","197916","NA","NA","NA","NA","375948","378021","NA","377024","NA","377019","379102","1365","379508","NA","NA","378107","1356","1356","378507","377019","1356","378107","379508","morph21_Oliver/Morris","30","38345","50","yes","1280","15"
"300","60.7843137255","60.7843137255","764.901960784","764.901960784","black","no","xpyriment","legacy","legacy","0","208","NA","uniform","70105","1000","0.014264317809","1","undefined","1","0","50","50","50","0","50","50","50","NA","50","50","0","50","NA","50","50","0","50","NA","50","NA","50","0","0","50","50","0","50","50","51","z","03/01/18 15:23:49","The main experiment item","yes","FIN__AB__M21__7%3A10%3A17.osexp","C:\Users\ERP Testing Room\Desktop\Joanna\morph21","no","mono","no","18","no","white","no","yes","1080","legacy","50","50","C:/Users/ERP Testing Room/Desktop/Joanna/morph21/subject-126.csv","xpyriment","Jazzy James","3.1.4","0","Z","NA","NA","NA","NA","/","Z","665","NA","NA","NA","NA","196551","665","2","legacy","1024","2","48000","-16","AB_m21","124","even","FILL_NW","VOOFS","1356","383809","380716","382300","197916","NA","NA","NA","NA","382297","381213","NA","380208","NA","380199","382297","1365","384109","NA","NA","381300","1356","1356","381700","380199","1356","381300","384109","morph21_Oliver/Morris","31","39010","51","yes","1280","48"
"200","59.6153846154","59.6153846154","769.307692308","769.307692308","black","no","xpyriment","legacy","legacy","0","207","NA","uniform","53814","1000","0.0185825249935","0","undefined","0","0","51","51","51","0","51","51","51","NA","51","51","0","51","NA","51","51","0","51","NA","51","NA","51","0","0","51","51","0","51","51","52","/","03/01/18 15:23:49","The main experiment item","yes","FIN__AB__M21__7%3A10%3A17.osexp","C:\Users\ERP Testing Room\Desktop\Joanna\morph21","no","mono","no","18","no","white","no","yes","1080","legacy","51","51","C:/Users/ERP Testing Room/Desktop/Joanna/morph21/subject-126.csv","xpyriment","Jazzy James","3.1.4","0","None","NA","NA","NA","NA","/","None","994","NA","NA","NA","NA","196551","994","2","legacy","1024","2","48000","-16","AB_m21","124","even","FILL_W","LEGAL","1356","386909","385300","382300","197916","NA","NA","NA","NA","382297","385798","NA","384800","NA","384796","386903","1365","387109","NA","NA","385909","1356","1356","386300","384796","1356","385909","387109","morph21_Oliver/Morris","31","40004","52","yes","1280","35"
"350","58.4905660377","58.4905660377","773.490566038","773.490566038","black","no","xpyriment","legacy","legacy","0","203","NA","uniform","59309","1000","0.0168608474262","0","undefined","0","0","52","52","52","0","52","52","52","NA","52","52","0","52","NA","52","52","0","52","NA","52","NA","52","0","0","52","52","0","52","52","53","z","03/01/18 15:23:49","The main experiment item","yes","FIN__AB__M21__7%3A10%3A17.osexp","C:\Users\ERP Testing Room\Desktop\Joanna\morph21","no","mono","no","18","no","white","no","yes","1080","legacy","52","52","C:/Users/ERP Testing Room/Desktop/Joanna/morph21/subject-126.csv","xpyriment","Jazzy James","3.1.4","0","None","NA","NA","NA","NA","/","None","991","NA","NA","NA","NA","196551","991","2","legacy","1024","2","48000","-16","AB_m21","124","even","NW_S_COMP","WELDIC","1356","389951","388342","382300","197916","NA","NA","NA","NA","382297","388839","NA","387842","NA","387836","389942","1365","390301","NA","NA","388951","1356","1356","389342","387836","1356","388951","390301","morph21_Oliver/Morris","31","40995","53","yes","1280","21"
"400","57.4074074074","57.4074074074","777.611111111","777.611111111","black","no","xpyriment","legacy","legacy","0","201","NA","uniform","58926","1000","0.0169704374979","0","undefined","0","0","53","53","53","0","53","53","53","NA","53","53","0","53","NA","53","53","0","53","NA","53","NA","53","0","0","53","53","0","53","53","54","/","03/01/18 15:23:49","The main experiment item","yes","FIN__AB__M21__7%3A10%3A17.osexp","C:\Users\ERP Testing Room\Desktop\Joanna\morph21","no","mono","no","18","no","white","no","yes","1080","legacy","53","53","C:/Users/ERP Testing Room/Desktop/Joanna/morph21/subject-126.csv","xpyriment","Jazzy James","3.1.4","0","None","NA","NA","NA","NA","/","None","996","NA","NA","NA","NA","196551","996","2","legacy","1024","2","48000","-16","AB_m21","124","even","CW_S","RAIDER","1356","394709","391609","393201","197916","NA","NA","NA","NA","382297","392106","NA","391109","NA","391100","393197","1365","395109","NA","NA","392201","1356","1356","392601","391100","1356","392201","395109","morph21_Oliver/Morris","31","41991","54","yes","1280","12"
"250","56.3636363636","56.3636363636","781.490909091","781.490909091","black","no","xpyriment","legacy","legacy","0","201","NA","uniform","58763","1000","0.0170175110188","0","undefined","0","0","54","54","54","0","54","54","54","NA","54","54","0","54","NA","54","54","0","54","NA","54","NA","54","0","0","54","54","0","54","54","55","/","03/01/18 15:23:49","The main experiment item","yes","FIN__AB__M21__7%3A10%3A17.osexp","C:\Users\ERP Testing Room\Desktop\Joanna\morph21","no","mono","no","18","no","white","no","yes","1080","legacy","54","54","C:/Users/ERP Testing Room/Desktop/Joanna/morph21/subject-126.csv","xpyriment","Jazzy James","3.1.4","0","None","NA","NA","NA","NA","/","None","991","NA","NA","NA","NA","196551","991","2","legacy","1024","2","48000","-16","AB_m21","124","even","CW_S","COSTLY","1356","397968","396343","393201","197916","NA","NA","NA","NA","382297","396840","NA","395843","NA","395837","397960","1365","398218","NA","NA","396968","1356","1356","397359","395837","1356","396968","398218","morph21_Oliver/Morris","31","42982","55","yes","1280","36"
"400","55.3571428571","55.3571428571","785.285714286","785.285714286","black","no","xpyriment","legacy","legacy","0","208","NA","uniform","54747","1000","0.0182658410507","0","undefined","0","0","55","55","55","0","55","55","55","NA","55","55","0","55","NA","55","55","0","55","NA","55","NA","55","0","0","55","55","0","55","55","56","z","03/01/18 15:23:49","The main experiment item","yes","FIN__AB__M21__7%3A10%3A17.osexp","C:\Users\ERP Testing Room\Desktop\Joanna\morph21","no","mono","no","18","no","white","no","yes","1080","legacy","55","55","C:/Users/ERP Testing Room/Desktop/Joanna/morph21/subject-126.csv","xpyriment","Jazzy James","3.1.4","0","None","NA","NA","NA","NA","/","None","994","NA","NA","NA","NA","196551","994","2","legacy","1024","2","48000","-16","AB_m21","124","even","FILL_NW","FROES","1356","401077","399485","393201","197916","NA","NA","NA","NA","382297","399982","NA","398985","NA","398982","401071","1365","401477","NA","NA","400077","1356","1356","400469","398982","1356","400077","401477","morph21_Oliver/Morris","31","43976","56","yes","1280","21"
"200","54.3859649123","54.3859649123","788.964912281","788.964912281","black","no","xpyriment","legacy","legacy","0","208","NA","uniform","58998","1000","0.0169497271094","0","undefined","0","0","56","56","56","0","56","56","56","NA","56","56","0","56","NA","56","56","0","56","NA","56","NA","56","0","0","56","56","0","56","56","57","z","03/01/18 15:23:49","The main experiment item","yes","FIN__AB__M21__7%3A10%3A17.osexp","C:\Users\ERP Testing Room\Desktop\Joanna\morph21","no","mono","no","18","no","white","no","yes","1080","legacy","56","56","C:/Users/ERP Testing Room/Desktop/Joanna/morph21/subject-126.csv","xpyriment","Jazzy James","3.1.4","0","None","NA","NA","NA","NA","/","None","995","NA","NA","NA","NA","196551","995","2","legacy","1024","2","48000","-16","AB_m21","124","even","FILL_NW","GILN","1356","405769","402669","404261","197916","NA","NA","NA","NA","382297","403166","NA","402169","NA","402165","404256","1365","405969","NA","NA","403261","1356","1356","403661","402165","1356","403260","405969","morph21_Oliver/Morris","31","44971","57","yes","1280","25"
"400","53.4482758621","53.4482758621","792.448275862","792.448275862","black","no","xpyriment","legacy","legacy","0","208","NA","uniform","58014","1000","0.0172372186024","0","undefined","0","0","57","57","57","0","57","57","57","NA","57","57","0","57","NA","57","57","0","57","NA","57","NA","57","0","0","57","57","0","57","57","58","z","03/01/18 15:23:49","The main experiment item","yes","FIN__AB__M21__7%3A10%3A17.osexp","C:\Users\ERP Testing Room\Desktop\Joanna\morph21","no","mono","no","18","no","white","no","yes","1080","legacy","57","57","C:/Users/ERP Testing Room/Desktop/Joanna/morph21/subject-126.csv","xpyriment","Jazzy James","3.1.4","0","None","NA","NA","NA","NA","/","None","991","NA","NA","NA","NA","196551","991","2","legacy","1024","2","48000","-16","AB_m21","124","even","FILL_NW","HEND","1356","408811","407194","404261","197916","NA","NA","NA","NA","382297","407691","NA","406694","NA","406686","408802","1365","409211","NA","NA","407811","1356","1356","408202","406686","1356","407811","409211","morph21_Oliver/Morris","31","45962","58","yes","1280","28"
"350","52.5423728814","52.5423728814","795.86440678","795.86440678","black","no","xpyriment","legacy","legacy","0","207","NA","uniform","60782","1000","0.0164522391497","0","undefined","0","0","58","58","58","0","58","58","58","NA","58","58","0","58","NA","58","58","0","58","NA","58","NA","58","0","0","58","58","0","58","58","59","/","03/01/18 15:23:49","The main experiment item","yes","FIN__AB__M21__7%3A10%3A17.osexp","C:\Users\ERP Testing Room\Desktop\Joanna\morph21","no","mono","no","18","no","white","no","yes","1080","legacy","58","58","C:/Users/ERP Testing Room/Desktop/Joanna/morph21/subject-126.csv","xpyriment","Jazzy James","3.1.4","0","None","NA","NA","NA","NA","/","None","994","NA","NA","NA","NA","196551","994","2","legacy","1024","2","48000","-16","AB_m21","124","even","FILL_W","WEIRD","1356","412102","410502","404261","197916","NA","NA","NA","NA","382297","411000","NA","410002","NA","409996","412097","1365","412453","NA","NA","411103","1356","1356","411494","409996","1356","411102","412453","morph21_Oliver/Morris","31","46956","59","yes","1280","2"
"250","51.6666666667","51.6666666667","799.133333333","799.133333333","black","no","xpyriment","legacy","legacy","0","207","NA","uniform","58392","1000","0.0171256336484","0","undefined","0","0","59","59","59","0","59","59","59","NA","59","59","0","59","NA","59","59","0","59","NA","59","NA","59","0","0","59","59","0","59","59","60","/","03/01/18 15:23:49","The main experiment item","yes","FIN__AB__M21__7%3A10%3A17.osexp","C:\Users\ERP Testing Room\Desktop\Joanna\morph21","no","mono","no","18","no","white","no","yes","1080","legacy","59","59","C:/Users/ERP Testing Room/Desktop/Joanna/morph21/subject-126.csv","xpyriment","Jazzy James","3.1.4","0","None","NA","NA","NA","NA","/","None","992","NA","NA","NA","NA","196551","992","2","legacy","1024","2","48000","-16","AB_m21","124","even","FILL_W","TREAT","1356","416804","413686","415294","197916","NA","NA","NA","NA","382297","414183","NA","413186","NA","413181","415286","1365","417054","NA","NA","414294","1356","1356","414686","413181","1356","414294","417054","morph21_Oliver/Morris","31","47948","60","yes","1280","48"
"400","50.8196721311","50.8196721311","802.245901639","802.245901639","black","no","xpyriment","legacy","legacy","0","201","NA","uniform","56156","1000","0.0178075361493","0","undefined","0","0","60","60","60","0","60","60","60","NA","60","60","0","60","NA","60","60","0","60","NA","60","NA","60","0","0","60","60","0","60","60","61","/","03/01/18 15:23:49","The main experiment item","yes","FIN__AB__M21__7%3A10%3A17.osexp","C:\Users\ERP Testing Room\Desktop\Joanna\morph21","no","mono","no","18","no","white","no","yes","1080","legacy","60","60","C:/Users/ERP Testing Room/Desktop/Joanna/morph21/subject-126.csv","xpyriment","Jazzy James","3.1.4","0","None","NA","NA","NA","NA","/","None","989","NA","NA","NA","NA","196551","989","2","legacy","1024","2","48000","-16","AB_m21","124","even","CW_S","DIETARY","1356","419912","418312","415294","197916","NA","NA","NA","NA","382297","418809","NA","417812","NA","417804","419901","1365","420312","NA","NA","418912","1356","1356","419304","417804","1356","418912","420312","morph21_Oliver/Morris","31","48937","61","yes","1280","6"
"200","50","50","805.338709677","805.338709677","black","no","xpyriment","legacy","legacy","0","202","NA","uniform","59778","1000","0.0167285623474","0","undefined","0","0","61","61","61","0","61","61","61","NA","61","61","0","61","NA","61","61","0","61","NA","61","NA","61","0","0","61","61","0","61","61","62","/","03/01/18 15:23:49","The main experiment item","yes","FIN__AB__M21__7%3A10%3A17.osexp","C:\Users\ERP Testing Room\Desktop\Joanna\morph21","no","mono","no","18","no","white","no","yes","1080","legacy","61","61","C:/Users/ERP Testing Room/Desktop/Joanna/morph21/subject-126.csv","xpyriment","Jazzy James","3.1.4","0","None","NA","NA","NA","NA","/","None","994","NA","NA","NA","NA","196551","994","2","legacy","1024","2","48000","-16","AB_m21","124","even","CW_L","COLLECTOR","1356","423121","421537","415294","197916","NA","NA","NA","NA","382297","422034","NA","421037","NA","421031","423115","1365","423321","NA","NA","422121","1356","1356","422512","421031","1356","422121","423321","morph21_Oliver/Morris","31","49931","62","yes","1280","46"
"200","49.2063492063","49.2063492063","808.333333333","808.333333333","black","no","xpyriment","legacy","legacy","0","201","NA","uniform","62476","1000","0.0160061463602","0","undefined","0","0","62","62","62","0","62","62","62","NA","62","62","0","62","NA","62","62","0","62","NA","62","NA","62","0","0","62","62","0","62","62","63","/","03/01/18 15:23:49","The main experiment item","yes","FIN__AB__M21__7%3A10%3A17.osexp","C:\Users\ERP Testing Room\Desktop\Joanna\morph21","no","mono","no","18","no","white","no","yes","1080","legacy","62","62","C:/Users/ERP Testing Room/Desktop/Joanna/morph21/subject-126.csv","xpyriment","Jazzy James","3.1.4","0","None","NA","NA","NA","NA","/","None","994","NA","NA","NA","NA","196551","994","2","legacy","1024","2","48000","-16","AB_m21","124","even","CW_S","BOLDNESS","1356","427654","424562","426146","197916","NA","NA","NA","NA","382297","425060","NA","424062","NA","424054","426140","1365","427854","NA","NA","425146","1356","1356","425537","424054","1356","425146","427854","morph21_Oliver/Morris","31","50925","63","yes","1280","41"
"200","48.4375","48.4375","811.203125","811.203125","black","no","xpyriment","legacy","legacy","0","207","NA","uniform","58523","1000","0.0170872990106","0","undefined","0","0","63","63","63","0","63","63","63","NA","63","63","0","63","NA","63","63","0","63","NA","63","NA","63","0","0","63","63","0","63","63","64","/","03/01/18 15:23:49","The main experiment item","yes","FIN__AB__M21__7%3A10%3A17.osexp","C:\Users\ERP Testing Room\Desktop\Joanna\morph21","no","mono","no","18","no","white","no","yes","1080","legacy","63","63","C:/Users/ERP Testing Room/Desktop/Joanna/morph21/subject-126.csv","xpyriment","Jazzy James","3.1.4","0","None","NA","NA","NA","NA","/","None","992","NA","NA","NA","NA","196551","992","2","legacy","1024","2","48000","-16","AB_m21","124","even","FILL_W","BLEAK","1356","430763","429179","426146","197916","NA","NA","NA","NA","382297","429676","NA","428679","NA","428676","430755","1365","430963","NA","NA","429763","1356","1356","430154","428676","1356","429763","430963","morph21_Oliver/Morris","31","51917","64","yes","1280","5"
"200","49.2307692308","49.2307692308","811.307692308","811.307692308","black","no","xpyriment","legacy","legacy","0","208","NA","uniform","65007","1000","0.0153829587583","1","undefined","1","0","64","64","64","0","64","64","64","NA","64","64","0","64","NA","64","64","0","64","NA","64","NA","64","0","0","64","64","0","64","64","65","z","03/01/18 15:23:49","The main experiment item","yes","FIN__AB__M21__7%3A10%3A17.osexp","C:\Users\ERP Testing Room\Desktop\Joanna\morph21","no","mono","no","18","no","white","no","yes","1080","legacy","64","64","C:/Users/ERP Testing Room/Desktop/Joanna/morph21/subject-126.csv","xpyriment","Jazzy James","3.1.4","0","Z","NA","NA","NA","NA","/","Z","818","NA","NA","NA","NA","196551","818","2","legacy","1024","2","48000","-16","AB_m21","124","even","FILL_NW","HESK","1356","433739","432129","426146","197916","NA","NA","NA","NA","433734","432627","NA","431629","NA","431618","433734","1365","433939","NA","NA","432738","1356","1356","433138","431618","1356","432738","433939","morph21_Oliver/Morris","32","52735","65","yes","1280","29"
"350","48.4848484848","48.4848484848","814.106060606","814.106060606","black","no","xpyriment","legacy","legacy","0","205","NA","uniform","60239","1000","0.0166005411776","0","undefined","0","0","65","65","65","0","65","65","65","NA","65","65","0","65","NA","65","65","0","65","NA","65","NA","65","0","0","65","65","0","65","65","66","z","03/01/18 15:23:49","The main experiment item","yes","FIN__AB__M21__7%3A10%3A17.osexp","C:\Users\ERP Testing Room\Desktop\Joanna\morph21","no","mono","no","18","no","white","no","yes","1080","legacy","65","65","C:/Users/ERP Testing Room/Desktop/Joanna/morph21/subject-126.csv","xpyriment","Jazzy James","3.1.4","0","None","NA","NA","NA","NA","/","None","996","NA","NA","NA","NA","196551","996","2","legacy","1024","2","48000","-16","AB_m21","124","even","NW_S_SIMP","ACREMANT","1356","438306","435214","436797","197916","NA","NA","NA","NA","433734","435711","NA","434714","NA","434706","436793","1365","438656","NA","NA","435797","1356","1356","436197","434706","1356","435797","438656","morph21_Oliver/Morris","32","53731","66","yes","1280","16"
"300","47.7611940299","47.7611940299","816.820895522","816.820895522","black","no","xpyriment","legacy","legacy","0","205","NA","uniform","63634","1000","0.0157148694094","0","undefined","0","0","66","66","66","0","66","66","66","NA","66","66","0","66","NA","66","66","0","66","NA","66","NA","66","0","0","66","66","0","66","66","67","z","03/01/18 15:23:49","The main experiment item","yes","FIN__AB__M21__7%3A10%3A17.osexp","C:\Users\ERP Testing Room\Desktop\Joanna\morph21","no","mono","no","18","no","white","no","yes","1080","legacy","66","66","C:/Users/ERP Testing Room/Desktop/Joanna/morph21/subject-126.csv","xpyriment","Jazzy James","3.1.4","0","None","NA","NA","NA","NA","/","None","996","NA","NA","NA","NA","196551","996","2","legacy","1024","2","48000","-16","AB_m21","124","even","NW_S_SIMP","FEVERIME","1356","441606","440006","436797","197916","NA","NA","NA","NA","433734","440503","NA","439506","NA","439496","441595","1365","441906","NA","NA","440597","1356","1356","440997","439496","1356","440597","441906","morph21_Oliver/Morris","32","54727","67","yes","1280","24"
"300","47.0588235294","47.0588235294","819.426470588","819.426470588","black","no","xpyriment","legacy","legacy","0","202","NA","uniform","59840","1000","0.0167112299465","0","undefined","0","0","67","67","67","0","67","67","67","NA","67","67","0","67","NA","67","67","0","67","NA","67","NA","67","0","0","67","67","0","67","67","68","/","03/01/18 15:23:49","The main experiment item","yes","FIN__AB__M21__7%3A10%3A17.osexp","C:\Users\ERP Testing Room\Desktop\Joanna\morph21","no","mono","no","18","no","white","no","yes","1080","legacy","67","67","C:/Users/ERP Testing Room/Desktop/Joanna/morph21/subject-126.csv","xpyriment","Jazzy James","3.1.4","0","None","NA","NA","NA","NA","/","None","994","NA","NA","NA","NA","196551","994","2","legacy","1024","2","48000","-16","AB_m21","124","even","CW_L","WEEDY","1356","444731","443148","436797","197916","NA","NA","NA","NA","433734","443645","NA","442648","NA","442636","444725","1365","445031","NA","NA","443731","1356","1356","444123","442636","1356","443731","445031","morph21_Oliver/Morris","32","55721","68","yes","1280","48"
"300","47.8260869565","47.8260869565","820.202898551","820.202898551","black","no","xpyriment","legacy","legacy","0","206","NA","uniform","60486","1000","0.0165327513805","1","undefined","1","0","68","68","68","0","68","68","68","NA","68","68","0","68","NA","68","68","0","68","NA","68","NA","68","0","0","68","68","0","68","68","69","z","03/01/18 15:23:49","The main experiment item","yes","FIN__AB__M21__7%3A10%3A17.osexp","C:\Users\ERP Testing Room\Desktop\Joanna\morph21","no","mono","no","18","no","white","no","yes","1080","legacy","68","68","C:/Users/ERP Testing Room/Desktop/Joanna/morph21/subject-126.csv","xpyriment","Jazzy James","3.1.4","0","Z","NA","NA","NA","NA","/","Z","873","NA","NA","NA","NA","196551","873","2","legacy","1024","2","48000","-16","AB_m21","124","even","NW_L_SIMP","TAXFIL","1356","449423","446314","447914","197916","NA","NA","NA","NA","447906","446812","NA","445814","NA","445804","447906","1365","449723","NA","NA","446915","1356","1356","447306","445804","1356","446914","449723","morph21_Oliver/Morris","33","56594","69","yes","1280","6"
"400","47.1428571429","47.1428571429","822.642857143","822.642857143","black","no","xpyriment","legacy","legacy","0","202","NA","uniform","60674","1000","0.0164815242114","0","undefined","0","0","69","69","69","0","69","69","69","NA","69","69","0","69","NA","69","69","0","69","NA","69","NA","69","0","0","69","69","0","69","69","70","/","03/01/18 15:23:49","The main experiment item","yes","FIN__AB__M21__7%3A10%3A17.osexp","C:\Users\ERP Testing Room\Desktop\Joanna\morph21","no","mono","no","18","no","white","no","yes","1080","legacy","69","69","C:/Users/ERP Testing Room/Desktop/Joanna/morph21/subject-126.csv","xpyriment","Jazzy James","3.1.4","0","None","NA","NA","NA","NA","/","None","991","NA","NA","NA","NA","196551","991","2","legacy","1024","2","48000","-16","AB_m21","124","even","CW_L","QUIETLY","1356","452532","450915","447914","197916","NA","NA","NA","NA","447906","451412","NA","450415","NA","450411","452523","1365","452932","NA","NA","451532","1356","1356","451924","450411","1356","451532","452932","morph21_Oliver/Morris","33","57585","70","yes","1280","36"
"200","47.8873239437","47.8873239437","823.112676056","823.112676056","black","no","xpyriment","legacy","legacy","0","208","NA","uniform","61750","1000","0.0161943319838","1","undefined","1","0","70","70","70","0","70","70","70","NA","70","70","0","70","NA","70","70","0","70","NA","70","NA","70","0","0","70","70","0","70","70","71","z","03/01/18 15:23:49","The main experiment item","yes","FIN__AB__M21__7%3A10%3A17.osexp","C:\Users\ERP Testing Room\Desktop\Joanna\morph21","no","mono","no","18","no","white","no","yes","1080","legacy","70","70","C:/Users/ERP Testing Room/Desktop/Joanna/morph21/subject-126.csv","xpyriment","Jazzy James","3.1.4","0","Z","NA","NA","NA","NA","/","Z","856","NA","NA","NA","NA","196551","856","2","legacy","1024","2","48000","-16","AB_m21","124","even","FILL_NW","DARM","1356","455757","454157","447914","197916","NA","NA","NA","NA","455748","454655","NA","453657","NA","453651","455748","1365","455958","NA","NA","454757","1356","1356","455149","453651","1356","454757","455958","morph21_Oliver/Morris","34","58441","71","yes","1280","11"
"250","47.2222222222","47.2222222222","825.5","825.5","black","no","xpyriment","legacy","legacy","0","207","NA","uniform","62595","1000","0.0159757169103","0","undefined","0","0","71","71","71","0","71","71","71","NA","71","71","0","71","NA","71","71","0","71","NA","71","NA","71","0","0","71","71","0","71","71","72","/","03/01/18 15:23:49","The main experiment item","yes","FIN__AB__M21__7%3A10%3A17.osexp","C:\Users\ERP Testing Room\Desktop\Joanna\morph21","no","mono","no","18","no","white","no","yes","1080","legacy","71","71","C:/Users/ERP Testing Room/Desktop/Joanna/morph21/subject-126.csv","xpyriment","Jazzy James","3.1.4","0","None","NA","NA","NA","NA","/","None","995","NA","NA","NA","NA","196551","995","2","legacy","1024","2","48000","-16","AB_m21","124","even","FILL_W","SHIP","1356","460216","457116","458708","197916","NA","NA","NA","NA","455748","457613","NA","456616","NA","456608","458703","1365","460466","NA","NA","457708","1356","1356","458108","456608","1356","457707","460466","morph21_Oliver/Morris","34","59436","72","yes","1280","37"
"250","46.5753424658","46.5753424658","827.835616438","827.835616438","black","no","xpyriment","legacy","legacy","0","202","NA","uniform","62448","1000","0.0160133230848","0","undefined","0","0","72","72","72","0","72","72","72","NA","72","72","0","72","NA","72","72","0","72","NA","72","NA","72","0","0","72","72","0","72","72","73","/","03/01/18 15:23:49","The main experiment item","yes","FIN__AB__M21__7%3A10%3A17.osexp","C:\Users\ERP Testing Room\Desktop\Joanna\morph21","no","mono","no","18","no","white","no","yes","1080","legacy","72","72","C:/Users/ERP Testing Room/Desktop/Joanna/morph21/subject-126.csv","xpyriment","Jazzy James","3.1.4","0","None","NA","NA","NA","NA","/","None","996","NA","NA","NA","NA","196551","996","2","legacy","1024","2","48000","-16","AB_m21","124","even","CW_L","DANCER","1356","463266","461674","458708","197916","NA","NA","NA","NA","455748","462172","NA","461174","NA","461167","463262","1365","463516","NA","NA","462266","1356","1356","462666","461167","1356","462266","463516","morph21_Oliver/Morris","34","60432","73","yes","1280","11"
"200","47.2972972973","47.2972972973","826.527027027","826.527027027","black","no","xpyriment","legacy","legacy","0","208","NA","uniform","67108","1000","0.0149013530429","1","undefined","1","0","73","73","73","0","73","73","73","NA","73","73","0","73","NA","73","73","0","73","NA","73","NA","73","0","0","73","73","0","73","73","74","z","03/01/18 15:23:49","The main experiment item","yes","FIN__AB__M21__7%3A10%3A17.osexp","C:\Users\ERP Testing Room\Desktop\Joanna\morph21","no","mono","no","18","no","white","no","yes","1080","legacy","73","73","C:/Users/ERP Testing Room/Desktop/Joanna/morph21/subject-126.csv","xpyriment","Jazzy James","3.1.4","0","Z","NA","NA","NA","NA","/","Z","731","NA","NA","NA","NA","196551","731","2","legacy","1024","2","48000","-16","AB_m21","124","even","FILL_NW","TUEER","1356","466425","464824","458708","197916","NA","NA","NA","NA","466418","465322","NA","464325","NA","464317","466418","1365","466625","NA","NA","465425","1356","1356","465816","464316","1356","465425","466625","morph21_Oliver/Morris","35","61163","74","yes","1280","44"
"400","46.6666666667","46.6666666667","828.706666667","828.706666667","black","no","xpyriment","legacy","legacy","0","208","NA","uniform","62667","1000","0.0159573619289","undefined","undefined","0","0","74","74","74","0","74","74","74","NA","74","74","0","74","NA","74","74","0","74","NA","74","NA","74","0","0","74","74","0","74","74","75","z","03/01/18 15:23:49","The main experiment item","yes","FIN__AB__M21__7%3A10%3A17.osexp","C:\Users\ERP Testing Room\Desktop\Joanna\morph21","no","mono","no","18","no","white","no","yes","1080","legacy","74","74","C:/Users/ERP Testing Room/Desktop/Joanna/morph21/subject-126.csv","xpyriment","Jazzy James","3.1.4","0","?","?","NA","NA","NA","/","None","0","0","NA","NA","NA","196551","990","2","legacy","1024","2","48000","-16","AB_m21","124","even","FILL_NW","BUTE","1356","470917","467800","469409","197916","471326","NA","NA","NA","466418","468297","NA","467300","NA","467294","469406","1365","471328","NA","NA","468416","1356","1356","468809","467294","1356","468416","471318","morph21_Oliver/Morris","35","62153","75","yes","1280","5"
"250","46.0526315789","46.0526315789","830.855263158","830.855263158","black","no","xpyriment","legacy","legacy","0","201","NA","uniform","61596","1000","0.0162348204429","0","undefined","0","0","75","75","75","0","75","75","75","NA","75","75","0","75","NA","75","75","0","75","NA","75","NA","75","0","0","75","75","0","75","75","76","/","03/01/18 15:23:49","The main experiment item","yes","FIN__AB__M21__7%3A10%3A17.osexp","C:\Users\ERP Testing Room\Desktop\Joanna\morph21","no","mono","no","18","no","white","no","yes","1080","legacy","75","75","C:/Users/ERP Testing Room/Desktop/Joanna/morph21/subject-126.csv","xpyriment","Jazzy James","3.1.4","0","None","?","NA","NA","NA","/","None","992","0","NA","NA","NA","196551","992","2","legacy","1024","2","48000","-16","AB_m21","124","even","CW_S","PLANNER","1356","474143","472559","469409","197916","471326","NA","NA","NA","466418","473056","NA","472059","NA","472049","474135","1365","474393","NA","NA","473143","1356","1356","473534","472048","1356","473143","474393","morph21_Oliver/Morris","35","63145","76","yes","1280","22"
"250","45.4545454545","45.4545454545","832.974025974","832.974025974","black","no","xpyriment","legacy","legacy","0","201","NA","uniform","61336","1000","0.0163036389722","0","undefined","0","0","76","76","76","0","76","76","76","NA","76","76","0","76","NA","76","76","0","76","NA","76","NA","76","0","0","76","76","0","76","76","77","/","03/01/18 15:23:49","The main experiment item","yes","FIN__AB__M21__7%3A10%3A17.osexp","C:\Users\ERP Testing Room\Desktop\Joanna\morph21","no","mono","no","18","no","white","no","yes","1080","legacy","76","76","C:/Users/ERP Testing Room/Desktop/Joanna/morph21/subject-126.csv","xpyriment","Jazzy James","3.1.4","0","None","?","NA","NA","NA","/","None","994","0","NA","NA","NA","196551","994","2","legacy","1024","2","48000","-16","AB_m21","124","even","CW_S","JAILER","1356","477168","475568","469409","197916","471326","NA","NA","NA","466418","476065","NA","475068","NA","475059","477162","1365","477418","NA","NA","476168","1356","1356","476559","475059","1356","476168","477418","morph21_Oliver/Morris","35","64139","77","yes","1280","13"
"400","44.8717948718","44.8717948718","835","835","black","no","xpyriment","legacy","legacy","0","207","NA","uniform","58548","1000","0.0170800027328","0","undefined","0","0","77","77","77","0","77","77","77","NA","77","77","0","77","NA","77","77","0","77","NA","77","NA","77","0","0","77","77","0","77","77","78","/","03/01/18 15:23:49","The main experiment item","yes","FIN__AB__M21__7%3A10%3A17.osexp","C:\Users\ERP Testing Room\Desktop\Joanna\morph21","no","mono","no","18","no","white","no","yes","1080","legacy","77","77","C:/Users/ERP Testing Room/Desktop/Joanna/morph21/subject-126.csv","xpyriment","Jazzy James","3.1.4","0","None","?","NA","NA","NA","/","None","991","0","NA","NA","NA","196551","991","2","legacy","1024","2","48000","-16","AB_m21","124","even","FILL_W","CRUNCH","1356","481743","478618","480235","197916","471326","NA","NA","NA","466418","479115","NA","478118","NA","478112","480226","1365","482143","NA","NA","479235","1356","1356","479626","478112","1356","479234","482143","morph21_Oliver/Morris","35","65130","78","yes","1280","20"
"400","45.5696202532","45.5696202532","832.898734177","832.898734177","black","no","xpyriment","legacy","legacy","0","208","NA","uniform","68145","1000","0.0146745909458","1","undefined","1","0","78","78","78","0","78","78","78","NA","78","78","0","78","NA","78","78","0","78","NA","78","NA","78","0","0","78","78","0","78","78","79","z","03/01/18 15:23:49","The main experiment item","yes","FIN__AB__M21__7%3A10%3A17.osexp","C:\Users\ERP Testing Room\Desktop\Joanna\morph21","no","mono","no","18","no","white","no","yes","1080","legacy","78","78","C:/Users/ERP Testing Room/Desktop/Joanna/morph21/subject-126.csv","xpyriment","Jazzy James","3.1.4","0","Z","?","NA","NA","NA","/","Z","669","0","NA","NA","NA","196551","669","2","legacy","1024","2","48000","-16","AB_m21","124","even","FILL_NW","GIKE","1356","484943","483318","480235","197916","471326","NA","NA","NA","484933","483815","NA","482818","NA","482810","484933","1365","485343","NA","NA","483943","1356","1356","484335","482810","1356","483943","485343","morph21_Oliver/Morris","36","65799","79","yes","1280","24"
"200","45","45","834.875","834.875","black","no","xpyriment","legacy","legacy","0","201","NA","uniform","63152","1000","0.015834811249","0","undefined","0","0","79","79","79","0","79","79","79","NA","79","79","0","79","NA","79","79","0","79","NA","79","NA","79","0","0","79","79","0","79","79","80","/","03/01/18 15:23:49","The main experiment item","yes","FIN__AB__M21__7%3A10%3A17.osexp","C:\Users\ERP Testing Room\Desktop\Joanna\morph21","no","mono","no","18","no","white","no","yes","1080","legacy","79","79","C:/Users/ERP Testing Room/Desktop/Joanna/morph21/subject-126.csv","xpyriment","Jazzy James","3.1.4","0","None","?","NA","NA","NA","/","None","991","0","NA","NA","NA","196551","991","2","legacy","1024","2","48000","-16","AB_m21","124","even","CW_S","CAMPAIGNER","1356","488144","486552","480235","197916","471326","NA","NA","NA","484933","487050","NA","486052","NA","486045","488135","1365","488344","NA","NA","487144","1356","1356","487536","486045","1356","487144","488344","morph21_Oliver/Morris","36","66790","80","yes","1280","15"
"200","44.4444444444","44.4444444444","836.827160494","836.827160494","black","no","xpyriment","legacy","legacy","0","207","NA","uniform","64385","1000","0.0155315679118","0","undefined","0","0","80","80","80","0","80","80","80","NA","80","80","0","80","NA","80","80","0","80","NA","80","NA","80","0","0","80","80","0","80","80","81","/","03/01/18 15:23:49","The main experiment item","yes","FIN__AB__M21__7%3A10%3A17.osexp","C:\Users\ERP Testing Room\Desktop\Joanna\morph21","no","mono","no","18","no","white","no","yes","1080","legacy","80","80","C:/Users/ERP Testing Room/Desktop/Joanna/morph21/subject-126.csv","xpyriment","Jazzy James","3.1.4","0","None","?","NA","NA","NA","/","None","993","0","NA","NA","NA","196551","993","2","legacy","1024","2","48000","-16","AB_m21","124","even","FILL_W","WRECK","1356","492653","489561","491144","197916","471326","NA","NA","NA","484933","490058","NA","489061","NA","489052","491137","1365","492853","NA","NA","490144","1356","1356","490536","489052","1356","490144","492853","morph21_Oliver/Morris","36","67783","81","yes","1280","13"
"250","43.9024390244","43.9024390244","838.719512195","838.719512195","black","no","xpyriment","legacy","legacy","0","207","NA","uniform","58059","1000","0.0172238584888","0","undefined","0","0","81","81","81","0","81","81","81","NA","81","81","0","81","NA","81","81","0","81","NA","81","NA","81","0","0","81","81","0","81","81","82","/","03/01/18 15:23:49","The main experiment item","yes","FIN__AB__M21__7%3A10%3A17.osexp","C:\Users\ERP Testing Room\Desktop\Joanna\morph21","no","mono","no","18","no","white","no","yes","1080","legacy","81","81","C:/Users/ERP Testing Room/Desktop/Joanna/morph21/subject-126.csv","xpyriment","Jazzy James","3.1.4","0","None","?","NA","NA","NA","/","None","992","0","NA","NA","NA","196551","992","2","legacy","1024","2","48000","-16","AB_m21","124","even","FILL_W","SOFT","1356","495711","494111","491144","197916","471326","NA","NA","NA","484933","494608","NA","493611","NA","493604","495703","1365","495961","NA","NA","494711","1356","1356","495103","493604","1356","494711","495961","morph21_Oliver/Morris","36","68775","82","yes","1280","43"
"250","43.3734939759","43.3734939759","840.56626506","840.56626506","black","no","xpyriment","legacy","legacy","0","207","NA","uniform","60259","1000","0.0165950314476","0","undefined","0","0","82","82","82","0","82","82","82","NA","82","82","0","82","NA","82","82","0","82","NA","82","NA","82","0","0","82","82","0","82","82","83","/","03/01/18 15:23:49","The main experiment item","yes","FIN__AB__M21__7%3A10%3A17.osexp","C:\Users\ERP Testing Room\Desktop\Joanna\morph21","no","mono","no","18","no","white","no","yes","1080","legacy","82","82","C:/Users/ERP Testing Room/Desktop/Joanna/morph21/subject-126.csv","xpyriment","Jazzy James","3.1.4","0","None","?","NA","NA","NA","/","None","992","0","NA","NA","NA","196551","992","2","legacy","1024","2","48000","-16","AB_m21","124","even","FILL_W","SUIT","1356","498811","497203","491144","197916","471326","NA","NA","NA","484933","497700","NA","496703","NA","496695","498803","1365","499061","NA","NA","497811","1356","1356","498203","496695","1356","497811","499061","morph21_Oliver/Morris","36","69767","83","yes","1280","49"
"250","42.8571428571","42.8571428571","842.380952381","842.380952381","black","no","xpyriment","legacy","legacy","0","204","NA","uniform","56019","1000","0.0178510862386","0","undefined","0","0","83","83","83","0","83","83","83","NA","83","83","0","83","NA","83","83","0","83","NA","83","NA","83","0","0","83","83","0","83","83","84","z","03/01/18 15:23:49","The main experiment item","yes","FIN__AB__M21__7%3A10%3A17.osexp","C:\Users\ERP Testing Room\Desktop\Joanna\morph21","no","mono","no","18","no","white","no","yes","1080","legacy","83","83","C:/Users/ERP Testing Room/Desktop/Joanna/morph21/subject-126.csv","xpyriment","Jazzy James","3.1.4","0","None","?","NA","NA","NA","/","None","993","0","NA","NA","NA","196551","993","2","legacy","1024","2","48000","-16","AB_m21","124","even","NW_L_COMP","MUDLY","1356","503345","500253","501836","197916","471326","NA","NA","NA","484933","500750","NA","499753","NA","499748","501830","1365","503595","NA","NA","500837","1356","1356","501228","499748","1356","500836","503595","morph21_Oliver/Morris","36","70760","84","yes","1280","12"
"400","42.3529411765","42.3529411765","844.117647059","844.117647059","black","no","xpyriment","legacy","legacy","0","202","NA","uniform","62341","1000","0.0160408078151","0","undefined","0","0","84","84","84","0","84","84","84","NA","84","84","0","84","NA","84","84","0","84","NA","84","NA","84","0","0","84","84","0","84","84","85","/","03/01/18 15:23:49","The main experiment item","yes","FIN__AB__M21__7%3A10%3A17.osexp","C:\Users\ERP Testing Room\Desktop\Joanna\morph21","no","mono","no","18","no","white","no","yes","1080","legacy","84","84","C:/Users/ERP Testing Room/Desktop/Joanna/morph21/subject-126.csv","xpyriment","Jazzy James","3.1.4","0","None","?","NA","NA","NA","/","None","990","0","NA","NA","NA","196551","990","2","legacy","1024","2","48000","-16","AB_m21","124","even","CW_L","DRYNESS","1356","506513","504888","501836","197916","471326","NA","NA","NA","484933","505385","NA","504388","NA","504378","506503","1365","506913","NA","NA","505513","1356","1356","505904","504378","1356","505513","506913","morph21_Oliver/Morris","36","71750","85","yes","1280","42"
"350","41.8604651163","41.8604651163","845.860465116","845.860465116","black","no","xpyriment","legacy","legacy","0","202","NA","uniform","62407","1000","0.0160238434791","0","undefined","0","0","85","85","85","0","85","85","85","NA","85","85","0","85","NA","85","85","0","85","NA","85","NA","85","0","0","85","85","0","85","85","86","/","03/01/18 15:23:49","The main experiment item","yes","FIN__AB__M21__7%3A10%3A17.osexp","C:\Users\ERP Testing Room\Desktop\Joanna\morph21","no","mono","no","18","no","white","no","yes","1080","legacy","85","85","C:/Users/ERP Testing Room/Desktop/Joanna/morph21/subject-126.csv","xpyriment","Jazzy James","3.1.4","0","None","?","NA","NA","NA","/","None","994","0","NA","NA","NA","196551","994","2","legacy","1024","2","48000","-16","AB_m21","124","even","CW_L","BOMBER","1356","509771","508171","501836","197916","471326","NA","NA","NA","484933","508668","NA","507671","NA","507667","509767","1365","510121","NA","NA","508771","1356","1356","509163","507667","1356","508771","510121","morph21_Oliver/Morris","36","72744","86","yes","1280","7"
"400","41.3793103448","41.3793103448","847.517241379","847.517241379","black","no","xpyriment","legacy","legacy","0","208","NA","uniform","62861","1000","0.0159081147293","0","undefined","0","0","86","86","86","0","86","86","86","NA","86","86","0","86","NA","86","86","0","86","NA","86","NA","86","0","0","86","86","0","86","86","87","z","03/01/18 15:23:49","The main experiment item","yes","FIN__AB__M21__7%3A10%3A17.osexp","C:\Users\ERP Testing Room\Desktop\Joanna\morph21","no","mono","no","18","no","white","no","yes","1080","legacy","86","86","C:/Users/ERP Testing Room/Desktop/Joanna/morph21/subject-126.csv","xpyriment","Jazzy James","3.1.4","0","None","?","NA","NA","NA","/","None","990","0","NA","NA","NA","196551","990","2","legacy","1024","2","48000","-16","AB_m21","124","even","FILL_NW","DROES","1356","514463","511363","512955","197916","471326","NA","NA","NA","484933","511860","NA","510863","NA","510856","512945","1365","514863","NA","NA","511955","1356","1356","512346","510856","1356","511955","514863","morph21_Oliver/Morris","36","73734","87","yes","1280","17"
"350","40.9090909091","40.9090909091","849.170454545","849.170454545","black","no","xpyriment","legacy","legacy","0","207","NA","uniform","60154","1000","0.0166239984041","0","undefined","0","0","87","87","87","0","87","87","87","NA","87","87","0","87","NA","87","87","0","87","NA","87","NA","87","0","0","87","87","0","87","87","88","/","03/01/18 15:23:49","The main experiment item","yes","FIN__AB__M21__7%3A10%3A17.osexp","C:\Users\ERP Testing Room\Desktop\Joanna\morph21","no","mono","no","18","no","white","no","yes","1080","legacy","87","87","C:/Users/ERP Testing Room/Desktop/Joanna/morph21/subject-126.csv","xpyriment","Jazzy James","3.1.4","0","None","?","NA","NA","NA","/","None","993","0","NA","NA","NA","196551","993","2","legacy","1024","2","48000","-16","AB_m21","124","even","FILL_W","LEAK","1356","517638","516055","512955","197916","471326","NA","NA","NA","484933","516552","NA","515555","NA","515548","517632","1365","517988","NA","NA","516638","1356","1356","517030","515548","1356","516638","517988","morph21_Oliver/Morris","36","74727","88","yes","1280","9"
"300","40.4494382022","40.4494382022","850.808988764","850.808988764","black","no","xpyriment","legacy","legacy","0","201","NA","uniform","63448","1000","0.015760938091","0","undefined","0","0","88","88","88","0","88","88","88","NA","88","88","0","88","NA","88","88","0","88","NA","88","NA","88","0","0","88","88","0","88","88","89","/","03/01/18 15:23:49","The main experiment item","yes","FIN__AB__M21__7%3A10%3A17.osexp","C:\Users\ERP Testing Room\Desktop\Joanna\morph21","no","mono","no","18","no","white","no","yes","1080","legacy","88","88","C:/Users/ERP Testing Room/Desktop/Joanna/morph21/subject-126.csv","xpyriment","Jazzy James","3.1.4","0","None","?","NA","NA","NA","/","None","995","0","NA","NA","NA","196551","995","2","legacy","1024","2","48000","-16","AB_m21","124","even","CW_S","INSISTENT","1356","520855","519255","512955","197916","471326","NA","NA","NA","484933","519752","NA","518755","NA","518746","520850","1365","521155","NA","NA","519855","1356","1356","520255","518745","1356","519855","521155","morph21_Oliver/Morris","36","75722","89","yes","1280","9"
"350","41.1111111111","41.1111111111","849.644444444","849.644444444","black","no","xpyriment","legacy","legacy","0","208","NA","uniform","66129","1000","0.0151219585961","1","undefined","1","0","89","89","89","0","89","89","89","NA","89","89","0","89","NA","89","89","0","89","NA","89","NA","89","0","0","89","89","0","89","89","90","z","03/01/18 15:23:49","The main experiment item","yes","FIN__AB__M21__7%3A10%3A17.osexp","C:\Users\ERP Testing Room\Desktop\Joanna\morph21","no","mono","no","18","no","white","no","yes","1080","legacy","89","89","C:/Users/ERP Testing Room/Desktop/Joanna/morph21/subject-126.csv","xpyriment","Jazzy James","3.1.4","0","Z","?","NA","NA","NA","/","Z","746","0","NA","NA","NA","196551","746","2","legacy","1024","2","48000","-16","AB_m21","124","even","FILL_NW","DOADS","1356","525440","522348","523931","197916","471326","NA","NA","NA","523927","522845","NA","521848","NA","521841","523927","1365","525790","NA","NA","522931","1356","1356","523331","521841","1356","522931","525790","morph21_Oliver/Morris","37","76468","90","yes","1280","15"
"300","41.7582417582","41.7582417582","848.967032967","848.967032967","black","no","xpyriment","legacy","legacy","0","208","NA","uniform","65102","1000","0.0153605111978","1","undefined","1","0","90","90","90","0","90","90","90","NA","90","90","0","90","NA","90","90","0","90","NA","90","NA","90","0","0","90","90","0","90","90","91","z","03/01/18 15:23:49","The main experiment item","yes","FIN__AB__M21__7%3A10%3A17.osexp","C:\Users\ERP Testing Room\Desktop\Joanna\morph21","no","mono","no","18","no","white","no","yes","1080","legacy","90","90","C:/Users/ERP Testing Room/Desktop/Joanna/morph21/subject-126.csv","xpyriment","Jazzy James","3.1.4","0","Z","?","NA","NA","NA","/","Z","788","0","NA","NA","NA","196551","788","2","legacy","1024","2","48000","-16","AB_m21","124","even","FILL_NW","HEEM","1356","528648","527065","523931","197916","471326","NA","NA","NA","528642","527562","NA","526565","NA","526556","528642","1365","528948","NA","NA","527648","1356","1356","528040","526556","1356","527648","528948","morph21_Oliver/Morris","38","77256","91","yes","1280","27"
