"ITI","acc","accuracy","average_response_time","avg_rt","background","bidi","canvas_backend","clock_backend","color_backend","compensation","cond_trig","condtrigtime","coordinates","coroutines_cycles","coroutines_duration","coroutines_mean_cycle_duration","correct","correct_instructions_1","correct_new_keyboard_response_1","count_AB_m21","count_ITI","count_blank_screen","count_blink_screen","count_block1","count_break1","count_break2","count_break3_1","count_canvas","count_correct_trigger","count_def_chain","count_end_screen","count_fixation_1","count_getting_started","count_inc_counter","count_incorrect_trigger","count_instructions_1","count_logger","count_logscript","count_new_coroutines","count_new_inline_script","count_new_keyboard_response_1","count_reset_counter_prep","count_reset_counter_run","count_responsescreen","count_sequence","count_start_trigger","count_target_present","count_word_trigger","counter","cresp","datetime","description","disable_garbage_collection","experiment_file","experiment_path","font_bold","font_family","font_italic","font_size","font_underline","foreground","form_clicks","fullscreen","height","keyboard_backend","live_row","live_row_block1","logfile","mouse_backend","opensesame_codename","opensesame_version","repeat_cycle","response","response_break1","response_break2","response_break3_1","response_end_screen","response_instructions_1","response_new_keyboard_response_1","response_time","response_time_break1","response_time_break2","response_time_break3_1","response_time_end_screen","response_time_instructions_1","response_time_new_keyboard_response_1","round_decimals","sampler_backend","sound_buf_size","sound_channels","sound_freq","sound_sample_size","start","subject_nr","subject_parity","targ_type","target","time_AB_m21","time_ITI","time_blank_screen","time_blink_screen","time_block1","time_break1","time_break2","time_break3_1","time_canvas","time_correct_trigger","time_def_chain","time_end_screen","time_fixation_1","time_getting_started","time_inc_counter","time_incorrect_trigger","time_instructions_1","time_logger","time_logscript","time_new_inline_script","time_new_keyboard_response_1","time_reset_counter_prep","time_reset_counter_run","time_responsescreen","time_sequence","time_start_trigger","time_target_present","time_word_trigger","title","total_correct","total_response_time","total_responses","uniform_coordinates","width","word_trig"
"300","0","0","990","990","black","no","xpyriment","legacy","legacy","0","208","NA","uniform","59204","1000","0.016890750625","0","undefined","0","0","0","0","0","0","0","0","0","NA","0","0","0","0","NA","0","0","0","0","NA","0","NA","0","0","0","0","0","0","0","0","1","z","09/23/17 11:13:35","The main experiment item","yes","FIN__AB__M21__7%3A10%3A17.osexp","C:\Users\ERP Testing Room\Desktop\Joanna\morph21","no","mono","no","18","no","white","no","yes","1080","legacy","0","0","C:/Users/ERP Testing Room/Desktop/Joanna/morph21/subject-104.csv","xpyriment","Jazzy James","3.1.4","0","None","NA","NA","NA","NA","space","None","990","NA","NA","NA","NA","193641","990","2","legacy","1024","2","48000","-16","AB_m21","104","even","FILL_NW","VOGS","1366","197898","196290","NA","195017","NA","NA","NA","NA","NA","196787","NA","195785","NA","195718","197888","1375","198198","NA","NA","196898","1366","1366","197290","195718","1366","196898","198198","morph21_Oliver/Morris","0","990","1","yes","1280","47"
"300","0","0","880","880","black","no","xpyriment","legacy","legacy","0","203","NA","uniform","68779","1000","0.0145393215953","0","undefined","0","0","1","1","1","0","1","1","1","NA","1","1","0","1","NA","1","1","0","1","NA","1","NA","1","0","0","1","1","0","1","1","2","z","09/23/17 11:13:35","The main experiment item","yes","FIN__AB__M21__7%3A10%3A17.osexp","C:\Users\ERP Testing Room\Desktop\Joanna\morph21","no","mono","no","18","no","white","no","yes","1080","legacy","1","1","C:/Users/ERP Testing Room/Desktop/Joanna/morph21/subject-104.csv","xpyriment","Jazzy James","3.1.4","0","/","NA","NA","NA","NA","space","/","770","NA","NA","NA","NA","193641","770","2","legacy","1024","2","48000","-16","AB_m21","104","even","NW_S_COMP","FIGER","1366","200990","199398","NA","195017","NA","NA","NA","NA","NA","199895","NA","198898","NA","198893","200984","1375","201290","NA","NA","199990","1366","1366","200382","198893","1366","199990","201290","morph21_Oliver/Morris","0","1760","2","yes","1280","4"
"250","33.3333333333","33.3333333333","806.666666667","806.666666667","black","no","xpyriment","legacy","legacy","0","207","NA","uniform","65379","1000","0.0152954312547","1","undefined","1","0","2","2","2","0","2","2","2","NA","2","2","0","2","NA","2","2","0","2","NA","2","NA","2","0","0","2","2","0","2","2","3","/","09/23/17 11:13:35","The main experiment item","yes","FIN__AB__M21__7%3A10%3A17.osexp","C:\Users\ERP Testing Room\Desktop\Joanna\morph21","no","mono","no","18","no","white","no","yes","1080","legacy","2","2","C:/Users/ERP Testing Room/Desktop/Joanna/morph21/subject-104.csv","xpyriment","Jazzy James","3.1.4","0","/","NA","NA","NA","NA","space","/","660","NA","NA","NA","NA","193641","660","2","legacy","1024","2","48000","-16","AB_m21","104","even","FILL_W","SUIT","1366","205649","202557","204140","195017","NA","NA","NA","NA","204135","203054","NA","202057","NA","202047","204135","1375","205899","NA","NA","203140","1366","1366","203540","202047","1366","203140","205899","morph21_Oliver/Morris","1","2420","3","yes","1280","49"
"350","50","50","831.75","831.75","black","no","xpyriment","legacy","legacy","0","204","NA","uniform","61641","1000","0.0162229684788","1","undefined","1","0","3","3","3","0","3","3","3","NA","3","3","0","3","NA","3","3","0","3","NA","3","NA","3","0","0","3","3","0","3","3","4","z","09/23/17 11:13:35","The main experiment item","yes","FIN__AB__M21__7%3A10%3A17.osexp","C:\Users\ERP Testing Room\Desktop\Joanna\morph21","no","mono","no","18","no","white","no","yes","1080","legacy","3","3","C:/Users/ERP Testing Room/Desktop/Joanna/morph21/subject-104.csv","xpyriment","Jazzy James","3.1.4","0","z","NA","NA","NA","NA","space","z","907","NA","NA","NA","NA","193641","907","2","legacy","1024","2","48000","-16","AB_m21","104","even","NW_L_COMP","MOUTHIZE","1366","208758","207158","204140","195017","NA","NA","NA","NA","208753","207655","NA","206658","NA","206650","208753","1375","209108","NA","NA","207758","1366","1366","208158","206650","1366","207758","209108","morph21_Oliver/Morris","2","3327","4","yes","1280","11"
"400","60","60","765.8","765.8","black","no","xpyriment","legacy","legacy","0","202","NA","uniform","71913","1000","0.0139056915996","1","undefined","1","0","4","4","4","0","4","4","4","NA","4","4","0","4","NA","4","4","0","4","NA","4","NA","4","0","0","4","4","0","4","4","5","/","09/23/17 11:13:35","The main experiment item","yes","FIN__AB__M21__7%3A10%3A17.osexp","C:\Users\ERP Testing Room\Desktop\Joanna\morph21","no","mono","no","18","no","white","no","yes","1080","legacy","4","4","C:/Users/ERP Testing Room/Desktop/Joanna/morph21/subject-104.csv","xpyriment","Jazzy James","3.1.4","0","/","NA","NA","NA","NA","space","/","502","NA","NA","NA","NA","193641","502","2","legacy","1024","2","48000","-16","AB_m21","104","even","CW_L","LOCKER","1366","211850","210275","204140","195017","NA","NA","NA","NA","211846","210772","NA","209775","NA","209771","211846","1375","212250","NA","NA","210858","1366","1366","211250","209771","1366","210858","212250","morph21_Oliver/Morris","3","3829","5","yes","1280","8"
"350","66.6666666667","66.6666666667","732.5","732.5","black","no","xpyriment","legacy","legacy","0","202","NA","uniform","71386","1000","0.014008348976","1","undefined","1","0","5","5","5","0","5","5","5","NA","5","5","0","5","NA","5","5","0","5","NA","5","NA","5","0","0","5","5","0","5","5","6","/","09/23/17 11:13:35","The main experiment item","yes","FIN__AB__M21__7%3A10%3A17.osexp","C:\Users\ERP Testing Room\Desktop\Joanna\morph21","no","mono","no","18","no","white","no","yes","1080","legacy","5","5","C:/Users/ERP Testing Room/Desktop/Joanna/morph21/subject-104.csv","xpyriment","Jazzy James","3.1.4","0","/","NA","NA","NA","NA","space","/","566","NA","NA","NA","NA","193641","566","2","legacy","1024","2","48000","-16","AB_m21","104","even","CW_L","GUARDING","1366","216567","213467","215058","195017","NA","NA","NA","NA","215053","213964","NA","212967","NA","212961","215053","1375","216917","NA","NA","214058","1366","1366","214458","212961","1366","214058","216917","morph21_Oliver/Morris","4","4395","6","yes","1280","26"
"200","57.1428571429","57.1428571429","769.714285714","769.714285714","black","no","xpyriment","legacy","legacy","0","208","NA","uniform","52853","1000","0.0189204018693","0","undefined","0","0","6","6","6","0","6","6","6","NA","6","6","0","6","NA","6","6","0","6","NA","6","NA","6","0","0","6","6","0","6","6","7","z","09/23/17 11:13:35","The main experiment item","yes","FIN__AB__M21__7%3A10%3A17.osexp","C:\Users\ERP Testing Room\Desktop\Joanna\morph21","no","mono","no","18","no","white","no","yes","1080","legacy","6","6","C:/Users/ERP Testing Room/Desktop/Joanna/morph21/subject-104.csv","xpyriment","Jazzy James","3.1.4","0","None","NA","NA","NA","NA","space","None","993","NA","NA","NA","NA","193641","993","2","legacy","1024","2","48000","-16","AB_m21","104","even","FILL_NW","CINDS","1366","219750","218167","215058","195017","NA","NA","NA","NA","215053","218664","NA","217667","NA","217656","219744","1375","219950","NA","NA","218750","1366","1366","219142","217656","1366","218750","219950","morph21_Oliver/Morris","4","5388","7","yes","1280","6"
"250","62.5","62.5","733.375","733.375","black","no","xpyriment","legacy","legacy","0","207","NA","uniform","74391","1000","0.0134424863223","1","undefined","1","0","7","7","7","0","7","7","7","NA","7","7","0","7","NA","7","7","0","7","NA","7","NA","7","0","0","7","7","0","7","7","8","/","09/23/17 11:13:35","The main experiment item","yes","FIN__AB__M21__7%3A10%3A17.osexp","C:\Users\ERP Testing Room\Desktop\Joanna\morph21","no","mono","no","18","no","white","no","yes","1080","legacy","7","7","C:/Users/ERP Testing Room/Desktop/Joanna/morph21/subject-104.csv","xpyriment","Jazzy James","3.1.4","0","/","NA","NA","NA","NA","space","/","479","NA","NA","NA","NA","193641","479","2","legacy","1024","2","48000","-16","AB_m21","104","even","FILL_W","COOK","1366","222809","221184","215058","195017","NA","NA","NA","NA","222800","221681","NA","220684","NA","220681","222800","1375","223059","NA","NA","221809","1366","1366","222200","220680","1366","221809","223059","morph21_Oliver/Morris","5","5867","8","yes","1280","38"
"400","66.6666666667","66.6666666667","728.111111111","728.111111111","black","no","xpyriment","legacy","legacy","0","208","NA","uniform","70739","1000","0.0141364735153","1","undefined","1","0","8","8","8","0","8","8","8","NA","8","8","0","8","NA","8","8","0","8","NA","8","NA","8","0","0","8","8","0","8","8","9","z","09/23/17 11:13:35","The main experiment item","yes","FIN__AB__M21__7%3A10%3A17.osexp","C:\Users\ERP Testing Room\Desktop\Joanna\morph21","no","mono","no","18","no","white","no","yes","1080","legacy","8","8","C:/Users/ERP Testing Room/Desktop/Joanna/morph21/subject-104.csv","xpyriment","Jazzy James","3.1.4","0","z","NA","NA","NA","NA","space","z","686","NA","NA","NA","NA","193641","686","2","legacy","1024","2","48000","-16","AB_m21","104","even","FILL_NW","GIKE","1366","227352","224260","225843","195017","NA","NA","NA","NA","225836","224757","NA","223759","NA","223749","225836","1375","227752","NA","NA","224843","1366","1366","225235","223749","1366","224843","227752","morph21_Oliver/Morris","6","6553","9","yes","1280","24"
"300","70","70","712.1","712.1","black","no","xpyriment","legacy","legacy","0","207","NA","uniform","69469","1000","0.0143949099598","1","undefined","1","0","9","9","9","0","9","9","9","NA","9","9","0","9","NA","9","9","0","9","NA","9","NA","9","0","0","9","9","0","9","9","10","/","09/23/17 11:13:35","The main experiment item","yes","FIN__AB__M21__7%3A10%3A17.osexp","C:\Users\ERP Testing Room\Desktop\Joanna\morph21","no","mono","no","18","no","white","no","yes","1080","legacy","9","9","C:/Users/ERP Testing Room/Desktop/Joanna/morph21/subject-104.csv","xpyriment","Jazzy James","3.1.4","0","/","NA","NA","NA","NA","space","/","568","NA","NA","NA","NA","193641","568","2","legacy","1024","2","48000","-16","AB_m21","104","even","FILL_W","BOX","1366","230552","228968","225843","195017","NA","NA","NA","NA","230545","229465","NA","228468","NA","228464","230545","1375","230852","NA","NA","229552","1366","1366","229943","228464","1366","229552","230852","morph21_Oliver/Morris","7","7121","10","yes","1280","42"
"350","72.7272727273","72.7272727273","691.090909091","691.090909091","black","no","xpyriment","legacy","legacy","0","201","NA","uniform","82683","1000","0.0120943845772","1","undefined","1","0","10","10","10","0","10","10","10","NA","10","10","0","10","NA","10","10","0","10","NA","10","NA","10","0","0","10","10","0","10","10","11","/","09/23/17 11:13:35","The main experiment item","yes","FIN__AB__M21__7%3A10%3A17.osexp","C:\Users\ERP Testing Room\Desktop\Joanna\morph21","no","mono","no","18","no","white","no","yes","1080","legacy","10","10","C:/Users/ERP Testing Room/Desktop/Joanna/morph21/subject-104.csv","xpyriment","Jazzy James","3.1.4","0","/","NA","NA","NA","NA","space","/","481","NA","NA","NA","NA","193641","481","2","legacy","1024","2","48000","-16","AB_m21","104","even","CW_S","NEATLY","1366","233735","232127","225843","195017","NA","NA","NA","NA","233726","232624","NA","231619","NA","231612","233726","1375","234085","NA","NA","232735","1366","1366","233127","231612","1366","232735","234085","morph21_Oliver/Morris","8","7602","11","yes","1280","33"
"400","75","75","677.666666667","677.666666667","black","no","xpyriment","legacy","legacy","0","202","NA","uniform","76570","1000","0.0130599451482","1","undefined","1","0","11","11","11","0","11","11","11","NA","11","11","0","11","NA","11","11","0","11","NA","11","NA","11","0","0","11","11","0","11","11","12","/","09/23/17 11:13:35","The main experiment item","yes","FIN__AB__M21__7%3A10%3A17.osexp","C:\Users\ERP Testing Room\Desktop\Joanna\morph21","no","mono","no","18","no","white","no","yes","1080","legacy","11","11","C:/Users/ERP Testing Room/Desktop/Joanna/morph21/subject-104.csv","xpyriment","Jazzy James","3.1.4","0","/","NA","NA","NA","NA","space","/","530","NA","NA","NA","NA","193641","530","2","legacy","1024","2","48000","-16","AB_m21","104","even","CW_L","QUIETLY","1366","238402","235302","236894","195017","NA","NA","NA","NA","236890","235799","NA","234802","NA","234797","236890","1375","238802","NA","NA","235894","1366","1366","236294","234797","1366","235894","238802","morph21_Oliver/Morris","9","8132","12","yes","1280","36"
"350","76.9230769231","76.9230769231","665.846153846","665.846153846","black","no","xpyriment","legacy","legacy","0","201","NA","uniform","73378","1000","0.0136280629071","1","undefined","1","0","12","12","12","0","12","12","12","NA","12","12","0","12","NA","12","12","0","12","NA","12","NA","12","0","0","12","12","0","12","12","13","/","09/23/17 11:13:35","The main experiment item","yes","FIN__AB__M21__7%3A10%3A17.osexp","C:\Users\ERP Testing Room\Desktop\Joanna\morph21","no","mono","no","18","no","white","no","yes","1080","legacy","12","12","C:/Users/ERP Testing Room/Desktop/Joanna/morph21/subject-104.csv","xpyriment","Jazzy James","3.1.4","0","/","NA","NA","NA","NA","space","/","524","NA","NA","NA","NA","193641","524","2","legacy","1024","2","48000","-16","AB_m21","104","even","CW_S","CHILLY","1366","241653","240069","236894","195017","NA","NA","NA","NA","241646","240566","NA","239569","NA","239562","241646","1375","242003","NA","NA","240652","1366","1366","241044","239562","1366","240652","242003","morph21_Oliver/Morris","10","8656","13","yes","1280","48"
"250","78.5714285714","78.5714285714","684.857142857","684.857142857","black","no","xpyriment","legacy","legacy","0","201","NA","uniform","59322","1000","0.0168571524898","1","undefined","1","0","13","13","13","0","13","13","13","NA","13","13","0","13","NA","13","13","0","13","NA","13","NA","13","0","0","13","13","0","13","13","14","/","09/23/17 11:13:35","The main experiment item","yes","FIN__AB__M21__7%3A10%3A17.osexp","C:\Users\ERP Testing Room\Desktop\Joanna\morph21","no","mono","no","18","no","white","no","yes","1080","legacy","13","13","C:/Users/ERP Testing Room/Desktop/Joanna/morph21/subject-104.csv","xpyriment","Jazzy James","3.1.4","0","/","NA","NA","NA","NA","space","/","932","NA","NA","NA","NA","193641","932","2","legacy","1024","2","48000","-16","AB_m21","104","even","CW_S","HUGELY","1366","244837","243253","236894","195017","NA","NA","NA","NA","244833","243751","NA","242753","NA","242744","244833","1375","245087","NA","NA","243837","1366","1366","244237","242744","1366","243837","245087","morph21_Oliver/Morris","11","9588","14","yes","1280","35"
"300","73.3333333333","73.3333333333","705.2","705.2","black","no","xpyriment","legacy","legacy","0","204","NA","uniform","60177","1000","0.0166176446151","0","undefined","0","0","14","14","14","0","14","14","14","NA","14","14","0","14","NA","14","14","0","14","NA","14","NA","14","0","0","14","14","0","14","14","15","z","09/23/17 11:13:35","The main experiment item","yes","FIN__AB__M21__7%3A10%3A17.osexp","C:\Users\ERP Testing Room\Desktop\Joanna\morph21","no","mono","no","18","no","white","no","yes","1080","legacy","14","14","C:/Users/ERP Testing Room/Desktop/Joanna/morph21/subject-104.csv","xpyriment","Jazzy James","3.1.4","0","None","NA","NA","NA","NA","space","None","990","NA","NA","NA","NA","193641","990","2","legacy","1024","2","48000","-16","AB_m21","104","even","NW_L_COMP","NORTHIZE","1366","249429","246312","247920","195017","NA","NA","NA","NA","244833","246809","NA","245812","NA","245800","247910","1375","249729","NA","NA","246920","1366","1366","247312","245800","1366","246920","249729","morph21_Oliver/Morris","11","10578","15","yes","1280","20"
"200","75","75","695.4375","695.4375","black","no","xpyriment","legacy","legacy","0","207","NA","uniform","71127","1000","0.0140593586121","1","undefined","1","0","15","15","15","0","15","15","15","NA","15","15","0","15","NA","15","15","0","15","NA","15","NA","15","0","0","15","15","0","15","15","16","/","09/23/17 11:13:35","The main experiment item","yes","FIN__AB__M21__7%3A10%3A17.osexp","C:\Users\ERP Testing Room\Desktop\Joanna\morph21","no","mono","no","18","no","white","no","yes","1080","legacy","15","15","C:/Users/ERP Testing Room/Desktop/Joanna/morph21/subject-104.csv","xpyriment","Jazzy James","3.1.4","0","/","NA","NA","NA","NA","space","/","549","NA","NA","NA","NA","193641","549","2","legacy","1024","2","48000","-16","AB_m21","104","even","FILL_W","TEST","1366","252587","250995","247920","195017","NA","NA","NA","NA","252583","251493","NA","250495","NA","250487","252583","1375","252787","NA","NA","251587","1366","1366","251987","250487","1366","251587","252787","morph21_Oliver/Morris","12","11127","16","yes","1280","47"
"400","76.4705882353","76.4705882353","698.941176471","698.941176471","black","no","xpyriment","legacy","legacy","0","208","NA","uniform","60592","1000","0.0165038288883","1","undefined","1","0","16","16","16","0","16","16","16","NA","16","16","0","16","NA","16","16","0","16","NA","16","NA","16","0","0","16","16","0","16","16","17","z","09/23/17 11:13:35","The main experiment item","yes","FIN__AB__M21__7%3A10%3A17.osexp","C:\Users\ERP Testing Room\Desktop\Joanna\morph21","no","mono","no","18","no","white","no","yes","1080","legacy","16","16","C:/Users/ERP Testing Room/Desktop/Joanna/morph21/subject-104.csv","xpyriment","Jazzy James","3.1.4","0","z","NA","NA","NA","NA","space","z","755","NA","NA","NA","NA","193641","755","2","legacy","1024","2","48000","-16","AB_m21","104","even","FILL_NW","DROES","1366","255637","254037","247920","195017","NA","NA","NA","NA","255633","254534","NA","253537","NA","253526","255633","1375","256037","NA","NA","254637","1366","1366","255037","253526","1366","254637","256037","morph21_Oliver/Morris","13","11882","17","yes","1280","17"
"350","77.7777777778","77.7777777778","687.055555556","687.055555556","black","no","xpyriment","legacy","legacy","0","201","NA","uniform","72338","1000","0.0138239929221","1","undefined","1","0","17","17","17","0","17","17","17","NA","17","17","0","17","NA","17","17","0","17","NA","17","NA","17","0","0","17","17","0","17","17","18","/","09/23/17 11:13:35","The main experiment item","yes","FIN__AB__M21__7%3A10%3A17.osexp","C:\Users\ERP Testing Room\Desktop\Joanna\morph21","no","mono","no","18","no","white","no","yes","1080","legacy","17","17","C:/Users/ERP Testing Room/Desktop/Joanna/morph21/subject-104.csv","xpyriment","Jazzy James","3.1.4","0","/","NA","NA","NA","NA","space","/","485","NA","NA","NA","NA","193641","485","2","legacy","1024","2","48000","-16","AB_m21","104","even","CW_S","BOSSY","1366","260472","257396","258963","195017","NA","NA","NA","NA","258961","257893","NA","256896","NA","256892","258961","1375","260822","NA","NA","257971","1366","1366","258362","256892","1366","257971","260822","morph21_Oliver/Morris","14","12367","18","yes","1280","49"
"350","78.9473684211","78.9473684211","680.368421053","680.368421053","black","no","xpyriment","legacy","legacy","0","207","NA","uniform","71103","1000","0.0140641041869","1","undefined","1","0","18","18","18","0","18","18","18","NA","18","18","0","18","NA","18","18","0","18","NA","18","NA","18","0","0","18","18","0","18","18","19","/","09/23/17 11:13:35","The main experiment item","yes","FIN__AB__M21__7%3A10%3A17.osexp","C:\Users\ERP Testing Room\Desktop\Joanna\morph21","no","mono","no","18","no","white","no","yes","1080","legacy","18","18","C:/Users/ERP Testing Room/Desktop/Joanna/morph21/subject-104.csv","xpyriment","Jazzy James","3.1.4","0","/","NA","NA","NA","NA","space","/","560","NA","NA","NA","NA","193641","560","2","legacy","1024","2","48000","-16","AB_m21","104","even","FILL_W","FAINT","1366","263689","262097","258963","195017","NA","NA","NA","NA","263684","262594","NA","261597","NA","261587","263684","1375","264039","NA","NA","262689","1366","1366","263088","261587","1366","262688","264039","morph21_Oliver/Morris","15","12927","19","yes","1280","31"
"400","75","75","677.85","677.85","black","no","xpyriment","legacy","legacy","0","208","NA","uniform","67962","1000","0.014714104941","0","undefined","0","0","19","19","19","0","19","19","19","NA","19","19","0","19","NA","19","19","0","19","NA","19","NA","19","0","0","19","19","0","19","19","20","z","09/23/17 11:13:35","The main experiment item","yes","FIN__AB__M21__7%3A10%3A17.osexp","C:\Users\ERP Testing Room\Desktop\Joanna\morph21","no","mono","no","18","no","white","no","yes","1080","legacy","19","19","C:/Users/ERP Testing Room/Desktop/Joanna/morph21/subject-104.csv","xpyriment","Jazzy James","3.1.4","0","/","NA","NA","NA","NA","space","/","630","NA","NA","NA","NA","193641","630","2","legacy","1024","2","48000","-16","AB_m21","104","even","FILL_NW","ULNS","1366","266914","265280","258963","195017","NA","NA","NA","NA","263684","265777","NA","264780","NA","264769","266904","1375","267314","NA","NA","265914","1366","1366","266305","264769","1366","265914","267314","morph21_Oliver/Morris","15","13557","20","yes","1280","45"
"200","76.1904761905","76.1904761905","674.80952381","674.80952381","black","no","xpyriment","legacy","legacy","0","202","NA","uniform","66883","1000","0.0149514824395","1","undefined","1","0","20","20","20","0","20","20","20","NA","20","20","0","20","NA","20","20","0","20","NA","20","NA","20","0","0","20","20","0","20","20","21","/","09/23/17 11:13:35","The main experiment item","yes","FIN__AB__M21__7%3A10%3A17.osexp","C:\Users\ERP Testing Room\Desktop\Joanna\morph21","no","mono","no","18","no","white","no","yes","1080","legacy","20","20","C:/Users/ERP Testing Room/Desktop/Joanna/morph21/subject-104.csv","xpyriment","Jazzy James","3.1.4","0","/","NA","NA","NA","NA","space","/","614","NA","NA","NA","NA","193641","614","2","legacy","1024","2","48000","-16","AB_m21","104","even","CW_L","SHAMEFUL","1366","271631","268539","270122","195017","NA","NA","NA","NA","270116","269036","NA","268030","NA","268021","270116","1375","271831","NA","NA","269122","1366","1366","269514","268021","1366","269122","271831","morph21_Oliver/Morris","16","14171","21","yes","1280","19"
"250","72.7272727273","72.7272727273","684.5","684.5","black","no","xpyriment","legacy","legacy","0","204","NA","uniform","56148","1000","0.0178100733775","0","undefined","0","0","21","21","21","0","21","21","21","NA","21","21","0","21","NA","21","21","0","21","NA","21","NA","21","0","0","21","21","0","21","21","22","z","09/23/17 11:13:35","The main experiment item","yes","FIN__AB__M21__7%3A10%3A17.osexp","C:\Users\ERP Testing Room\Desktop\Joanna\morph21","no","mono","no","18","no","white","no","yes","1080","legacy","21","21","C:/Users/ERP Testing Room/Desktop/Joanna/morph21/subject-104.csv","xpyriment","Jazzy James","3.1.4","0","/","NA","NA","NA","NA","space","/","888","NA","NA","NA","NA","193641","888","2","legacy","1024","2","48000","-16","AB_m21","104","even","NW_L_COMP","BREAKITY","1366","274656","273072","270122","195017","NA","NA","NA","NA","270116","273569","NA","272572","NA","272565","274650","1375","274906","NA","NA","273656","1366","1366","274047","272565","1366","273656","274906","morph21_Oliver/Morris","16","15059","22","yes","1280","23"
"350","73.9130434783","73.9130434783","676.913043478","676.913043478","black","no","xpyriment","legacy","legacy","0","202","NA","uniform","69825","1000","0.0143215180809","1","undefined","1","0","22","22","22","0","22","22","22","NA","22","22","0","22","NA","22","22","0","22","NA","22","NA","22","0","0","22","22","0","22","22","23","/","09/23/17 11:13:35","The main experiment item","yes","FIN__AB__M21__7%3A10%3A17.osexp","C:\Users\ERP Testing Room\Desktop\Joanna\morph21","no","mono","no","18","no","white","no","yes","1080","legacy","22","22","C:/Users/ERP Testing Room/Desktop/Joanna/morph21/subject-104.csv","xpyriment","Jazzy James","3.1.4","0","/","NA","NA","NA","NA","space","/","510","NA","NA","NA","NA","193641","510","2","legacy","1024","2","48000","-16","AB_m21","104","even","CW_L","PAINTER","1366","277707","276122","270122","195017","NA","NA","NA","NA","277699","276620","NA","275622","NA","275616","277699","1375","278057","NA","NA","276707","1366","1366","277099","275616","1366","276707","278057","morph21_Oliver/Morris","17","15569","23","yes","1280","18"
"350","70.8333333333","70.8333333333","674.75","674.75","black","no","xpyriment","legacy","legacy","0","204","NA","uniform","70412","1000","0.0142021246378","0","undefined","0","0","23","23","23","0","23","23","23","NA","23","23","0","23","NA","23","23","0","23","NA","23","NA","23","0","0","23","23","0","23","23","24","z","09/23/17 11:13:35","The main experiment item","yes","FIN__AB__M21__7%3A10%3A17.osexp","C:\Users\ERP Testing Room\Desktop\Joanna\morph21","no","mono","no","18","no","white","no","yes","1080","legacy","23","23","C:/Users/ERP Testing Room/Desktop/Joanna/morph21/subject-104.csv","xpyriment","Jazzy James","3.1.4","0","/","NA","NA","NA","NA","space","/","625","NA","NA","NA","NA","193641","625","2","legacy","1024","2","48000","-16","AB_m21","104","even","NW_L_COMP","AGREELY","1366","282340","279249","280832","195017","NA","NA","NA","NA","277699","279746","NA","278749","NA","278741","280826","1375","282691","NA","NA","279832","1366","1366","280224","278741","1366","279832","282691","morph21_Oliver/Morris","17","16194","24","yes","1280","24"
"200","72","72","676.4","676.4","black","no","xpyriment","legacy","legacy","0","208","NA","uniform","71303","1000","0.0140246553441","1","undefined","1","0","24","24","24","0","24","24","24","NA","24","24","0","24","NA","24","24","0","24","NA","24","NA","24","0","0","24","24","0","24","24","25","z","09/23/17 11:13:35","The main experiment item","yes","FIN__AB__M21__7%3A10%3A17.osexp","C:\Users\ERP Testing Room\Desktop\Joanna\morph21","no","mono","no","18","no","white","no","yes","1080","legacy","24","24","C:/Users/ERP Testing Room/Desktop/Joanna/morph21/subject-104.csv","xpyriment","Jazzy James","3.1.4","0","z","NA","NA","NA","NA","space","z","716","NA","NA","NA","NA","193641","716","2","legacy","1024","2","48000","-16","AB_m21","104","even","FILL_NW","VUNKS","1366","285532","283949","280832","195017","NA","NA","NA","NA","285527","284446","NA","283441","NA","283436","285527","1375","285732","NA","NA","284532","1366","1366","284932","283436","1366","284532","285732","morph21_Oliver/Morris","18","16910","25","yes","1280","49"
"300","69.2307692308","69.2307692308","688.5","688.5","black","no","xpyriment","legacy","legacy","0","204","NA","uniform","62854","1000","0.0159098864034","0","undefined","0","0","25","25","25","0","25","25","25","NA","25","25","0","25","NA","25","25","0","25","NA","25","NA","25","0","0","25","25","0","25","25","26","z","09/23/17 11:13:35","The main experiment item","yes","FIN__AB__M21__7%3A10%3A17.osexp","C:\Users\ERP Testing Room\Desktop\Joanna\morph21","no","mono","no","18","no","white","no","yes","1080","legacy","25","25","C:/Users/ERP Testing Room/Desktop/Joanna/morph21/subject-104.csv","xpyriment","Jazzy James","3.1.4","0","None","NA","NA","NA","NA","space","None","991","NA","NA","NA","NA","193641","991","2","legacy","1024","2","48000","-16","AB_m21","104","even","NW_L_COMP","SHEETER","1366","288507","286924","280832","195017","NA","NA","NA","NA","285527","287421","NA","286424","NA","286415","288498","1375","288807","NA","NA","287507","1366","1366","287899","286415","1366","287507","288807","morph21_Oliver/Morris","18","17901","26","yes","1280","5"
"400","70.3703703704","70.3703703704","684.481481481","684.481481481","black","no","xpyriment","legacy","legacy","0","202","NA","uniform","77444","1000","0.0129125561696","1","undefined","1","0","26","26","26","0","26","26","26","NA","26","26","0","26","NA","26","26","0","26","NA","26","NA","26","0","0","26","26","0","26","26","27","/","09/23/17 11:13:35","The main experiment item","yes","FIN__AB__M21__7%3A10%3A17.osexp","C:\Users\ERP Testing Room\Desktop\Joanna\morph21","no","mono","no","18","no","white","no","yes","1080","legacy","26","26","C:/Users/ERP Testing Room/Desktop/Joanna/morph21/subject-104.csv","xpyriment","Jazzy James","3.1.4","0","/","NA","NA","NA","NA","space","/","580","NA","NA","NA","NA","193641","580","2","legacy","1024","2","48000","-16","AB_m21","104","even","CW_L","CLEANER","1366","293233","290116","291724","195017","NA","NA","NA","NA","291714","290613","NA","289616","NA","289606","291714","1375","293633","NA","NA","290724","1366","1366","291116","289606","1366","290724","293633","morph21_Oliver/Morris","19","18481","27","yes","1280","15"
"350","71.4285714286","71.4285714286","690.25","690.25","black","no","xpyriment","legacy","legacy","0","206","NA","uniform","64338","1000","0.0155429139855","1","undefined","1","0","27","27","27","0","27","27","27","NA","27","27","0","27","NA","27","27","0","27","NA","27","NA","27","0","0","27","27","0","27","27","28","z","09/23/17 11:13:35","The main experiment item","yes","FIN__AB__M21__7%3A10%3A17.osexp","C:\Users\ERP Testing Room\Desktop\Joanna\morph21","no","mono","no","18","no","white","no","yes","1080","legacy","27","27","C:/Users/ERP Testing Room/Desktop/Joanna/morph21/subject-104.csv","xpyriment","Jazzy James","3.1.4","0","z","NA","NA","NA","NA","space","z","846","NA","NA","NA","NA","193641","846","2","legacy","1024","2","48000","-16","AB_m21","104","even","NW_L_SIMP","PICKENGE","1366","296475","294892","291724","195017","NA","NA","NA","NA","296470","295389","NA","294392","NA","294382","296470","1375","296825","NA","NA","295475","1366","1366","295867","294382","1366","295475","296825","morph21_Oliver/Morris","20","19327","28","yes","1280","5"
"250","72.4137931034","72.4137931034","690.379310345","690.379310345","black","no","xpyriment","legacy","legacy","0","201","NA","uniform","72263","1000","0.0138383405062","1","undefined","1","0","28","28","28","0","28","28","28","NA","28","28","0","28","NA","28","28","0","28","NA","28","NA","28","0","0","28","28","0","28","28","29","/","09/23/17 11:13:35","The main experiment item","yes","FIN__AB__M21__7%3A10%3A17.osexp","C:\Users\ERP Testing Room\Desktop\Joanna\morph21","no","mono","no","18","no","white","no","yes","1080","legacy","28","28","C:/Users/ERP Testing Room/Desktop/Joanna/morph21/subject-104.csv","xpyriment","Jazzy James","3.1.4","0","/","NA","NA","NA","NA","space","/","694","NA","NA","NA","NA","193641","694","2","legacy","1024","2","48000","-16","AB_m21","104","even","CW_S","PEAKING","1366","299659","298075","291724","195017","NA","NA","NA","NA","299656","298573","NA","297575","NA","297566","299656","1375","299909","NA","NA","298667","1366","1366","299059","297566","1366","298667","299909","morph21_Oliver/Morris","21","20021","29","yes","1280","28"
"400","70","70","700.433333333","700.433333333","black","no","xpyriment","legacy","legacy","0","208","NA","uniform","61782","1000","0.0161859441261","0","undefined","0","0","29","29","29","0","29","29","29","NA","29","29","0","29","NA","29","29","0","29","NA","29","NA","29","0","0","29","29","0","29","29","30","z","09/23/17 11:13:35","The main experiment item","yes","FIN__AB__M21__7%3A10%3A17.osexp","C:\Users\ERP Testing Room\Desktop\Joanna\morph21","no","mono","no","18","no","white","no","yes","1080","legacy","29","29","C:/Users/ERP Testing Room/Desktop/Joanna/morph21/subject-104.csv","xpyriment","Jazzy James","3.1.4","0","None","NA","NA","NA","NA","space","None","992","NA","NA","NA","NA","193641","992","2","legacy","1024","2","48000","-16","AB_m21","104","even","FILL_NW","BUTE","1366","304284","301176","302776","195017","NA","NA","NA","NA","299656","301673","NA","300676","NA","300665","302768","1375","304684","NA","NA","301776","1366","1366","302167","300665","1366","301776","304684","morph21_Oliver/Morris","21","21013","30","yes","1280","5"
"350","70.9677419355","70.9677419355","706.193548387","706.193548387","black","no","xpyriment","legacy","legacy","0","206","NA","uniform","65003","1000","0.0153839053582","1","undefined","1","0","30","30","30","0","30","30","30","NA","30","30","0","30","NA","30","30","0","30","NA","30","NA","30","0","0","30","30","0","30","30","31","z","09/23/17 11:13:35","The main experiment item","yes","FIN__AB__M21__7%3A10%3A17.osexp","C:\Users\ERP Testing Room\Desktop\Joanna\morph21","no","mono","no","18","no","white","no","yes","1080","legacy","30","30","C:/Users/ERP Testing Room/Desktop/Joanna/morph21/subject-104.csv","xpyriment","Jazzy James","3.1.4","0","z","NA","NA","NA","NA","space","z","879","NA","NA","NA","NA","193641","879","2","legacy","1024","2","48000","-16","AB_m21","104","even","NW_L_SIMP","NUTLA","1366","307601","305984","302776","195017","NA","NA","NA","NA","307596","306481","NA","305484","NA","305473","307596","1375","307951","NA","NA","306601","1366","1366","307001","305473","1366","306601","307951","morph21_Oliver/Morris","22","21892","31","yes","1280","14"
"400","71.875","71.875","703.84375","703.84375","black","no","xpyriment","legacy","legacy","0","202","NA","uniform","77940","1000","0.0128303823454","1","undefined","1","0","31","31","31","0","31","31","31","NA","31","31","0","31","NA","31","31","0","31","NA","31","NA","31","0","0","31","31","0","31","31","32","/","09/23/17 11:13:35","The main experiment item","yes","FIN__AB__M21__7%3A10%3A17.osexp","C:\Users\ERP Testing Room\Desktop\Joanna\morph21","no","mono","no","18","no","white","no","yes","1080","legacy","31","31","C:/Users/ERP Testing Room/Desktop/Joanna/morph21/subject-104.csv","xpyriment","Jazzy James","3.1.4","0","/","NA","NA","NA","NA","space","/","631","NA","NA","NA","NA","193641","631","2","legacy","1024","2","48000","-16","AB_m21","104","even","CW_L","SHAPELY","1366","310801","309209","302776","195017","NA","NA","NA","NA","310797","309706","NA","308709","NA","308703","310797","1375","311201","NA","NA","309801","1366","1366","310201","308703","1366","309801","311201","morph21_Oliver/Morris","23","22523","32","yes","1280","35"
"200","72.7272727273","72.7272727273","700.151515152","700.151515152","black","no","xpyriment","legacy","legacy","0","207","NA","uniform","72567","1000","0.0137803684871","1","undefined","1","0","32","32","32","0","32","32","32","NA","32","32","0","32","NA","32","32","0","32","NA","32","NA","32","0","0","32","32","0","32","32","33","/","09/23/17 11:13:35","The main experiment item","yes","FIN__AB__M21__7%3A10%3A17.osexp","C:\Users\ERP Testing Room\Desktop\Joanna\morph21","no","mono","no","18","no","white","no","yes","1080","legacy","32","32","C:/Users/ERP Testing Room/Desktop/Joanna/morph21/subject-104.csv","xpyriment","Jazzy James","3.1.4","0","/","NA","NA","NA","NA","space","/","582","NA","NA","NA","NA","193641","582","2","legacy","1024","2","48000","-16","AB_m21","104","even","FILL_W","FLESH","1366","315527","312435","314019","195017","NA","NA","NA","NA","314010","312933","NA","311935","NA","311929","314010","1375","315727","NA","NA","313019","1366","1366","313410","311929","1366","313019","315727","morph21_Oliver/Morris","24","23105","33","yes","1280","32"
"300","73.5294117647","73.5294117647","698.882352941","698.882352941","black","no","xpyriment","legacy","legacy","0","202","NA","uniform","72717","1000","0.0137519424619","1","undefined","1","0","33","33","33","0","33","33","33","NA","33","33","0","33","NA","33","33","0","33","NA","33","NA","33","0","0","33","33","0","33","33","34","/","09/23/17 11:13:35","The main experiment item","yes","FIN__AB__M21__7%3A10%3A17.osexp","C:\Users\ERP Testing Room\Desktop\Joanna\morph21","no","mono","no","18","no","white","no","yes","1080","legacy","33","33","C:/Users/ERP Testing Room/Desktop/Joanna/morph21/subject-104.csv","xpyriment","Jazzy James","3.1.4","0","/","NA","NA","NA","NA","space","/","657","NA","NA","NA","NA","193641","657","2","legacy","1024","2","48000","-16","AB_m21","104","even","CW_L","DAMPISH","1366","318519","316919","314019","195017","NA","NA","NA","NA","318515","317416","NA","316419","NA","316411","318515","1375","318819","NA","NA","317519","1366","1366","317919","316411","1366","317519","318819","morph21_Oliver/Morris","25","23762","34","yes","1280","28"
"400","74.2857142857","74.2857142857","694.171428571","694.171428571","black","no","xpyriment","legacy","legacy","0","202","NA","uniform","78206","1000","0.0127867427052","1","undefined","1","0","34","34","34","0","34","34","34","NA","34","34","0","34","NA","34","34","0","34","NA","34","NA","34","0","0","34","34","0","34","34","35","/","09/23/17 11:13:35","The main experiment item","yes","FIN__AB__M21__7%3A10%3A17.osexp","C:\Users\ERP Testing Room\Desktop\Joanna\morph21","no","mono","no","18","no","white","no","yes","1080","legacy","34","34","C:/Users/ERP Testing Room/Desktop/Joanna/morph21/subject-104.csv","xpyriment","Jazzy James","3.1.4","0","/","NA","NA","NA","NA","space","/","534","NA","NA","NA","NA","193641","534","2","legacy","1024","2","48000","-16","AB_m21","104","even","CW_L","BLINDNESS","1366","321603","320019","314019","195017","NA","NA","NA","NA","321594","320516","NA","319519","NA","319515","321594","1375","322003","NA","NA","320602","1366","1366","320994","319515","1366","320602","322003","morph21_Oliver/Morris","26","24296","35","yes","1280","40"
"400","75","75","687.944444444","687.944444444","black","no","xpyriment","legacy","legacy","0","207","NA","uniform","72165","1000","0.0138571329592","1","undefined","1","0","35","35","35","0","35","35","35","NA","35","35","0","35","NA","35","35","0","35","NA","35","NA","35","0","0","35","35","0","35","35","36","/","09/23/17 11:13:35","The main experiment item","yes","FIN__AB__M21__7%3A10%3A17.osexp","C:\Users\ERP Testing Room\Desktop\Joanna\morph21","no","mono","no","18","no","white","no","yes","1080","legacy","35","35","C:/Users/ERP Testing Room/Desktop/Joanna/morph21/subject-104.csv","xpyriment","Jazzy James","3.1.4","0","/","NA","NA","NA","NA","space","/","470","NA","NA","NA","NA","193641","470","2","legacy","1024","2","48000","-16","AB_m21","104","even","FILL_W","EAT","1366","326278","323186","324769","195017","NA","NA","NA","NA","324766","323683","NA","322686","NA","322676","324766","1375","326678","NA","NA","323778","1366","1366","324169","322676","1366","323778","326678","morph21_Oliver/Morris","27","24766","36","yes","1280","25"
"400","75.6756756757","75.6756756757","691.702702703","691.702702703","black","no","xpyriment","legacy","legacy","0","205","NA","uniform","61280","1000","0.016318537859","1","undefined","1","0","36","36","36","0","36","36","36","NA","36","36","0","36","NA","36","36","0","36","NA","36","NA","36","0","0","36","36","0","36","36","37","z","09/23/17 11:13:35","The main experiment item","yes","FIN__AB__M21__7%3A10%3A17.osexp","C:\Users\ERP Testing Room\Desktop\Joanna\morph21","no","mono","no","18","no","white","no","yes","1080","legacy","36","36","C:/Users/ERP Testing Room/Desktop/Joanna/morph21/subject-104.csv","xpyriment","Jazzy James","3.1.4","0","z","NA","NA","NA","NA","space","z","827","NA","NA","NA","NA","193641","827","2","legacy","1024","2","48000","-16","AB_m21","104","even","NW_S_SIMP","URNILT","1366","329479","327878","324769","195017","NA","NA","NA","NA","329475","328375","NA","327378","NA","327369","329475","1375","329879","NA","NA","328486","1366","1366","328879","327369","1366","328486","329879","morph21_Oliver/Morris","28","25593","37","yes","1280","5"
"200","76.3157894737","76.3157894737","694.736842105","694.736842105","black","no","xpyriment","legacy","legacy","0","206","NA","uniform","71383","1000","0.0140089377023","1","undefined","1","0","37","37","37","0","37","37","37","NA","37","37","0","37","NA","37","37","0","37","NA","37","NA","37","0","0","37","37","0","37","37","38","z","09/23/17 11:13:35","The main experiment item","yes","FIN__AB__M21__7%3A10%3A17.osexp","C:\Users\ERP Testing Room\Desktop\Joanna\morph21","no","mono","no","18","no","white","no","yes","1080","legacy","37","37","C:/Users/ERP Testing Room/Desktop/Joanna/morph21/subject-104.csv","xpyriment","Jazzy James","3.1.4","0","z","NA","NA","NA","NA","space","z","807","NA","NA","NA","NA","193641","807","2","legacy","1024","2","48000","-16","AB_m21","104","even","NW_L_SIMP","GROWILT","1366","332762","331162","324769","195017","NA","NA","NA","NA","332755","331659","NA","330662","NA","330652","332755","1375","332962","NA","NA","331762","1366","1366","332154","330652","1366","331762","332962","morph21_Oliver/Morris","29","26400","38","yes","1280","20"
"300","74.358974359","74.358974359","692.282051282","692.282051282","black","no","xpyriment","legacy","legacy","0","204","NA","uniform","70129","1000","0.0142594361819","0","undefined","0","0","38","38","38","0","38","38","38","NA","38","38","0","38","NA","38","38","0","38","NA","38","NA","38","0","0","38","38","0","38","38","39","z","09/23/17 11:13:35","The main experiment item","yes","FIN__AB__M21__7%3A10%3A17.osexp","C:\Users\ERP Testing Room\Desktop\Joanna\morph21","no","mono","no","18","no","white","no","yes","1080","legacy","38","38","C:/Users/ERP Testing Room/Desktop/Joanna/morph21/subject-104.csv","xpyriment","Jazzy James","3.1.4","0","/","NA","NA","NA","NA","space","/","599","NA","NA","NA","NA","193641","599","2","legacy","1024","2","48000","-16","AB_m21","104","even","NW_L_COMP","EMPLOYNESS","1366","337263","334137","335754","195017","NA","NA","NA","NA","332755","334635","NA","333637","NA","333630","335748","1375","337563","NA","NA","334754","1366","1366","335146","333630","1366","334754","337563","morph21_Oliver/Morris","29","26999","39","yes","1280","21"
"400","75","75","696.925","696.925","black","no","xpyriment","legacy","legacy","0","205","NA","uniform","61858","1000","0.0161660577452","1","undefined","1","0","39","39","39","0","39","39","39","NA","39","39","0","39","NA","39","39","0","39","NA","39","NA","39","0","0","39","39","0","39","39","40","z","09/23/17 11:13:35","The main experiment item","yes","FIN__AB__M21__7%3A10%3A17.osexp","C:\Users\ERP Testing Room\Desktop\Joanna\morph21","no","mono","no","18","no","white","no","yes","1080","legacy","39","39","C:/Users/ERP Testing Room/Desktop/Joanna/morph21/subject-104.csv","xpyriment","Jazzy James","3.1.4","0","z","NA","NA","NA","NA","space","z","878","NA","NA","NA","NA","193641","878","2","legacy","1024","2","48000","-16","AB_m21","104","even","NW_S_SIMP","RAMPIME","1366","340338","338754","335754","195017","NA","NA","NA","NA","340335","339251","NA","338254","NA","338246","340335","1375","340738","NA","NA","339346","1366","1366","339738","338246","1366","339346","340738","morph21_Oliver/Morris","30","27877","40","yes","1280","6"
"200","75.6097560976","75.6097560976","698.585365854","698.585365854","black","no","xpyriment","legacy","legacy","0","207","NA","uniform","69488","1000","0.0143909739811","1","undefined","1","0","40","40","40","0","40","40","40","NA","40","40","0","40","NA","40","40","0","40","NA","40","NA","40","0","0","40","40","0","40","40","41","/","09/23/17 11:13:35","The main experiment item","yes","FIN__AB__M21__7%3A10%3A17.osexp","C:\Users\ERP Testing Room\Desktop\Joanna\morph21","no","mono","no","18","no","white","no","yes","1080","legacy","40","40","C:/Users/ERP Testing Room/Desktop/Joanna/morph21/subject-104.csv","xpyriment","Jazzy James","3.1.4","0","/","NA","NA","NA","NA","space","/","765","NA","NA","NA","NA","193641","765","2","legacy","1024","2","48000","-16","AB_m21","104","even","FILL_W","BLEAK","1366","343571","341963","335754","195017","NA","NA","NA","NA","343562","342460","NA","341455","NA","341448","343562","1375","343771","NA","NA","342571","1366","1366","342963","341448","1366","342571","343771","morph21_Oliver/Morris","31","28642","41","yes","1280","5"
"200","76.1904761905","76.1904761905","694.880952381","694.880952381","black","no","xpyriment","legacy","legacy","0","207","NA","uniform","71508","1000","0.0139844492924","1","undefined","1","0","41","41","41","0","41","41","41","NA","41","41","0","41","NA","41","41","0","41","NA","41","NA","41","0","0","41","41","0","41","41","42","/","09/23/17 11:13:35","The main experiment item","yes","FIN__AB__M21__7%3A10%3A17.osexp","C:\Users\ERP Testing Room\Desktop\Joanna\morph21","no","mono","no","18","no","white","no","yes","1080","legacy","41","41","C:/Users/ERP Testing Room/Desktop/Joanna/morph21/subject-104.csv","xpyriment","Jazzy James","3.1.4","0","/","NA","NA","NA","NA","space","/","543","NA","NA","NA","NA","193641","543","2","legacy","1024","2","48000","-16","AB_m21","104","even","FILL_W","TAX","1366","348031","344938","346522","195017","NA","NA","NA","NA","346516","345435","NA","344438","NA","344435","346516","1375","348231","NA","NA","345521","1366","1366","345921","344435","1366","345521","348231","morph21_Oliver/Morris","32","29185","42","yes","1280","45"
"350","76.7441860465","76.7441860465","694","694","black","no","xpyriment","legacy","legacy","0","202","NA","uniform","63845","1000","0.0156629336675","1","undefined","1","0","42","42","42","0","42","42","42","NA","42","42","0","42","NA","42","42","0","42","NA","42","NA","42","0","0","42","42","0","42","42","43","/","09/23/17 11:13:35","The main experiment item","yes","FIN__AB__M21__7%3A10%3A17.osexp","C:\Users\ERP Testing Room\Desktop\Joanna\morph21","no","mono","no","18","no","white","no","yes","1080","legacy","42","42","C:/Users/ERP Testing Room/Desktop/Joanna/morph21/subject-104.csv","xpyriment","Jazzy James","3.1.4","0","/","NA","NA","NA","NA","space","/","657","NA","NA","NA","NA","193641","657","2","legacy","1024","2","48000","-16","AB_m21","104","even","CW_L","BARKER","1366","351056","349464","346522","195017","NA","NA","NA","NA","351046","349961","NA","348964","NA","348956","351046","1375","351406","NA","NA","350056","1366","1366","350448","348956","1366","350056","351406","morph21_Oliver/Morris","33","29842","43","yes","1280","2"
"350","77.2727272727","77.2727272727","694.613636364","694.613636364","black","no","xpyriment","legacy","legacy","0","208","NA","uniform","70756","1000","0.0141330770535","1","undefined","1","0","43","43","43","0","43","43","43","NA","43","43","0","43","NA","43","43","0","43","NA","43","NA","43","0","0","43","43","0","43","43","44","z","09/23/17 11:13:35","The main experiment item","yes","FIN__AB__M21__7%3A10%3A17.osexp","C:\Users\ERP Testing Room\Desktop\Joanna\morph21","no","mono","no","18","no","white","no","yes","1080","legacy","43","43","C:/Users/ERP Testing Room/Desktop/Joanna/morph21/subject-104.csv","xpyriment","Jazzy James","3.1.4","0","z","NA","NA","NA","NA","space","z","721","NA","NA","NA","NA","193641","721","2","legacy","1024","2","48000","-16","AB_m21","104","even","FILL_NW","KRAISE","1366","354231","352639","346522","195017","NA","NA","NA","NA","354224","353136","NA","352139","NA","352135","354224","1375","354581","NA","NA","353231","1366","1366","353623","352135","1366","353231","354581","morph21_Oliver/Morris","34","30563","44","yes","1280","33"
"400","77.7777777778","77.7777777778","694.666666667","694.666666667","black","no","xpyriment","legacy","legacy","0","201","NA","uniform","74460","1000","0.0134300295461","1","undefined","1","0","44","44","44","0","44","44","44","NA","44","44","0","44","NA","44","44","0","44","NA","44","NA","44","0","0","44","44","0","44","44","45","/","09/23/17 11:13:35","The main experiment item","yes","FIN__AB__M21__7%3A10%3A17.osexp","C:\Users\ERP Testing Room\Desktop\Joanna\morph21","no","mono","no","18","no","white","no","yes","1080","legacy","44","44","C:/Users/ERP Testing Room/Desktop/Joanna/morph21/subject-104.csv","xpyriment","Jazzy James","3.1.4","0","/","NA","NA","NA","NA","space","/","697","NA","NA","NA","NA","193641","697","2","legacy","1024","2","48000","-16","AB_m21","104","even","CW_S","ALLOWANCE","1366","358923","355823","357415","195017","NA","NA","NA","NA","357404","356320","NA","355323","NA","355316","357404","1375","359323","NA","NA","356415","1366","1366","356806","355316","1366","356414","359323","morph21_Oliver/Morris","35","31260","45","yes","1280","5"
"400","78.2608695652","78.2608695652","692.326086957","692.326086957","black","no","xpyriment","legacy","legacy","0","202","NA","uniform","67415","1000","0.0148334940295","1","undefined","1","0","45","45","45","0","45","45","45","NA","45","45","0","45","NA","45","45","0","45","NA","45","NA","45","0","0","45","45","0","45","45","46","/","09/23/17 11:13:35","The main experiment item","yes","FIN__AB__M21__7%3A10%3A17.osexp","C:\Users\ERP Testing Room\Desktop\Joanna\morph21","no","mono","no","18","no","white","no","yes","1080","legacy","45","45","C:/Users/ERP Testing Room/Desktop/Joanna/morph21/subject-104.csv","xpyriment","Jazzy James","3.1.4","0","/","NA","NA","NA","NA","space","/","587","NA","NA","NA","NA","193641","587","2","legacy","1024","2","48000","-16","AB_m21","104","even","CW_L","WRONGLY","1366","362165","360565","357415","195017","NA","NA","NA","NA","362161","361062","NA","360065","NA","360054","362161","1375","362565","NA","NA","361173","1366","1366","361565","360054","1366","361173","362565","morph21_Oliver/Morris","36","31847","46","yes","1280","37"
"250","78.7234042553","78.7234042553","693.170212766","693.170212766","black","no","xpyriment","legacy","legacy","0","208","NA","uniform","66856","1000","0.0149575206414","1","undefined","1","0","46","46","46","0","46","46","46","NA","46","46","0","46","NA","46","46","0","46","NA","46","NA","46","0","0","46","46","0","46","46","47","z","09/23/17 11:13:35","The main experiment item","yes","FIN__AB__M21__7%3A10%3A17.osexp","C:\Users\ERP Testing Room\Desktop\Joanna\morph21","no","mono","no","18","no","white","no","yes","1080","legacy","46","46","C:/Users/ERP Testing Room/Desktop/Joanna/morph21/subject-104.csv","xpyriment","Jazzy James","3.1.4","0","z","NA","NA","NA","NA","space","z","732","NA","NA","NA","NA","193641","732","2","legacy","1024","2","48000","-16","AB_m21","104","even","FILL_NW","BUWL","1366","365341","363757","357415","195017","NA","NA","NA","NA","365335","364255","NA","363256","NA","363252","365335","1375","365591","NA","NA","364341","1366","1366","364732","363252","1366","364341","365591","morph21_Oliver/Morris","37","32579","47","yes","1280","9"
"250","79.1666666667","79.1666666667","689.9375","689.9375","black","no","xpyriment","legacy","legacy","0","202","NA","uniform","66651","1000","0.0150035258286","1","undefined","1","0","47","47","47","0","47","47","47","NA","47","47","0","47","NA","47","47","0","47","NA","47","NA","47","0","0","47","47","0","47","47","48","/","09/23/17 11:13:35","The main experiment item","yes","FIN__AB__M21__7%3A10%3A17.osexp","C:\Users\ERP Testing Room\Desktop\Joanna\morph21","no","mono","no","18","no","white","no","yes","1080","legacy","47","47","C:/Users/ERP Testing Room/Desktop/Joanna/morph21/subject-104.csv","xpyriment","Jazzy James","3.1.4","0","/","NA","NA","NA","NA","space","/","538","NA","NA","NA","NA","193641","538","2","legacy","1024","2","48000","-16","AB_m21","104","even","CW_L","FLEXIBLE","1366","369899","366808","368391","195017","NA","NA","NA","NA","368387","367305","NA","366308","NA","366301","368387","1375","370150","NA","NA","367391","1366","1366","367791","366301","1366","367391","370150","morph21_Oliver/Morris","38","33117","48","yes","1280","22"
"250","79.5918367347","79.5918367347","687.469387755","687.469387755","black","no","xpyriment","legacy","legacy","0","201","NA","uniform","73805","1000","0.0135492175327","1","undefined","1","0","48","48","48","0","48","48","48","NA","48","48","0","48","NA","48","48","0","48","NA","48","NA","48","0","0","48","48","0","48","48","49","/","09/23/17 11:13:35","The main experiment item","yes","FIN__AB__M21__7%3A10%3A17.osexp","C:\Users\ERP Testing Room\Desktop\Joanna\morph21","no","mono","no","18","no","white","no","yes","1080","legacy","48","48","C:/Users/ERP Testing Room/Desktop/Joanna/morph21/subject-104.csv","xpyriment","Jazzy James","3.1.4","0","/","NA","NA","NA","NA","space","/","569","NA","NA","NA","NA","193641","569","2","legacy","1024","2","48000","-16","AB_m21","104","even","CW_S","TOSSING","1366","372983","371358","368391","195017","NA","NA","NA","NA","372979","371855","NA","370858","NA","370852","372979","1375","373233","NA","NA","371983","1366","1366","372383","370852","1366","371983","373233","morph21_Oliver/Morris","39","33686","49","yes","1280","26"
"400","80","80","688.9","688.9","black","no","xpyriment","legacy","legacy","0","208","NA","uniform","64523","1000","0.0154983494258","1","undefined","1","0","49","49","49","0","49","49","49","NA","49","49","0","49","NA","49","49","0","49","NA","49","NA","49","0","0","49","49","0","49","49","50","z","09/23/17 11:13:35","The main experiment item","yes","FIN__AB__M21__7%3A10%3A17.osexp","C:\Users\ERP Testing Room\Desktop\Joanna\morph21","no","mono","no","18","no","white","no","yes","1080","legacy","49","49","C:/Users/ERP Testing Room/Desktop/Joanna/morph21/subject-104.csv","xpyriment","Jazzy James","3.1.4","0","z","NA","NA","NA","NA","space","z","759","NA","NA","NA","NA","193641","759","2","legacy","1024","2","48000","-16","AB_m21","104","even","FILL_NW","FROES","1366","376025","374433","368391","195017","NA","NA","NA","NA","376020","374930","NA","373933","NA","373930","376020","1375","376425","NA","NA","375025","1366","1366","375425","373930","1366","375025","376425","morph21_Oliver/Morris","40","34445","50","yes","1280","21"
"300","80.3921568627","80.3921568627","688.31372549","688.31372549","black","no","xpyriment","legacy","legacy","0","201","NA","uniform","67183","1000","0.0148847178602","1","undefined","1","0","50","50","50","0","50","50","50","NA","50","50","0","50","NA","50","50","0","50","NA","50","NA","50","0","0","50","50","0","50","50","51","/","09/23/17 11:13:35","The main experiment item","yes","FIN__AB__M21__7%3A10%3A17.osexp","C:\Users\ERP Testing Room\Desktop\Joanna\morph21","no","mono","no","18","no","white","no","yes","1080","legacy","50","50","C:/Users/ERP Testing Room/Desktop/Joanna/morph21/subject-104.csv","xpyriment","Jazzy James","3.1.4","0","/","NA","NA","NA","NA","space","/","659","NA","NA","NA","NA","193641","659","2","legacy","1024","2","48000","-16","AB_m21","104","even","CW_S","BUYER","1366","380842","377700","379333","195017","NA","NA","NA","NA","379327","378197","NA","377200","NA","377188","379327","1375","381142","NA","NA","378333","1366","1366","378725","377188","1366","378333","381142","morph21_Oliver/Morris","41","35104","51","yes","1280","21"
"200","80.7692307692","80.7692307692","689.730769231","689.730769231","black","no","xpyriment","legacy","legacy","0","204","NA","uniform","69102","1000","0.0144713611762","1","undefined","1","0","51","51","51","0","51","51","51","NA","51","51","0","51","NA","51","51","0","51","NA","51","NA","51","0","0","51","51","0","51","51","52","z","09/23/17 11:13:35","The main experiment item","yes","FIN__AB__M21__7%3A10%3A17.osexp","C:\Users\ERP Testing Room\Desktop\Joanna\morph21","no","mono","no","18","no","white","no","yes","1080","legacy","51","51","C:/Users/ERP Testing Room/Desktop/Joanna/morph21/subject-104.csv","xpyriment","Jazzy James","3.1.4","0","z","NA","NA","NA","NA","space","z","762","NA","NA","NA","NA","193641","762","2","legacy","1024","2","48000","-16","AB_m21","104","even","NW_L_COMP","PITCHORY","1366","383943","382343","379333","195017","NA","NA","NA","NA","383938","382840","NA","381843","NA","381835","383938","1375","384143","NA","NA","382943","1366","1366","383343","381835","1366","382943","384143","morph21_Oliver/Morris","42","35866","52","yes","1280","25"
"350","79.2452830189","79.2452830189","695.471698113","695.471698113","black","no","xpyriment","legacy","legacy","0","208","NA","uniform","58993","1000","0.0169511636974","0","undefined","0","0","52","52","52","0","52","52","52","NA","52","52","0","52","NA","52","52","0","52","NA","52","NA","52","0","0","52","52","0","52","52","53","z","09/23/17 11:13:35","The main experiment item","yes","FIN__AB__M21__7%3A10%3A17.osexp","C:\Users\ERP Testing Room\Desktop\Joanna\morph21","no","mono","no","18","no","white","no","yes","1080","legacy","52","52","C:/Users/ERP Testing Room/Desktop/Joanna/morph21/subject-104.csv","xpyriment","Jazzy James","3.1.4","0","None","NA","NA","NA","NA","space","None","994","NA","NA","NA","NA","193641","994","2","legacy","1024","2","48000","-16","AB_m21","104","even","FILL_NW","JADS","1366","386993","385409","379333","195017","NA","NA","NA","NA","383938","385907","NA","384909","NA","384902","386988","1375","387343","NA","NA","385993","1366","1366","386393","384902","1366","385993","387343","morph21_Oliver/Morris","42","36860","53","yes","1280","31"
"200","79.6296296296","79.6296296296","692.37037037","692.37037037","black","no","xpyriment","legacy","legacy","0","207","NA","uniform","78135","1000","0.0127983618097","1","undefined","1","0","53","53","53","0","53","53","53","NA","53","53","0","53","NA","53","53","0","53","NA","53","NA","53","0","0","53","53","0","53","53","54","/","09/23/17 11:13:35","The main experiment item","yes","FIN__AB__M21__7%3A10%3A17.osexp","C:\Users\ERP Testing Room\Desktop\Joanna\morph21","no","mono","no","18","no","white","no","yes","1080","legacy","53","53","C:/Users/ERP Testing Room/Desktop/Joanna/morph21/subject-104.csv","xpyriment","Jazzy James","3.1.4","0","/","NA","NA","NA","NA","space","/","528","NA","NA","NA","NA","193641","528","2","legacy","1024","2","48000","-16","AB_m21","104","even","FILL_W","LEGAL","1366","391676","388585","390168","195017","NA","NA","NA","NA","390165","389082","NA","388085","NA","388076","390165","1375","391877","NA","NA","389176","1366","1366","389568","388076","1366","389176","391877","morph21_Oliver/Morris","43","37388","54","yes","1280","35"
"350","80","80","691.218181818","691.218181818","black","no","xpyriment","legacy","legacy","0","202","NA","uniform","73535","1000","0.0135989664785","1","undefined","1","0","54","54","54","0","54","54","54","NA","54","54","0","54","NA","54","54","0","54","NA","54","NA","54","0","0","54","54","0","54","54","55","/","09/23/17 11:13:35","The main experiment item","yes","FIN__AB__M21__7%3A10%3A17.osexp","C:\Users\ERP Testing Room\Desktop\Joanna\morph21","no","mono","no","18","no","white","no","yes","1080","legacy","54","54","C:/Users/ERP Testing Room/Desktop/Joanna/morph21/subject-104.csv","xpyriment","Jazzy James","3.1.4","0","/","NA","NA","NA","NA","space","/","629","NA","NA","NA","NA","193641","629","2","legacy","1024","2","48000","-16","AB_m21","104","even","CW_L","BOMBER","1366","394651","393068","390168","195017","NA","NA","NA","NA","394644","393565","NA","392568","NA","392556","394644","1375","395002","NA","NA","393651","1366","1366","394043","392556","1366","393651","395002","morph21_Oliver/Morris","44","38017","55","yes","1280","7"
"250","80.3571428571","80.3571428571","694.821428571","694.821428571","black","no","xpyriment","legacy","legacy","0","204","NA","uniform","66859","1000","0.0149568494892","1","undefined","1","0","55","55","55","0","55","55","55","NA","55","55","0","55","NA","55","55","0","55","NA","55","NA","55","0","0","55","55","0","55","55","56","z","09/23/17 11:13:35","The main experiment item","yes","FIN__AB__M21__7%3A10%3A17.osexp","C:\Users\ERP Testing Room\Desktop\Joanna\morph21","no","mono","no","18","no","white","no","yes","1080","legacy","55","55","C:/Users/ERP Testing Room/Desktop/Joanna/morph21/subject-104.csv","xpyriment","Jazzy James","3.1.4","0","z","NA","NA","NA","NA","space","z","893","NA","NA","NA","NA","193641","893","2","legacy","1024","2","48000","-16","AB_m21","104","even","NW_L_COMP","STIRANCE","1366","397835","396227","390168","195017","NA","NA","NA","NA","397831","396724","NA","395727","NA","395720","397831","1375","398085","NA","NA","396835","1366","1366","397235","395720","1366","396835","398085","morph21_Oliver/Morris","45","38910","56","yes","1280","1"
"400","80.701754386","80.701754386","696.754385965","696.754385965","black","no","xpyriment","legacy","legacy","0","202","NA","uniform","67103","1000","0.0149024633772","1","undefined","1","0","56","56","56","0","56","56","56","NA","56","56","0","56","NA","56","56","0","56","NA","56","NA","56","0","0","56","56","0","56","56","57","/","09/23/17 11:13:35","The main experiment item","yes","FIN__AB__M21__7%3A10%3A17.osexp","C:\Users\ERP Testing Room\Desktop\Joanna\morph21","no","mono","no","18","no","white","no","yes","1080","legacy","56","56","C:/Users/ERP Testing Room/Desktop/Joanna/morph21/subject-104.csv","xpyriment","Jazzy James","3.1.4","0","/","NA","NA","NA","NA","space","/","805","NA","NA","NA","NA","193641","805","2","legacy","1024","2","48000","-16","AB_m21","104","even","CW_L","COOLING","1366","402328","399236","400819","195017","NA","NA","NA","NA","400816","399733","NA","398736","NA","398731","400816","1375","402728","NA","NA","399828","1366","1366","400219","398731","1366","399828","402728","morph21_Oliver/Morris","46","39715","57","yes","1280","24"
"250","79.3103448276","79.3103448276","697.379310345","697.379310345","black","no","xpyriment","legacy","legacy","0","205","NA","uniform","66416","1000","0.0150566128644","0","undefined","0","0","57","57","57","0","57","57","57","NA","57","57","0","57","NA","57","57","0","57","NA","57","NA","57","0","0","57","57","0","57","57","58","z","09/23/17 11:13:35","The main experiment item","yes","FIN__AB__M21__7%3A10%3A17.osexp","C:\Users\ERP Testing Room\Desktop\Joanna\morph21","no","mono","no","18","no","white","no","yes","1080","legacy","57","57","C:/Users/ERP Testing Room/Desktop/Joanna/morph21/subject-104.csv","xpyriment","Jazzy James","3.1.4","0","/","NA","NA","NA","NA","space","/","733","NA","NA","NA","NA","193641","733","2","legacy","1024","2","48000","-16","AB_m21","104","even","NW_S_SIMP","DIGODY","1366","405620","404003","400819","195017","NA","NA","NA","NA","400816","404500","NA","403503","NA","403493","405612","1375","405870","NA","NA","404620","1366","1366","405011","403493","1366","404620","405870","morph21_Oliver/Morris","46","40448","58","yes","1280","11"
"250","77.9661016949","77.9661016949","700.525423729","700.525423729","black","no","xpyriment","legacy","legacy","0","208","NA","uniform","63717","1000","0.0156943986691","0","undefined","0","0","58","58","58","0","58","58","58","NA","58","58","0","58","NA","58","58","0","58","NA","58","NA","58","0","0","58","58","0","58","58","59","z","09/23/17 11:13:35","The main experiment item","yes","FIN__AB__M21__7%3A10%3A17.osexp","C:\Users\ERP Testing Room\Desktop\Joanna\morph21","no","mono","no","18","no","white","no","yes","1080","legacy","58","58","C:/Users/ERP Testing Room/Desktop/Joanna/morph21/subject-104.csv","xpyriment","Jazzy James","3.1.4","0","/","NA","NA","NA","NA","space","/","883","NA","NA","NA","NA","193641","883","2","legacy","1024","2","48000","-16","AB_m21","104","even","FILL_NW","DOWED","1366","408645","407045","400819","195017","NA","NA","NA","NA","400816","407542","NA","406545","NA","406539","408639","1375","408895","NA","NA","407645","1366","1366","408036","406539","1366","407645","408895","morph21_Oliver/Morris","46","41331","59","yes","1280","16"
"250","78.3333333333","78.3333333333","703.65","703.65","black","no","xpyriment","legacy","legacy","0","201","NA","uniform","60345","1000","0.0165713812246","1","undefined","1","0","59","59","59","0","59","59","59","NA","59","59","0","59","NA","59","59","0","59","NA","59","NA","59","0","0","59","59","0","59","59","60","/","09/23/17 11:13:35","The main experiment item","yes","FIN__AB__M21__7%3A10%3A17.osexp","C:\Users\ERP Testing Room\Desktop\Joanna\morph21","no","mono","no","18","no","white","no","yes","1080","legacy","59","59","C:/Users/ERP Testing Room/Desktop/Joanna/morph21/subject-104.csv","xpyriment","Jazzy James","3.1.4","0","/","NA","NA","NA","NA","space","/","888","NA","NA","NA","NA","193641","888","2","legacy","1024","2","48000","-16","AB_m21","104","even","CW_S","MILDNESS","1366","413220","410120","411712","195017","NA","NA","NA","NA","411704","410617","NA","409620","NA","409610","411704","1375","413470","NA","NA","410712","1366","1366","411103","409610","1366","410711","413470","morph21_Oliver/Morris","47","42219","60","yes","1280","42"
"200","77.0491803279","77.0491803279","708.393442623","708.393442623","black","no","xpyriment","legacy","legacy","0","203","NA","uniform","53230","1000","0.0187863986474","0","undefined","0","0","60","60","60","0","60","60","60","NA","60","60","0","60","NA","60","60","0","60","NA","60","NA","60","0","0","60","60","0","60","60","61","z","09/23/17 11:13:35","The main experiment item","yes","FIN__AB__M21__7%3A10%3A17.osexp","C:\Users\ERP Testing Room\Desktop\Joanna\morph21","no","mono","no","18","no","white","no","yes","1080","legacy","60","60","C:/Users/ERP Testing Room/Desktop/Joanna/morph21/subject-104.csv","xpyriment","Jazzy James","3.1.4","0","None","NA","NA","NA","NA","space","None","993","NA","NA","NA","NA","193641","993","2","legacy","1024","2","48000","-16","AB_m21","104","even","NW_S_COMP","MELTANCE","1366","416304","414720","411712","195017","NA","NA","NA","NA","411704","415217","NA","414220","NA","414211","416297","1375","416504","NA","NA","415303","1366","1366","415695","414211","1366","415303","416504","morph21_Oliver/Morris","47","43212","61","yes","1280","1"
"250","77.4193548387","77.4193548387","706.903225806","706.903225806","black","no","xpyriment","legacy","legacy","0","207","NA","uniform","73024","1000","0.0136941279579","1","undefined","1","0","61","61","61","0","61","61","61","NA","61","61","0","61","NA","61","61","0","61","NA","61","NA","61","0","0","61","61","0","61","61","62","/","09/23/17 11:13:35","The main experiment item","yes","FIN__AB__M21__7%3A10%3A17.osexp","C:\Users\ERP Testing Room\Desktop\Joanna\morph21","no","mono","no","18","no","white","no","yes","1080","legacy","61","61","C:/Users/ERP Testing Room/Desktop/Joanna/morph21/subject-104.csv","xpyriment","Jazzy James","3.1.4","0","/","NA","NA","NA","NA","space","/","616","NA","NA","NA","NA","193641","616","2","legacy","1024","2","48000","-16","AB_m21","104","even","FILL_W","SLIM","1366","419321","417721","411712","195017","NA","NA","NA","NA","419315","418218","NA","417221","NA","417215","419315","1375","419571","NA","NA","418321","1366","1366","418713","417215","1366","418321","419571","morph21_Oliver/Morris","48","43828","62","yes","1280","6"
"250","77.7777777778","77.7777777778","705.936507937","705.936507937","black","no","xpyriment","legacy","legacy","0","207","NA","uniform","69943","1000","0.0142973564188","1","undefined","1","0","62","62","62","0","62","62","62","NA","62","62","0","62","NA","62","62","0","62","NA","62","NA","62","0","0","62","62","0","62","62","63","/","09/23/17 11:13:35","The main experiment item","yes","FIN__AB__M21__7%3A10%3A17.osexp","C:\Users\ERP Testing Room\Desktop\Joanna\morph21","no","mono","no","18","no","white","no","yes","1080","legacy","62","62","C:/Users/ERP Testing Room/Desktop/Joanna/morph21/subject-104.csv","xpyriment","Jazzy James","3.1.4","0","/","NA","NA","NA","NA","space","/","646","NA","NA","NA","NA","193641","646","2","legacy","1024","2","48000","-16","AB_m21","104","even","FILL_W","SPLICE","1366","423871","420780","422363","195017","NA","NA","NA","NA","422358","421277","NA","420280","NA","420273","422358","1375","424122","NA","NA","421363","1366","1366","421763","420273","1366","421363","424122","morph21_Oliver/Morris","49","44474","63","yes","1280","22"
"300","76.5625","76.5625","704.6875","704.6875","black","no","xpyriment","legacy","legacy","0","208","NA","uniform","70784","1000","0.0141274864376","0","undefined","0","0","63","63","63","0","63","63","63","NA","63","63","0","63","NA","63","63","0","63","NA","63","NA","63","0","0","63","63","0","63","63","64","z","09/23/17 11:13:35","The main experiment item","yes","FIN__AB__M21__7%3A10%3A17.osexp","C:\Users\ERP Testing Room\Desktop\Joanna\morph21","no","mono","no","18","no","white","no","yes","1080","legacy","63","63","C:/Users/ERP Testing Room/Desktop/Joanna/morph21/subject-104.csv","xpyriment","Jazzy James","3.1.4","0","/","NA","NA","NA","NA","space","/","626","NA","NA","NA","NA","193641","626","2","legacy","1024","2","48000","-16","AB_m21","104","even","FILL_NW","TREMP","1366","427038","425430","422363","195017","NA","NA","NA","NA","422358","425927","NA","424930","NA","424919","427031","1375","427338","NA","NA","426038","1366","1366","426430","424919","1366","426038","427338","morph21_Oliver/Morris","49","45100","64","yes","1280","20"
"400","75.3846153846","75.3846153846","705.030769231","705.030769231","black","no","xpyriment","legacy","legacy","0","206","NA","uniform","66176","1000","0.0151112185687","0","undefined","0","0","64","64","64","0","64","64","64","NA","64","64","0","64","NA","64","64","0","64","NA","64","NA","64","0","0","64","64","0","64","64","65","z","09/23/17 11:13:35","The main experiment item","yes","FIN__AB__M21__7%3A10%3A17.osexp","C:\Users\ERP Testing Room\Desktop\Joanna\morph21","no","mono","no","18","no","white","no","yes","1080","legacy","64","64","C:/Users/ERP Testing Room/Desktop/Joanna/morph21/subject-104.csv","xpyriment","Jazzy James","3.1.4","0","/","NA","NA","NA","NA","space","/","727","NA","NA","NA","NA","193641","727","2","legacy","1024","2","48000","-16","AB_m21","104","even","NW_L_SIMP","BOGADY","1366","430105","428522","422363","195017","NA","NA","NA","NA","422358","429019","NA","428022","NA","428014","430098","1375","430505","NA","NA","429105","1366","1366","429497","428014","1366","429105","430505","morph21_Oliver/Morris","49","45827","65","yes","1280","2"
"350","75.7575757576","75.7575757576","705.681818182","705.681818182","black","no","xpyriment","legacy","legacy","0","208","NA","uniform","68839","1000","0.0145266491378","1","undefined","1","0","65","65","65","0","65","65","65","NA","65","65","0","65","NA","65","65","0","65","NA","65","NA","65","0","0","65","65","0","65","65","66","z","09/23/17 11:13:35","The main experiment item","yes","FIN__AB__M21__7%3A10%3A17.osexp","C:\Users\ERP Testing Room\Desktop\Joanna\morph21","no","mono","no","18","no","white","no","yes","1080","legacy","65","65","C:/Users/ERP Testing Room/Desktop/Joanna/morph21/subject-104.csv","xpyriment","Jazzy James","3.1.4","0","z","NA","NA","NA","NA","space","z","748","NA","NA","NA","NA","193641","748","2","legacy","1024","2","48000","-16","AB_m21","104","even","FILL_NW","DOADS","1366","434873","431780","433364","195017","NA","NA","NA","NA","433356","432277","NA","431280","NA","431272","433356","1375","435223","NA","NA","432364","1366","1366","432755","431272","1366","432364","435223","morph21_Oliver/Morris","50","46575","66","yes","1280","15"
"250","76.1194029851","76.1194029851","707.447761194","707.447761194","black","no","xpyriment","legacy","legacy","0","208","NA","uniform","61011","1000","0.0163904869614","1","undefined","1","0","66","66","66","0","66","66","66","NA","66","66","0","66","NA","66","66","0","66","NA","66","NA","66","0","0","66","66","0","66","66","67","z","09/23/17 11:13:35","The main experiment item","yes","FIN__AB__M21__7%3A10%3A17.osexp","C:\Users\ERP Testing Room\Desktop\Joanna\morph21","no","mono","no","18","no","white","no","yes","1080","legacy","66","66","C:/Users/ERP Testing Room/Desktop/Joanna/morph21/subject-104.csv","xpyriment","Jazzy James","3.1.4","0","z","NA","NA","NA","NA","space","z","824","NA","NA","NA","NA","193641","824","2","legacy","1024","2","48000","-16","AB_m21","104","even","FILL_NW","LOLDS","1366","438065","436481","433364","195017","NA","NA","NA","NA","438059","436979","NA","435981","NA","435978","438059","1375","438315","NA","NA","437065","1366","1366","437456","435978","1366","437065","438315","morph21_Oliver/Morris","51","47399","67","yes","1280","34"
"250","76.4705882353","76.4705882353","704.647058824","704.647058824","black","no","xpyriment","legacy","legacy","0","207","NA","uniform","66779","1000","0.0149747675167","1","undefined","1","0","67","67","67","0","67","67","67","NA","67","67","0","67","NA","67","67","0","67","NA","67","NA","67","0","0","67","67","0","67","67","68","/","09/23/17 11:13:35","The main experiment item","yes","FIN__AB__M21__7%3A10%3A17.osexp","C:\Users\ERP Testing Room\Desktop\Joanna\morph21","no","mono","no","18","no","white","no","yes","1080","legacy","67","67","C:/Users/ERP Testing Room/Desktop/Joanna/morph21/subject-104.csv","xpyriment","Jazzy James","3.1.4","0","/","NA","NA","NA","NA","space","/","517","NA","NA","NA","NA","193641","517","2","legacy","1024","2","48000","-16","AB_m21","104","even","FILL_W","SHIP","1366","441140","439557","433364","195017","NA","NA","NA","NA","441137","440054","NA","439057","NA","439049","441137","1375","441390","NA","NA","440148","1366","1366","440540","439049","1366","440148","441390","morph21_Oliver/Morris","52","47916","68","yes","1280","37"
"250","76.8115942029","76.8115942029","705.927536232","705.927536232","black","no","xpyriment","legacy","legacy","0","204","NA","uniform","62586","1000","0.0159780142524","1","undefined","1","0","68","68","68","0","68","68","68","NA","68","68","0","68","NA","68","68","0","68","NA","68","NA","68","0","0","68","68","0","68","68","69","z","09/23/17 11:13:35","The main experiment item","yes","FIN__AB__M21__7%3A10%3A17.osexp","C:\Users\ERP Testing Room\Desktop\Joanna\morph21","no","mono","no","18","no","white","no","yes","1080","legacy","68","68","C:/Users/ERP Testing Room/Desktop/Joanna/morph21/subject-104.csv","xpyriment","Jazzy James","3.1.4","0","z","NA","NA","NA","NA","space","z","793","NA","NA","NA","NA","193641","793","2","legacy","1024","2","48000","-16","AB_m21","104","even","NW_L_COMP","MUDLY","1366","445715","442623","444207","195017","NA","NA","NA","NA","444198","443120","NA","442123","NA","442118","444198","1375","445965","NA","NA","443207","1366","1366","443598","442118","1366","443207","445965","morph21_Oliver/Morris","53","48709","69","yes","1280","12"
"400","77.1428571429","77.1428571429","709.371428571","709.371428571","black","no","xpyriment","legacy","legacy","0","205","NA","uniform","62547","1000","0.0159879770413","1","undefined","1","0","69","69","69","0","69","69","69","NA","69","69","0","69","NA","69","69","0","69","NA","69","NA","69","0","0","69","69","0","69","69","70","z","09/23/17 11:13:35","The main experiment item","yes","FIN__AB__M21__7%3A10%3A17.osexp","C:\Users\ERP Testing Room\Desktop\Joanna\morph21","no","mono","no","18","no","white","no","yes","1080","legacy","69","69","C:/Users/ERP Testing Room/Desktop/Joanna/morph21/subject-104.csv","xpyriment","Jazzy James","3.1.4","0","z","NA","NA","NA","NA","space","z","947","NA","NA","NA","NA","193641","947","2","legacy","1024","2","48000","-16","AB_m21","104","even","NW_S_SIMP","MEDICALADY","1366","448765","447182","444207","195017","NA","NA","NA","NA","448758","447679","NA","446682","NA","446676","448758","1375","449165","NA","NA","447765","1366","1366","448157","446676","1366","447765","449165","morph21_Oliver/Morris","54","49656","70","yes","1280","18"
"400","76.0563380282","76.0563380282","713.323943662","713.323943662","black","no","xpyriment","legacy","legacy","0","203","NA","uniform","63238","1000","0.0158132768272","0","undefined","0","0","70","70","70","0","70","70","70","NA","70","70","0","70","NA","70","70","0","70","NA","70","NA","70","0","0","70","70","0","70","70","71","z","09/23/17 11:13:35","The main experiment item","yes","FIN__AB__M21__7%3A10%3A17.osexp","C:\Users\ERP Testing Room\Desktop\Joanna\morph21","no","mono","no","18","no","white","no","yes","1080","legacy","70","70","C:/Users/ERP Testing Room/Desktop/Joanna/morph21/subject-104.csv","xpyriment","Jazzy James","3.1.4","0","None","NA","NA","NA","NA","space","None","990","NA","NA","NA","NA","193641","990","2","legacy","1024","2","48000","-16","AB_m21","104","even","NW_S_COMP","ALTARIC","1366","452058","450457","444207","195017","NA","NA","NA","NA","448758","450954","NA","449957","NA","449946","452047","1375","452458","NA","NA","451057","1366","1366","451450","449946","1366","451057","452458","morph21_Oliver/Morris","54","50646","71","yes","1280","7"
"200","76.3888888889","76.3888888889","712.638888889","712.638888889","black","no","xpyriment","legacy","legacy","0","208","NA","uniform","71358","1000","0.0140138456795","1","undefined","1","0","71","71","71","0","71","71","71","NA","71","71","0","71","NA","71","71","0","71","NA","71","NA","71","0","0","71","71","0","71","71","72","z","09/23/17 11:13:35","The main experiment item","yes","FIN__AB__M21__7%3A10%3A17.osexp","C:\Users\ERP Testing Room\Desktop\Joanna\morph21","no","mono","no","18","no","white","no","yes","1080","legacy","71","71","C:/Users/ERP Testing Room/Desktop/Joanna/morph21/subject-104.csv","xpyriment","Jazzy James","3.1.4","0","z","NA","NA","NA","NA","space","z","664","NA","NA","NA","NA","193641","664","2","legacy","1024","2","48000","-16","AB_m21","104","even","FILL_NW","GAIRS","1366","456733","453641","455225","195017","NA","NA","NA","NA","455219","454139","NA","453141","NA","453134","455219","1375","456934","NA","NA","454225","1366","1366","454617","453133","1366","454225","456934","morph21_Oliver/Morris","55","51310","72","yes","1280","23"
"300","75.3424657534","75.3424657534","716.438356164","716.438356164","black","no","xpyriment","legacy","legacy","0","203","NA","uniform","65095","1000","0.0153621629925","0","undefined","0","0","72","72","72","0","72","72","72","NA","72","72","0","72","NA","72","72","0","72","NA","72","NA","72","0","0","72","72","0","72","72","73","z","09/23/17 11:13:35","The main experiment item","yes","FIN__AB__M21__7%3A10%3A17.osexp","C:\Users\ERP Testing Room\Desktop\Joanna\morph21","no","mono","no","18","no","white","no","yes","1080","legacy","72","72","C:/Users/ERP Testing Room/Desktop/Joanna/morph21/subject-104.csv","xpyriment","Jazzy James","3.1.4","0","None","NA","NA","NA","NA","space","None","990","NA","NA","NA","NA","193641","990","2","legacy","1024","2","48000","-16","AB_m21","104","even","NW_S_COMP","CURTITY","1366","459833","458217","455225","195017","NA","NA","NA","NA","455219","458714","NA","457708","NA","457704","459824","1375","460133","NA","NA","458833","1366","1366","459225","457704","1366","458833","460133","morph21_Oliver/Morris","55","52300","73","yes","1280","11"
"250","74.3243243243","74.3243243243","720.081081081","720.081081081","black","no","xpyriment","legacy","legacy","0","203","NA","uniform","62161","1000","0.0160872572835","0","undefined","0","0","73","73","73","0","73","73","73","NA","73","73","0","73","NA","73","73","0","73","NA","73","NA","73","0","0","73","73","0","73","73","74","z","09/23/17 11:13:35","The main experiment item","yes","FIN__AB__M21__7%3A10%3A17.osexp","C:\Users\ERP Testing Room\Desktop\Joanna\morph21","no","mono","no","18","no","white","no","yes","1080","legacy","73","73","C:/Users/ERP Testing Room/Desktop/Joanna/morph21/subject-104.csv","xpyriment","Jazzy James","3.1.4","0","None","NA","NA","NA","NA","space","None","986","NA","NA","NA","NA","193641","986","2","legacy","1024","2","48000","-16","AB_m21","104","even","NW_S_COMP","BEERER","1366","462950","461367","455225","195017","NA","NA","NA","NA","455219","461864","NA","460867","NA","460860","462946","1375","463200","NA","NA","461959","1366","1366","462350","460860","1366","461958","463200","morph21_Oliver/Morris","55","53286","74","yes","1280","5"
"300","73.3333333333","73.3333333333","723.4","723.4","black","no","xpyriment","legacy","legacy","0","204","NA","uniform","62190","1000","0.0160797555877","undefined","undefined","0","0","74","74","74","0","74","74","74","NA","74","74","0","74","NA","74","74","0","74","NA","74","NA","74","0","0","74","74","0","74","74","75","z","09/23/17 11:13:35","The main experiment item","yes","FIN__AB__M21__7%3A10%3A17.osexp","C:\Users\ERP Testing Room\Desktop\Joanna\morph21","no","mono","no","18","no","white","no","yes","1080","legacy","74","74","C:/Users/ERP Testing Room/Desktop/Joanna/morph21/subject-104.csv","xpyriment","Jazzy James","3.1.4","0","space","space","NA","NA","NA","space","/","4714","4714","NA","NA","NA","193641","969","2","legacy","1024","2","48000","-16","AB_m21","104","even","NW_L_COMP","FELLOWOUS","1366","467467","464375","465959","195017","467775","NA","NA","NA","455219","464872","NA","463875","NA","463864","465951","1375","472490","NA","NA","464959","1366","1366","465350","463864","1366","464959","467767","morph21_Oliver/Morris","55","54255","75","yes","1280","17"
"350","73.6842105263","73.6842105263","721.092105263","721.092105263","black","no","xpyriment","legacy","legacy","0","202","NA","uniform","77049","1000","0.0129787537801","1","undefined","1","0","75","75","75","0","75","75","75","NA","75","75","0","75","NA","75","75","0","75","NA","75","NA","75","0","0","75","75","0","75","75","76","/","09/23/17 11:13:35","The main experiment item","yes","FIN__AB__M21__7%3A10%3A17.osexp","C:\Users\ERP Testing Room\Desktop\Joanna\morph21","no","mono","no","18","no","white","no","yes","1080","legacy","75","75","C:/Users/ERP Testing Room/Desktop/Joanna/morph21/subject-104.csv","xpyriment","Jazzy James","3.1.4","0","/","space","NA","NA","NA","space","/","548","4714","NA","NA","NA","193641","548","2","legacy","1024","2","48000","-16","AB_m21","104","even","CW_L","PUNCHER","1366","475285","473693","465959","195017","467775","NA","NA","NA","475276","474191","NA","473193","NA","473183","475276","1375","475635","NA","NA","474285","1366","1366","474677","473183","1366","474285","475635","morph21_Oliver/Morris","56","54803","76","yes","1280","1"
"400","74.025974026","74.025974026","719.974025974","719.974025974","black","no","xpyriment","legacy","legacy","0","202","NA","uniform","72132","1000","0.0138634725226","1","undefined","1","0","76","76","76","0","76","76","76","NA","76","76","0","76","NA","76","76","0","76","NA","76","NA","76","0","0","76","76","0","76","76","77","/","09/23/17 11:13:35","The main experiment item","yes","FIN__AB__M21__7%3A10%3A17.osexp","C:\Users\ERP Testing Room\Desktop\Joanna\morph21","no","mono","no","18","no","white","no","yes","1080","legacy","76","76","C:/Users/ERP Testing Room/Desktop/Joanna/morph21/subject-104.csv","xpyriment","Jazzy James","3.1.4","0","/","space","NA","NA","NA","space","/","635","4714","NA","NA","NA","193641","635","2","legacy","1024","2","48000","-16","AB_m21","104","even","CW_L","CONDUCTOR","1366","478469","476852","465959","195017","467775","NA","NA","NA","478465","477349","NA","476343","NA","476338","478465","1375","478869","NA","NA","477477","1366","1366","477869","476338","1366","477477","478869","morph21_Oliver/Morris","57","55438","77","yes","1280","44"
"350","74.358974359","74.358974359","721.756410256","721.756410256","black","no","xpyriment","legacy","legacy","0","203","NA","uniform","62598","1000","0.0159749512764","1","undefined","1","0","77","77","77","0","77","77","77","NA","77","77","0","77","NA","77","77","0","77","NA","77","NA","77","0","0","77","77","0","77","77","78","z","09/23/17 11:13:35","The main experiment item","yes","FIN__AB__M21__7%3A10%3A17.osexp","C:\Users\ERP Testing Room\Desktop\Joanna\morph21","no","mono","no","18","no","white","no","yes","1080","legacy","77","77","C:/Users/ERP Testing Room/Desktop/Joanna/morph21/subject-104.csv","xpyriment","Jazzy James","3.1.4","0","z","space","NA","NA","NA","space","z","859","4714","NA","NA","NA","193641","859","2","legacy","1024","2","48000","-16","AB_m21","104","even","NW_S_COMP","WELDIC","1366","483177","480069","481669","195017","467775","NA","NA","NA","481665","480566","NA","479569","NA","479564","481665","1375","483527","NA","NA","480669","1366","1366","481069","479564","1366","480669","483527","morph21_Oliver/Morris","58","56297","78","yes","1280","21"
"400","73.417721519","73.417721519","723.886075949","723.886075949","black","no","xpyriment","legacy","legacy","0","204","NA","uniform","53969","1000","0.0185291556264","0","undefined","0","0","78","78","78","0","78","78","78","NA","78","78","0","78","NA","78","78","0","78","NA","78","NA","78","0","0","78","78","0","78","78","79","z","09/23/17 11:13:35","The main experiment item","yes","FIN__AB__M21__7%3A10%3A17.osexp","C:\Users\ERP Testing Room\Desktop\Joanna\morph21","no","mono","no","18","no","white","no","yes","1080","legacy","78","78","C:/Users/ERP Testing Room/Desktop/Joanna/morph21/subject-104.csv","xpyriment","Jazzy James","3.1.4","0","/","space","NA","NA","NA","space","/","890","4714","NA","NA","NA","193641","890","2","legacy","1024","2","48000","-16","AB_m21","104","even","NW_L_COMP","PASSMENT","1366","486320","484727","481669","195017","467775","NA","NA","NA","481665","485224","NA","484227","NA","484217","486312","1375","486720","NA","NA","485319","1366","1366","485711","484216","1366","485319","486720","morph21_Oliver/Morris","58","57187","79","yes","1280","14"
"350","72.5","72.5","723.125","723.125","black","no","xpyriment","legacy","legacy","0","203","NA","uniform","71732","1000","0.0139407795684","0","undefined","0","0","79","79","79","0","79","79","79","NA","79","79","0","79","NA","79","79","0","79","NA","79","NA","79","0","0","79","79","0","79","79","80","z","09/23/17 11:13:35","The main experiment item","yes","FIN__AB__M21__7%3A10%3A17.osexp","C:\Users\ERP Testing Room\Desktop\Joanna\morph21","no","mono","no","18","no","white","no","yes","1080","legacy","79","79","C:/Users/ERP Testing Room/Desktop/Joanna/morph21/subject-104.csv","xpyriment","Jazzy James","3.1.4","0","/","space","NA","NA","NA","space","/","663","4714","NA","NA","NA","193641","663","2","legacy","1024","2","48000","-16","AB_m21","104","even","NW_S_COMP","HUMIDOUS","1366","489562","487945","481669","195017","467775","NA","NA","NA","481665","488442","NA","487445","NA","487435","489552","1375","489912","NA","NA","488562","1366","1366","488953","487435","1366","488562","489912","morph21_Oliver/Morris","58","57850","80","yes","1280","25"
"400","72.8395061728","72.8395061728","722.098765432","722.098765432","black","no","xpyriment","legacy","legacy","0","202","NA","uniform","73845","1000","0.0135418782585","1","undefined","1","0","80","80","80","0","80","80","80","NA","80","80","0","80","NA","80","80","0","80","NA","80","NA","80","0","0","80","80","0","80","80","81","/","09/23/17 11:13:35","The main experiment item","yes","FIN__AB__M21__7%3A10%3A17.osexp","C:\Users\ERP Testing Room\Desktop\Joanna\morph21","no","mono","no","18","no","white","no","yes","1080","legacy","80","80","C:/Users/ERP Testing Room/Desktop/Joanna/morph21/subject-104.csv","xpyriment","Jazzy James","3.1.4","0","/","space","NA","NA","NA","space","/","640","4714","NA","NA","NA","193641","640","2","legacy","1024","2","48000","-16","AB_m21","104","even","CW_L","SPELLER","1366","494229","491112","492720","195017","467775","NA","NA","NA","492717","491609","NA","490612","NA","490606","492717","1375","494629","NA","NA","491729","1366","1366","492120","490606","1366","491728","494629","morph21_Oliver/Morris","59","58490","81","yes","1280","3"
"200","73.1707317073","73.1707317073","722.707317073","722.707317073","black","no","xpyriment","legacy","legacy","0","201","NA","uniform","69238","1000","0.01444293596","1","undefined","1","0","81","81","81","0","81","81","81","NA","81","81","0","81","NA","81","81","0","81","NA","81","NA","81","0","0","81","81","0","81","81","82","/","09/23/17 11:13:35","The main experiment item","yes","FIN__AB__M21__7%3A10%3A17.osexp","C:\Users\ERP Testing Room\Desktop\Joanna\morph21","no","mono","no","18","no","white","no","yes","1080","legacy","81","81","C:/Users/ERP Testing Room/Desktop/Joanna/morph21/subject-104.csv","xpyriment","Jazzy James","3.1.4","0","/","space","NA","NA","NA","space","/","772","4714","NA","NA","NA","193641","772","2","legacy","1024","2","48000","-16","AB_m21","104","even","CW_S","CAMPAIGNER","1366","497421","495837","492720","195017","467775","NA","NA","NA","497416","496334","NA","495337","NA","495328","497416","1375","497621","NA","NA","496420","1366","1366","496820","495328","1366","496420","497621","morph21_Oliver/Morris","60","59262","82","yes","1280","15"
"300","72.2891566265","72.2891566265","725.963855422","725.963855422","black","no","xpyriment","legacy","legacy","0","208","NA","uniform","58285","1000","0.0171570730033","0","undefined","0","0","82","82","82","0","82","82","82","NA","82","82","0","82","NA","82","82","0","82","NA","82","NA","82","0","0","82","82","0","82","82","83","z","09/23/17 11:13:35","The main experiment item","yes","FIN__AB__M21__7%3A10%3A17.osexp","C:\Users\ERP Testing Room\Desktop\Joanna\morph21","no","mono","no","18","no","white","no","yes","1080","legacy","82","82","C:/Users/ERP Testing Room/Desktop/Joanna/morph21/subject-104.csv","xpyriment","Jazzy James","3.1.4","0","None","space","NA","NA","NA","space","None","993","4714","NA","NA","NA","193641","993","2","legacy","1024","2","48000","-16","AB_m21","104","even","FILL_NW","HEEM","1366","500429","498846","492720","195017","467775","NA","NA","NA","497416","499343","NA","498346","NA","498340","500422","1375","500729","NA","NA","499429","1366","1366","499821","498340","1366","499429","500729","morph21_Oliver/Morris","60","60255","83","yes","1280","27"
"350","72.619047619","72.619047619","724.714285714","724.714285714","black","no","xpyriment","legacy","legacy","0","207","NA","uniform","71035","1000","0.0140775673964","1","undefined","1","0","83","83","83","0","83","83","83","NA","83","83","0","83","NA","83","83","0","83","NA","83","NA","83","0","0","83","83","0","83","83","84","/","09/23/17 11:13:35","The main experiment item","yes","FIN__AB__M21__7%3A10%3A17.osexp","C:\Users\ERP Testing Room\Desktop\Joanna\morph21","no","mono","no","18","no","white","no","yes","1080","legacy","83","83","C:/Users/ERP Testing Room/Desktop/Joanna/morph21/subject-104.csv","xpyriment","Jazzy James","3.1.4","0","/","space","NA","NA","NA","space","/","621","4714","NA","NA","NA","193641","621","2","legacy","1024","2","48000","-16","AB_m21","104","even","FILL_W","FOLLOW","1366","505097","502004","503588","195017","467775","NA","NA","NA","503582","502501","NA","501504","NA","501493","503582","1375","505447","NA","NA","502587","1366","1366","502979","501493","1366","502587","505447","morph21_Oliver/Morris","61","60876","84","yes","1280","17"
"300","72.9411764706","72.9411764706","722.282352941","722.282352941","black","no","xpyriment","legacy","legacy","0","201","NA","uniform","78596","1000","0.0127232938063","1","undefined","1","0","84","84","84","0","84","84","84","NA","84","84","0","84","NA","84","84","0","84","NA","84","NA","84","0","0","84","84","0","84","84","85","/","09/23/17 11:13:35","The main experiment item","yes","FIN__AB__M21__7%3A10%3A17.osexp","C:\Users\ERP Testing Room\Desktop\Joanna\morph21","no","mono","no","18","no","white","no","yes","1080","legacy","84","84","C:/Users/ERP Testing Room/Desktop/Joanna/morph21/subject-104.csv","xpyriment","Jazzy James","3.1.4","0","/","space","NA","NA","NA","space","/","518","4714","NA","NA","NA","193641","518","2","legacy","1024","2","48000","-16","AB_m21","104","even","CW_S","RISKY","1366","508347","506764","503588","195017","467775","NA","NA","NA","508339","507261","NA","506264","NA","506257","508339","1375","508647","NA","NA","507347","1366","1366","507739","506257","1366","507347","508647","morph21_Oliver/Morris","62","61394","85","yes","1280","50"
"350","73.2558139535","73.2558139535","720.976744186","720.976744186","black","no","xpyriment","legacy","legacy","0","202","NA","uniform","76623","1000","0.0130509116062","1","undefined","1","0","85","85","85","0","85","85","85","NA","85","85","0","85","NA","85","85","0","85","NA","85","NA","85","0","0","85","85","0","85","85","86","/","09/23/17 11:13:35","The main experiment item","yes","FIN__AB__M21__7%3A10%3A17.osexp","C:\Users\ERP Testing Room\Desktop\Joanna\morph21","no","mono","no","18","no","white","no","yes","1080","legacy","85","85","C:/Users/ERP Testing Room/Desktop/Joanna/morph21/subject-104.csv","xpyriment","Jazzy James","3.1.4","0","/","space","NA","NA","NA","space","/","610","4714","NA","NA","NA","193641","610","2","legacy","1024","2","48000","-16","AB_m21","104","even","CW_L","RENTER","1366","511430","509855","503588","195017","467775","NA","NA","NA","511428","510353","NA","509355","NA","509348","511428","1375","511781","NA","NA","510439","1366","1366","510830","509348","1366","510439","511781","morph21_Oliver/Morris","63","62004","86","yes","1280","9"
"300","73.5632183908","73.5632183908","719.091954023","719.091954023","black","no","xpyriment","legacy","legacy","0","202","NA","uniform","73726","1000","0.0135637359954","1","undefined","1","0","86","86","86","0","86","86","86","NA","86","86","0","86","NA","86","86","0","86","NA","86","NA","86","0","0","86","86","0","86","86","87","/","09/23/17 11:13:35","The main experiment item","yes","FIN__AB__M21__7%3A10%3A17.osexp","C:\Users\ERP Testing Room\Desktop\Joanna\morph21","no","mono","no","18","no","white","no","yes","1080","legacy","86","86","C:/Users/ERP Testing Room/Desktop/Joanna/morph21/subject-104.csv","xpyriment","Jazzy James","3.1.4","0","/","space","NA","NA","NA","space","/","557","4714","NA","NA","NA","193641","557","2","legacy","1024","2","48000","-16","AB_m21","104","even","CW_L","WEEDY","1366","516239","513122","514731","195017","467775","NA","NA","NA","514723","513619","NA","512622","NA","512614","514723","1375","516539","NA","NA","513731","1366","1366","514122","512614","1366","513731","516539","morph21_Oliver/Morris","64","62561","87","yes","1280","48"
"400","73.8636363636","73.8636363636","717.420454545","717.420454545","black","no","xpyriment","legacy","legacy","0","201","NA","uniform","70809","1000","0.0141224985524","1","undefined","1","0","87","87","87","0","87","87","87","NA","87","87","0","87","NA","87","87","0","87","NA","87","NA","87","0","0","87","87","0","87","87","88","/","09/23/17 11:13:35","The main experiment item","yes","FIN__AB__M21__7%3A10%3A17.osexp","C:\Users\ERP Testing Room\Desktop\Joanna\morph21","no","mono","no","18","no","white","no","yes","1080","legacy","87","87","C:/Users/ERP Testing Room/Desktop/Joanna/morph21/subject-104.csv","xpyriment","Jazzy James","3.1.4","0","/","space","NA","NA","NA","space","/","572","4714","NA","NA","NA","193641","572","2","legacy","1024","2","48000","-16","AB_m21","104","even","CW_S","EFFORTLESS","1366","519364","517781","514731","195017","467775","NA","NA","NA","519359","518278","NA","517281","NA","517275","519359","1375","519764","NA","NA","518364","1366","1366","518764","517275","1366","518364","519764","morph21_Oliver/Morris","65","63133","88","yes","1280","30"
"200","73.0337078652","73.0337078652","720.078651685","720.078651685","black","no","xpyriment","legacy","legacy","0","208","NA","uniform","63280","1000","0.0158027812895","0","undefined","0","0","88","88","88","0","88","88","88","NA","88","88","0","88","NA","88","88","0","88","NA","88","NA","88","0","0","88","88","0","88","88","89","z","09/23/17 11:13:35","The main experiment item","yes","FIN__AB__M21__7%3A10%3A17.osexp","C:\Users\ERP Testing Room\Desktop\Joanna\morph21","no","mono","no","18","no","white","no","yes","1080","legacy","88","88","C:/Users/ERP Testing Room/Desktop/Joanna/morph21/subject-104.csv","xpyriment","Jazzy James","3.1.4","0","/","space","NA","NA","NA","space","/","954","4714","NA","NA","NA","193641","954","2","legacy","1024","2","48000","-16","AB_m21","104","even","FILL_NW","FALONS","1366","522607","520989","514731","195017","467775","NA","NA","NA","519359","521486","NA","520489","NA","520483","522601","1375","522807","NA","NA","521607","1366","1366","521999","520483","1366","521607","522807","morph21_Oliver/Morris","65","64087","89","yes","1280","19"
"300","73.3333333333","73.3333333333","720.444444444","720.444444444","black","no","xpyriment","legacy","legacy","0","201","NA","uniform","61554","1000","0.0162458979108","1","undefined","1","0","89","89","89","0","89","89","89","NA","89","89","0","89","NA","89","89","0","89","NA","89","NA","89","0","0","89","89","0","89","89","90","/","09/23/17 11:13:35","The main experiment item","yes","FIN__AB__M21__7%3A10%3A17.osexp","C:\Users\ERP Testing Room\Desktop\Joanna\morph21","no","mono","no","18","no","white","no","yes","1080","legacy","89","89","C:/Users/ERP Testing Room/Desktop/Joanna/morph21/subject-104.csv","xpyriment","Jazzy James","3.1.4","0","/","space","NA","NA","NA","space","/","753","4714","NA","NA","NA","193641","753","2","legacy","1024","2","48000","-16","AB_m21","104","even","CW_S","GUILTY","1366","527149","524040","525640","195017","467775","NA","NA","NA","525636","524537","NA","523540","NA","523533","525636","1375","527449","NA","NA","524640","1366","1366","525040","523533","1366","524640","527449","morph21_Oliver/Morris","66","64840","90","yes","1280","34"
"300","72.5274725275","72.5274725275","723.406593407","723.406593407","black","no","xpyriment","legacy","legacy","0","205","NA","uniform","65567","1000","0.0152515747251","0","undefined","0","0","90","90","90","0","90","90","90","NA","90","90","0","90","NA","90","90","0","90","NA","90","NA","90","0","0","90","90","0","90","90","91","z","09/23/17 11:13:35","The main experiment item","yes","FIN__AB__M21__7%3A10%3A17.osexp","C:\Users\ERP Testing Room\Desktop\Joanna\morph21","no","mono","no","18","no","white","no","yes","1080","legacy","90","90","C:/Users/ERP Testing Room/Desktop/Joanna/morph21/subject-104.csv","xpyriment","Jazzy James","3.1.4","0","None","space","NA","NA","NA","space","None","990","4714","NA","NA","NA","193641","990","2","legacy","1024","2","48000","-16","AB_m21","104","even","NW_S_SIMP","TILTADY","1366","530307","528724","525640","195017","467775","NA","NA","NA","525636","529221","NA","528224","NA","528219","530297","1375","530607","NA","NA","529307","1366","1366","529699","528219","1366","529307","530607","morph21_Oliver/Morris","66","65830","91","yes","1280","17"
