"ITI","acc","accuracy","average_response_time","avg_rt","background","bidi","canvas_backend","clock_backend","color_backend","compensation","cond_trig","condtrigtime","coordinates","coroutines_cycles","coroutines_duration","coroutines_mean_cycle_duration","correct","correct_instructions_1","correct_new_keyboard_response_1","count_BA_m21","count_ITI","count_blank_screen","count_blink_screen","count_block1","count_break1","count_break2","count_break3_1","count_canvas","count_correct_trigger","count_def_chain","count_end_screen","count_fixation_1","count_getting_started","count_inc_counter","count_incorrect_trigger","count_instructions_1","count_logger","count_logscript","count_new_coroutines","count_new_inline_script","count_new_keyboard_response_1","count_reset_counter_prep","count_reset_counter_run","count_responsescreen","count_sequence","count_start_trigger","count_target_present","count_word_trigger","counter","cresp","datetime","description","disable_garbage_collection","experiment_file","experiment_path","font_bold","font_family","font_italic","font_size","font_underline","foreground","form_clicks","fullscreen","height","keyboard_backend","live_row","live_row_block1","logfile","mouse_backend","opensesame_codename","opensesame_version","repeat_cycle","response","response_break1","response_break2","response_break3_1","response_end_screen","response_instructions_1","response_new_keyboard_response_1","response_time","response_time_break1","response_time_break2","response_time_break3_1","response_time_end_screen","response_time_instructions_1","response_time_new_keyboard_response_1","round_decimals","sampler_backend","sound_buf_size","sound_channels","sound_freq","sound_sample_size","start","subject_nr","subject_parity","targ_type","target","time_BA_m21","time_ITI","time_blank_screen","time_blink_screen","time_block1","time_break1","time_break2","time_break3_1","time_canvas","time_correct_trigger","time_def_chain","time_end_screen","time_fixation_1","time_getting_started","time_inc_counter","time_incorrect_trigger","time_instructions_1","time_logger","time_logscript","time_new_inline_script","time_new_keyboard_response_1","time_reset_counter_prep","time_reset_counter_run","time_responsescreen","time_sequence","time_start_trigger","time_target_present","time_word_trigger","title","total_correct","total_response_time","total_responses","uniform_coordinates","width","word_trig"
"300","0","0","533","533","black","no","xpyriment","legacy","legacy","0","204","NA","uniform","77108","1000","0.0129688229496","0","undefined","0","0","0","0","0","0","0","0","0","NA","0","0","0","0","NA","0","0","0","0","NA","0","NA","0","0","0","0","0","0","0","0","1","z","10/08/17 15:37:05","The main experiment item","yes","FIN__BA__M21__7%3A10%3A17.osexp","C:\Users\ERP Testing Room\Desktop\Joanna\morph21","no","mono","no","18","no","white","no","yes","1080","legacy","0","0","C:/Users/ERP Testing Room/Desktop/Joanna/morph21/subject-107.csv","xpyriment","Jazzy James","3.1.4","0","/","NA","NA","NA","NA","/","/","533","NA","NA","NA","NA","31356","533","2","legacy","1024","2","48000","-16","BA_m21","107","odd","NW_L_COMP","KINGILM","1578","35817","34234","NA","32950","NA","NA","NA","NA","NA","34731","NA","33729","NA","33658","35814","1594","36117","NA","NA","34817","1578","1578","35217","33658","1578","34817","36117","morph21_Oliver/Morris","0","533","1","yes","1280","19"
"300","50","50","526","526","black","no","xpyriment","legacy","legacy","0","202","NA","uniform","80436","1000","0.0124322442687","1","undefined","1","0","1","1","1","0","1","1","1","NA","1","1","0","1","NA","1","1","0","1","NA","1","NA","1","0","0","1","1","0","1","1","2","/","10/08/17 15:37:05","The main experiment item","yes","FIN__BA__M21__7%3A10%3A17.osexp","C:\Users\ERP Testing Room\Desktop\Joanna\morph21","no","mono","no","18","no","white","no","yes","1080","legacy","1","1","C:/Users/ERP Testing Room/Desktop/Joanna/morph21/subject-107.csv","xpyriment","Jazzy James","3.1.4","0","/","NA","NA","NA","NA","/","/","519","NA","NA","NA","NA","31356","519","2","legacy","1024","2","48000","-16","BA_m21","107","odd","CW_L","DAMPISH","1578","38926","37342","NA","32950","NA","NA","NA","NA","38922","37839","NA","36842","NA","36834","38922","1594","39226","NA","NA","37934","1578","1578","38326","36834","1578","37934","39226","morph21_Oliver/Morris","1","1052","2","yes","1280","28"
"400","33.3333333333","33.3333333333","488.666666667","488.666666667","black","no","xpyriment","legacy","legacy","0","204","NA","uniform","82535","1000","0.0121160719695","0","undefined","0","0","2","2","2","0","2","2","2","NA","2","2","0","2","NA","2","2","0","2","NA","2","NA","2","0","0","2","2","0","2","2","3","z","10/08/17 15:37:05","The main experiment item","yes","FIN__BA__M21__7%3A10%3A17.osexp","C:\Users\ERP Testing Room\Desktop\Joanna\morph21","no","mono","no","18","no","white","no","yes","1080","legacy","2","2","C:/Users/ERP Testing Room/Desktop/Joanna/morph21/subject-107.csv","xpyriment","Jazzy James","3.1.4","0","/","NA","NA","NA","NA","/","/","414","NA","NA","NA","NA","31356","414","2","legacy","1024","2","48000","-16","BA_m21","107","odd","NW_L_COMP","ANGELITH","1578","43468","40367","41959","32950","NA","NA","NA","NA","38922","40864","NA","39867","NA","39859","41951","1594","43868","NA","NA","40959","1578","1578","41351","39859","1578","40959","43868","morph21_Oliver/Morris","1","1466","3","yes","1280","7"
"250","25","25","477","477","black","no","xpyriment","legacy","legacy","0","201","NA","uniform","75703","1000","0.0132095161354","0","undefined","0","0","3","3","3","0","3","3","3","NA","3","3","0","3","NA","3","3","0","3","NA","3","NA","3","0","0","3","3","0","3","3","4","/","10/08/17 15:37:05","The main experiment item","yes","FIN__BA__M21__7%3A10%3A17.osexp","C:\Users\ERP Testing Room\Desktop\Joanna\morph21","no","mono","no","18","no","white","no","yes","1080","legacy","3","3","C:/Users/ERP Testing Room/Desktop/Joanna/morph21/subject-107.csv","xpyriment","Jazzy James","3.1.4","0","z","NA","NA","NA","NA","/","z","442","NA","NA","NA","NA","31356","442","2","legacy","1024","2","48000","-16","BA_m21","107","odd","CW_S","GRIMLY","1578","46651","45043","41959","32950","NA","NA","NA","NA","38922","45540","NA","44543","NA","44531","46644","1594","46901","NA","NA","45651","1578","1578","46043","44531","1578","45651","46901","morph21_Oliver/Morris","1","1908","4","yes","1280","31"
"250","20","20","578.8","578.8","black","no","xpyriment","legacy","legacy","0","204","NA","uniform","59821","1000","0.0167165376707","0","undefined","0","0","4","4","4","0","4","4","4","NA","4","4","0","4","NA","4","4","0","4","NA","4","NA","4","0","0","4","4","0","4","4","5","z","10/08/17 15:37:05","The main experiment item","yes","FIN__BA__M21__7%3A10%3A17.osexp","C:\Users\ERP Testing Room\Desktop\Joanna\morph21","no","mono","no","18","no","white","no","yes","1080","legacy","4","4","C:/Users/ERP Testing Room/Desktop/Joanna/morph21/subject-107.csv","xpyriment","Jazzy James","3.1.4","0","None","NA","NA","NA","NA","/","None","986","NA","NA","NA","NA","31356","986","2","legacy","1024","2","48000","-16","BA_m21","107","odd","NW_L_COMP","MUDLA","1578","49627","48043","41959","32950","NA","NA","NA","NA","38922","48540","NA","47543","NA","47539","49622","1594","49877","NA","NA","48635","1578","1578","49027","47539","1578","48634","49877","morph21_Oliver/Morris","1","2894","5","yes","1280","12"
"200","33.3333333333","33.3333333333","577.5","577.5","black","no","xpyriment","legacy","legacy","0","202","NA","uniform","78625","1000","0.0127186009539","1","undefined","1","0","5","5","5","0","5","5","5","NA","5","5","0","5","NA","5","5","0","5","NA","5","NA","5","0","0","5","5","0","5","5","6","/","10/08/17 15:37:05","The main experiment item","yes","FIN__BA__M21__7%3A10%3A17.osexp","C:\Users\ERP Testing Room\Desktop\Joanna\morph21","no","mono","no","18","no","white","no","yes","1080","legacy","5","5","C:/Users/ERP Testing Room/Desktop/Joanna/morph21/subject-107.csv","xpyriment","Jazzy James","3.1.4","0","/","NA","NA","NA","NA","/","/","571","NA","NA","NA","NA","31356","571","2","legacy","1024","2","48000","-16","BA_m21","107","odd","CW_L","SHAMEFUL","1578","54119","51019","52611","32950","NA","NA","NA","NA","52601","51516","NA","50519","NA","50514","52601","1594","54319","NA","NA","51611","1578","1578","52002","50514","1578","51611","54319","morph21_Oliver/Morris","2","3465","6","yes","1280","19"
"250","42.8571428571","42.8571428571","562.571428571","562.571428571","black","no","xpyriment","legacy","legacy","0","207","NA","uniform","77762","1000","0.0128597515496","1","undefined","1","0","6","6","6","0","6","6","6","NA","6","6","0","6","NA","6","6","0","6","NA","6","NA","6","0","0","6","6","0","6","6","7","/","10/08/17 15:37:05","The main experiment item","yes","FIN__BA__M21__7%3A10%3A17.osexp","C:\Users\ERP Testing Room\Desktop\Joanna\morph21","no","mono","no","18","no","white","no","yes","1080","legacy","6","6","C:/Users/ERP Testing Room/Desktop/Joanna/morph21/subject-107.csv","xpyriment","Jazzy James","3.1.4","0","/","NA","NA","NA","NA","/","/","473","NA","NA","NA","NA","31356","473","2","legacy","1024","2","48000","-16","BA_m21","107","odd","FILL_W","PREACH","1578","57052","55477","52611","32950","NA","NA","NA","NA","57050","55975","NA","54977","NA","54973","57050","1594","57302","NA","NA","56061","1578","1578","56452","54973","1578","56061","57302","morph21_Oliver/Morris","3","3938","7","yes","1280","7"
"300","50","50","536.125","536.125","black","no","xpyriment","legacy","legacy","0","201","NA","uniform","87096","1000","0.01148158354","1","undefined","1","0","7","7","7","0","7","7","7","NA","7","7","0","7","NA","7","7","0","7","NA","7","NA","7","0","0","7","7","0","7","7","8","/","10/08/17 15:37:05","The main experiment item","yes","FIN__BA__M21__7%3A10%3A17.osexp","C:\Users\ERP Testing Room\Desktop\Joanna\morph21","no","mono","no","18","no","white","no","yes","1080","legacy","7","7","C:/Users/ERP Testing Room/Desktop/Joanna/morph21/subject-107.csv","xpyriment","Jazzy James","3.1.4","0","/","NA","NA","NA","NA","/","/","351","NA","NA","NA","NA","31356","351","2","legacy","1024","2","48000","-16","BA_m21","107","odd","CW_S","MAGICAL","1578","60078","58503","52611","32950","NA","NA","NA","NA","60075","59000","NA","58003","NA","57999","60075","1594","60378","NA","NA","59086","1578","1578","59478","57999","1578","59086","60378","morph21_Oliver/Morris","4","4289","8","yes","1280","4"
"400","55.5555555556","55.5555555556","512.888888889","512.888888889","black","no","xpyriment","legacy","legacy","0","202","NA","uniform","84307","1000","0.0118614112707","1","undefined","1","0","8","8","8","0","8","8","8","NA","8","8","0","8","NA","8","8","0","8","NA","8","NA","8","0","0","8","8","0","8","8","9","/","10/08/17 15:37:05","The main experiment item","yes","FIN__BA__M21__7%3A10%3A17.osexp","C:\Users\ERP Testing Room\Desktop\Joanna\morph21","no","mono","no","18","no","white","no","yes","1080","legacy","8","8","C:/Users/ERP Testing Room/Desktop/Joanna/morph21/subject-107.csv","xpyriment","Jazzy James","3.1.4","0","/","NA","NA","NA","NA","/","/","327","NA","NA","NA","NA","31356","327","2","legacy","1024","2","48000","-16","BA_m21","107","odd","CW_L","SHAPELY","1578","64594","61503","63086","32950","NA","NA","NA","NA","63078","62000","NA","61003","NA","60994","63078","1594","64995","NA","NA","62086","1578","1578","62478","60994","1578","62086","64995","morph21_Oliver/Morris","5","4616","9","yes","1280","35"
"400","50","50","493.6","493.6","black","no","xpyriment","legacy","legacy","0","208","NA","uniform","88407","1000","0.0113113215017","0","undefined","0","0","9","9","9","0","9","9","9","NA","9","9","0","9","NA","9","9","0","9","NA","9","NA","9","0","0","9","9","0","9","9","10","z","10/08/17 15:37:05","The main experiment item","yes","FIN__BA__M21__7%3A10%3A17.osexp","C:\Users\ERP Testing Room\Desktop\Joanna\morph21","no","mono","no","18","no","white","no","yes","1080","legacy","9","9","C:/Users/ERP Testing Room/Desktop/Joanna/morph21/subject-107.csv","xpyriment","Jazzy James","3.1.4","0","/","NA","NA","NA","NA","/","/","320","NA","NA","NA","NA","31356","320","2","legacy","1024","2","48000","-16","BA_m21","107","odd","FILL_NW","BUTE","1578","67846","66253","63086","32950","NA","NA","NA","NA","63078","66750","NA","65745","NA","65735","67839","1594","68246","NA","NA","66846","1578","1578","67237","65734","1578","66846","68246","morph21_Oliver/Morris","5","4936","10","yes","1280","5"
"250","54.5454545455","54.5454545455","484.272727273","484.272727273","black","no","xpyriment","legacy","legacy","0","201","NA","uniform","79468","1000","0.0125836814819","1","undefined","1","0","10","10","10","0","10","10","10","NA","10","10","0","10","NA","10","10","0","10","NA","10","NA","10","0","0","10","10","0","10","10","11","/","10/08/17 15:37:05","The main experiment item","yes","FIN__BA__M21__7%3A10%3A17.osexp","C:\Users\ERP Testing Room\Desktop\Joanna\morph21","no","mono","no","18","no","white","no","yes","1080","legacy","10","10","C:/Users/ERP Testing Room/Desktop/Joanna/morph21/subject-107.csv","xpyriment","Jazzy James","3.1.4","0","/","NA","NA","NA","NA","/","/","391","NA","NA","NA","NA","31356","391","2","legacy","1024","2","48000","-16","BA_m21","107","odd","CW_S","COSTLY","1578","71146","69554","63086","32950","NA","NA","NA","NA","71139","70051","NA","69054","NA","69049","71139","1594","71396","NA","NA","70146","1578","1578","70537","69049","1578","70146","71396","morph21_Oliver/Morris","6","5327","11","yes","1280","36"
"400","58.3333333333","58.3333333333","480.916666667","480.916666667","black","no","xpyriment","legacy","legacy","0","201","NA","uniform","68951","1000","0.0145030528926","1","undefined","1","0","11","11","11","0","11","11","11","NA","11","11","0","11","NA","11","11","0","11","NA","11","NA","11","0","0","11","11","0","11","11","12","/","10/08/17 15:37:05","The main experiment item","yes","FIN__BA__M21__7%3A10%3A17.osexp","C:\Users\ERP Testing Room\Desktop\Joanna\morph21","no","mono","no","18","no","white","no","yes","1080","legacy","11","11","C:/Users/ERP Testing Room/Desktop/Joanna/morph21/subject-107.csv","xpyriment","Jazzy James","3.1.4","0","/","NA","NA","NA","NA","/","/","444","NA","NA","NA","NA","31356","444","2","legacy","1024","2","48000","-16","BA_m21","107","odd","CW_S","ALLOWANCE","1578","75663","72554","74154","32950","NA","NA","NA","NA","74146","73051","NA","72054","NA","72043","74146","1594","76063","NA","NA","73154","1578","1578","73546","72043","1578","73154","76063","morph21_Oliver/Morris","7","5771","12","yes","1280","5"
"350","61.5384615385","61.5384615385","468.461538462","468.461538462","black","no","xpyriment","legacy","legacy","0","202","NA","uniform","86804","1000","0.0115202064421","1","undefined","1","0","12","12","12","0","12","12","12","NA","12","12","0","12","NA","12","12","0","12","NA","12","NA","12","0","0","12","12","0","12","12","13","/","10/08/17 15:37:05","The main experiment item","yes","FIN__BA__M21__7%3A10%3A17.osexp","C:\Users\ERP Testing Room\Desktop\Joanna\morph21","no","mono","no","18","no","white","no","yes","1080","legacy","12","12","C:/Users/ERP Testing Room/Desktop/Joanna/morph21/subject-107.csv","xpyriment","Jazzy James","3.1.4","0","/","NA","NA","NA","NA","/","/","319","NA","NA","NA","NA","31356","319","2","legacy","1024","2","48000","-16","BA_m21","107","odd","CW_L","RENTER","1578","78846","77246","74154","32950","NA","NA","NA","NA","78842","77743","NA","76746","NA","76737","78842","1594","79196","NA","NA","77854","1578","1578","78246","76737","1578","77854","79196","morph21_Oliver/Morris","8","6090","13","yes","1280","9"
"250","57.1428571429","57.1428571429","469.571428571","469.571428571","black","no","xpyriment","legacy","legacy","0","208","NA","uniform","82382","1000","0.0121385739603","0","undefined","0","0","13","13","13","0","13","13","13","NA","13","13","0","13","NA","13","13","0","13","NA","13","NA","13","0","0","13","13","0","13","13","14","z","10/08/17 15:37:05","The main experiment item","yes","FIN__BA__M21__7%3A10%3A17.osexp","C:\Users\ERP Testing Room\Desktop\Joanna\morph21","no","mono","no","18","no","white","no","yes","1080","legacy","13","13","C:/Users/ERP Testing Room/Desktop/Joanna/morph21/subject-107.csv","xpyriment","Jazzy James","3.1.4","0","/","NA","NA","NA","NA","/","/","484","NA","NA","NA","NA","31356","484","2","legacy","1024","2","48000","-16","BA_m21","107","odd","FILL_NW","PHEEKS","1578","81921","80346","74154","32950","NA","NA","NA","NA","78842","80843","NA","79846","NA","79839","81917","1594","82171","NA","NA","80921","1578","1578","81321","79839","1578","80921","82171","morph21_Oliver/Morris","8","6574","14","yes","1280","35"
"350","53.3333333333","53.3333333333","467.666666667","467.666666667","black","no","xpyriment","legacy","legacy","0","203","NA","uniform","81624","1000","0.0122512986377","0","undefined","0","0","14","14","14","0","14","14","14","NA","14","14","0","14","NA","14","14","0","14","NA","14","NA","14","0","0","14","14","0","14","14","15","z","10/08/17 15:37:05","The main experiment item","yes","FIN__BA__M21__7%3A10%3A17.osexp","C:\Users\ERP Testing Room\Desktop\Joanna\morph21","no","mono","no","18","no","white","no","yes","1080","legacy","14","14","C:/Users/ERP Testing Room/Desktop/Joanna/morph21/subject-107.csv","xpyriment","Jazzy James","3.1.4","0","/","NA","NA","NA","NA","/","/","441","NA","NA","NA","NA","31356","441","2","legacy","1024","2","48000","-16","BA_m21","107","odd","NW_S_COMP","EJECTENGE","1578","86489","83380","84981","32950","NA","NA","NA","NA","78842","83877","NA","82880","NA","82870","84974","1594","86839","NA","NA","83981","1578","1578","84372","82870","1578","83981","86839","morph21_Oliver/Morris","8","7015","15","yes","1280","20"
"350","56.25","56.25","462.9375","462.9375","black","no","xpyriment","legacy","legacy","0","201","NA","uniform","82189","1000","0.0121670783195","1","undefined","1","0","15","15","15","0","15","15","15","NA","15","15","0","15","NA","15","15","0","15","NA","15","NA","15","0","0","15","15","0","15","15","16","/","10/08/17 15:37:05","The main experiment item","yes","FIN__BA__M21__7%3A10%3A17.osexp","C:\Users\ERP Testing Room\Desktop\Joanna\morph21","no","mono","no","18","no","white","no","yes","1080","legacy","15","15","C:/Users/ERP Testing Room/Desktop/Joanna/morph21/subject-107.csv","xpyriment","Jazzy James","3.1.4","0","/","NA","NA","NA","NA","/","/","392","NA","NA","NA","NA","31356","392","2","legacy","1024","2","48000","-16","BA_m21","107","odd","CW_S","BOSSY","1578","89664","88073","84981","32950","NA","NA","NA","NA","89654","88570","NA","87573","NA","87566","89654","1594","90014","NA","NA","88664","1578","1578","89056","87566","1578","88664","90014","morph21_Oliver/Morris","9","7407","16","yes","1280","49"
"200","52.9411764706","52.9411764706","454.529411765","454.529411765","black","no","xpyriment","legacy","legacy","0","205","NA","uniform","87962","1000","0.0113685455083","0","undefined","0","0","16","16","16","0","16","16","16","NA","16","16","0","16","NA","16","16","0","16","NA","16","NA","16","0","0","16","16","0","16","16","17","z","10/08/17 15:37:05","The main experiment item","yes","FIN__BA__M21__7%3A10%3A17.osexp","C:\Users\ERP Testing Room\Desktop\Joanna\morph21","no","mono","no","18","no","white","no","yes","1080","legacy","16","16","C:/Users/ERP Testing Room/Desktop/Joanna/morph21/subject-107.csv","xpyriment","Jazzy James","3.1.4","0","/","NA","NA","NA","NA","/","/","320","NA","NA","NA","NA","31356","320","2","legacy","1024","2","48000","-16","BA_m21","107","odd","NW_S_SIMP","GUMFUL","1578","92781","91198","84981","32950","NA","NA","NA","NA","89654","91695","NA","90698","NA","90689","92774","1594","92981","NA","NA","91781","1578","1578","92173","90689","1578","91781","92981","morph21_Oliver/Morris","9","7727","17","yes","1280","2"
"350","50","50","447.111111111","447.111111111","black","no","xpyriment","legacy","legacy","0","204","NA","uniform","88004","1000","0.0113631198582","0","undefined","0","0","17","17","17","0","17","17","17","NA","17","17","0","17","NA","17","17","0","17","NA","17","NA","17","0","0","17","17","0","17","17","18","z","10/08/17 15:37:05","The main experiment item","yes","FIN__BA__M21__7%3A10%3A17.osexp","C:\Users\ERP Testing Room\Desktop\Joanna\morph21","no","mono","no","18","no","white","no","yes","1080","legacy","17","17","C:/Users/ERP Testing Room/Desktop/Joanna/morph21/subject-107.csv","xpyriment","Jazzy James","3.1.4","0","/","NA","NA","NA","NA","/","/","321","NA","NA","NA","NA","31356","321","2","legacy","1024","2","48000","-16","BA_m21","107","odd","NW_L_COMP","INKILM","1578","97256","94156","95748","32950","NA","NA","NA","NA","89654","94653","NA","93656","NA","93647","95740","1594","97607","NA","NA","94748","1578","1578","95140","93647","1578","94748","97607","morph21_Oliver/Morris","9","8048","18","yes","1280","8"
"250","47.3684210526","47.3684210526","449.263157895","449.263157895","black","no","xpyriment","legacy","legacy","0","204","NA","uniform","67265","1000","0.0148665725117","0","undefined","0","0","18","18","18","0","18","18","18","NA","18","18","0","18","NA","18","18","0","18","NA","18","NA","18","0","0","18","18","0","18","18","19","z","10/08/17 15:37:05","The main experiment item","yes","FIN__BA__M21__7%3A10%3A17.osexp","C:\Users\ERP Testing Room\Desktop\Joanna\morph21","no","mono","no","18","no","white","no","yes","1080","legacy","18","18","C:/Users/ERP Testing Room/Desktop/Joanna/morph21/subject-107.csv","xpyriment","Jazzy James","3.1.4","0","/","NA","NA","NA","NA","/","/","488","NA","NA","NA","NA","31356","488","2","legacy","1024","2","48000","-16","BA_m21","107","odd","NW_L_COMP","TRIPADY","1578","100381","98773","95748","32950","NA","NA","NA","NA","89654","99270","NA","98273","NA","98264","100377","1594","100631","NA","NA","99381","1578","1578","99781","98264","1578","99381","100631","morph21_Oliver/Morris","9","8536","19","yes","1280","2"
"350","45","45","441.7","441.7","black","no","xpyriment","legacy","legacy","0","201","NA","uniform","77350","1000","0.0129282482224","0","undefined","0","0","19","19","19","0","19","19","19","NA","19","19","0","19","NA","19","19","0","19","NA","19","NA","19","0","0","19","19","0","19","19","20","/","10/08/17 15:37:05","The main experiment item","yes","FIN__BA__M21__7%3A10%3A17.osexp","C:\Users\ERP Testing Room\Desktop\Joanna\morph21","no","mono","no","18","no","white","no","yes","1080","legacy","19","19","C:/Users/ERP Testing Room/Desktop/Joanna/morph21/subject-107.csv","xpyriment","Jazzy James","3.1.4","0","z","NA","NA","NA","NA","/","z","298","NA","NA","NA","NA","31356","298","2","legacy","1024","2","48000","-16","BA_m21","107","odd","CW_S","TEACHER","1578","103508","101899","95748","32950","NA","NA","NA","NA","89654","102396","NA","101398","NA","101390","103501","1594","103858","NA","NA","102508","1578","1578","102899","101390","1578","102508","103858","morph21_Oliver/Morris","9","8834","20","yes","1280","23"
"200","47.619047619","47.619047619","437.666666667","437.666666667","black","no","xpyriment","legacy","legacy","0","202","NA","uniform","81006","1000","0.0123447645853","1","undefined","1","0","20","20","20","0","20","20","20","NA","20","20","0","20","NA","20","20","0","20","NA","20","NA","20","0","0","20","20","0","20","20","21","/","10/08/17 15:37:05","The main experiment item","yes","FIN__BA__M21__7%3A10%3A17.osexp","C:\Users\ERP Testing Room\Desktop\Joanna\morph21","no","mono","no","18","no","white","no","yes","1080","legacy","20","20","C:/Users/ERP Testing Room/Desktop/Joanna/morph21/subject-107.csv","xpyriment","Jazzy James","3.1.4","0","/","NA","NA","NA","NA","/","/","357","NA","NA","NA","NA","31356","357","2","legacy","1024","2","48000","-16","BA_m21","107","odd","CW_L","BOOTLESS","1578","108158","105049","106649","32950","NA","NA","NA","NA","106645","105546","NA","104549","NA","104545","106645","1594","108358","NA","NA","105649","1578","1578","106049","104545","1578","105649","108358","morph21_Oliver/Morris","10","9191","21","yes","1280","32"
"250","50","50","435.272727273","435.272727273","black","no","xpyriment","legacy","legacy","0","207","NA","uniform","85539","1000","0.0116905738903","1","undefined","1","0","21","21","21","0","21","21","21","NA","21","21","0","21","NA","21","21","0","21","NA","21","NA","21","0","0","21","21","0","21","21","22","/","10/08/17 15:37:05","The main experiment item","yes","FIN__BA__M21__7%3A10%3A17.osexp","C:\Users\ERP Testing Room\Desktop\Joanna\morph21","no","mono","no","18","no","white","no","yes","1080","legacy","21","21","C:/Users/ERP Testing Room/Desktop/Joanna/morph21/subject-107.csv","xpyriment","Jazzy James","3.1.4","0","/","NA","NA","NA","NA","/","/","385","NA","NA","NA","NA","31356","385","2","legacy","1024","2","48000","-16","BA_m21","107","odd","FILL_W","TREAT","1578","111116","109533","106649","32950","NA","NA","NA","NA","111108","110030","NA","109033","NA","109024","111108","1594","111366","NA","NA","110116","1578","1578","110508","109024","1578","110116","111366","morph21_Oliver/Morris","11","9576","22","yes","1280","48"
"300","52.1739130435","52.1739130435","430.086956522","430.086956522","black","no","xpyriment","legacy","legacy","0","202","NA","uniform","88862","1000","0.0112534041548","1","undefined","1","0","22","22","22","0","22","22","22","NA","22","22","0","22","NA","22","22","0","22","NA","22","NA","22","0","0","22","22","0","22","22","23","/","10/08/17 15:37:05","The main experiment item","yes","FIN__BA__M21__7%3A10%3A17.osexp","C:\Users\ERP Testing Room\Desktop\Joanna\morph21","no","mono","no","18","no","white","no","yes","1080","legacy","22","22","C:/Users/ERP Testing Room/Desktop/Joanna/morph21/subject-107.csv","xpyriment","Jazzy James","3.1.4","0","/","NA","NA","NA","NA","/","/","316","NA","NA","NA","NA","31356","316","2","legacy","1024","2","48000","-16","BA_m21","107","odd","CW_L","COMPOSER","1578","114225","112633","106649","32950","NA","NA","NA","NA","114219","113130","NA","112133","NA","112123","114219","1594","114525","NA","NA","113225","1578","1578","113616","112123","1578","113225","114525","morph21_Oliver/Morris","12","9892","23","yes","1280","6"
"250","54.1666666667","54.1666666667","428.708333333","428.708333333","black","no","xpyriment","legacy","legacy","0","201","NA","uniform","82787","1000","0.0120791911774","1","undefined","1","0","23","23","23","0","23","23","23","NA","23","23","0","23","NA","23","23","0","23","NA","23","NA","23","0","0","23","23","0","23","23","24","/","10/08/17 15:37:05","The main experiment item","yes","FIN__BA__M21__7%3A10%3A17.osexp","C:\Users\ERP Testing Room\Desktop\Joanna\morph21","no","mono","no","18","no","white","no","yes","1080","legacy","23","23","C:/Users/ERP Testing Room/Desktop/Joanna/morph21/subject-107.csv","xpyriment","Jazzy James","3.1.4","0","/","NA","NA","NA","NA","/","/","397","NA","NA","NA","NA","31356","397","2","legacy","1024","2","48000","-16","BA_m21","107","odd","CW_S","HARMLESS","1578","118901","115783","117392","32950","NA","NA","NA","NA","117384","116280","NA","115283","NA","115276","117384","1594","119151","NA","NA","116392","1578","1578","116783","115276","1578","116392","119151","morph21_Oliver/Morris","13","10289","24","yes","1280","29"
"300","56","56","423.64","423.64","black","no","xpyriment","legacy","legacy","0","202","NA","uniform","88508","1000","0.0112984137027","1","undefined","1","0","24","24","24","0","24","24","24","NA","24","24","0","24","NA","24","24","0","24","NA","24","NA","24","0","0","24","24","0","24","24","25","/","10/08/17 15:37:05","The main experiment item","yes","FIN__BA__M21__7%3A10%3A17.osexp","C:\Users\ERP Testing Room\Desktop\Joanna\morph21","no","mono","no","18","no","white","no","yes","1080","legacy","24","24","C:/Users/ERP Testing Room/Desktop/Joanna/morph21/subject-107.csv","xpyriment","Jazzy James","3.1.4","0","/","NA","NA","NA","NA","/","/","302","NA","NA","NA","NA","31356","302","2","legacy","1024","2","48000","-16","BA_m21","107","odd","CW_L","MADNESS","1578","121968","120384","117392","32950","NA","NA","NA","NA","121964","120882","NA","119884","NA","119876","121964","1594","122268","NA","NA","120968","1578","1578","121368","119876","1578","120968","122268","morph21_Oliver/Morris","14","10591","25","yes","1280","41"
"300","57.6923076923","57.6923076923","422.153846154","422.153846154","black","no","xpyriment","legacy","legacy","0","207","NA","uniform","86520","1000","0.0115580212668","1","undefined","1","0","25","25","25","0","25","25","25","NA","25","25","0","25","NA","25","25","0","25","NA","25","NA","25","0","0","25","25","0","25","25","26","/","10/08/17 15:37:05","The main experiment item","yes","FIN__BA__M21__7%3A10%3A17.osexp","C:\Users\ERP Testing Room\Desktop\Joanna\morph21","no","mono","no","18","no","white","no","yes","1080","legacy","25","25","C:/Users/ERP Testing Room/Desktop/Joanna/morph21/subject-107.csv","xpyriment","Jazzy James","3.1.4","0","/","NA","NA","NA","NA","/","/","385","NA","NA","NA","NA","31356","385","2","legacy","1024","2","48000","-16","BA_m21","107","odd","FILL_W","MOURN","1578","125085","123493","117392","32950","NA","NA","NA","NA","125079","123990","NA","122985","NA","122981","125079","1594","125385","NA","NA","124085","1578","1578","124476","122980","1578","124085","125385","morph21_Oliver/Morris","15","10976","26","yes","1280","26"
"400","59.2592592593","59.2592592593","426.962962963","426.962962963","black","no","xpyriment","legacy","legacy","0","203","NA","uniform","80277","1000","0.0124568680942","1","undefined","1","0","26","26","26","0","26","26","26","NA","26","26","0","26","NA","26","26","0","26","NA","26","NA","26","0","0","26","26","0","26","26","27","z","10/08/17 15:37:05","The main experiment item","yes","FIN__BA__M21__7%3A10%3A17.osexp","C:\Users\ERP Testing Room\Desktop\Joanna\morph21","no","mono","no","18","no","white","no","yes","1080","legacy","26","26","C:/Users/ERP Testing Room/Desktop/Joanna/morph21/subject-107.csv","xpyriment","Jazzy James","3.1.4","0","z","NA","NA","NA","NA","/","z","552","NA","NA","NA","NA","31356","552","2","legacy","1024","2","48000","-16","BA_m21","107","odd","NW_S_COMP","ALTARIG","1578","129626","126526","128118","32950","NA","NA","NA","NA","128110","127023","NA","126026","NA","126018","128110","1594","130027","NA","NA","127118","1578","1578","127510","126018","1578","127118","130027","morph21_Oliver/Morris","16","11528","27","yes","1280","7"
"300","57.1428571429","57.1428571429","423.607142857","423.607142857","black","no","xpyriment","legacy","legacy","0","206","NA","uniform","87279","1000","0.0114575098248","0","undefined","0","0","27","27","27","0","27","27","27","NA","27","27","0","27","NA","27","27","0","27","NA","27","NA","27","0","0","27","27","0","27","27","28","z","10/08/17 15:37:05","The main experiment item","yes","FIN__BA__M21__7%3A10%3A17.osexp","C:\Users\ERP Testing Room\Desktop\Joanna\morph21","no","mono","no","18","no","white","no","yes","1080","legacy","27","27","C:/Users/ERP Testing Room/Desktop/Joanna/morph21/subject-107.csv","xpyriment","Jazzy James","3.1.4","0","/","NA","NA","NA","NA","/","/","333","NA","NA","NA","NA","31356","333","2","legacy","1024","2","48000","-16","BA_m21","107","odd","NW_L_SIMP","PRAYANCE","1578","132768","131185","128118","32950","NA","NA","NA","NA","128110","131682","NA","130685","NA","130674","132763","1594","133068","NA","NA","131768","1578","1578","132168","130674","1578","131768","133068","morph21_Oliver/Morris","16","11861","28","yes","1280","1"
"250","58.6206896552","58.6206896552","425.310344828","425.310344828","black","no","xpyriment","legacy","legacy","0","202","NA","uniform","82317","1000","0.0121481589465","1","undefined","1","0","28","28","28","0","28","28","28","NA","28","28","0","28","NA","28","28","0","28","NA","28","NA","28","0","0","28","28","0","28","28","29","/","10/08/17 15:37:05","The main experiment item","yes","FIN__BA__M21__7%3A10%3A17.osexp","C:\Users\ERP Testing Room\Desktop\Joanna\morph21","no","mono","no","18","no","white","no","yes","1080","legacy","28","28","C:/Users/ERP Testing Room/Desktop/Joanna/morph21/subject-107.csv","xpyriment","Jazzy James","3.1.4","0","/","NA","NA","NA","NA","/","/","473","NA","NA","NA","NA","31356","473","2","legacy","1024","2","48000","-16","BA_m21","107","odd","CW_L","DANCER","1578","135868","134252","128118","32950","NA","NA","NA","NA","135862","134749","NA","133752","NA","133744","135862","1594","136118","NA","NA","134868","1578","1578","135260","133744","1578","134868","136118","morph21_Oliver/Morris","17","12334","29","yes","1280","11"
"250","60","60","424.1","424.1","black","no","xpyriment","legacy","legacy","0","201","NA","uniform","81066","1000","0.0123356277601","1","undefined","1","0","29","29","29","0","29","29","29","NA","29","29","0","29","NA","29","29","0","29","NA","29","NA","29","0","0","29","29","0","29","29","30","/","10/08/17 15:37:05","The main experiment item","yes","FIN__BA__M21__7%3A10%3A17.osexp","C:\Users\ERP Testing Room\Desktop\Joanna\morph21","no","mono","no","18","no","white","no","yes","1080","legacy","29","29","C:/Users/ERP Testing Room/Desktop/Joanna/morph21/subject-107.csv","xpyriment","Jazzy James","3.1.4","0","/","NA","NA","NA","NA","/","/","389","NA","NA","NA","NA","31356","389","2","legacy","1024","2","48000","-16","BA_m21","107","odd","CW_S","NOTICEABLE","1578","140461","137378","138953","32950","NA","NA","NA","NA","138948","137875","NA","136878","NA","136870","138948","1594","140712","NA","NA","137953","1578","1578","138353","136869","1578","137953","140712","morph21_Oliver/Morris","18","12723","30","yes","1280","3"
"400","61.2903225806","61.2903225806","430.838709677","430.838709677","black","no","xpyriment","legacy","legacy","0","208","NA","uniform","77524","1000","0.0128992312058","1","undefined","1","0","30","30","30","0","30","30","30","NA","30","30","0","30","NA","30","30","0","30","NA","30","NA","30","0","0","30","30","0","30","30","31","z","10/08/17 15:37:05","The main experiment item","yes","FIN__BA__M21__7%3A10%3A17.osexp","C:\Users\ERP Testing Room\Desktop\Joanna\morph21","no","mono","no","18","no","white","no","yes","1080","legacy","30","30","C:/Users/ERP Testing Room/Desktop/Joanna/morph21/subject-107.csv","xpyriment","Jazzy James","3.1.4","0","z","NA","NA","NA","NA","/","z","633","NA","NA","NA","NA","31356","633","2","legacy","1024","2","48000","-16","BA_m21","107","odd","FILL_NW","BORMS","1578","143461","141878","138953","32950","NA","NA","NA","NA","143454","142375","NA","141378","NA","141374","143454","1594","143861","NA","NA","142461","1578","1578","142853","141374","1578","142461","143861","morph21_Oliver/Morris","19","13356","31","yes","1280","50"
"400","62.5","62.5","426.09375","426.09375","black","no","xpyriment","legacy","legacy","0","208","NA","uniform","84437","1000","0.0118431493303","1","undefined","1","0","31","31","31","0","31","31","31","NA","31","31","0","31","NA","31","31","0","31","NA","31","NA","31","0","0","31","31","0","31","31","32","z","10/08/17 15:37:05","The main experiment item","yes","FIN__BA__M21__7%3A10%3A17.osexp","C:\Users\ERP Testing Room\Desktop\Joanna\morph21","no","mono","no","18","no","white","no","yes","1080","legacy","31","31","C:/Users/ERP Testing Room/Desktop/Joanna/morph21/subject-107.csv","xpyriment","Jazzy James","3.1.4","0","z","NA","NA","NA","NA","/","z","279","NA","NA","NA","NA","31356","279","2","legacy","1024","2","48000","-16","BA_m21","107","odd","FILL_NW","ULNS","1578","146662","145070","138953","32950","NA","NA","NA","NA","146651","145567","NA","144570","NA","144560","146651","1594","147062","NA","NA","145662","1578","1578","146053","144560","1578","145661","147062","morph21_Oliver/Morris","20","13635","32","yes","1280","45"
"300","63.6363636364","63.6363636364","427.848484848","427.848484848","black","no","xpyriment","legacy","legacy","0","201","NA","uniform","77453","1000","0.012911055737","1","undefined","1","0","32","32","32","0","32","32","32","NA","32","32","0","32","NA","32","32","0","32","NA","32","NA","32","0","0","32","32","0","32","32","33","/","10/08/17 15:37:05","The main experiment item","yes","FIN__BA__M21__7%3A10%3A17.osexp","C:\Users\ERP Testing Room\Desktop\Joanna\morph21","no","mono","no","18","no","white","no","yes","1080","legacy","32","32","C:/Users/ERP Testing Room/Desktop/Joanna/morph21/subject-107.csv","xpyriment","Jazzy James","3.1.4","0","/","NA","NA","NA","NA","/","/","484","NA","NA","NA","NA","31356","484","2","legacy","1024","2","48000","-16","BA_m21","107","odd","CW_S","ATTACKER","1578","151445","148353","149937","32950","NA","NA","NA","NA","149928","148851","NA","147853","NA","147845","149928","1594","151745","NA","NA","148937","1578","1578","149328","147845","1578","148937","151745","morph21_Oliver/Morris","21","14119","33","yes","1280","20"
"200","64.7058823529","64.7058823529","426.264705882","426.264705882","black","no","xpyriment","legacy","legacy","0","207","NA","uniform","75076","1000","0.0133198358996","1","undefined","1","0","33","33","33","0","33","33","33","NA","33","33","0","33","NA","33","33","0","33","NA","33","NA","33","0","0","33","33","0","33","33","34","/","10/08/17 15:37:05","The main experiment item","yes","FIN__BA__M21__7%3A10%3A17.osexp","C:\Users\ERP Testing Room\Desktop\Joanna\morph21","no","mono","no","18","no","white","no","yes","1080","legacy","33","33","C:/Users/ERP Testing Room/Desktop/Joanna/morph21/subject-107.csv","xpyriment","Jazzy James","3.1.4","0","/","NA","NA","NA","NA","/","/","374","NA","NA","NA","NA","31356","374","2","legacy","1024","2","48000","-16","BA_m21","107","odd","FILL_W","TEST","1578","154513","152912","149937","32950","NA","NA","NA","NA","154506","153409","NA","152412","NA","152404","154506","1594","154713","NA","NA","153512","1578","1578","153905","152404","1578","153512","154713","morph21_Oliver/Morris","22","14493","34","yes","1280","47"
"300","65.7142857143","65.7142857143","422.742857143","422.742857143","black","no","xpyriment","legacy","legacy","0","201","NA","uniform","72419","1000","0.0138085309104","1","undefined","1","0","34","34","34","0","34","34","34","NA","34","34","0","34","NA","34","34","0","34","NA","34","NA","34","0","0","34","34","0","34","34","35","/","10/08/17 15:37:05","The main experiment item","yes","FIN__BA__M21__7%3A10%3A17.osexp","C:\Users\ERP Testing Room\Desktop\Joanna\morph21","no","mono","no","18","no","white","no","yes","1080","legacy","34","34","C:/Users/ERP Testing Room/Desktop/Joanna/morph21/subject-107.csv","xpyriment","Jazzy James","3.1.4","0","/","NA","NA","NA","NA","/","/","303","NA","NA","NA","NA","31356","303","2","legacy","1024","2","48000","-16","BA_m21","107","odd","CW_S","INSISTENT","1578","157463","155880","149937","32950","NA","NA","NA","NA","157455","156377","NA","155380","NA","155370","157455","1594","157763","NA","NA","156463","1578","1578","156855","155370","1578","156463","157763","morph21_Oliver/Morris","23","14796","35","yes","1280","9"
"300","66.6666666667","66.6666666667","427.972222222","427.972222222","black","no","xpyriment","legacy","legacy","0","204","NA","uniform","62897","1000","0.0158990094917","1","undefined","1","0","35","35","35","0","35","35","35","NA","35","35","0","35","NA","35","35","0","35","NA","35","NA","35","0","0","35","35","0","35","35","36","z","10/08/17 15:37:05","The main experiment item","yes","FIN__BA__M21__7%3A10%3A17.osexp","C:\Users\ERP Testing Room\Desktop\Joanna\morph21","no","mono","no","18","no","white","no","yes","1080","legacy","35","35","C:/Users/ERP Testing Room/Desktop/Joanna/morph21/subject-107.csv","xpyriment","Jazzy James","3.1.4","0","z","NA","NA","NA","NA","/","z","611","NA","NA","NA","NA","31356","611","2","legacy","1024","2","48000","-16","BA_m21","107","odd","NW_L_COMP","EMPLOYNELS","1578","162063","158971","160555","32950","NA","NA","NA","NA","160545","159469","NA","158471","NA","158466","160545","1594","162363","NA","NA","159555","1578","1578","159947","158466","1578","159555","162363","morph21_Oliver/Morris","24","15407","36","yes","1280","21"
"200","67.5675675676","67.5675675676","430.378378378","430.378378378","black","no","xpyriment","legacy","legacy","0","201","NA","uniform","74330","1000","0.013453518095","1","undefined","1","0","36","36","36","0","36","36","36","NA","36","36","0","36","NA","36","36","0","36","NA","36","NA","36","0","0","36","36","0","36","36","37","/","10/08/17 15:37:05","The main experiment item","yes","FIN__BA__M21__7%3A10%3A17.osexp","C:\Users\ERP Testing Room\Desktop\Joanna\morph21","no","mono","no","18","no","white","no","yes","1080","legacy","36","36","C:/Users/ERP Testing Room/Desktop/Joanna/morph21/subject-107.csv","xpyriment","Jazzy James","3.1.4","0","/","NA","NA","NA","NA","/","/","517","NA","NA","NA","NA","31356","517","2","legacy","1024","2","48000","-16","BA_m21","107","odd","CW_S","ANGELIC","1578","165113","163530","160555","32950","NA","NA","NA","NA","165104","164027","NA","163030","NA","163022","165104","1594","165313","NA","NA","164113","1578","1578","164505","163022","1578","164113","165313","morph21_Oliver/Morris","25","15924","37","yes","1280","25"
"200","68.4210526316","68.4210526316","432.842105263","432.842105263","black","no","xpyriment","legacy","legacy","0","203","NA","uniform","71806","1000","0.0139264128346","1","undefined","1","0","37","37","37","0","37","37","37","NA","37","37","0","37","NA","37","37","0","37","NA","37","NA","37","0","0","37","37","0","37","37","38","z","10/08/17 15:37:05","The main experiment item","yes","FIN__BA__M21__7%3A10%3A17.osexp","C:\Users\ERP Testing Room\Desktop\Joanna\morph21","no","mono","no","18","no","white","no","yes","1080","legacy","37","37","C:/Users/ERP Testing Room/Desktop/Joanna/morph21/subject-107.csv","xpyriment","Jazzy James","3.1.4","0","z","NA","NA","NA","NA","/","z","524","NA","NA","NA","NA","31356","524","2","legacy","1024","2","48000","-16","BA_m21","107","odd","NW_S_COMP","ADOPTISH","1578","168105","166522","160555","32950","NA","NA","NA","NA","168102","167019","NA","166022","NA","166015","168102","1594","168305","NA","NA","167105","1578","1578","167505","166015","1578","167105","168305","morph21_Oliver/Morris","26","16448","38","yes","1280","19"
"200","69.2307692308","69.2307692308","434.794871795","434.794871795","black","no","xpyriment","legacy","legacy","0","208","NA","uniform","76195","1000","0.0131242207494","1","undefined","1","0","38","38","38","0","38","38","38","NA","38","38","0","38","NA","38","38","0","38","NA","38","NA","38","0","0","38","38","0","38","38","39","z","10/08/17 15:37:05","The main experiment item","yes","FIN__BA__M21__7%3A10%3A17.osexp","C:\Users\ERP Testing Room\Desktop\Joanna\morph21","no","mono","no","18","no","white","no","yes","1080","legacy","38","38","C:/Users/ERP Testing Room/Desktop/Joanna/morph21/subject-107.csv","xpyriment","Jazzy James","3.1.4","0","z","NA","NA","NA","NA","/","z","509","NA","NA","NA","NA","31356","509","2","legacy","1024","2","48000","-16","BA_m21","107","odd","FILL_NW","HESK","1578","172590","169489","171080","32950","NA","NA","NA","NA","171071","169986","NA","168989","NA","168984","171071","1594","172790","NA","NA","170080","1578","1578","170472","168984","1578","170080","172790","morph21_Oliver/Morris","27","16957","39","yes","1280","29"
"200","70","70","433.55","433.55","black","no","xpyriment","legacy","legacy","0","202","NA","uniform","77586","1000","0.0128889232594","1","undefined","1","0","39","39","39","0","39","39","39","NA","39","39","0","39","NA","39","39","0","39","NA","39","NA","39","0","0","39","39","0","39","39","40","/","10/08/17 15:37:05","The main experiment item","yes","FIN__BA__M21__7%3A10%3A17.osexp","C:\Users\ERP Testing Room\Desktop\Joanna\morph21","no","mono","no","18","no","white","no","yes","1080","legacy","39","39","C:/Users/ERP Testing Room/Desktop/Joanna/morph21/subject-107.csv","xpyriment","Jazzy James","3.1.4","0","/","NA","NA","NA","NA","/","/","385","NA","NA","NA","NA","31356","385","2","legacy","1024","2","48000","-16","BA_m21","107","odd","CW_L","SAILOR","1578","175565","173982","171080","32950","NA","NA","NA","NA","175561","174479","NA","173481","NA","173472","175561","1594","175765","NA","NA","174565","1578","1578","174965","173472","1578","174565","175765","morph21_Oliver/Morris","28","17342","40","yes","1280","43"
"250","70.7317073171","70.7317073171","432.536585366","432.536585366","black","no","xpyriment","legacy","legacy","0","201","NA","uniform","77680","1000","0.0128733264676","1","undefined","1","0","40","40","40","0","40","40","40","NA","40","40","0","40","NA","40","40","0","40","NA","40","NA","40","0","0","40","40","0","40","40","41","/","10/08/17 15:37:05","The main experiment item","yes","FIN__BA__M21__7%3A10%3A17.osexp","C:\Users\ERP Testing Room\Desktop\Joanna\morph21","no","mono","no","18","no","white","no","yes","1080","legacy","40","40","C:/Users/ERP Testing Room/Desktop/Joanna/morph21/subject-107.csv","xpyriment","Jazzy James","3.1.4","0","/","NA","NA","NA","NA","/","/","392","NA","NA","NA","NA","31356","392","2","legacy","1024","2","48000","-16","BA_m21","107","odd","CW_S","TOSSING","1578","178582","176998","171080","32950","NA","NA","NA","NA","178574","177495","NA","176498","NA","176493","178574","1594","178832","NA","NA","177582","1578","1578","177973","176493","1578","177582","178832","morph21_Oliver/Morris","29","17734","41","yes","1280","26"
"350","69.0476190476","69.0476190476","429.738095238","429.738095238","black","no","xpyriment","legacy","legacy","0","207","NA","uniform","84937","1000","0.0117734320732","0","undefined","0","0","41","41","41","0","41","41","41","NA","41","41","0","41","NA","41","41","0","41","NA","41","NA","41","0","0","41","41","0","41","41","42","/","10/08/17 15:37:05","The main experiment item","yes","FIN__BA__M21__7%3A10%3A17.osexp","C:\Users\ERP Testing Room\Desktop\Joanna\morph21","no","mono","no","18","no","white","no","yes","1080","legacy","41","41","C:/Users/ERP Testing Room/Desktop/Joanna/morph21/subject-107.csv","xpyriment","Jazzy James","3.1.4","0","z","NA","NA","NA","NA","/","z","315","NA","NA","NA","NA","31356","315","2","legacy","1024","2","48000","-16","BA_m21","107","odd","FILL_W","GLOOM","1578","183182","180082","181673","32950","NA","NA","NA","NA","178574","180579","NA","179582","NA","179577","181663","1594","183532","NA","NA","180674","1578","1578","181065","179577","1578","180673","183532","morph21_Oliver/Morris","29","18049","42","yes","1280","14"
"300","69.7674418605","69.7674418605","431.162790698","431.162790698","black","no","xpyriment","legacy","legacy","0","204","NA","uniform","82708","1000","0.0120907288291","1","undefined","1","0","42","42","42","0","42","42","42","NA","42","42","0","42","NA","42","42","0","42","NA","42","NA","42","0","0","42","42","0","42","42","43","z","10/08/17 15:37:05","The main experiment item","yes","FIN__BA__M21__7%3A10%3A17.osexp","C:\Users\ERP Testing Room\Desktop\Joanna\morph21","no","mono","no","18","no","white","no","yes","1080","legacy","42","42","C:/Users/ERP Testing Room/Desktop/Joanna/morph21/subject-107.csv","xpyriment","Jazzy James","3.1.4","0","z","NA","NA","NA","NA","/","z","491","NA","NA","NA","NA","31356","491","2","legacy","1024","2","48000","-16","BA_m21","107","odd","NW_L_COMP","BINDIG","1578","186290","184707","181673","32950","NA","NA","NA","NA","186283","185204","NA","184207","NA","184200","186283","1594","186590","NA","NA","185290","1578","1578","185682","184200","1578","185290","186590","morph21_Oliver/Morris","30","18540","43","yes","1280","22"
"200","70.4545454545","70.4545454545","430.840909091","430.840909091","black","no","xpyriment","legacy","legacy","0","201","NA","uniform","73370","1000","0.0136295488619","1","undefined","1","0","43","43","43","0","43","43","43","NA","43","43","0","43","NA","43","43","0","43","NA","43","NA","43","0","0","43","43","0","43","43","44","/","10/08/17 15:37:05","The main experiment item","yes","FIN__BA__M21__7%3A10%3A17.osexp","C:\Users\ERP Testing Room\Desktop\Joanna\morph21","no","mono","no","18","no","white","no","yes","1080","legacy","43","43","C:/Users/ERP Testing Room/Desktop/Joanna/morph21/subject-107.csv","xpyriment","Jazzy James","3.1.4","0","/","NA","NA","NA","NA","/","/","417","NA","NA","NA","NA","31356","417","2","legacy","1024","2","48000","-16","BA_m21","107","odd","CW_S","THRUSTER","1578","189317","187732","181673","32950","NA","NA","NA","NA","189313","188229","NA","187232","NA","187225","189313","1594","189517","NA","NA","188324","1578","1578","188715","187225","1578","188324","189517","morph21_Oliver/Morris","31","18957","44","yes","1280","24"
"350","71.1111111111","71.1111111111","431.644444444","431.644444444","black","no","xpyriment","legacy","legacy","0","201","NA","uniform","75610","1000","0.0132257637879","1","undefined","1","0","44","44","44","0","44","44","44","NA","44","44","0","44","NA","44","44","0","44","NA","44","NA","44","0","0","44","44","0","44","44","45","/","10/08/17 15:37:05","The main experiment item","yes","FIN__BA__M21__7%3A10%3A17.osexp","C:\Users\ERP Testing Room\Desktop\Joanna\morph21","no","mono","no","18","no","white","no","yes","1080","legacy","44","44","C:/Users/ERP Testing Room/Desktop/Joanna/morph21/subject-107.csv","xpyriment","Jazzy James","3.1.4","0","/","NA","NA","NA","NA","/","/","467","NA","NA","NA","NA","31356","467","2","legacy","1024","2","48000","-16","BA_m21","107","odd","CW_S","DULLNESS","1578","193783","190692","192275","32950","NA","NA","NA","NA","192269","191189","NA","190192","NA","190184","192269","1594","194134","NA","NA","191275","1578","1578","191667","190184","1578","191275","194134","morph21_Oliver/Morris","32","19424","45","yes","1280","43"
"400","71.7391304348","71.7391304348","435.847826087","435.847826087","black","no","xpyriment","legacy","legacy","0","208","NA","uniform","69709","1000","0.0143453499548","1","undefined","1","0","45","45","45","0","45","45","45","NA","45","45","0","45","NA","45","45","0","45","NA","45","NA","45","0","0","45","45","0","45","45","46","z","10/08/17 15:37:05","The main experiment item","yes","FIN__BA__M21__7%3A10%3A17.osexp","C:\Users\ERP Testing Room\Desktop\Joanna\morph21","no","mono","no","18","no","white","no","yes","1080","legacy","45","45","C:/Users/ERP Testing Room/Desktop/Joanna/morph21/subject-107.csv","xpyriment","Jazzy James","3.1.4","0","z","NA","NA","NA","NA","/","z","625","NA","NA","NA","NA","31356","625","2","legacy","1024","2","48000","-16","BA_m21","107","odd","FILL_NW","SOISE","1578","196909","195317","192275","32950","NA","NA","NA","NA","196900","195814","NA","194808","NA","194799","196900","1594","197309","NA","NA","195909","1578","1578","196300","194799","1578","195909","197309","morph21_Oliver/Morris","33","20049","46","yes","1280","43"
"350","72.3404255319","72.3404255319","437","437","black","no","xpyriment","legacy","legacy","0","202","NA","uniform","70455","1000","0.0141934568164","1","undefined","1","0","46","46","46","0","46","46","46","NA","46","46","0","46","NA","46","46","0","46","NA","46","NA","46","0","0","46","46","0","46","46","47","/","10/08/17 15:37:05","The main experiment item","yes","FIN__BA__M21__7%3A10%3A17.osexp","C:\Users\ERP Testing Room\Desktop\Joanna\morph21","no","mono","no","18","no","white","no","yes","1080","legacy","46","46","C:/Users/ERP Testing Room/Desktop/Joanna/morph21/subject-107.csv","xpyriment","Jazzy James","3.1.4","0","/","NA","NA","NA","NA","/","/","490","NA","NA","NA","NA","31356","490","2","legacy","1024","2","48000","-16","BA_m21","107","odd","CW_L","BOMBER","1578","200059","198467","192275","32950","NA","NA","NA","NA","200050","198964","NA","197967","NA","197959","200050","1594","200409","NA","NA","199059","1578","1578","199450","197959","1578","199059","200409","morph21_Oliver/Morris","34","20539","47","yes","1280","7"
"400","72.9166666667","72.9166666667","435.791666667","435.791666667","black","no","xpyriment","legacy","legacy","0","202","NA","uniform","77753","1000","0.0128612400808","1","undefined","1","0","47","47","47","0","47","47","47","NA","47","47","0","47","NA","47","47","0","47","NA","47","NA","47","0","0","47","47","0","47","47","48","/","10/08/17 15:37:05","The main experiment item","yes","FIN__BA__M21__7%3A10%3A17.osexp","C:\Users\ERP Testing Room\Desktop\Joanna\morph21","no","mono","no","18","no","white","no","yes","1080","legacy","47","47","C:/Users/ERP Testing Room/Desktop/Joanna/morph21/subject-107.csv","xpyriment","Jazzy James","3.1.4","0","/","NA","NA","NA","NA","/","/","379","NA","NA","NA","NA","31356","379","2","legacy","1024","2","48000","-16","BA_m21","107","odd","CW_L","DRYNESS","1578","204751","201659","203242","32950","NA","NA","NA","NA","203235","202156","NA","201150","NA","201142","203235","1594","205151","NA","NA","202242","1578","1578","202634","201142","1578","202242","205151","morph21_Oliver/Morris","35","20918","48","yes","1280","42"
"300","71.4285714286","71.4285714286","436.387755102","436.387755102","black","no","xpyriment","legacy","legacy","0","203","NA","uniform","70978","1000","0.0140888726084","0","undefined","0","0","48","48","48","0","48","48","48","NA","48","48","0","48","NA","48","48","0","48","NA","48","NA","48","0","0","48","48","0","48","48","49","z","10/08/17 15:37:05","The main experiment item","yes","FIN__BA__M21__7%3A10%3A17.osexp","C:\Users\ERP Testing Room\Desktop\Joanna\morph21","no","mono","no","18","no","white","no","yes","1080","legacy","48","48","C:/Users/ERP Testing Room/Desktop/Joanna/morph21/subject-107.csv","xpyriment","Jazzy James","3.1.4","0","/","NA","NA","NA","NA","/","/","465","NA","NA","NA","NA","31356","465","2","legacy","1024","2","48000","-16","BA_m21","107","odd","NW_S_COMP","FIGEL","1578","207893","206310","203242","32950","NA","NA","NA","NA","203235","206807","NA","205809","NA","205798","207885","1594","208193","NA","NA","206893","1578","1578","207285","205798","1578","206893","208193","morph21_Oliver/Morris","35","21383","49","yes","1280","4"
"400","70","70","435.62","435.62","black","no","xpyriment","legacy","legacy","0","207","NA","uniform","76912","1000","0.0130018722696","0","undefined","0","0","49","49","49","0","49","49","49","NA","49","49","0","49","NA","49","49","0","49","NA","49","NA","49","0","0","49","49","0","49","49","50","/","10/08/17 15:37:05","The main experiment item","yes","FIN__BA__M21__7%3A10%3A17.osexp","C:\Users\ERP Testing Room\Desktop\Joanna\morph21","no","mono","no","18","no","white","no","yes","1080","legacy","49","49","C:/Users/ERP Testing Room/Desktop/Joanna/morph21/subject-107.csv","xpyriment","Jazzy James","3.1.4","0","z","NA","NA","NA","NA","/","z","398","NA","NA","NA","NA","31356","398","2","legacy","1024","2","48000","-16","BA_m21","107","odd","FILL_W","QUIT","1578","210943","209343","203242","32950","NA","NA","NA","NA","203235","209841","NA","208843","NA","208838","210936","1594","211344","NA","NA","209944","1578","1578","210335","208838","1578","209943","211344","morph21_Oliver/Morris","35","21781","50","yes","1280","21"
"300","68.6274509804","68.6274509804","437.137254902","437.137254902","black","no","xpyriment","legacy","legacy","0","206","NA","uniform","64768","1000","0.0154397233202","0","undefined","0","0","50","50","50","0","50","50","50","NA","50","50","0","50","NA","50","50","0","50","NA","50","NA","50","0","0","50","50","0","50","50","51","z","10/08/17 15:37:05","The main experiment item","yes","FIN__BA__M21__7%3A10%3A17.osexp","C:\Users\ERP Testing Room\Desktop\Joanna\morph21","no","mono","no","18","no","white","no","yes","1080","legacy","50","50","C:/Users/ERP Testing Room/Desktop/Joanna/morph21/subject-107.csv","xpyriment","Jazzy James","3.1.4","0","/","NA","NA","NA","NA","/","/","513","NA","NA","NA","NA","31356","513","2","legacy","1024","2","48000","-16","BA_m21","107","odd","NW_L_SIMP","TAXFUL","1578","215577","212485","214069","32950","NA","NA","NA","NA","203235","212982","NA","211985","NA","211979","214063","1594","215877","NA","NA","213069","1578","1578","213460","211979","1578","213069","215877","morph21_Oliver/Morris","35","22294","51","yes","1280","6"
"350","69.2307692308","69.2307692308","441.384615385","441.384615385","black","no","xpyriment","legacy","legacy","0","208","NA","uniform","75920","1000","0.0131717597471","1","undefined","1","0","51","51","51","0","51","51","51","NA","51","51","0","51","NA","51","51","0","51","NA","51","NA","51","0","0","51","51","0","51","51","52","z","10/08/17 15:37:05","The main experiment item","yes","FIN__BA__M21__7%3A10%3A17.osexp","C:\Users\ERP Testing Room\Desktop\Joanna\morph21","no","mono","no","18","no","white","no","yes","1080","legacy","51","51","C:/Users/ERP Testing Room/Desktop/Joanna/morph21/subject-107.csv","xpyriment","Jazzy James","3.1.4","0","z","NA","NA","NA","NA","/","z","658","NA","NA","NA","NA","31356","658","2","legacy","1024","2","48000","-16","BA_m21","107","odd","FILL_NW","DELP","1578","218627","217052","214069","32950","NA","NA","NA","NA","218625","217549","NA","216552","NA","216543","218625","1594","218977","NA","NA","217635","1578","1578","218027","216543","1578","217635","218977","morph21_Oliver/Morris","36","22952","52","yes","1280","14"
"350","69.8113207547","69.8113207547","441.188679245","441.188679245","black","no","xpyriment","legacy","legacy","0","202","NA","uniform","73289","1000","0.0136446124248","1","undefined","1","0","52","52","52","0","52","52","52","NA","52","52","0","52","NA","52","52","0","52","NA","52","NA","52","0","0","52","52","0","52","52","53","/","10/08/17 15:37:05","The main experiment item","yes","FIN__BA__M21__7%3A10%3A17.osexp","C:\Users\ERP Testing Room\Desktop\Joanna\morph21","no","mono","no","18","no","white","no","yes","1080","legacy","52","52","C:/Users/ERP Testing Room/Desktop/Joanna/morph21/subject-107.csv","xpyriment","Jazzy James","3.1.4","0","/","NA","NA","NA","NA","/","/","431","NA","NA","NA","NA","31356","431","2","legacy","1024","2","48000","-16","BA_m21","107","odd","CW_L","PUNCHER","1578","221702","220119","214069","32950","NA","NA","NA","NA","221695","220616","NA","219619","NA","219613","221695","1594","222052","NA","NA","220702","1578","1578","221094","219613","1578","220702","222052","morph21_Oliver/Morris","37","23383","53","yes","1280","1"
"250","68.5185185185","68.5185185185","440.037037037","440.037037037","black","no","xpyriment","legacy","legacy","0","205","NA","uniform","86988","1000","0.0114958385065","0","undefined","0","0","53","53","53","0","53","53","53","NA","53","53","0","53","NA","53","53","0","53","NA","53","NA","53","0","0","53","53","0","53","53","54","z","10/08/17 15:37:05","The main experiment item","yes","FIN__BA__M21__7%3A10%3A17.osexp","C:\Users\ERP Testing Room\Desktop\Joanna\morph21","no","mono","no","18","no","white","no","yes","1080","legacy","53","53","C:/Users/ERP Testing Room/Desktop/Joanna/morph21/subject-107.csv","xpyriment","Jazzy James","3.1.4","0","/","NA","NA","NA","NA","/","/","379","NA","NA","NA","NA","31356","379","2","legacy","1024","2","48000","-16","BA_m21","107","odd","NW_S_SIMP","ZOOMFUL","1578","226304","223211","224795","32950","NA","NA","NA","NA","221695","223708","NA","222711","NA","222707","224789","1594","226554","NA","NA","223795","1578","1578","224187","222707","1578","223795","226554","morph21_Oliver/Morris","37","23762","54","yes","1280","19"
"250","69.0909090909","69.0909090909","444.436363636","444.436363636","black","no","xpyriment","legacy","legacy","0","207","NA","uniform","69313","1000","0.0144273080086","1","undefined","1","0","54","54","54","0","54","54","54","NA","54","54","0","54","NA","54","54","0","54","NA","54","NA","54","0","0","54","54","0","54","54","55","/","10/08/17 15:37:05","The main experiment item","yes","FIN__BA__M21__7%3A10%3A17.osexp","C:\Users\ERP Testing Room\Desktop\Joanna\morph21","no","mono","no","18","no","white","no","yes","1080","legacy","54","54","C:/Users/ERP Testing Room/Desktop/Joanna/morph21/subject-107.csv","xpyriment","Jazzy James","3.1.4","0","/","NA","NA","NA","NA","/","/","682","NA","NA","NA","NA","31356","682","2","legacy","1024","2","48000","-16","BA_m21","107","odd","FILL_W","SPLICE","1578","229395","227812","224795","32950","NA","NA","NA","NA","229393","228309","NA","227312","NA","227303","229393","1594","229645","NA","NA","228404","1578","1578","228795","227303","1578","228404","229645","morph21_Oliver/Morris","38","24444","55","yes","1280","22"
"350","69.6428571429","69.6428571429","444.571428571","444.571428571","black","no","xpyriment","legacy","legacy","0","202","NA","uniform","80370","1000","0.0124424536519","1","undefined","1","0","55","55","55","0","55","55","55","NA","55","55","0","55","NA","55","55","0","55","NA","55","NA","55","0","0","55","55","0","55","55","56","/","10/08/17 15:37:05","The main experiment item","yes","FIN__BA__M21__7%3A10%3A17.osexp","C:\Users\ERP Testing Room\Desktop\Joanna\morph21","no","mono","no","18","no","white","no","yes","1080","legacy","55","55","C:/Users/ERP Testing Room/Desktop/Joanna/morph21/subject-107.csv","xpyriment","Jazzy James","3.1.4","0","/","NA","NA","NA","NA","/","/","452","NA","NA","NA","NA","31356","452","2","legacy","1024","2","48000","-16","BA_m21","107","odd","CW_L","GUARDING","1578","232371","230762","224795","32950","NA","NA","NA","NA","232367","231259","NA","230262","NA","230258","232367","1594","232721","NA","NA","231370","1578","1578","231770","230258","1578","231370","232721","morph21_Oliver/Morris","39","24896","56","yes","1280","26"
"300","70.1754385965","70.1754385965","446.684210526","446.684210526","black","no","xpyriment","legacy","legacy","0","204","NA","uniform","76285","1000","0.0131087369732","1","undefined","1","0","56","56","56","0","56","56","56","NA","56","56","0","56","NA","56","56","0","56","NA","56","NA","56","0","0","56","56","0","56","56","57","z","10/08/17 15:37:05","The main experiment item","yes","FIN__BA__M21__7%3A10%3A17.osexp","C:\Users\ERP Testing Room\Desktop\Joanna\morph21","no","mono","no","18","no","white","no","yes","1080","legacy","56","56","C:/Users/ERP Testing Room/Desktop/Joanna/morph21/subject-107.csv","xpyriment","Jazzy James","3.1.4","0","z","NA","NA","NA","NA","/","z","565","NA","NA","NA","NA","31356","565","2","legacy","1024","2","48000","-16","BA_m21","107","odd","NW_L_COMP","ADDMANT","1578","237012","233896","235504","32950","NA","NA","NA","NA","235500","234393","NA","233396","NA","233391","235500","1594","237313","NA","NA","234504","1578","1578","234904","233391","1578","234504","237313","morph21_Oliver/Morris","40","25461","57","yes","1280","13"
"300","70.6896551724","70.6896551724","449","449","black","no","xpyriment","legacy","legacy","0","206","NA","uniform","78816","1000","0.0126877791311","1","undefined","1","0","57","57","57","0","57","57","57","NA","57","57","0","57","NA","57","57","0","57","NA","57","NA","57","0","0","57","57","0","57","57","58","z","10/08/17 15:37:05","The main experiment item","yes","FIN__BA__M21__7%3A10%3A17.osexp","C:\Users\ERP Testing Room\Desktop\Joanna\morph21","no","mono","no","18","no","white","no","yes","1080","legacy","57","57","C:/Users/ERP Testing Room/Desktop/Joanna/morph21/subject-107.csv","xpyriment","Jazzy James","3.1.4","0","z","NA","NA","NA","NA","/","z","581","NA","NA","NA","NA","31356","581","2","legacy","1024","2","48000","-16","BA_m21","107","odd","NW_L_SIMP","BEANISH","1578","240087","238504","235504","32950","NA","NA","NA","NA","240078","239001","NA","238004","NA","237997","240078","1594","240388","NA","NA","239088","1578","1578","239479","237997","1578","239087","240388","morph21_Oliver/Morris","41","26042","58","yes","1280","8"
"350","71.186440678","71.186440678","449.13559322","449.13559322","black","no","xpyriment","legacy","legacy","0","208","NA","uniform","82707","1000","0.0120908750166","1","undefined","1","0","58","58","58","0","58","58","58","NA","58","58","0","58","NA","58","58","0","58","NA","58","NA","58","0","0","58","58","0","58","58","59","z","10/08/17 15:37:05","The main experiment item","yes","FIN__BA__M21__7%3A10%3A17.osexp","C:\Users\ERP Testing Room\Desktop\Joanna\morph21","no","mono","no","18","no","white","no","yes","1080","legacy","58","58","C:/Users/ERP Testing Room/Desktop/Joanna/morph21/subject-107.csv","xpyriment","Jazzy James","3.1.4","0","z","NA","NA","NA","NA","/","z","457","NA","NA","NA","NA","31356","457","2","legacy","1024","2","48000","-16","BA_m21","107","odd","FILL_NW","KRAISE","1578","243197","241622","235504","32950","NA","NA","NA","NA","243194","242119","NA","241121","NA","241115","243194","1594","243547","NA","NA","242197","1578","1578","242597","241115","1578","242197","243547","morph21_Oliver/Morris","42","26499","59","yes","1280","33"
"200","71.6666666667","71.6666666667","453.35","453.35","black","no","xpyriment","legacy","legacy","0","207","NA","uniform","68312","1000","0.0146387164773","1","undefined","1","0","59","59","59","0","59","59","59","NA","59","59","0","59","NA","59","59","0","59","NA","59","NA","59","0","0","59","59","0","59","59","60","/","10/08/17 15:37:05","The main experiment item","yes","FIN__BA__M21__7%3A10%3A17.osexp","C:\Users\ERP Testing Room\Desktop\Joanna\morph21","no","mono","no","18","no","white","no","yes","1080","legacy","59","59","C:/Users/ERP Testing Room/Desktop/Joanna/morph21/subject-107.csv","xpyriment","Jazzy James","3.1.4","0","/","NA","NA","NA","NA","/","/","702","NA","NA","NA","NA","31356","702","2","legacy","1024","2","48000","-16","BA_m21","107","odd","FILL_W","BLEAK","1578","247781","244689","246272","32950","NA","NA","NA","NA","246265","245186","NA","244189","NA","244178","246265","1594","247981","NA","NA","245272","1578","1578","245664","244178","1578","245272","247981","morph21_Oliver/Morris","43","27201","60","yes","1280","5"
"300","72.131147541","72.131147541","456.327868852","456.327868852","black","no","xpyriment","legacy","legacy","0","205","NA","uniform","72943","1000","0.013709334686","1","undefined","1","0","60","60","60","0","60","60","60","NA","60","60","0","60","NA","60","60","0","60","NA","60","NA","60","0","0","60","60","0","60","60","61","z","10/08/17 15:37:05","The main experiment item","yes","FIN__BA__M21__7%3A10%3A17.osexp","C:\Users\ERP Testing Room\Desktop\Joanna\morph21","no","mono","no","18","no","white","no","yes","1080","legacy","60","60","C:/Users/ERP Testing Room/Desktop/Joanna/morph21/subject-107.csv","xpyriment","Jazzy James","3.1.4","0","z","NA","NA","NA","NA","/","z","635","NA","NA","NA","NA","31356","635","2","legacy","1024","2","48000","-16","BA_m21","107","odd","NW_S_SIMP","WINKITY","1578","250731","249139","246272","32950","NA","NA","NA","NA","250721","249636","NA","248639","NA","248632","250721","1594","251031","NA","NA","249731","1578","1578","250122","248632","1578","249731","251031","morph21_Oliver/Morris","44","27836","61","yes","1280","21"
"300","72.5806451613","72.5806451613","457.5","457.5","black","no","xpyriment","legacy","legacy","0","206","NA","uniform","76222","1000","0.0131195717772","1","undefined","1","0","61","61","61","0","61","61","61","NA","61","61","0","61","NA","61","61","0","61","NA","61","NA","61","0","0","61","61","0","61","61","62","z","10/08/17 15:37:05","The main experiment item","yes","FIN__BA__M21__7%3A10%3A17.osexp","C:\Users\ERP Testing Room\Desktop\Joanna\morph21","no","mono","no","18","no","white","no","yes","1080","legacy","61","61","C:/Users/ERP Testing Room/Desktop/Joanna/morph21/subject-107.csv","xpyriment","Jazzy James","3.1.4","0","z","NA","NA","NA","NA","/","z","529","NA","NA","NA","NA","31356","529","2","legacy","1024","2","48000","-16","BA_m21","107","odd","NW_L_SIMP","ELBOWISM","1578","253756","252172","246272","32950","NA","NA","NA","NA","253752","252670","NA","251672","NA","251667","253752","1594","254056","NA","NA","252756","1578","1578","253156","251667","1578","252756","254056","morph21_Oliver/Morris","45","28365","62","yes","1280","10"
"250","73.0158730159","73.0158730159","458.301587302","458.301587302","black","no","xpyriment","legacy","legacy","0","203","NA","uniform","81528","1000","0.012265724659","1","undefined","1","0","62","62","62","0","62","62","62","NA","62","62","0","62","NA","62","62","0","62","NA","62","NA","62","0","0","62","62","0","62","62","63","z","10/08/17 15:37:05","The main experiment item","yes","FIN__BA__M21__7%3A10%3A17.osexp","C:\Users\ERP Testing Room\Desktop\Joanna\morph21","no","mono","no","18","no","white","no","yes","1080","legacy","62","62","C:/Users/ERP Testing Room/Desktop/Joanna/morph21/subject-107.csv","xpyriment","Jazzy James","3.1.4","0","z","NA","NA","NA","NA","/","z","508","NA","NA","NA","NA","31356","508","2","legacy","1024","2","48000","-16","BA_m21","107","odd","NW_S_COMP","LIDADY","1578","258389","255289","256881","32950","NA","NA","NA","NA","256871","255786","NA","254789","NA","254779","256871","1594","258640","NA","NA","255881","1578","1578","256273","254779","1578","255881","258640","morph21_Oliver/Morris","46","28873","63","yes","1280","3"
"350","71.875","71.875","459.515625","459.515625","black","no","xpyriment","legacy","legacy","0","208","NA","uniform","80674","1000","0.0123955673451","0","undefined","0","0","63","63","63","0","63","63","63","NA","63","63","0","63","NA","63","63","0","63","NA","63","NA","63","0","0","63","63","0","63","63","64","z","10/08/17 15:37:05","The main experiment item","yes","FIN__BA__M21__7%3A10%3A17.osexp","C:\Users\ERP Testing Room\Desktop\Joanna\morph21","no","mono","no","18","no","white","no","yes","1080","legacy","63","63","C:/Users/ERP Testing Room/Desktop/Joanna/morph21/subject-107.csv","xpyriment","Jazzy James","3.1.4","0","/","NA","NA","NA","NA","/","/","536","NA","NA","NA","NA","31356","536","2","legacy","1024","2","48000","-16","BA_m21","107","odd","FILL_NW","BLANTH","1578","261390","259807","256881","32950","NA","NA","NA","NA","256871","260304","NA","259307","NA","259302","261382","1594","261741","NA","NA","260390","1578","1578","260782","259302","1578","260390","261741","morph21_Oliver/Morris","46","29409","64","yes","1280","3"
"350","70.7692307692","70.7692307692","462.353846154","462.353846154","black","no","xpyriment","legacy","legacy","0","202","NA","uniform","75542","1000","0.0132376691112","0","undefined","0","0","64","64","64","0","64","64","64","NA","64","64","0","64","NA","64","64","0","64","NA","64","NA","64","0","0","64","64","0","64","64","65","/","10/08/17 15:37:05","The main experiment item","yes","FIN__BA__M21__7%3A10%3A17.osexp","C:\Users\ERP Testing Room\Desktop\Joanna\morph21","no","mono","no","18","no","white","no","yes","1080","legacy","64","64","C:/Users/ERP Testing Room/Desktop/Joanna/morph21/subject-107.csv","xpyriment","Jazzy James","3.1.4","0","z","NA","NA","NA","NA","/","z","644","NA","NA","NA","NA","31356","644","2","legacy","1024","2","48000","-16","BA_m21","107","odd","CW_L","FEEDER","1578","264466","262882","256881","32950","NA","NA","NA","NA","256871","263379","NA","262382","NA","262375","264462","1594","264816","NA","NA","263474","1578","1578","263866","262375","1578","263474","264816","morph21_Oliver/Morris","46","30053","65","yes","1280","14"
"200","71.2121212121","71.2121212121","464.227272727","464.227272727","black","no","xpyriment","legacy","legacy","0","208","NA","uniform","74430","1000","0.0134354426978","1","undefined","1","0","65","65","65","0","65","65","65","NA","65","65","0","65","NA","65","65","0","65","NA","65","NA","65","0","0","65","65","0","65","65","66","z","10/08/17 15:37:05","The main experiment item","yes","FIN__BA__M21__7%3A10%3A17.osexp","C:\Users\ERP Testing Room\Desktop\Joanna\morph21","no","mono","no","18","no","white","no","yes","1080","legacy","65","65","C:/Users/ERP Testing Room/Desktop/Joanna/morph21/subject-107.csv","xpyriment","Jazzy James","3.1.4","0","z","NA","NA","NA","NA","/","z","586","NA","NA","NA","NA","31356","586","2","legacy","1024","2","48000","-16","BA_m21","107","odd","FILL_NW","GAIRS","1578","269041","265949","267532","32950","NA","NA","NA","NA","267524","266446","NA","265449","NA","265445","267524","1594","269241","NA","NA","266532","1578","1578","266924","265445","1578","266532","269241","morph21_Oliver/Morris","47","30639","66","yes","1280","23"
"400","71.6417910448","71.6417910448","464.194029851","464.194029851","black","no","xpyriment","legacy","legacy","0","207","NA","uniform","74889","1000","0.0133530959153","1","undefined","1","0","66","66","66","0","66","66","66","NA","66","66","0","66","NA","66","66","0","66","NA","66","NA","66","0","0","66","66","0","66","66","67","/","10/08/17 15:37:05","The main experiment item","yes","FIN__BA__M21__7%3A10%3A17.osexp","C:\Users\ERP Testing Room\Desktop\Joanna\morph21","no","mono","no","18","no","white","no","yes","1080","legacy","66","66","C:/Users/ERP Testing Room/Desktop/Joanna/morph21/subject-107.csv","xpyriment","Jazzy James","3.1.4","0","/","NA","NA","NA","NA","/","/","462","NA","NA","NA","NA","31356","462","2","legacy","1024","2","48000","-16","BA_m21","107","odd","FILL_W","CRUNCH","1578","271983","270399","267532","32950","NA","NA","NA","NA","271975","270896","NA","269899","NA","269893","271975","1594","272383","NA","NA","270983","1578","1578","271374","269893","1578","270983","272383","morph21_Oliver/Morris","48","31101","67","yes","1280","20"
"350","72.0588235294","72.0588235294","466.058823529","466.058823529","black","no","xpyriment","legacy","legacy","0","208","NA","uniform","78497","1000","0.012739340357","1","undefined","1","0","67","67","67","0","67","67","67","NA","67","67","0","67","NA","67","67","0","67","NA","67","NA","67","0","0","67","67","0","67","67","68","z","10/08/17 15:37:05","The main experiment item","yes","FIN__BA__M21__7%3A10%3A17.osexp","C:\Users\ERP Testing Room\Desktop\Joanna\morph21","no","mono","no","18","no","white","no","yes","1080","legacy","67","67","C:/Users/ERP Testing Room/Desktop/Joanna/morph21/subject-107.csv","xpyriment","Jazzy James","3.1.4","0","z","NA","NA","NA","NA","/","z","591","NA","NA","NA","NA","31356","591","2","legacy","1024","2","48000","-16","BA_m21","107","odd","FILL_NW","DARF","1578","275174","273583","267532","32950","NA","NA","NA","NA","275169","274080","NA","273083","NA","273076","275169","1594","275524","NA","NA","274174","1578","1578","274566","273076","1578","274174","275524","morph21_Oliver/Morris","49","31692","68","yes","1280","10"
"250","72.4637681159","72.4637681159","466.202898551","466.202898551","black","no","xpyriment","legacy","legacy","0","205","NA","uniform","77551","1000","0.0128947402355","1","undefined","1","0","68","68","68","0","68","68","68","NA","68","68","0","68","NA","68","68","0","68","NA","68","NA","68","0","0","68","68","0","68","68","69","z","10/08/17 15:37:05","The main experiment item","yes","FIN__BA__M21__7%3A10%3A17.osexp","C:\Users\ERP Testing Room\Desktop\Joanna\morph21","no","mono","no","18","no","white","no","yes","1080","legacy","68","68","C:/Users/ERP Testing Room/Desktop/Joanna/morph21/subject-107.csv","xpyriment","Jazzy James","3.1.4","0","z","NA","NA","NA","NA","/","z","476","NA","NA","NA","NA","31356","476","2","legacy","1024","2","48000","-16","BA_m21","107","odd","NW_S_SIMP","DIGORY","1578","279751","276659","278242","32950","NA","NA","NA","NA","278235","277156","NA","276158","NA","276153","278235","1594","280001","NA","NA","277242","1578","1578","277634","276153","1578","277242","280001","morph21_Oliver/Morris","50","32168","69","yes","1280","11"
"400","72.8571428571","72.8571428571","468.671428571","468.671428571","black","no","xpyriment","legacy","legacy","0","205","NA","uniform","76717","1000","0.0130349205522","1","undefined","1","0","69","69","69","0","69","69","69","NA","69","69","0","69","NA","69","69","0","69","NA","69","NA","69","0","0","69","69","0","69","69","70","z","10/08/17 15:37:05","The main experiment item","yes","FIN__BA__M21__7%3A10%3A17.osexp","C:\Users\ERP Testing Room\Desktop\Joanna\morph21","no","mono","no","18","no","white","no","yes","1080","legacy","69","69","C:/Users/ERP Testing Room/Desktop/Joanna/morph21/subject-107.csv","xpyriment","Jazzy James","3.1.4","0","z","NA","NA","NA","NA","/","z","639","NA","NA","NA","NA","31356","639","2","legacy","1024","2","48000","-16","BA_m21","107","odd","NW_S_SIMP","MEDICALARY","1578","282767","281184","278242","32950","NA","NA","NA","NA","282762","281681","NA","280684","NA","280675","282762","1594","283168","NA","NA","281767","1578","1578","282159","280675","1578","281767","283168","morph21_Oliver/Morris","51","32807","70","yes","1280","18"
"300","73.2394366197","73.2394366197","468.366197183","468.366197183","black","no","xpyriment","legacy","legacy","0","205","NA","uniform","81279","1000","0.0123033009757","1","undefined","1","0","70","70","70","0","70","70","70","NA","70","70","0","70","NA","70","70","0","70","NA","70","NA","70","0","0","70","70","0","70","70","71","z","10/08/17 15:37:05","The main experiment item","yes","FIN__BA__M21__7%3A10%3A17.osexp","C:\Users\ERP Testing Room\Desktop\Joanna\morph21","no","mono","no","18","no","white","no","yes","1080","legacy","70","70","C:/Users/ERP Testing Room/Desktop/Joanna/morph21/subject-107.csv","xpyriment","Jazzy James","3.1.4","0","z","NA","NA","NA","NA","/","z","447","NA","NA","NA","NA","31356","447","2","legacy","1024","2","48000","-16","BA_m21","107","odd","NW_S_SIMP","BOLTOUS","1578","285959","284351","278242","32950","NA","NA","NA","NA","285953","284848","NA","283851","NA","283844","285953","1594","286259","NA","NA","284959","1578","1578","285351","283844","1578","284959","286259","morph21_Oliver/Morris","52","33254","71","yes","1280","13"
"400","73.6111111111","73.6111111111","473.138888889","473.138888889","black","no","xpyriment","legacy","legacy","0","205","NA","uniform","69968","1000","0.0142922478847","1","undefined","1","0","71","71","71","0","71","71","71","NA","71","71","0","71","NA","71","71","0","71","NA","71","NA","71","0","0","71","71","0","71","71","72","z","10/08/17 15:37:05","The main experiment item","yes","FIN__BA__M21__7%3A10%3A17.osexp","C:\Users\ERP Testing Room\Desktop\Joanna\morph21","no","mono","no","18","no","white","no","yes","1080","legacy","71","71","C:/Users/ERP Testing Room/Desktop/Joanna/morph21/subject-107.csv","xpyriment","Jazzy James","3.1.4","0","z","NA","NA","NA","NA","/","z","812","NA","NA","NA","NA","31356","812","2","legacy","1024","2","48000","-16","BA_m21","107","odd","NW_S_SIMP","RAMPIZE","1578","290518","287418","289009","32950","NA","NA","NA","NA","289000","287915","NA","286918","NA","286906","289000","1594","290918","NA","NA","288009","1578","1578","288401","286906","1578","288009","290918","morph21_Oliver/Morris","53","34066","72","yes","1280","6"
"350","73.9726027397","73.9726027397","474.232876712","474.232876712","black","no","xpyriment","legacy","legacy","0","206","NA","uniform","80295","1000","0.0124540755962","1","undefined","1","0","72","72","72","0","72","72","72","NA","72","72","0","72","NA","72","72","0","72","NA","72","NA","72","0","0","72","72","0","72","72","73","z","10/08/17 15:37:05","The main experiment item","yes","FIN__BA__M21__7%3A10%3A17.osexp","C:\Users\ERP Testing Room\Desktop\Joanna\morph21","no","mono","no","18","no","white","no","yes","1080","legacy","72","72","C:/Users/ERP Testing Room/Desktop/Joanna/morph21/subject-107.csv","xpyriment","Jazzy James","3.1.4","0","z","NA","NA","NA","NA","/","z","553","NA","NA","NA","NA","31356","553","2","legacy","1024","2","48000","-16","BA_m21","107","odd","NW_L_SIMP","WIGISH","1578","293660","292076","289009","32950","NA","NA","NA","NA","293653","292573","NA","291576","NA","291565","293653","1594","294010","NA","NA","292660","1578","1578","293051","291565","1578","292660","294010","morph21_Oliver/Morris","54","34619","73","yes","1280","9"
"350","74.3243243243","74.3243243243","473.635135135","473.635135135","black","no","xpyriment","legacy","legacy","0","202","NA","uniform","77515","1000","0.0129007288912","1","undefined","1","0","73","73","73","0","73","73","73","NA","73","73","0","73","NA","73","73","0","73","NA","73","NA","73","0","0","73","73","0","73","73","74","/","10/08/17 15:37:05","The main experiment item","yes","FIN__BA__M21__7%3A10%3A17.osexp","C:\Users\ERP Testing Room\Desktop\Joanna\morph21","no","mono","no","18","no","white","no","yes","1080","legacy","73","73","C:/Users/ERP Testing Room/Desktop/Joanna/morph21/subject-107.csv","xpyriment","Jazzy James","3.1.4","0","/","NA","NA","NA","NA","/","/","430","NA","NA","NA","NA","31356","430","2","legacy","1024","2","48000","-16","BA_m21","107","odd","CW_L","HUNTER","1578","296736","295152","289009","32950","NA","NA","NA","NA","296729","295649","NA","294652","NA","294647","296729","1594","297086","NA","NA","295736","1578","1578","296127","294647","1578","295736","297086","morph21_Oliver/Morris","55","35049","74","yes","1280","10"
"400","74.6666666667","74.6666666667","473.706666667","473.706666667","black","no","xpyriment","legacy","legacy","0","202","NA","uniform","80491","1000","0.012423749239","undefined","undefined","1","0","74","74","74","0","74","74","74","NA","74","74","0","74","NA","74","74","0","74","NA","74","NA","74","0","0","74","74","0","74","74","75","/","10/08/17 15:37:05","The main experiment item","yes","FIN__BA__M21__7%3A10%3A17.osexp","C:\Users\ERP Testing Room\Desktop\Joanna\morph21","no","mono","no","18","no","white","no","yes","1080","legacy","74","74","C:/Users/ERP Testing Room/Desktop/Joanna/morph21/subject-107.csv","xpyriment","Jazzy James","3.1.4","0","space","space","NA","NA","NA","/","/","5961","5961","NA","NA","NA","31356","479","2","legacy","1024","2","48000","-16","BA_m21","107","odd","CW_L","STYLISH","1578","301428","298311","299919","32950","301836","NA","NA","NA","299911","298808","NA","297811","NA","297806","299911","1594","307799","NA","NA","298919","1578","1578","299311","297806","1578","298919","301828","morph21_Oliver/Morris","56","35528","75","yes","1280","29"
"350","75","75","475.513157895","475.513157895","black","no","xpyriment","legacy","legacy","0","208","NA","uniform","76046","1000","0.0131499355653","1","undefined","1","0","75","75","75","0","75","75","75","NA","75","75","0","75","NA","75","75","0","75","NA","75","NA","75","0","0","75","75","0","75","75","76","z","10/08/17 15:37:05","The main experiment item","yes","FIN__BA__M21__7%3A10%3A17.osexp","C:\Users\ERP Testing Room\Desktop\Joanna\morph21","no","mono","no","18","no","white","no","yes","1080","legacy","75","75","C:/Users/ERP Testing Room/Desktop/Joanna/morph21/subject-107.csv","xpyriment","Jazzy James","3.1.4","0","z","space","NA","NA","NA","/","z","611","5961","NA","NA","NA","31356","611","2","legacy","1024","2","48000","-16","BA_m21","107","odd","FILL_NW","JADS","1578","310570","308970","299919","32950","301836","NA","NA","NA","310566","309467","NA","308470","NA","308465","310566","1594","310920","NA","NA","309570","1578","1578","309970","308465","1578","309570","310920","morph21_Oliver/Morris","57","36139","76","yes","1280","31"
"250","75.3246753247","75.3246753247","478.766233766","478.766233766","black","no","xpyriment","legacy","legacy","0","206","NA","uniform","68223","1000","0.0146578133474","1","undefined","1","0","76","76","76","0","76","76","76","NA","76","76","0","76","NA","76","76","0","76","NA","76","NA","76","0","0","76","76","0","76","76","77","z","10/08/17 15:37:05","The main experiment item","yes","FIN__BA__M21__7%3A10%3A17.osexp","C:\Users\ERP Testing Room\Desktop\Joanna\morph21","no","mono","no","18","no","white","no","yes","1080","legacy","76","76","C:/Users/ERP Testing Room/Desktop/Joanna/morph21/subject-107.csv","xpyriment","Jazzy James","3.1.4","0","z","space","NA","NA","NA","/","z","726","5961","NA","NA","NA","31356","726","2","legacy","1024","2","48000","-16","BA_m21","107","odd","NW_L_SIMP","BEARIST","1578","313704","312121","299919","32950","301836","NA","NA","NA","313697","312618","NA","311621","NA","311615","313697","1594","313954","NA","NA","312704","1578","1578","313096","311615","1578","312704","313954","morph21_Oliver/Morris","58","36865","77","yes","1280","25"
"300","75.641025641","75.641025641","479.474358974","479.474358974","black","no","xpyriment","legacy","legacy","0","204","NA","uniform","80512","1000","0.012420508744","1","undefined","1","0","77","77","77","0","77","77","77","NA","77","77","0","77","NA","77","77","0","77","NA","77","NA","77","0","0","77","77","0","77","77","78","z","10/08/17 15:37:05","The main experiment item","yes","FIN__BA__M21__7%3A10%3A17.osexp","C:\Users\ERP Testing Room\Desktop\Joanna\morph21","no","mono","no","18","no","white","no","yes","1080","legacy","77","77","C:/Users/ERP Testing Room/Desktop/Joanna/morph21/subject-107.csv","xpyriment","Jazzy James","3.1.4","0","z","space","NA","NA","NA","/","z","534","5961","NA","NA","NA","31356","534","2","legacy","1024","2","48000","-16","BA_m21","107","odd","NW_L_COMP","IME","1578","318205","315104","316696","32950","301836","NA","NA","NA","316690","315601","NA","314604","NA","314594","316690","1594","318505","NA","NA","315696","1578","1578","316088","314594","1578","315696","318505","morph21_Oliver/Morris","59","37399","78","yes","1280","20"
"350","74.6835443038","74.6835443038","480.316455696","480.316455696","black","no","xpyriment","legacy","legacy","0","201","NA","uniform","73678","1000","0.0135725725454","0","undefined","0","0","78","78","78","0","78","78","78","NA","78","78","0","78","NA","78","78","0","78","NA","78","NA","78","0","0","78","78","0","78","78","79","/","10/08/17 15:37:05","The main experiment item","yes","FIN__BA__M21__7%3A10%3A17.osexp","C:\Users\ERP Testing Room\Desktop\Joanna\morph21","no","mono","no","18","no","white","no","yes","1080","legacy","78","78","C:/Users/ERP Testing Room/Desktop/Joanna/morph21/subject-107.csv","xpyriment","Jazzy James","3.1.4","0","z","space","NA","NA","NA","/","z","546","5961","NA","NA","NA","31356","546","2","legacy","1024","2","48000","-16","BA_m21","107","odd","CW_S","DENSELY","1578","321380","319796","316696","32950","301836","NA","NA","NA","316690","320293","NA","319296","NA","319286","321373","1594","321730","NA","NA","320380","1578","1578","320771","319286","1578","320379","321730","morph21_Oliver/Morris","59","37945","79","yes","1280","32"
"200","75","75","481.8625","481.8625","black","no","xpyriment","legacy","legacy","0","204","NA","uniform","57051","1000","0.0175281765438","1","undefined","1","0","79","79","79","0","79","79","79","NA","79","79","0","79","NA","79","79","0","79","NA","79","NA","79","0","0","79","79","0","79","79","80","z","10/08/17 15:37:05","The main experiment item","yes","FIN__BA__M21__7%3A10%3A17.osexp","C:\Users\ERP Testing Room\Desktop\Joanna\morph21","no","mono","no","18","no","white","no","yes","1080","legacy","79","79","C:/Users/ERP Testing Room/Desktop/Joanna/morph21/subject-107.csv","xpyriment","Jazzy James","3.1.4","0","z","space","NA","NA","NA","/","z","604","5961","NA","NA","NA","31356","604","2","legacy","1024","2","48000","-16","BA_m21","107","odd","NW_L_COMP","PITCHODY","1578","324538","322930","316696","32950","301836","NA","NA","NA","324529","323427","NA","322430","NA","322418","324529","1594","324738","NA","NA","323538","1578","1578","323930","322418","1578","323538","324738","morph21_Oliver/Morris","60","38549","80","yes","1280","25"
"400","74.0740740741","74.0740740741","482.765432099","482.765432099","black","no","xpyriment","legacy","legacy","0","205","NA","uniform","73629","1000","0.0135816050741","0","undefined","0","0","80","80","80","0","80","80","80","NA","80","80","0","80","NA","80","80","0","80","NA","80","NA","80","0","0","80","80","0","80","80","81","z","10/08/17 15:37:05","The main experiment item","yes","FIN__BA__M21__7%3A10%3A17.osexp","C:\Users\ERP Testing Room\Desktop\Joanna\morph21","no","mono","no","18","no","white","no","yes","1080","legacy","80","80","C:/Users/ERP Testing Room/Desktop/Joanna/morph21/subject-107.csv","xpyriment","Jazzy James","3.1.4","0","/","space","NA","NA","NA","/","/","555","5961","NA","NA","NA","31356","555","2","legacy","1024","2","48000","-16","BA_m21","107","odd","NW_S_SIMP","SCHEMENESS","1578","329048","325955","327538","32950","301836","NA","NA","NA","324529","326452","NA","325455","NA","325449","327530","1594","329448","NA","NA","326538","1578","1578","326930","325449","1578","326538","329448","morph21_Oliver/Morris","60","39104","81","yes","1280","15"
"350","74.3902439024","74.3902439024","485.268292683","485.268292683","black","no","xpyriment","legacy","legacy","0","204","NA","uniform","66407","1000","0.0150586534552","1","undefined","1","0","81","81","81","0","81","81","81","NA","81","81","0","81","NA","81","81","0","81","NA","81","NA","81","0","0","81","81","0","81","81","82","z","10/08/17 15:37:05","The main experiment item","yes","FIN__BA__M21__7%3A10%3A17.osexp","C:\Users\ERP Testing Room\Desktop\Joanna\morph21","no","mono","no","18","no","white","no","yes","1080","legacy","81","81","C:/Users/ERP Testing Room/Desktop/Joanna/morph21/subject-107.csv","xpyriment","Jazzy James","3.1.4","0","z","space","NA","NA","NA","/","z","688","5961","NA","NA","NA","31356","688","2","legacy","1024","2","48000","-16","BA_m21","107","odd","NW_L_COMP","AGREELA","1578","332198","330606","327538","32950","301836","NA","NA","NA","332192","331103","NA","330106","NA","330103","332192","1594","332548","NA","NA","331198","1578","1578","331589","330103","1578","331198","332548","morph21_Oliver/Morris","61","39792","82","yes","1280","24"
"250","74.6987951807","74.6987951807","485.313253012","485.313253012","black","no","xpyriment","legacy","legacy","0","207","NA","uniform","82038","1000","0.012189473171","1","undefined","1","0","82","82","82","0","82","82","82","NA","82","82","0","82","NA","82","82","0","82","NA","82","NA","82","0","0","82","82","0","82","82","83","/","10/08/17 15:37:05","The main experiment item","yes","FIN__BA__M21__7%3A10%3A17.osexp","C:\Users\ERP Testing Room\Desktop\Joanna\morph21","no","mono","no","18","no","white","no","yes","1080","legacy","82","82","C:/Users/ERP Testing Room/Desktop/Joanna/morph21/subject-107.csv","xpyriment","Jazzy James","3.1.4","0","/","space","NA","NA","NA","/","/","489","5961","NA","NA","NA","31356","489","2","legacy","1024","2","48000","-16","BA_m21","107","odd","FILL_W","FIERCE","1578","335389","333806","327538","32950","301836","NA","NA","NA","335383","334303","NA","333306","NA","333297","335383","1594","335640","NA","NA","334389","1578","1578","334781","333297","1578","334389","335640","morph21_Oliver/Morris","62","40281","83","yes","1280","24"
"400","73.8095238095","73.8095238095","486.75","486.75","black","no","xpyriment","legacy","legacy","0","204","NA","uniform","67770","1000","0.0147557916482","0","undefined","0","0","83","83","83","0","83","83","83","NA","83","83","0","83","NA","83","83","0","83","NA","83","NA","83","0","0","83","83","0","83","83","84","z","10/08/17 15:37:05","The main experiment item","yes","FIN__BA__M21__7%3A10%3A17.osexp","C:\Users\ERP Testing Room\Desktop\Joanna\morph21","no","mono","no","18","no","white","no","yes","1080","legacy","83","83","C:/Users/ERP Testing Room/Desktop/Joanna/morph21/subject-107.csv","xpyriment","Jazzy James","3.1.4","0","/","space","NA","NA","NA","/","/","606","5961","NA","NA","NA","31356","606","2","legacy","1024","2","48000","-16","BA_m21","107","odd","NW_L_COMP","FLITENGE","1578","339948","336831","338440","32950","301836","NA","NA","NA","335383","337328","NA","336331","NA","336323","338433","1594","340348","NA","NA","337440","1578","1578","337831","336323","1578","337440","340348","morph21_Oliver/Morris","62","40887","84","yes","1280","3"
"300","74.1176470588","74.1176470588","489.223529412","489.223529412","black","no","xpyriment","legacy","legacy","0","205","NA","uniform","70912","1000","0.0141019855596","1","undefined","1","0","84","84","84","0","84","84","84","NA","84","84","0","84","NA","84","84","0","84","NA","84","NA","84","0","0","84","84","0","84","84","85","z","10/08/17 15:37:05","The main experiment item","yes","FIN__BA__M21__7%3A10%3A17.osexp","C:\Users\ERP Testing Room\Desktop\Joanna\morph21","no","mono","no","18","no","white","no","yes","1080","legacy","84","84","C:/Users/ERP Testing Room/Desktop/Joanna/morph21/subject-107.csv","xpyriment","Jazzy James","3.1.4","0","z","space","NA","NA","NA","/","z","697","5961","NA","NA","NA","31356","697","2","legacy","1024","2","48000","-16","BA_m21","107","odd","NW_S_SIMP","HEIRIC","1578","343132","341540","338440","32950","301836","NA","NA","NA","343122","342037","NA","341040","NA","341032","343122","1594","343432","NA","NA","342132","1578","1578","342523","341032","1578","342131","343432","morph21_Oliver/Morris","63","41584","85","yes","1280","3"
"400","74.4186046512","74.4186046512","491.744186047","491.744186047","black","no","xpyriment","legacy","legacy","0","204","NA","uniform","64977","1000","0.0153900610985","1","undefined","1","0","85","85","85","0","85","85","85","NA","85","85","0","85","NA","85","85","0","85","NA","85","NA","85","0","0","85","85","0","85","85","86","z","10/08/17 15:37:05","The main experiment item","yes","FIN__BA__M21__7%3A10%3A17.osexp","C:\Users\ERP Testing Room\Desktop\Joanna\morph21","no","mono","no","18","no","white","no","yes","1080","legacy","85","85","C:/Users/ERP Testing Room/Desktop/Joanna/morph21/subject-107.csv","xpyriment","Jazzy James","3.1.4","0","z","space","NA","NA","NA","/","z","706","5961","NA","NA","NA","31356","706","2","legacy","1024","2","48000","-16","BA_m21","107","odd","NW_L_COMP","COLDIDY","1578","346324","344740","338440","32950","301836","NA","NA","NA","346318","345237","NA","344240","NA","344232","346318","1594","346724","NA","NA","345323","1578","1578","345715","344231","1578","345323","346724","morph21_Oliver/Morris","64","42290","86","yes","1280","10"
"400","74.7126436782","74.7126436782","494.252873563","494.252873563","black","no","xpyriment","legacy","legacy","0","208","NA","uniform","69285","1000","0.014433138486","1","undefined","1","0","86","86","86","0","86","86","86","NA","86","86","0","86","NA","86","86","0","86","NA","86","NA","86","0","0","86","86","0","86","86","87","z","10/08/17 15:37:05","The main experiment item","yes","FIN__BA__M21__7%3A10%3A17.osexp","C:\Users\ERP Testing Room\Desktop\Joanna\morph21","no","mono","no","18","no","white","no","yes","1080","legacy","86","86","C:/Users/ERP Testing Room/Desktop/Joanna/morph21/subject-107.csv","xpyriment","Jazzy James","3.1.4","0","z","space","NA","NA","NA","/","z","710","5961","NA","NA","NA","31356","710","2","legacy","1024","2","48000","-16","BA_m21","107","odd","FILL_NW","HEND","1578","351116","348016","349608","32950","301836","NA","NA","NA","349600","348513","NA","347516","NA","347506","349600","1594","351516","NA","NA","348608","1578","1578","348999","347506","1578","348608","351516","morph21_Oliver/Morris","65","43000","87","yes","1280","28"
"200","75","75","494.465909091","494.465909091","black","no","xpyriment","legacy","legacy","0","207","NA","uniform","81270","1000","0.0123046634675","1","undefined","1","0","87","87","87","0","87","87","87","NA","87","87","0","87","NA","87","87","0","87","NA","87","NA","87","0","0","87","87","0","87","87","88","/","10/08/17 15:37:05","The main experiment item","yes","FIN__BA__M21__7%3A10%3A17.osexp","C:\Users\ERP Testing Room\Desktop\Joanna\morph21","no","mono","no","18","no","white","no","yes","1080","legacy","87","87","C:/Users/ERP Testing Room/Desktop/Joanna/morph21/subject-107.csv","xpyriment","Jazzy James","3.1.4","0","/","space","NA","NA","NA","/","/","513","5961","NA","NA","NA","31356","513","2","legacy","1024","2","48000","-16","BA_m21","107","odd","FILL_W","WRECK","1578","354333","352750","349608","32950","301836","NA","NA","NA","354326","353247","NA","352250","NA","352243","354326","1594","354533","NA","NA","353333","1578","1578","353725","352243","1578","353333","354533","morph21_Oliver/Morris","66","43513","88","yes","1280","13"
"200","75.2808988764","75.2808988764","495.06741573","495.06741573","black","no","xpyriment","legacy","legacy","0","203","NA","uniform","73521","1000","0.013601556018","1","undefined","1","0","88","88","88","0","88","88","88","NA","88","88","0","88","NA","88","88","0","88","NA","88","NA","88","0","0","88","88","0","88","88","89","z","10/08/17 15:37:05","The main experiment item","yes","FIN__BA__M21__7%3A10%3A17.osexp","C:\Users\ERP Testing Room\Desktop\Joanna\morph21","no","mono","no","18","no","white","no","yes","1080","legacy","88","88","C:/Users/ERP Testing Room/Desktop/Joanna/morph21/subject-107.csv","xpyriment","Jazzy James","3.1.4","0","z","space","NA","NA","NA","/","z","548","5961","NA","NA","NA","31356","548","2","legacy","1024","2","48000","-16","BA_m21","107","odd","NW_S_COMP","FANFIL","1578","357258","355658","349608","32950","301836","NA","NA","NA","357253","356155","NA","355158","NA","355152","357253","1594","357458","NA","NA","356258","1578","1578","356658","355152","1578","356258","357458","morph21_Oliver/Morris","67","44061","89","yes","1280","6"
"250","75.5555555556","75.5555555556","496.6","496.6","black","no","xpyriment","legacy","legacy","0","206","NA","uniform","76656","1000","0.0130452932582","1","undefined","1","0","89","89","89","0","89","89","89","NA","89","89","0","89","NA","89","89","0","89","NA","89","NA","89","0","0","89","89","0","89","89","90","z","10/08/17 15:37:05","The main experiment item","yes","FIN__BA__M21__7%3A10%3A17.osexp","C:\Users\ERP Testing Room\Desktop\Joanna\morph21","no","mono","no","18","no","white","no","yes","1080","legacy","89","89","C:/Users/ERP Testing Room/Desktop/Joanna/morph21/subject-107.csv","xpyriment","Jazzy James","3.1.4","0","z","space","NA","NA","NA","/","z","633","5961","NA","NA","NA","31356","633","2","legacy","1024","2","48000","-16","BA_m21","107","odd","NW_L_SIMP"," DRESSORY","1578","361800","358708","360292","32950","301836","NA","NA","NA","360284","359205","NA","358208","NA","358203","360284","1594","362050","NA","NA","359292","1578","1578","359683","358203","1578","359292","362050","morph21_Oliver/Morris","68","44694","90","yes","1280","21"
"250","75.8241758242","75.8241758242","496.10989011","496.10989011","black","no","xpyriment","legacy","legacy","0","207","NA","uniform","80026","1000","0.0124959388199","1","undefined","1","0","90","90","90","0","90","90","90","NA","90","90","0","90","NA","90","90","0","90","NA","90","NA","90","0","0","90","90","0","90","90","91","/","10/08/17 15:37:05","The main experiment item","yes","FIN__BA__M21__7%3A10%3A17.osexp","C:\Users\ERP Testing Room\Desktop\Joanna\morph21","no","mono","no","18","no","white","no","yes","1080","legacy","90","90","C:/Users/ERP Testing Room/Desktop/Joanna/morph21/subject-107.csv","xpyriment","Jazzy James","3.1.4","0","/","space","NA","NA","NA","/","/","452","5961","NA","NA","NA","31356","452","2","legacy","1024","2","48000","-16","BA_m21","107","odd","FILL_W","COOK","1578","364818","363217","360292","32950","301836","NA","NA","NA","364813","363714","NA","362717","NA","362710","364813","1594","365068","NA","NA","363818","1578","1578","364218","362710","1578","363818","365068","morph21_Oliver/Morris","69","45146","91","yes","1280","38"
"350","76.0869565217","76.0869565217","499.108695652","499.108695652","black","no","xpyriment","legacy","legacy","0","203","NA","uniform","68781","1000","0.0145388988238","1","undefined","1","0","91","91","91","0","91","91","91","NA","91","91","0","91","NA","91","91","0","91","NA","91","NA","91","0","0","91","91","0","91","91","92","z","10/08/17 15:37:05","The main experiment item","yes","FIN__BA__M21__7%3A10%3A17.osexp","C:\Users\ERP Testing Room\Desktop\Joanna\morph21","no","mono","no","18","no","white","no","yes","1080","legacy","91","91","C:/Users/ERP Testing Room/Desktop/Joanna/morph21/subject-107.csv","xpyriment","Jazzy James","3.1.4","0","z","space","NA","NA","NA","/","z","772","5961","NA","NA","NA","31356","772","2","legacy","1024","2","48000","-16","BA_m21","107","odd","NW_S_COMP","HEIGHTENGE","1578","367826","366243","360292","32950","301836","NA","NA","NA","367819","366740","NA","365743","NA","365738","367819","1594","368176","NA","NA","366826","1578","1578","367218","365738","1578","366826","368176","morph21_Oliver/Morris","70","45918","92","yes","1280","18"
