"ITI","acc","accuracy","average_response_time","avg_rt","background","bidi","canvas_backend","clock_backend","color_backend","compensation","cond_trig","condtrigtime","coordinates","coroutines_cycles","coroutines_duration","coroutines_mean_cycle_duration","correct","correct_instructions_1","correct_new_keyboard_response_1","count_BA_m21","count_ITI","count_blank_screen","count_blink_screen","count_block1","count_break1","count_break2","count_break3_1","count_canvas","count_correct_trigger","count_def_chain","count_end_screen","count_fixation_1","count_getting_started","count_inc_counter","count_incorrect_trigger","count_instructions_1","count_logger","count_logscript","count_new_coroutines","count_new_inline_script","count_new_keyboard_response_1","count_reset_counter_prep","count_reset_counter_run","count_responsescreen","count_sequence","count_start_trigger","count_target_present","count_word_trigger","counter","cresp","datetime","description","disable_garbage_collection","experiment_file","experiment_path","font_bold","font_family","font_italic","font_size","font_underline","foreground","form_clicks","fullscreen","height","keyboard_backend","live_row","live_row_block1","logfile","mouse_backend","opensesame_codename","opensesame_version","repeat_cycle","response","response_break1","response_break2","response_break3_1","response_end_screen","response_instructions_1","response_new_keyboard_response_1","response_time","response_time_break1","response_time_break2","response_time_break3_1","response_time_end_screen","response_time_instructions_1","response_time_new_keyboard_response_1","round_decimals","sampler_backend","sound_buf_size","sound_channels","sound_freq","sound_sample_size","start","subject_nr","subject_parity","targ_type","target","time_BA_m21","time_ITI","time_blank_screen","time_blink_screen","time_block1","time_break1","time_break2","time_break3_1","time_canvas","time_correct_trigger","time_def_chain","time_end_screen","time_fixation_1","time_getting_started","time_inc_counter","time_incorrect_trigger","time_instructions_1","time_logger","time_logscript","time_new_inline_script","time_new_keyboard_response_1","time_reset_counter_prep","time_reset_counter_run","time_responsescreen","time_sequence","time_start_trigger","time_target_present","time_word_trigger","title","total_correct","total_response_time","total_responses","uniform_coordinates","width","word_trig"
"200","0","0","994","994","black","no","xpyriment","legacy","legacy","0","205","NA","uniform","52877","1000","0.0189118142103","0","undefined","0","0","0","0","0","0","0","0","0","NA","0","0","0","0","NA","0","0","0","0","NA","0","NA","0","0","0","0","0","0","0","0","1","z","04/09/19 12:30:03","The main experiment item","yes","FIN__BA__M21__7%3A10%3A17.osexp","C:\Users\ERP Testing Room\Desktop\Joanna\morph21","no","mono","no","18","no","white","no","yes","1080","legacy","0","0","C:/Users/ERP Testing Room/Desktop/Joanna/morph21/subject-171.csv","xpyriment","Kafkaesque Koffka","3.2.5","0","None","NA","NA","NA","NA","space","None","994","NA","NA","NA","NA","214855","994","2","legacy","1024","2","48000","-16","BA_m21","171","odd","NW_S_SIMP","NULLISH","2005","219757","218074","NA","216873","NA","NA","NA","NA","NA","218571","NA","217574","NA","217510","219751","2017","219957","NA","NA","218757","2006","2006","219149","217510","2006","218757","219957","morph21_Oliver/Morris","0","994","1","yes","1280","23"
"350","0","0","992.5","992.5","black","no","xpyriment","legacy","legacy","0","204","NA","uniform","53155","1000","0.0188129056533","0","undefined","0","0","1","1","1","0","1","1","1","NA","1","1","0","1","NA","1","1","0","1","NA","1","NA","1","0","0","1","1","0","1","1","2","z","04/09/19 12:30:03","The main experiment item","yes","FIN__BA__M21__7%3A10%3A17.osexp","C:\Users\ERP Testing Room\Desktop\Joanna\morph21","no","mono","no","18","no","white","no","yes","1080","legacy","1","1","C:/Users/ERP Testing Room/Desktop/Joanna/morph21/subject-171.csv","xpyriment","Kafkaesque Koffka","3.2.5","0","None","NA","NA","NA","NA","space","None","991","NA","NA","NA","NA","214855","991","2","legacy","1024","2","48000","-16","BA_m21","171","odd","NW_L_COMP","MOUTHIME","2005","222857","221182","NA","216873","NA","NA","NA","NA","NA","221679","NA","220682","NA","220675","222848","2017","223207","NA","NA","221857","2006","2006","222249","220675","2006","221857","223207","morph21_Oliver/Morris","0","1985","2","yes","1280","11"
"400","0","0","993","993","black","no","xpyriment","legacy","legacy","0","208","NA","uniform","54201","1000","0.0184498440988","0","undefined","0","0","2","2","2","0","2","2","2","NA","2","2","0","2","NA","2","2","0","2","NA","2","NA","2","0","0","2","2","0","2","2","3","z","04/09/19 12:30:03","The main experiment item","yes","FIN__BA__M21__7%3A10%3A17.osexp","C:\Users\ERP Testing Room\Desktop\Joanna\morph21","no","mono","no","18","no","white","no","yes","1080","legacy","2","2","C:/Users/ERP Testing Room/Desktop/Joanna/morph21/subject-171.csv","xpyriment","Kafkaesque Koffka","3.2.5","0","None","NA","NA","NA","NA","space","None","994","NA","NA","NA","NA","214855","994","2","legacy","1024","2","48000","-16","BA_m21","171","odd","FILL_NW","BALFS","2005","227567","224408","226058","216873","NA","NA","NA","NA","NA","224905","NA","223908","NA","223901","226052","2017","227967","NA","NA","225058","2006","2006","225450","223901","2006","225058","227967","morph21_Oliver/Morris","0","2979","3","yes","1280","2"
"250","25","25","925.5","925.5","black","no","xpyriment","legacy","legacy","0","202","NA","uniform","65137","1000","0.0153522575495","1","undefined","1","0","3","3","3","0","3","3","3","NA","3","3","0","3","NA","3","3","0","3","NA","3","NA","3","0","0","3","3","0","3","3","4","/","04/09/19 12:30:03","The main experiment item","yes","FIN__BA__M21__7%3A10%3A17.osexp","C:\Users\ERP Testing Room\Desktop\Joanna\morph21","no","mono","no","18","no","white","no","yes","1080","legacy","3","3","C:/Users/ERP Testing Room/Desktop/Joanna/morph21/subject-171.csv","xpyriment","Kafkaesque Koffka","3.2.5","0","/","NA","NA","NA","NA","space","/","723","NA","NA","NA","NA","214855","723","2","legacy","1024","2","48000","-16","BA_m21","171","odd","CW_L","DEAFNESS","2005","230934","229242","226058","216873","NA","NA","NA","NA","230924","229739","NA","228734","NA","228727","230924","2017","231184","NA","NA","229934","2006","2006","230325","228727","2006","229934","231184","morph21_Oliver/Morris","1","3702","4","yes","1280","39"
"250","40","40","852","852","black","no","xpyriment","legacy","legacy","0","207","NA","uniform","69731","1000","0.0143408240237","1","undefined","1","0","4","4","4","0","4","4","4","NA","4","4","0","4","NA","4","4","0","4","NA","4","NA","4","0","0","4","4","0","4","4","5","/","04/09/19 12:30:03","The main experiment item","yes","FIN__BA__M21__7%3A10%3A17.osexp","C:\Users\ERP Testing Room\Desktop\Joanna\morph21","no","mono","no","18","no","white","no","yes","1080","legacy","4","4","C:/Users/ERP Testing Room/Desktop/Joanna/morph21/subject-171.csv","xpyriment","Kafkaesque Koffka","3.2.5","0","/","NA","NA","NA","NA","space","/","558","NA","NA","NA","NA","214855","558","2","legacy","1024","2","48000","-16","BA_m21","171","odd","FILL_W","SOFT","2005","234034","232317","226058","216873","NA","NA","NA","NA","234024","232814","NA","231817","NA","231806","234024","2017","234284","NA","NA","233034","2006","2006","233425","231806","2006","233034","234284","morph21_Oliver/Morris","2","4260","5","yes","1280","43"
"200","33.3333333333","33.3333333333","876","876","black","no","xpyriment","legacy","legacy","0","208","NA","uniform","46683","1000","0.0214210740527","0","undefined","0","0","5","5","5","0","5","5","5","NA","5","5","0","5","NA","5","5","0","5","NA","5","NA","5","0","0","5","5","0","5","5","6","z","04/09/19 12:30:03","The main experiment item","yes","FIN__BA__M21__7%3A10%3A17.osexp","C:\Users\ERP Testing Room\Desktop\Joanna\morph21","no","mono","no","18","no","white","no","yes","1080","legacy","5","5","C:/Users/ERP Testing Room/Desktop/Joanna/morph21/subject-171.csv","xpyriment","Kafkaesque Koffka","3.2.5","0","None","NA","NA","NA","NA","space","None","996","NA","NA","NA","NA","214855","996","2","legacy","1024","2","48000","-16","BA_m21","171","odd","FILL_NW","BLAYS","2005","238667","235484","237159","216873","NA","NA","NA","NA","234024","235981","NA","234976","NA","234971","237155","2017","238867","NA","NA","236159","2006","2006","236559","234971","2006","236159","238867","morph21_Oliver/Morris","2","5256","6","yes","1280","8"
"400","42.8571428571","42.8571428571","831.428571429","831.428571429","black","no","xpyriment","legacy","legacy","0","202","NA","uniform","65971","1000","0.015158175562","1","undefined","1","0","6","6","6","0","6","6","6","NA","6","6","0","6","NA","6","6","0","6","NA","6","NA","6","0","0","6","6","0","6","6","7","/","04/09/19 12:30:03","The main experiment item","yes","FIN__BA__M21__7%3A10%3A17.osexp","C:\Users\ERP Testing Room\Desktop\Joanna\morph21","no","mono","no","18","no","white","no","yes","1080","legacy","6","6","C:/Users/ERP Testing Room/Desktop/Joanna/morph21/subject-171.csv","xpyriment","Kafkaesque Koffka","3.2.5","0","/","NA","NA","NA","NA","space","/","564","NA","NA","NA","NA","214855","564","2","legacy","1024","2","48000","-16","BA_m21","171","odd","CW_L","FAITHFUL","2005","241710","240026","237159","216873","NA","NA","NA","NA","241700","240523","NA","239526","NA","239516","241700","2017","242110","NA","NA","240709","2006","2006","241101","239516","2006","240709","242110","morph21_Oliver/Morris","3","5820","7","yes","1280","20"
"350","37.5","37.5","851.625","851.625","black","no","xpyriment","legacy","legacy","0","208","NA","uniform","51386","1000","0.0194605534581","0","undefined","0","0","7","7","7","0","7","7","7","NA","7","7","0","7","NA","7","7","0","7","NA","7","NA","7","0","0","7","7","0","7","7","8","z","04/09/19 12:30:03","The main experiment item","yes","FIN__BA__M21__7%3A10%3A17.osexp","C:\Users\ERP Testing Room\Desktop\Joanna\morph21","no","mono","no","18","no","white","no","yes","1080","legacy","7","7","C:/Users/ERP Testing Room/Desktop/Joanna/morph21/subject-171.csv","xpyriment","Kafkaesque Koffka","3.2.5","0","None","NA","NA","NA","NA","space","None","993","NA","NA","NA","NA","214855","993","2","legacy","1024","2","48000","-16","BA_m21","171","odd","FILL_NW","BLANTH","2005","245060","243385","237159","216873","NA","NA","NA","NA","241700","243882","NA","242885","NA","242878","245053","2017","245410","NA","NA","244060","2006","2006","244452","242878","2006","244060","245410","morph21_Oliver/Morris","3","6813","8","yes","1280","3"
"400","44.4444444444","44.4444444444","831","831","black","no","xpyriment","legacy","legacy","0","202","NA","uniform","58018","1000","0.0172360301975","1","undefined","1","0","8","8","8","0","8","8","8","NA","8","8","0","8","NA","8","8","0","8","NA","8","NA","8","0","0","8","8","0","8","8","9","/","04/09/19 12:30:03","The main experiment item","yes","FIN__BA__M21__7%3A10%3A17.osexp","C:\Users\ERP Testing Room\Desktop\Joanna\morph21","no","mono","no","18","no","white","no","yes","1080","legacy","8","8","C:/Users/ERP Testing Room/Desktop/Joanna/morph21/subject-171.csv","xpyriment","Kafkaesque Koffka","3.2.5","0","/","NA","NA","NA","NA","space","/","666","NA","NA","NA","NA","214855","666","2","legacy","1024","2","48000","-16","BA_m21","171","odd","CW_L","STYLISH","2005","249836","246644","248327","216873","NA","NA","NA","NA","248322","247141","NA","246144","NA","246131","248322","2017","250236","NA","NA","247327","2006","2006","247727","246131","2006","247327","250236","morph21_Oliver/Morris","4","7479","9","yes","1280","29"
"250","50","50","817.6","817.6","black","no","xpyriment","legacy","legacy","0","207","NA","uniform","63150","1000","0.0158353127474","1","undefined","1","0","9","9","9","0","9","9","9","NA","9","9","0","9","NA","9","9","0","9","NA","9","NA","9","0","0","9","9","0","9","9","10","/","04/09/19 12:30:03","The main experiment item","yes","FIN__BA__M21__7%3A10%3A17.osexp","C:\Users\ERP Testing Room\Desktop\Joanna\morph21","no","mono","no","18","no","white","no","yes","1080","legacy","9","9","C:/Users/ERP Testing Room/Desktop/Joanna/morph21/subject-171.csv","xpyriment","Kafkaesque Koffka","3.2.5","0","/","NA","NA","NA","NA","space","/","697","NA","NA","NA","NA","214855","697","2","legacy","1024","2","48000","-16","BA_m21","171","odd","FILL_W","PREACH","2005","253111","251469","248327","216873","NA","NA","NA","NA","253105","251966","NA","250961","NA","250954","253105","2017","253361","NA","NA","252111","2006","2006","252502","250954","2006","252110","253361","morph21_Oliver/Morris","5","8176","10","yes","1280","7"
"350","45.4545454545","45.4545454545","833.818181818","833.818181818","black","no","xpyriment","legacy","legacy","0","202","NA","uniform","54760","1000","0.018261504748","0","undefined","0","0","10","10","10","0","10","10","10","NA","10","10","0","10","NA","10","10","0","10","NA","10","NA","10","0","0","10","10","0","10","10","11","/","04/09/19 12:30:03","The main experiment item","yes","FIN__BA__M21__7%3A10%3A17.osexp","C:\Users\ERP Testing Room\Desktop\Joanna\morph21","no","mono","no","18","no","white","no","yes","1080","legacy","10","10","C:/Users/ERP Testing Room/Desktop/Joanna/morph21/subject-171.csv","xpyriment","Kafkaesque Koffka","3.2.5","0","None","NA","NA","NA","NA","space","None","996","NA","NA","NA","NA","214855","996","2","legacy","1024","2","48000","-16","BA_m21","171","odd","CW_L","GUILELESS","2005","256261","254536","248327","216873","NA","NA","NA","NA","253105","255033","NA","254036","NA","254031","256257","2017","256611","NA","NA","255261","2006","2006","255661","254031","2006","255261","256611","morph21_Oliver/Morris","5","9172","11","yes","1280","31"
"250","50","50","825.166666667","825.166666667","black","no","xpyriment","legacy","legacy","0","201","NA","uniform","59138","1000","0.0169096012716","1","undefined","1","0","11","11","11","0","11","11","11","NA","11","11","0","11","NA","11","11","0","11","NA","11","NA","11","0","0","11","11","0","11","11","12","/","04/09/19 12:30:03","The main experiment item","yes","FIN__BA__M21__7%3A10%3A17.osexp","C:\Users\ERP Testing Room\Desktop\Joanna\morph21","no","mono","no","18","no","white","no","yes","1080","legacy","11","11","C:/Users/ERP Testing Room/Desktop/Joanna/morph21/subject-171.csv","xpyriment","Kafkaesque Koffka","3.2.5","0","/","NA","NA","NA","NA","space","/","730","NA","NA","NA","NA","214855","730","2","legacy","1024","2","48000","-16","BA_m21","171","odd","CW_S","TOSSING","2005","261004","257836","259495","216873","NA","NA","NA","NA","259490","258333","NA","257336","NA","257325","259490","2017","261254","NA","NA","258503","2006","2006","258895","257325","2006","258502","261254","morph21_Oliver/Morris","6","9902","12","yes","1280","26"
"400","53.8461538462","53.8461538462","809.230769231","809.230769231","black","no","xpyriment","legacy","legacy","0","201","NA","uniform","63616","1000","0.0157193158954","1","undefined","1","0","12","12","12","0","12","12","12","NA","12","12","0","12","NA","12","12","0","12","NA","12","NA","12","0","0","12","12","0","12","12","13","/","04/09/19 12:30:03","The main experiment item","yes","FIN__BA__M21__7%3A10%3A17.osexp","C:\Users\ERP Testing Room\Desktop\Joanna\morph21","no","mono","no","18","no","white","no","yes","1080","legacy","12","12","C:/Users/ERP Testing Room/Desktop/Joanna/morph21/subject-171.csv","xpyriment","Kafkaesque Koffka","3.2.5","0","/","NA","NA","NA","NA","space","/","618","NA","NA","NA","NA","214855","618","2","legacy","1024","2","48000","-16","BA_m21","171","odd","CW_S","EFFORTLESS","2005","264087","262437","259495","216873","NA","NA","NA","NA","264077","262934","NA","261937","NA","261928","264077","2017","264487","NA","NA","263087","2006","2006","263479","261928","2006","263087","264487","morph21_Oliver/Morris","7","10520","13","yes","1280","30"
"350","57.1428571429","57.1428571429","809.642857143","809.642857143","black","no","xpyriment","legacy","legacy","0","201","NA","uniform","61204","1000","0.0163388013855","1","undefined","1","0","13","13","13","0","13","13","13","NA","13","13","0","13","NA","13","13","0","13","NA","13","NA","13","0","0","13","13","0","13","13","14","/","04/09/19 12:30:03","The main experiment item","yes","FIN__BA__M21__7%3A10%3A17.osexp","C:\Users\ERP Testing Room\Desktop\Joanna\morph21","no","mono","no","18","no","white","no","yes","1080","legacy","13","13","C:/Users/ERP Testing Room/Desktop/Joanna/morph21/subject-171.csv","xpyriment","Kafkaesque Koffka","3.2.5","0","/","NA","NA","NA","NA","space","/","815","NA","NA","NA","NA","214855","815","2","legacy","1024","2","48000","-16","BA_m21","171","odd","CW_S","RICHNESS","2005","267370","265662","259495","216873","NA","NA","NA","NA","267367","266159","NA","265162","NA","265155","267367","2017","267721","NA","NA","266370","2006","2006","266771","265155","2006","266370","267721","morph21_Oliver/Morris","8","11335","14","yes","1280","45"
"350","60","60","798.4","798.4","black","no","xpyriment","legacy","legacy","0","207","NA","uniform","66395","1000","0.0150613751035","1","undefined","1","0","14","14","14","0","14","14","14","NA","14","14","0","14","NA","14","14","0","14","NA","14","NA","14","0","0","14","14","0","14","14","15","/","04/09/19 12:30:03","The main experiment item","yes","FIN__BA__M21__7%3A10%3A17.osexp","C:\Users\ERP Testing Room\Desktop\Joanna\morph21","no","mono","no","18","no","white","no","yes","1080","legacy","14","14","C:/Users/ERP Testing Room/Desktop/Joanna/morph21/subject-171.csv","xpyriment","Kafkaesque Koffka","3.2.5","0","/","NA","NA","NA","NA","space","/","641","NA","NA","NA","NA","214855","641","2","legacy","1024","2","48000","-16","BA_m21","171","odd","FILL_W","WEIRD","2005","272196","269046","270687","216873","NA","NA","NA","NA","270683","269543","NA","268546","NA","268535","270683","2017","272546","NA","NA","269687","2006","2006","270087","268535","2006","269687","272546","morph21_Oliver/Morris","9","11976","15","yes","1280","2"
"200","62.5","62.5","809.625","809.625","black","no","xpyriment","legacy","legacy","0","208","NA","uniform","52589","1000","0.0190153834452","1","undefined","1","0","15","15","15","0","15","15","15","NA","15","15","0","15","NA","15","15","0","15","NA","15","NA","15","0","0","15","15","0","15","15","16","z","04/09/19 12:30:03","The main experiment item","yes","FIN__BA__M21__7%3A10%3A17.osexp","C:\Users\ERP Testing Room\Desktop\Joanna\morph21","no","mono","no","18","no","white","no","yes","1080","legacy","15","15","C:/Users/ERP Testing Room/Desktop/Joanna/morph21/subject-171.csv","xpyriment","Kafkaesque Koffka","3.2.5","0","z","NA","NA","NA","NA","space","z","978","NA","NA","NA","NA","214855","978","2","legacy","1024","2","48000","-16","BA_m21","171","odd","FILL_NW","FROT","2005","275438","273771","270687","216873","NA","NA","NA","NA","275431","274268","NA","273271","NA","273264","275431","2017","275638","NA","NA","274438","2006","2006","274829","273264","2006","274438","275638","morph21_Oliver/Morris","10","12954","16","yes","1280","22"
"250","58.8235294118","58.8235294118","820.411764706","820.411764706","black","no","xpyriment","legacy","legacy","0","208","NA","uniform","51565","1000","0.0193929991273","0","undefined","0","0","16","16","16","0","16","16","16","NA","16","16","0","16","NA","16","16","0","16","NA","16","NA","16","0","0","16","16","0","16","16","17","z","04/09/19 12:30:03","The main experiment item","yes","FIN__BA__M21__7%3A10%3A17.osexp","C:\Users\ERP Testing Room\Desktop\Joanna\morph21","no","mono","no","18","no","white","no","yes","1080","legacy","16","16","C:/Users/ERP Testing Room/Desktop/Joanna/morph21/subject-171.csv","xpyriment","Kafkaesque Koffka","3.2.5","0","None","NA","NA","NA","NA","space","None","993","NA","NA","NA","NA","214855","993","2","legacy","1024","2","48000","-16","BA_m21","171","odd","FILL_NW","LOLDS","2005","278464","276780","270687","216873","NA","NA","NA","NA","275431","277277","NA","276280","NA","276275","278457","2017","278714","NA","NA","277464","2006","2006","277855","276275","2006","277464","278714","morph21_Oliver/Morris","10","13947","17","yes","1280","34"
"200","61.1111111111","61.1111111111","815.888888889","815.888888889","black","no","xpyriment","legacy","legacy","0","202","NA","uniform","59609","1000","0.0167759902028","1","undefined","1","0","17","17","17","0","17","17","17","NA","17","17","0","17","NA","17","17","0","17","NA","17","NA","17","0","0","17","17","0","17","17","18","/","04/09/19 12:30:03","The main experiment item","yes","FIN__BA__M21__7%3A10%3A17.osexp","C:\Users\ERP Testing Room\Desktop\Joanna\morph21","no","mono","no","18","no","white","no","yes","1080","legacy","17","17","C:/Users/ERP Testing Room/Desktop/Joanna/morph21/subject-171.csv","xpyriment","Kafkaesque Koffka","3.2.5","0","/","NA","NA","NA","NA","space","/","739","NA","NA","NA","NA","214855","739","2","legacy","1024","2","48000","-16","BA_m21","171","odd","CW_L","COLLECTOR","2005","283122","279955","281614","216873","NA","NA","NA","NA","281608","280453","NA","279455","NA","279451","281608","2017","283322","NA","NA","280614","2006","2006","281005","279451","2006","280614","283322","morph21_Oliver/Morris","11","14686","18","yes","1280","46"
"400","57.8947368421","57.8947368421","825.263157895","825.263157895","black","no","xpyriment","legacy","legacy","0","205","NA","uniform","52150","1000","0.0191754554171","0","undefined","0","0","18","18","18","0","18","18","18","NA","18","18","0","18","NA","18","18","0","18","NA","18","NA","18","0","0","18","18","0","18","18","19","z","04/09/19 12:30:03","The main experiment item","yes","FIN__BA__M21__7%3A10%3A17.osexp","C:\Users\ERP Testing Room\Desktop\Joanna\morph21","no","mono","no","18","no","white","no","yes","1080","legacy","18","18","C:/Users/ERP Testing Room/Desktop/Joanna/morph21/subject-171.csv","xpyriment","Kafkaesque Koffka","3.2.5","0","None","NA","NA","NA","NA","space","None","994","NA","NA","NA","NA","214855","994","2","legacy","1024","2","48000","-16","BA_m21","171","odd","NW_S_SIMP","MEDICALARY","2005","286139","284456","281614","216873","NA","NA","NA","NA","281608","284953","NA","283956","NA","283947","286134","2017","286539","NA","NA","285139","2006","2006","285539","283947","2006","285139","286539","morph21_Oliver/Morris","11","15680","19","yes","1280","18"
"400","60","60","828.95","828.95","black","no","xpyriment","legacy","legacy","0","202","NA","uniform","57403","1000","0.0174206922983","1","undefined","1","0","19","19","19","0","19","19","19","NA","19","19","0","19","NA","19","19","0","19","NA","19","NA","19","0","0","19","19","0","19","19","20","/","04/09/19 12:30:03","The main experiment item","yes","FIN__BA__M21__7%3A10%3A17.osexp","C:\Users\ERP Testing Room\Desktop\Joanna\morph21","no","mono","no","18","no","white","no","yes","1080","legacy","19","19","C:/Users/ERP Testing Room/Desktop/Joanna/morph21/subject-171.csv","xpyriment","Kafkaesque Koffka","3.2.5","0","/","NA","NA","NA","NA","space","/","899","NA","NA","NA","NA","214855","899","2","legacy","1024","2","48000","-16","BA_m21","171","odd","CW_L","SPELLER","2005","289372","287714","281614","216873","NA","NA","NA","NA","289370","288211","NA","287214","NA","287207","289370","2017","289773","NA","NA","288381","2006","2006","288773","287207","2006","288381","289773","morph21_Oliver/Morris","12","16579","20","yes","1280","3"
"200","61.9047619048","61.9047619048","816.571428571","816.571428571","black","no","xpyriment","legacy","legacy","0","207","NA","uniform","63990","1000","0.0156274417878","1","undefined","1","0","20","20","20","0","20","20","20","NA","20","20","0","20","NA","20","20","0","20","NA","20","NA","20","0","0","20","20","0","20","20","21","/","04/09/19 12:30:03","The main experiment item","yes","FIN__BA__M21__7%3A10%3A17.osexp","C:\Users\ERP Testing Room\Desktop\Joanna\morph21","no","mono","no","18","no","white","no","yes","1080","legacy","20","20","C:/Users/ERP Testing Room/Desktop/Joanna/morph21/subject-171.csv","xpyriment","Kafkaesque Koffka","3.2.5","0","/","NA","NA","NA","NA","space","/","569","NA","NA","NA","NA","214855","569","2","legacy","1024","2","48000","-16","BA_m21","171","odd","FILL_W","SAVE","2005","294149","290973","292639","216873","NA","NA","NA","NA","292635","291470","NA","290473","NA","290468","292635","2017","294349","NA","NA","291639","2006","2006","292039","290468","2006","291639","294349","morph21_Oliver/Morris","13","17148","21","yes","1280","46"
"200","63.6363636364","63.6363636364","823.909090909","823.909090909","black","no","xpyriment","legacy","legacy","0","208","NA","uniform","54115","1000","0.0184791647418","1","undefined","1","0","21","21","21","0","21","21","21","NA","21","21","0","21","NA","21","21","0","21","NA","21","NA","21","0","0","21","21","0","21","21","22","z","04/09/19 12:30:03","The main experiment item","yes","FIN__BA__M21__7%3A10%3A17.osexp","C:\Users\ERP Testing Room\Desktop\Joanna\morph21","no","mono","no","18","no","white","no","yes","1080","legacy","21","21","C:/Users/ERP Testing Room/Desktop/Joanna/morph21/subject-171.csv","xpyriment","Kafkaesque Koffka","3.2.5","0","z","NA","NA","NA","NA","space","z","978","NA","NA","NA","NA","214855","978","2","legacy","1024","2","48000","-16","BA_m21","171","odd","FILL_NW","VUNKS","2005","297216","295540","292639","216873","NA","NA","NA","NA","297205","296038","NA","295040","NA","295035","297205","2017","297416","NA","NA","296215","2006","2006","296607","295035","2006","296215","297416","morph21_Oliver/Morris","14","18126","22","yes","1280","49"
"350","65.2173913043","65.2173913043","823.913043478","823.913043478","black","no","xpyriment","legacy","legacy","0","201","NA","uniform","53062","1000","0.0188458784064","1","undefined","1","0","22","22","22","0","22","22","22","NA","22","22","0","22","NA","22","22","0","22","NA","22","NA","22","0","0","22","22","0","22","22","23","/","04/09/19 12:30:03","The main experiment item","yes","FIN__BA__M21__7%3A10%3A17.osexp","C:\Users\ERP Testing Room\Desktop\Joanna\morph21","no","mono","no","18","no","white","no","yes","1080","legacy","22","22","C:/Users/ERP Testing Room/Desktop/Joanna/morph21/subject-171.csv","xpyriment","Kafkaesque Koffka","3.2.5","0","/","NA","NA","NA","NA","space","/","824","NA","NA","NA","NA","214855","824","2","legacy","1024","2","48000","-16","BA_m21","171","odd","CW_S","AMAZEMENT","2005","300241","298574","292639","216873","NA","NA","NA","NA","300235","299071","NA","298074","NA","298070","300235","2017","300591","NA","NA","299241","2006","2006","299632","298070","2006","299241","300591","morph21_Oliver/Morris","15","18950","23","yes","1280","39"
"350","66.6666666667","66.6666666667","817.5","817.5","black","no","xpyriment","legacy","legacy","0","207","NA","uniform","65506","1000","0.0152657771807","1","undefined","1","0","23","23","23","0","23","23","23","NA","23","23","0","23","NA","23","23","0","23","NA","23","NA","23","0","0","23","23","0","23","23","24","/","04/09/19 12:30:03","The main experiment item","yes","FIN__BA__M21__7%3A10%3A17.osexp","C:\Users\ERP Testing Room\Desktop\Joanna\morph21","no","mono","no","18","no","white","no","yes","1080","legacy","23","23","C:/Users/ERP Testing Room/Desktop/Joanna/morph21/subject-171.csv","xpyriment","Kafkaesque Koffka","3.2.5","0","/","NA","NA","NA","NA","space","/","670","NA","NA","NA","NA","214855","670","2","legacy","1024","2","48000","-16","BA_m21","171","odd","FILL_W","BRISK","2005","305016","301807","303507","216873","NA","NA","NA","NA","303502","302305","NA","301307","NA","301304","303502","2017","305366","NA","NA","302507","2006","2006","302907","301304","2006","302507","305366","morph21_Oliver/Morris","16","19620","24","yes","1280","8"
"300","64","64","824.6","824.6","black","no","xpyriment","legacy","legacy","0","205","NA","uniform","50477","1000","0.0198110030311","0","undefined","0","0","24","24","24","0","24","24","24","NA","24","24","0","24","NA","24","24","0","24","NA","24","NA","24","0","0","24","24","0","24","24","25","z","04/09/19 12:30:03","The main experiment item","yes","FIN__BA__M21__7%3A10%3A17.osexp","C:\Users\ERP Testing Room\Desktop\Joanna\morph21","no","mono","no","18","no","white","no","yes","1080","legacy","24","24","C:/Users/ERP Testing Room/Desktop/Joanna/morph21/subject-171.csv","xpyriment","Kafkaesque Koffka","3.2.5","0","None","NA","NA","NA","NA","space","None","995","NA","NA","NA","NA","214855","995","2","legacy","1024","2","48000","-16","BA_m21","171","odd","NW_S_SIMP","WINKITY","2005","308183","306524","303507","216873","NA","NA","NA","NA","303502","307021","NA","306024","NA","306015","308178","2017","308483","NA","NA","307183","2006","2006","307583","306015","2006","307183","308483","morph21_Oliver/Morris","16","20615","25","yes","1280","21"
"400","61.5384615385","61.5384615385","831.153846154","831.153846154","black","no","xpyriment","legacy","legacy","0","208","NA","uniform","52381","1000","0.0190908917356","0","undefined","0","0","25","25","25","0","25","25","25","NA","25","25","0","25","NA","25","25","0","25","NA","25","NA","25","0","0","25","25","0","25","25","26","z","04/09/19 12:30:03","The main experiment item","yes","FIN__BA__M21__7%3A10%3A17.osexp","C:\Users\ERP Testing Room\Desktop\Joanna\morph21","no","mono","no","18","no","white","no","yes","1080","legacy","25","25","C:/Users/ERP Testing Room/Desktop/Joanna/morph21/subject-171.csv","xpyriment","Kafkaesque Koffka","3.2.5","0","None","NA","NA","NA","NA","space","None","995","NA","NA","NA","NA","214855","995","2","legacy","1024","2","48000","-16","BA_m21","171","odd","FILL_NW","SOISE","2005","311300","309633","303507","216873","NA","NA","NA","NA","303502","310130","NA","309133","NA","309123","311294","2017","311700","NA","NA","310299","2006","2006","310699","309123","2006","310299","311700","morph21_Oliver/Morris","16","21610","26","yes","1280","43"
"350","62.962962963","62.962962963","827.259259259","827.259259259","black","no","xpyriment","legacy","legacy","0","201","NA","uniform","62171","1000","0.0160846697013","1","undefined","1","0","26","26","26","0","26","26","26","NA","26","26","0","26","NA","26","26","0","26","NA","26","NA","26","0","0","26","26","0","26","26","27","/","04/09/19 12:30:03","The main experiment item","yes","FIN__BA__M21__7%3A10%3A17.osexp","C:\Users\ERP Testing Room\Desktop\Joanna\morph21","no","mono","no","18","no","white","no","yes","1080","legacy","26","26","C:/Users/ERP Testing Room/Desktop/Joanna/morph21/subject-171.csv","xpyriment","Kafkaesque Koffka","3.2.5","0","/","NA","NA","NA","NA","space","/","726","NA","NA","NA","NA","214855","726","2","legacy","1024","2","48000","-16","BA_m21","171","odd","CW_S","SINGER","2005","316159","312967","314651","216873","NA","NA","NA","NA","314644","313464","NA","312467","NA","312458","314644","2017","316509","NA","NA","313651","2006","2006","314042","312458","2006","313650","316509","morph21_Oliver/Morris","17","22336","27","yes","1280","17"
"400","64.2857142857","64.2857142857","823.142857143","823.142857143","black","no","xpyriment","legacy","legacy","0","207","NA","uniform","61233","1000","0.0163310633155","1","undefined","1","0","27","27","27","0","27","27","27","NA","27","27","0","27","NA","27","27","0","27","NA","27","NA","27","0","0","27","27","0","27","27","28","/","04/09/19 12:30:03","The main experiment item","yes","FIN__BA__M21__7%3A10%3A17.osexp","C:\Users\ERP Testing Room\Desktop\Joanna\morph21","no","mono","no","18","no","white","no","yes","1080","legacy","27","27","C:/Users/ERP Testing Room/Desktop/Joanna/morph21/subject-171.csv","xpyriment","Kafkaesque Koffka","3.2.5","0","/","NA","NA","NA","NA","space","/","712","NA","NA","NA","NA","214855","712","2","legacy","1024","2","48000","-16","BA_m21","171","odd","FILL_W","CHIP","2005","319401","317734","314651","216873","NA","NA","NA","NA","319390","318231","NA","317234","NA","317229","319390","2017","319801","NA","NA","318401","2006","2006","318792","317229","2006","318401","319801","morph21_Oliver/Morris","18","23048","28","yes","1280","11"
"300","62.0689655172","62.0689655172","828.896551724","828.896551724","black","no","xpyriment","legacy","legacy","0","206","NA","uniform","50370","1000","0.0198530871551","0","undefined","0","0","28","28","28","0","28","28","28","NA","28","28","0","28","NA","28","28","0","28","NA","28","NA","28","0","0","28","28","0","28","28","29","z","04/09/19 12:30:03","The main experiment item","yes","FIN__BA__M21__7%3A10%3A17.osexp","C:\Users\ERP Testing Room\Desktop\Joanna\morph21","no","mono","no","18","no","white","no","yes","1080","legacy","28","28","C:/Users/ERP Testing Room/Desktop/Joanna/morph21/subject-171.csv","xpyriment","Kafkaesque Koffka","3.2.5","0","None","NA","NA","NA","NA","space","None","990","NA","NA","NA","NA","214855","990","2","legacy","1024","2","48000","-16","BA_m21","171","odd","NW_L_SIMP","ELBOWISM","2005","322684","321034","314651","216873","NA","NA","NA","NA","319390","321531","NA","320534","NA","320527","322674","2017","322984","NA","NA","321684","2006","2006","322076","320527","2006","321684","322984","morph21_Oliver/Morris","18","24038","29","yes","1280","10"
"250","63.3333333333","63.3333333333","823.133333333","823.133333333","black","no","xpyriment","legacy","legacy","0","207","NA","uniform","62746","1000","0.0159372709017","1","undefined","1","0","29","29","29","0","29","29","29","NA","29","29","0","29","NA","29","29","0","29","NA","29","NA","29","0","0","29","29","0","29","29","30","/","04/09/19 12:30:03","The main experiment item","yes","FIN__BA__M21__7%3A10%3A17.osexp","C:\Users\ERP Testing Room\Desktop\Joanna\morph21","no","mono","no","18","no","white","no","yes","1080","legacy","29","29","C:/Users/ERP Testing Room/Desktop/Joanna/morph21/subject-171.csv","xpyriment","Kafkaesque Koffka","3.2.5","0","/","NA","NA","NA","NA","space","/","656","NA","NA","NA","NA","214855","656","2","legacy","1024","2","48000","-16","BA_m21","171","odd","FILL_W","SLIM","2005","327476","324301","325968","216873","NA","NA","NA","NA","325964","324798","NA","323801","NA","323794","325964","2017","327726","NA","NA","324968","2006","2006","325368","323794","2006","324968","327726","morph21_Oliver/Morris","19","24694","30","yes","1280","6"
"200","61.2903225806","61.2903225806","828.677419355","828.677419355","black","no","xpyriment","legacy","legacy","0","203","NA","uniform","49595","1000","0.0201633229156","0","undefined","0","0","30","30","30","0","30","30","30","NA","30","30","0","30","NA","30","30","0","30","NA","30","NA","30","0","0","30","30","0","30","30","31","z","04/09/19 12:30:03","The main experiment item","yes","FIN__BA__M21__7%3A10%3A17.osexp","C:\Users\ERP Testing Room\Desktop\Joanna\morph21","no","mono","no","18","no","white","no","yes","1080","legacy","30","30","C:/Users/ERP Testing Room/Desktop/Joanna/morph21/subject-171.csv","xpyriment","Kafkaesque Koffka","3.2.5","0","None","NA","NA","NA","NA","space","None","995","NA","NA","NA","NA","214855","995","2","legacy","1024","2","48000","-16","BA_m21","171","odd","NW_S_COMP","ANTILM","2005","330652","328919","325968","216873","NA","NA","NA","NA","325964","329416","NA","328418","NA","328412","330647","2017","330852","NA","NA","329652","2006","2006","330052","328412","2006","329652","330852","morph21_Oliver/Morris","19","25689","31","yes","1280","8"
"350","59.375","59.375","833.6875","833.6875","black","no","xpyriment","legacy","legacy","0","205","NA","uniform","49524","1000","0.0201922300299","0","undefined","0","0","31","31","31","0","31","31","31","NA","31","31","0","31","NA","31","31","0","31","NA","31","NA","31","0","0","31","31","0","31","31","32","z","04/09/19 12:30:03","The main experiment item","yes","FIN__BA__M21__7%3A10%3A17.osexp","C:\Users\ERP Testing Room\Desktop\Joanna\morph21","no","mono","no","18","no","white","no","yes","1080","legacy","31","31","C:/Users/ERP Testing Room/Desktop/Joanna/morph21/subject-171.csv","xpyriment","Kafkaesque Koffka","3.2.5","0","None","NA","NA","NA","NA","space","None","989","NA","NA","NA","NA","214855","989","2","legacy","1024","2","48000","-16","BA_m21","171","odd","NW_S_SIMP","BASKORY","2005","333677","332011","325968","216873","NA","NA","NA","NA","325964","332508","NA","331511","NA","331503","333667","2017","334027","NA","NA","332677","2006","2006","333069","331503","2006","332677","334027","morph21_Oliver/Morris","19","26678","32","yes","1280","10"
"250","57.5757575758","57.5757575758","838.484848485","838.484848485","black","no","xpyriment","legacy","legacy","0","201","NA","uniform","50979","1000","0.0196159202809","0","undefined","0","0","32","32","32","0","32","32","32","NA","32","32","0","32","NA","32","32","0","32","NA","32","NA","32","0","0","32","32","0","32","32","33","/","04/09/19 12:30:03","The main experiment item","yes","FIN__BA__M21__7%3A10%3A17.osexp","C:\Users\ERP Testing Room\Desktop\Joanna\morph21","no","mono","no","18","no","white","no","yes","1080","legacy","32","32","C:/Users/ERP Testing Room/Desktop/Joanna/morph21/subject-171.csv","xpyriment","Kafkaesque Koffka","3.2.5","0","None","NA","NA","NA","NA","space","None","992","NA","NA","NA","NA","214855","992","2","legacy","1024","2","48000","-16","BA_m21","171","odd","CW_S","NOTICEABLE","2005","338444","335252","336936","216873","NA","NA","NA","NA","325964","335750","NA","334752","NA","334741","336928","2017","338694","NA","NA","335936","2006","2006","336327","334740","2006","335936","338694","morph21_Oliver/Morris","19","27670","33","yes","1280","3"
"250","55.8823529412","55.8823529412","843.029411765","843.029411765","black","no","xpyriment","legacy","legacy","0","206","NA","uniform","53100","1000","0.0188323917137","0","undefined","0","0","33","33","33","0","33","33","33","NA","33","33","0","33","NA","33","33","0","33","NA","33","NA","33","0","0","33","33","0","33","33","34","z","04/09/19 12:30:03","The main experiment item","yes","FIN__BA__M21__7%3A10%3A17.osexp","C:\Users\ERP Testing Room\Desktop\Joanna\morph21","no","mono","no","18","no","white","no","yes","1080","legacy","33","33","C:/Users/ERP Testing Room/Desktop/Joanna/morph21/subject-171.csv","xpyriment","Kafkaesque Koffka","3.2.5","0","None","NA","NA","NA","NA","space","None","993","NA","NA","NA","NA","214855","993","2","legacy","1024","2","48000","-16","BA_m21","171","odd","NW_L_SIMP","SHOOTMENT","2005","341586","339936","336936","216873","NA","NA","NA","NA","325964","340433","NA","339436","NA","339426","341579","2017","341836","NA","NA","340586","2006","2006","340978","339426","2006","340586","341836","morph21_Oliver/Morris","19","28663","34","yes","1280","16"
"200","57.1428571429","57.1428571429","843.457142857","843.457142857","black","no","xpyriment","legacy","legacy","0","201","NA","uniform","58859","1000","0.0169897551776","1","undefined","1","0","34","34","34","0","34","34","34","NA","34","34","0","34","NA","34","34","0","34","NA","34","NA","34","0","0","34","34","0","34","34","35","/","04/09/19 12:30:03","The main experiment item","yes","FIN__BA__M21__7%3A10%3A17.osexp","C:\Users\ERP Testing Room\Desktop\Joanna\morph21","no","mono","no","18","no","white","no","yes","1080","legacy","34","34","C:/Users/ERP Testing Room/Desktop/Joanna/morph21/subject-171.csv","xpyriment","Kafkaesque Koffka","3.2.5","0","/","NA","NA","NA","NA","space","/","858","NA","NA","NA","NA","214855","858","2","legacy","1024","2","48000","-16","BA_m21","171","odd","CW_S","AMUSEMENT","2005","344695","343011","336936","216873","NA","NA","NA","NA","344686","343508","NA","342511","NA","342503","344686","2017","344895","NA","NA","343694","2006","2006","344086","342503","2006","343694","344895","morph21_Oliver/Morris","20","29521","35","yes","1280","38"
"400","58.3333333333","58.3333333333","836.138888889","836.138888889","black","no","xpyriment","legacy","legacy","0","202","NA","uniform","72410","1000","0.0138102472034","1","undefined","1","0","35","35","35","0","35","35","35","NA","35","35","0","35","NA","35","35","0","35","NA","35","NA","35","0","0","35","35","0","35","35","36","/","04/09/19 12:30:03","The main experiment item","yes","FIN__BA__M21__7%3A10%3A17.osexp","C:\Users\ERP Testing Room\Desktop\Joanna\morph21","no","mono","no","18","no","white","no","yes","1080","legacy","35","35","C:/Users/ERP Testing Room/Desktop/Joanna/morph21/subject-171.csv","xpyriment","Kafkaesque Koffka","3.2.5","0","/","NA","NA","NA","NA","space","/","580","NA","NA","NA","NA","214855","580","2","legacy","1024","2","48000","-16","BA_m21","171","odd","CW_L","QUIETLY","2005","349337","346137","347829","216873","NA","NA","NA","NA","347824","346634","NA","345636","NA","345627","347824","2017","349738","NA","NA","346829","2006","2006","347229","345627","2006","346829","349738","morph21_Oliver/Morris","21","30101","36","yes","1280","36"
"400","59.4594594595","59.4594594595","831.675675676","831.675675676","black","no","xpyriment","legacy","legacy","0","202","NA","uniform","59159","1000","0.0169035987762","1","undefined","1","0","36","36","36","0","36","36","36","NA","36","36","0","36","NA","36","36","0","36","NA","36","NA","36","0","0","36","36","0","36","36","37","/","04/09/19 12:30:03","The main experiment item","yes","FIN__BA__M21__7%3A10%3A17.osexp","C:\Users\ERP Testing Room\Desktop\Joanna\morph21","no","mono","no","18","no","white","no","yes","1080","legacy","36","36","C:/Users/ERP Testing Room/Desktop/Joanna/morph21/subject-171.csv","xpyriment","Kafkaesque Koffka","3.2.5","0","/","NA","NA","NA","NA","space","/","671","NA","NA","NA","NA","214855","671","2","legacy","1024","2","48000","-16","BA_m21","171","odd","CW_L","CLEANER","2005","352554","350921","347829","216873","NA","NA","NA","NA","352547","351418","NA","350421","NA","350413","352547","2017","352954","NA","NA","351554","2006","2006","351946","350413","2006","351554","352954","morph21_Oliver/Morris","22","30772","37","yes","1280","15"
"200","57.8947368421","57.8947368421","836.026315789","836.026315789","black","no","xpyriment","legacy","legacy","0","203","NA","uniform","52984","1000","0.0188736222256","0","undefined","0","0","37","37","37","0","37","37","37","NA","37","37","0","37","NA","37","37","0","37","NA","37","NA","37","0","0","37","37","0","37","37","38","z","04/09/19 12:30:03","The main experiment item","yes","FIN__BA__M21__7%3A10%3A17.osexp","C:\Users\ERP Testing Room\Desktop\Joanna\morph21","no","mono","no","18","no","white","no","yes","1080","legacy","37","37","C:/Users/ERP Testing Room/Desktop/Joanna/morph21/subject-171.csv","xpyriment","Kafkaesque Koffka","3.2.5","0","None","NA","NA","NA","NA","space","None","997","NA","NA","NA","NA","214855","997","2","legacy","1024","2","48000","-16","BA_m21","171","odd","NW_S_COMP","HAPPENANGE","2005","355846","354179","347829","216873","NA","NA","NA","NA","352547","354676","NA","353679","NA","353673","355843","2017","356046","NA","NA","354846","2006","2006","355246","353673","2006","354846","356046","morph21_Oliver/Morris","22","31769","38","yes","1280","2"
"350","58.9743589744","58.9743589744","834.794871795","834.794871795","black","no","xpyriment","legacy","legacy","0","201","NA","uniform","62072","1000","0.0161103234953","1","undefined","1","0","38","38","38","0","38","38","38","NA","38","38","0","38","NA","38","38","0","38","NA","38","NA","38","0","0","38","38","0","38","38","39","/","04/09/19 12:30:03","The main experiment item","yes","FIN__BA__M21__7%3A10%3A17.osexp","C:\Users\ERP Testing Room\Desktop\Joanna\morph21","no","mono","no","18","no","white","no","yes","1080","legacy","38","38","C:/Users/ERP Testing Room/Desktop/Joanna/morph21/subject-171.csv","xpyriment","Kafkaesque Koffka","3.2.5","0","/","NA","NA","NA","NA","space","/","788","NA","NA","NA","NA","214855","788","2","legacy","1024","2","48000","-16","BA_m21","171","odd","CW_S","CHILLY","2005","360496","357279","358988","216873","NA","NA","NA","NA","358978","357777","NA","356779","NA","356774","358978","2017","360846","NA","NA","357988","2006","2006","358379","356774","2006","357988","360846","morph21_Oliver/Morris","23","32557","39","yes","1280","48"
"300","60","60","837.575","837.575","black","no","xpyriment","legacy","legacy","0","201","NA","uniform","53108","1000","0.0188295548693","1","undefined","1","0","39","39","39","0","39","39","39","NA","39","39","0","39","NA","39","39","0","39","NA","39","NA","39","0","0","39","39","0","39","39","40","/","04/09/19 12:30:03","The main experiment item","yes","FIN__BA__M21__7%3A10%3A17.osexp","C:\Users\ERP Testing Room\Desktop\Joanna\morph21","no","mono","no","18","no","white","no","yes","1080","legacy","39","39","C:/Users/ERP Testing Room/Desktop/Joanna/morph21/subject-171.csv","xpyriment","Kafkaesque Koffka","3.2.5","0","/","NA","NA","NA","NA","space","/","946","NA","NA","NA","NA","214855","946","2","legacy","1024","2","48000","-16","BA_m21","171","odd","CW_S","DETECTABLE","2005","363631","361963","358988","216873","NA","NA","NA","NA","363628","362460","NA","361455","NA","361444","363628","2017","363931","NA","NA","362638","2006","2006","363030","361444","2006","362638","363931","morph21_Oliver/Morris","24","33503","40","yes","1280","1"
"250","60.9756097561","60.9756097561","831.682926829","831.682926829","black","no","xpyriment","legacy","legacy","0","207","NA","uniform","59766","1000","0.0167319211592","1","undefined","1","0","40","40","40","0","40","40","40","NA","40","40","0","40","NA","40","40","0","40","NA","40","NA","40","0","0","40","40","0","40","40","41","/","04/09/19 12:30:03","The main experiment item","yes","FIN__BA__M21__7%3A10%3A17.osexp","C:\Users\ERP Testing Room\Desktop\Joanna\morph21","no","mono","no","18","no","white","no","yes","1080","legacy","40","40","C:/Users/ERP Testing Room/Desktop/Joanna/morph21/subject-171.csv","xpyriment","Kafkaesque Koffka","3.2.5","0","/","NA","NA","NA","NA","space","/","596","NA","NA","NA","NA","214855","596","2","legacy","1024","2","48000","-16","BA_m21","171","odd","FILL_W","TREAT","2005","366781","365089","358988","216873","NA","NA","NA","NA","366772","365586","NA","364589","NA","364578","366772","2017","367031","NA","NA","365781","2006","2006","366172","364578","2006","365781","367031","morph21_Oliver/Morris","25","34099","41","yes","1280","48"
"250","61.9047619048","61.9047619048","833.547619048","833.547619048","black","no","xpyriment","legacy","legacy","0","205","NA","uniform","53994","1000","0.0185205763603","1","undefined","1","0","41","41","41","0","41","41","41","NA","41","41","0","41","NA","41","41","0","41","NA","41","NA","41","0","0","41","41","0","41","41","42","z","04/09/19 12:30:03","The main experiment item","yes","FIN__BA__M21__7%3A10%3A17.osexp","C:\Users\ERP Testing Room\Desktop\Joanna\morph21","no","mono","no","18","no","white","no","yes","1080","legacy","41","41","C:/Users/ERP Testing Room/Desktop/Joanna/morph21/subject-171.csv","xpyriment","Kafkaesque Koffka","3.2.5","0","z","NA","NA","NA","NA","space","z","910","NA","NA","NA","NA","214855","910","2","legacy","1024","2","48000","-16","BA_m21","171","odd","NW_S_SIMP","ZOOMFUL","2005","371448","368264","369939","216873","NA","NA","NA","NA","369935","368761","NA","367764","NA","367760","369935","2017","371698","NA","NA","368939","2006","2006","369339","367760","2006","368939","371698","morph21_Oliver/Morris","26","35009","42","yes","1280","19"
"400","62.7906976744","62.7906976744","835.418604651","835.418604651","black","no","xpyriment","legacy","legacy","0","206","NA","uniform","55701","1000","0.0179529990485","1","undefined","1","0","42","42","42","0","42","42","42","NA","42","42","0","42","NA","42","42","0","42","NA","42","NA","42","0","0","42","42","0","42","42","43","z","04/09/19 12:30:03","The main experiment item","yes","FIN__BA__M21__7%3A10%3A17.osexp","C:\Users\ERP Testing Room\Desktop\Joanna\morph21","no","mono","no","18","no","white","no","yes","1080","legacy","42","42","C:/Users/ERP Testing Room/Desktop/Joanna/morph21/subject-171.csv","xpyriment","Kafkaesque Koffka","3.2.5","0","z","NA","NA","NA","NA","space","z","914","NA","NA","NA","NA","214855","914","2","legacy","1024","2","48000","-16","BA_m21","171","odd","NW_L_SIMP","BOGARY","2005","374431","372789","369939","216873","NA","NA","NA","NA","374428","373287","NA","372289","NA","372284","374428","2017","374831","NA","NA","373439","2006","2006","373831","372284","2006","373439","374831","morph21_Oliver/Morris","27","35923","43","yes","1280","2"
"300","61.3636363636","61.3636363636","839.045454545","839.045454545","black","no","xpyriment","legacy","legacy","0","206","NA","uniform","54157","1000","0.0184648337242","0","undefined","0","0","43","43","43","0","43","43","43","NA","43","43","0","43","NA","43","43","0","43","NA","43","NA","43","0","0","43","43","0","43","43","44","z","04/09/19 12:30:03","The main experiment item","yes","FIN__BA__M21__7%3A10%3A17.osexp","C:\Users\ERP Testing Room\Desktop\Joanna\morph21","no","mono","no","18","no","white","no","yes","1080","legacy","43","43","C:/Users/ERP Testing Room/Desktop/Joanna/morph21/subject-171.csv","xpyriment","Kafkaesque Koffka","3.2.5","0","None","NA","NA","NA","NA","space","None","995","NA","NA","NA","NA","214855","995","2","legacy","1024","2","48000","-16","BA_m21","171","odd","NW_L_SIMP","BEANISH","2005","377715","376056","369939","216873","NA","NA","NA","NA","374428","376553","NA","375556","NA","375553","377710","2017","378015","NA","NA","376715","2006","2006","377115","375553","2006","376715","378015","morph21_Oliver/Morris","27","36918","44","yes","1280","8"
"400","62.2222222222","62.2222222222","834.911111111","834.911111111","black","no","xpyriment","legacy","legacy","0","202","NA","uniform","65045","1000","0.0153739718656","1","undefined","1","0","44","44","44","0","44","44","44","NA","44","44","0","44","NA","44","44","0","44","NA","44","NA","44","0","0","44","44","0","44","44","45","/","04/09/19 12:30:03","The main experiment item","yes","FIN__BA__M21__7%3A10%3A17.osexp","C:\Users\ERP Testing Room\Desktop\Joanna\morph21","no","mono","no","18","no","white","no","yes","1080","legacy","44","44","C:/Users/ERP Testing Room/Desktop/Joanna/morph21/subject-171.csv","xpyriment","Kafkaesque Koffka","3.2.5","0","/","NA","NA","NA","NA","space","/","653","NA","NA","NA","NA","214855","653","2","legacy","1024","2","48000","-16","BA_m21","171","odd","CW_L","SHAPELY","2005","382441","379206","380931","216873","NA","NA","NA","NA","380921","379704","NA","378706","NA","378700","380921","2017","382841","NA","NA","379931","2006","2006","380323","378700","2006","379931","382841","morph21_Oliver/Morris","28","37571","45","yes","1280","35"
"400","63.0434782609","63.0434782609","830.217391304","830.217391304","black","no","xpyriment","legacy","legacy","0","201","NA","uniform","61672","1000","0.0162148138539","1","undefined","1","0","45","45","45","0","45","45","45","NA","45","45","0","45","NA","45","45","0","45","NA","45","NA","45","0","0","45","45","0","45","45","46","/","04/09/19 12:30:03","The main experiment item","yes","FIN__BA__M21__7%3A10%3A17.osexp","C:\Users\ERP Testing Room\Desktop\Joanna\morph21","no","mono","no","18","no","white","no","yes","1080","legacy","45","45","C:/Users/ERP Testing Room/Desktop/Joanna/morph21/subject-171.csv","xpyriment","Kafkaesque Koffka","3.2.5","0","/","NA","NA","NA","NA","space","/","619","NA","NA","NA","NA","214855","619","2","legacy","1024","2","48000","-16","BA_m21","171","odd","CW_S","RAIDER","2005","385758","384041","380931","216873","NA","NA","NA","NA","385751","384538","NA","383541","NA","383530","385751","2017","386158","NA","NA","384758","2006","2006","385149","383530","2006","384758","386158","morph21_Oliver/Morris","29","38190","46","yes","1280","12"
"400","63.829787234","63.829787234","827.14893617","827.14893617","black","no","xpyriment","legacy","legacy","0","201","NA","uniform","62485","1000","0.0160038409218","1","undefined","1","0","46","46","46","0","46","46","46","NA","46","46","0","46","NA","46","46","0","46","NA","46","NA","46","0","0","46","46","0","46","46","47","/","04/09/19 12:30:03","The main experiment item","yes","FIN__BA__M21__7%3A10%3A17.osexp","C:\Users\ERP Testing Room\Desktop\Joanna\morph21","no","mono","no","18","no","white","no","yes","1080","legacy","46","46","C:/Users/ERP Testing Room/Desktop/Joanna/morph21/subject-171.csv","xpyriment","Kafkaesque Koffka","3.2.5","0","/","NA","NA","NA","NA","space","/","686","NA","NA","NA","NA","214855","686","2","legacy","1024","2","48000","-16","BA_m21","171","odd","CW_S","WIDOWED","2005","389099","387458","380931","216873","NA","NA","NA","NA","389095","387955","NA","386958","NA","386947","389095","2017","389499","NA","NA","388099","2006","2006","388499","386947","2006","388099","389499","morph21_Oliver/Morris","30","38876","47","yes","1280","7"
"400","64.5833333333","64.5833333333","823.625","823.625","black","no","xpyriment","legacy","legacy","0","201","NA","uniform","61641","1000","0.0162229684788","1","undefined","1","0","47","47","47","0","47","47","47","NA","47","47","0","47","NA","47","47","0","47","NA","47","NA","47","0","0","47","47","0","47","47","48","/","04/09/19 12:30:03","The main experiment item","yes","FIN__BA__M21__7%3A10%3A17.osexp","C:\Users\ERP Testing Room\Desktop\Joanna\morph21","no","mono","no","18","no","white","no","yes","1080","legacy","47","47","C:/Users/ERP Testing Room/Desktop/Joanna/morph21/subject-171.csv","xpyriment","Kafkaesque Koffka","3.2.5","0","/","NA","NA","NA","NA","space","/","658","NA","NA","NA","NA","214855","658","2","legacy","1024","2","48000","-16","BA_m21","171","odd","CW_S","DIETARY","2005","393883","390658","392375","216873","NA","NA","NA","NA","392365","391155","NA","390158","NA","390148","392365","2017","394283","NA","NA","391375","2006","2006","391766","390148","2006","391375","394283","morph21_Oliver/Morris","31","39534","48","yes","1280","6"
"300","65.306122449","65.306122449","818.448979592","818.448979592","black","no","xpyriment","legacy","legacy","0","201","NA","uniform","67797","1000","0.014749915188","1","undefined","1","0","48","48","48","0","48","48","48","NA","48","48","0","48","NA","48","48","0","48","NA","48","NA","48","0","0","48","48","0","48","48","49","/","04/09/19 12:30:03","The main experiment item","yes","FIN__BA__M21__7%3A10%3A17.osexp","C:\Users\ERP Testing Room\Desktop\Joanna\morph21","no","mono","no","18","no","white","no","yes","1080","legacy","48","48","C:/Users/ERP Testing Room/Desktop/Joanna/morph21/subject-171.csv","xpyriment","Kafkaesque Koffka","3.2.5","0","/","NA","NA","NA","NA","space","/","570","NA","NA","NA","NA","214855","570","2","legacy","1024","2","48000","-16","BA_m21","171","odd","CW_S","RISKY","2005","397150","395500","392375","216873","NA","NA","NA","NA","397142","395997","NA","395000","NA","394990","397142","2017","397450","NA","NA","396150","2006","2006","396541","394990","2006","396150","397450","morph21_Oliver/Morris","32","40104","49","yes","1280","50"
"300","66","66","819.08","819.08","black","no","xpyriment","legacy","legacy","0","208","NA","uniform","58163","1000","0.0171930608806","1","undefined","1","0","49","49","49","0","49","49","49","NA","49","49","0","49","NA","49","49","0","49","NA","49","NA","49","0","0","49","49","0","49","49","50","z","04/09/19 12:30:03","The main experiment item","yes","FIN__BA__M21__7%3A10%3A17.osexp","C:\Users\ERP Testing Room\Desktop\Joanna\morph21","no","mono","no","18","no","white","no","yes","1080","legacy","49","49","C:/Users/ERP Testing Room/Desktop/Joanna/morph21/subject-171.csv","xpyriment","Kafkaesque Koffka","3.2.5","0","z","NA","NA","NA","NA","space","z","850","NA","NA","NA","NA","214855","850","2","legacy","1024","2","48000","-16","BA_m21","171","odd","FILL_NW","BAFED","2005","400343","398659","392375","216873","NA","NA","NA","NA","400333","399156","NA","398158","NA","398147","400333","2017","400643","NA","NA","399343","2006","2006","399734","398147","2006","399342","400643","morph21_Oliver/Morris","33","40954","50","yes","1280","1"
"250","66.6666666667","66.6666666667","816.098039216","816.098039216","black","no","xpyriment","legacy","legacy","0","207","NA","uniform","63347","1000","0.0157860672171","1","undefined","1","0","50","50","50","0","50","50","50","NA","50","50","0","50","NA","50","50","0","50","NA","50","NA","50","0","0","50","50","0","50","50","51","/","04/09/19 12:30:03","The main experiment item","yes","FIN__BA__M21__7%3A10%3A17.osexp","C:\Users\ERP Testing Room\Desktop\Joanna\morph21","no","mono","no","18","no","white","no","yes","1080","legacy","50","50","C:/Users/ERP Testing Room/Desktop/Joanna/morph21/subject-171.csv","xpyriment","Kafkaesque Koffka","3.2.5","0","/","NA","NA","NA","NA","space","/","667","NA","NA","NA","NA","214855","667","2","legacy","1024","2","48000","-16","BA_m21","171","odd","FILL_W","SOUGHT","2005","405034","401843","403526","216873","NA","NA","NA","NA","403520","402340","NA","401343","NA","401337","403520","2017","405285","NA","NA","402526","2006","2006","402918","401337","2006","402526","405285","morph21_Oliver/Morris","34","41621","51","yes","1280","40"
"400","65.3846153846","65.3846153846","819.519230769","819.519230769","black","no","xpyriment","legacy","legacy","0","208","NA","uniform","50731","1000","0.0197118132897","0","undefined","0","0","51","51","51","0","51","51","51","NA","51","51","0","51","NA","51","51","0","51","NA","51","NA","51","0","0","51","51","0","51","51","52","z","04/09/19 12:30:03","The main experiment item","yes","FIN__BA__M21__7%3A10%3A17.osexp","C:\Users\ERP Testing Room\Desktop\Joanna\morph21","no","mono","no","18","no","white","no","yes","1080","legacy","51","51","C:/Users/ERP Testing Room/Desktop/Joanna/morph21/subject-171.csv","xpyriment","Kafkaesque Koffka","3.2.5","0","None","NA","NA","NA","NA","space","None","994","NA","NA","NA","NA","214855","994","2","legacy","1024","2","48000","-16","BA_m21","171","odd","FILL_NW","FROES","2005","408151","406435","403526","216873","NA","NA","NA","NA","403520","406932","NA","405934","NA","405926","408145","2017","408551","NA","NA","407151","2006","2006","407543","405926","2006","407151","408551","morph21_Oliver/Morris","34","42615","52","yes","1280","21"
"250","66.0377358491","66.0377358491","817","817","black","no","xpyriment","legacy","legacy","0","201","NA","uniform","57367","1000","0.0174316244531","1","undefined","1","0","52","52","52","0","52","52","52","NA","52","52","0","52","NA","52","52","0","52","NA","52","NA","52","0","0","52","52","0","52","52","53","/","04/09/19 12:30:03","The main experiment item","yes","FIN__BA__M21__7%3A10%3A17.osexp","C:\Users\ERP Testing Room\Desktop\Joanna\morph21","no","mono","no","18","no","white","no","yes","1080","legacy","52","52","C:/Users/ERP Testing Room/Desktop/Joanna/morph21/subject-171.csv","xpyriment","Kafkaesque Koffka","3.2.5","0","/","NA","NA","NA","NA","space","/","686","NA","NA","NA","NA","214855","686","2","legacy","1024","2","48000","-16","BA_m21","171","odd","CW_S","JAILER","2005","411410","409718","403526","216873","NA","NA","NA","NA","411406","410215","NA","409218","NA","409210","411406","2017","411660","NA","NA","410410","2006","2006","410810","409210","2006","410410","411660","morph21_Oliver/Morris","35","43301","53","yes","1280","13"
"350","64.8148148148","64.8148148148","820.203703704","820.203703704","black","no","xpyriment","legacy","legacy","0","208","NA","uniform","52209","1000","0.0191537857458","0","undefined","0","0","53","53","53","0","53","53","53","NA","53","53","0","53","NA","53","53","0","53","NA","53","NA","53","0","0","53","53","0","53","53","54","z","04/09/19 12:30:03","The main experiment item","yes","FIN__BA__M21__7%3A10%3A17.osexp","C:\Users\ERP Testing Room\Desktop\Joanna\morph21","no","mono","no","18","no","white","no","yes","1080","legacy","53","53","C:/Users/ERP Testing Room/Desktop/Joanna/morph21/subject-171.csv","xpyriment","Kafkaesque Koffka","3.2.5","0","None","NA","NA","NA","NA","space","None","990","NA","NA","NA","NA","214855","990","2","legacy","1024","2","48000","-16","BA_m21","171","odd","FILL_NW","KRAISE","2005","416068","412901","414560","216873","NA","NA","NA","NA","411406","413399","NA","412401","NA","412391","414550","2017","416418","NA","NA","413560","2006","2006","413952","412391","2006","413560","416418","morph21_Oliver/Morris","35","44291","54","yes","1280","33"
"300","63.6363636364","63.6363636364","823.290909091","823.290909091","black","no","xpyriment","legacy","legacy","0","205","NA","uniform","54851","1000","0.0182312081822","0","undefined","0","0","54","54","54","0","54","54","54","NA","54","54","0","54","NA","54","54","0","54","NA","54","NA","54","0","0","54","54","0","54","54","55","z","04/09/19 12:30:03","The main experiment item","yes","FIN__BA__M21__7%3A10%3A17.osexp","C:\Users\ERP Testing Room\Desktop\Joanna\morph21","no","mono","no","18","no","white","no","yes","1080","legacy","54","54","C:/Users/ERP Testing Room/Desktop/Joanna/morph21/subject-171.csv","xpyriment","Kafkaesque Koffka","3.2.5","0","None","NA","NA","NA","NA","space","None","990","NA","NA","NA","NA","214855","990","2","legacy","1024","2","48000","-16","BA_m21","171","odd","NW_S_SIMP","HEIRIC","2005","419294","417603","414560","216873","NA","NA","NA","NA","411406","418100","NA","417103","NA","417093","419285","2017","419594","NA","NA","418294","2006","2006","418686","417093","2006","418294","419594","morph21_Oliver/Morris","35","45281","55","yes","1280","3"
"200","64.2857142857","64.2857142857","820.785714286","820.785714286","black","no","xpyriment","legacy","legacy","0","207","NA","uniform","60045","1000","0.0166541760346","1","undefined","1","0","55","55","55","0","55","55","55","NA","55","55","0","55","NA","55","55","0","55","NA","55","NA","55","0","0","55","55","0","55","55","56","/","04/09/19 12:30:03","The main experiment item","yes","FIN__BA__M21__7%3A10%3A17.osexp","C:\Users\ERP Testing Room\Desktop\Joanna\morph21","no","mono","no","18","no","white","no","yes","1080","legacy","55","55","C:/Users/ERP Testing Room/Desktop/Joanna/morph21/subject-171.csv","xpyriment","Kafkaesque Koffka","3.2.5","0","/","NA","NA","NA","NA","space","/","683","NA","NA","NA","NA","214855","683","2","legacy","1024","2","48000","-16","BA_m21","171","odd","FILL_W","TEST","2005","422486","420786","414560","216873","NA","NA","NA","NA","422482","421283","NA","420286","NA","420276","422482","2017","422686","NA","NA","421494","2006","2006","421886","420276","2006","421494","422686","morph21_Oliver/Morris","36","45964","56","yes","1280","47"
"300","63.1578947368","63.1578947368","823.789473684","823.789473684","black","no","xpyriment","legacy","legacy","0","201","NA","uniform","52741","1000","0.0189605809522","0","undefined","0","0","56","56","56","0","56","56","56","NA","56","56","0","56","NA","56","56","0","56","NA","56","NA","56","0","0","56","56","0","56","56","57","/","04/09/19 12:30:03","The main experiment item","yes","FIN__BA__M21__7%3A10%3A17.osexp","C:\Users\ERP Testing Room\Desktop\Joanna\morph21","no","mono","no","18","no","white","no","yes","1080","legacy","56","56","C:/Users/ERP Testing Room/Desktop/Joanna/morph21/subject-171.csv","xpyriment","Kafkaesque Koffka","3.2.5","0","None","NA","NA","NA","NA","space","None","992","NA","NA","NA","NA","214855","992","2","legacy","1024","2","48000","-16","BA_m21","171","odd","CW_S","GUILTY","2005","427120","423961","425611","216873","NA","NA","NA","NA","422482","424458","NA","423461","NA","423452","425603","2017","427420","NA","NA","424611","2006","2006","425003","423452","2006","424611","427420","morph21_Oliver/Morris","36","46956","57","yes","1280","34"
"300","63.7931034483","63.7931034483","821.706896552","821.706896552","black","no","xpyriment","legacy","legacy","0","202","NA","uniform","60944","1000","0.0164085061696","1","undefined","1","0","57","57","57","0","57","57","57","NA","57","57","0","57","NA","57","57","0","57","NA","57","NA","57","0","0","57","57","0","57","57","58","/","04/09/19 12:30:03","The main experiment item","yes","FIN__BA__M21__7%3A10%3A17.osexp","C:\Users\ERP Testing Room\Desktop\Joanna\morph21","no","mono","no","18","no","white","no","yes","1080","legacy","57","57","C:/Users/ERP Testing Room/Desktop/Joanna/morph21/subject-171.csv","xpyriment","Kafkaesque Koffka","3.2.5","0","/","NA","NA","NA","NA","space","/","703","NA","NA","NA","NA","214855","703","2","legacy","1024","2","48000","-16","BA_m21","171","odd","CW_L","DOUBTFUL","2005","430337","428645","425611","216873","NA","NA","NA","NA","430327","429142","NA","428145","NA","428135","430327","2017","430637","NA","NA","429337","2006","2006","429728","428135","2006","429337","430637","morph21_Oliver/Morris","37","47659","58","yes","1280","21"
"300","64.406779661","64.406779661","822.389830508","822.389830508","black","no","xpyriment","legacy","legacy","0","206","NA","uniform","59112","1000","0.0169170388415","1","undefined","1","0","58","58","58","0","58","58","58","NA","58","58","0","58","NA","58","58","0","58","NA","58","NA","58","0","0","58","58","0","58","58","59","z","04/09/19 12:30:03","The main experiment item","yes","FIN__BA__M21__7%3A10%3A17.osexp","C:\Users\ERP Testing Room\Desktop\Joanna\morph21","no","mono","no","18","no","white","no","yes","1080","legacy","58","58","C:/Users/ERP Testing Room/Desktop/Joanna/morph21/subject-171.csv","xpyriment","Kafkaesque Koffka","3.2.5","0","z","NA","NA","NA","NA","space","z","862","NA","NA","NA","NA","214855","862","2","legacy","1024","2","48000","-16","BA_m21","171","odd","NW_L_SIMP","BANDARY","2005","433571","431870","425611","216873","NA","NA","NA","NA","433567","432367","NA","431370","NA","431359","433567","2017","433871","NA","NA","432578","2006","2006","432970","431359","2006","432578","433871","morph21_Oliver/Morris","38","48521","59","yes","1280","3"
"250","65","65","819.016666667","819.016666667","black","no","xpyriment","legacy","legacy","0","207","NA","uniform","65821","1000","0.0151927196487","1","undefined","1","0","59","59","59","0","59","59","59","NA","59","59","0","59","NA","59","59","0","59","NA","59","NA","59","0","0","59","59","0","59","59","60","/","04/09/19 12:30:03","The main experiment item","yes","FIN__BA__M21__7%3A10%3A17.osexp","C:\Users\ERP Testing Room\Desktop\Joanna\morph21","no","mono","no","18","no","white","no","yes","1080","legacy","59","59","C:/Users/ERP Testing Room/Desktop/Joanna/morph21/subject-171.csv","xpyriment","Kafkaesque Koffka","3.2.5","0","/","NA","NA","NA","NA","space","/","620","NA","NA","NA","NA","214855","620","2","legacy","1024","2","48000","-16","BA_m21","171","odd","FILL_W","FIERCE","2005","438330","435146","436821","216873","NA","NA","NA","NA","436813","435643","NA","434646","NA","434635","436813","2017","438580","NA","NA","435821","2006","2006","436213","434635","2006","435821","438580","morph21_Oliver/Morris","39","49141","60","yes","1280","24"
"300","65.5737704918","65.5737704918","821.524590164","821.524590164","black","no","xpyriment","legacy","legacy","0","206","NA","uniform","51749","1000","0.0193240449091","1","undefined","1","0","60","60","60","0","60","60","60","NA","60","60","0","60","NA","60","60","0","60","NA","60","NA","60","0","0","60","60","0","60","60","61","z","04/09/19 12:30:03","The main experiment item","yes","FIN__BA__M21__7%3A10%3A17.osexp","C:\Users\ERP Testing Room\Desktop\Joanna\morph21","no","mono","no","18","no","white","no","yes","1080","legacy","60","60","C:/Users/ERP Testing Room/Desktop/Joanna/morph21/subject-171.csv","xpyriment","Kafkaesque Koffka","3.2.5","0","z","NA","NA","NA","NA","space","z","972","NA","NA","NA","NA","214855","972","2","legacy","1024","2","48000","-16","BA_m21","171","odd","NW_L_SIMP","EARIST","2005","441413","439738","436821","216873","NA","NA","NA","NA","441405","440235","NA","439238","NA","439228","441405","2017","441713","NA","NA","440413","2006","2006","440805","439228","2006","440413","441713","morph21_Oliver/Morris","40","50113","61","yes","1280","12"
"350","64.5161290323","64.5161290323","824.274193548","824.274193548","black","no","xpyriment","legacy","legacy","0","203","NA","uniform","51412","1000","0.0194507118961","0","undefined","0","0","61","61","61","0","61","61","61","NA","61","61","0","61","NA","61","61","0","61","NA","61","NA","61","0","0","61","61","0","61","61","62","z","04/09/19 12:30:03","The main experiment item","yes","FIN__BA__M21__7%3A10%3A17.osexp","C:\Users\ERP Testing Room\Desktop\Joanna\morph21","no","mono","no","18","no","white","no","yes","1080","legacy","61","61","C:/Users/ERP Testing Room/Desktop/Joanna/morph21/subject-171.csv","xpyriment","Kafkaesque Koffka","3.2.5","0","None","NA","NA","NA","NA","space","None","992","NA","NA","NA","NA","214855","992","2","legacy","1024","2","48000","-16","BA_m21","171","odd","NW_S_COMP","PRINCEMANT","2005","444596","442905","436821","216873","NA","NA","NA","NA","441405","443402","NA","442405","NA","442399","444588","2017","444946","NA","NA","443596","2006","2006","443988","442399","2006","443596","444946","morph21_Oliver/Morris","40","51105","62","yes","1280","17"
"300","65.0793650794","65.0793650794","822.507936508","822.507936508","black","no","xpyriment","legacy","legacy","0","202","NA","uniform","59640","1000","0.0167672702884","1","undefined","1","0","62","62","62","0","62","62","62","NA","62","62","0","62","NA","62","62","0","62","NA","62","NA","62","0","0","62","62","0","62","62","63","/","04/09/19 12:30:03","The main experiment item","yes","FIN__BA__M21__7%3A10%3A17.osexp","C:\Users\ERP Testing Room\Desktop\Joanna\morph21","no","mono","no","18","no","white","no","yes","1080","legacy","62","62","C:/Users/ERP Testing Room/Desktop/Joanna/morph21/subject-171.csv","xpyriment","Kafkaesque Koffka","3.2.5","0","/","NA","NA","NA","NA","space","/","713","NA","NA","NA","NA","214855","713","2","legacy","1024","2","48000","-16","BA_m21","171","odd","CW_L","MADNESS","2005","449363","446197","447855","216873","NA","NA","NA","NA","447852","446694","NA","445697","NA","445686","447852","2017","449664","NA","NA","446863","2006","2006","447255","445686","2006","446863","449664","morph21_Oliver/Morris","41","51818","63","yes","1280","41"
"300","65.625","65.625","819.90625","819.90625","black","no","xpyriment","legacy","legacy","0","207","NA","uniform","62329","1000","0.0160438960997","1","undefined","1","0","63","63","63","0","63","63","63","NA","63","63","0","63","NA","63","63","0","63","NA","63","NA","63","0","0","63","63","0","63","63","64","/","04/09/19 12:30:03","The main experiment item","yes","FIN__BA__M21__7%3A10%3A17.osexp","C:\Users\ERP Testing Room\Desktop\Joanna\morph21","no","mono","no","18","no","white","no","yes","1080","legacy","63","63","C:/Users/ERP Testing Room/Desktop/Joanna/morph21/subject-171.csv","xpyriment","Kafkaesque Koffka","3.2.5","0","/","NA","NA","NA","NA","space","/","656","NA","NA","NA","NA","214855","656","2","legacy","1024","2","48000","-16","BA_m21","171","odd","FILL_W","BLUNT","2005","452489","450813","447855","216873","NA","NA","NA","NA","452483","451311","NA","450313","NA","450303","452483","2017","452789","NA","NA","451489","2006","2006","451881","450303","2006","451489","452789","morph21_Oliver/Morris","42","52474","64","yes","1280","4"
"300","64.6153846154","64.6153846154","822.569230769","822.569230769","black","no","xpyriment","legacy","legacy","0","208","NA","uniform","56149","1000","0.0178097561844","0","undefined","0","0","64","64","64","0","64","64","64","NA","64","64","0","64","NA","64","64","0","64","NA","64","NA","64","0","0","64","64","0","64","64","65","z","04/09/19 12:30:03","The main experiment item","yes","FIN__BA__M21__7%3A10%3A17.osexp","C:\Users\ERP Testing Room\Desktop\Joanna\morph21","no","mono","no","18","no","white","no","yes","1080","legacy","64","64","C:/Users/ERP Testing Room/Desktop/Joanna/morph21/subject-171.csv","xpyriment","Kafkaesque Koffka","3.2.5","0","None","NA","NA","NA","NA","space","None","993","NA","NA","NA","NA","214855","993","2","legacy","1024","2","48000","-16","BA_m21","171","odd","FILL_NW","TREMP","2005","455731","454048","447855","216873","NA","NA","NA","NA","452483","454545","NA","453548","NA","453543","455725","2017","456031","NA","NA","454731","2006","2006","455123","453543","2006","454731","456031","morph21_Oliver/Morris","42","53467","65","yes","1280","20"
"200","65.1515151515","65.1515151515","819.803030303","819.803030303","black","no","xpyriment","legacy","legacy","0","202","NA","uniform","60680","1000","0.0164798945287","1","undefined","1","0","65","65","65","0","65","65","65","NA","65","65","0","65","NA","65","65","0","65","NA","65","NA","65","0","0","65","65","0","65","65","66","/","04/09/19 12:30:03","The main experiment item","yes","FIN__BA__M21__7%3A10%3A17.osexp","C:\Users\ERP Testing Room\Desktop\Joanna\morph21","no","mono","no","18","no","white","no","yes","1080","legacy","65","65","C:/Users/ERP Testing Room/Desktop/Joanna/morph21/subject-171.csv","xpyriment","Kafkaesque Koffka","3.2.5","0","/","NA","NA","NA","NA","space","/","640","NA","NA","NA","NA","214855","640","2","legacy","1024","2","48000","-16","BA_m21","171","odd","CW_L","SHAMEFUL","2005","460373","457215","458865","216873","NA","NA","NA","NA","458861","457712","NA","456715","NA","456704","458861","2017","460573","NA","NA","457865","2006","2006","458265","456704","2006","457865","460573","morph21_Oliver/Morris","43","54107","66","yes","1280","19"
"300","65.671641791","65.671641791","822.208955224","822.208955224","black","no","xpyriment","legacy","legacy","0","208","NA","uniform","55022","1000","0.0181745483625","1","undefined","1","0","66","66","66","0","66","66","66","NA","66","66","0","66","NA","66","66","0","66","NA","66","NA","66","0","0","66","66","0","66","66","67","z","04/09/19 12:30:03","The main experiment item","yes","FIN__BA__M21__7%3A10%3A17.osexp","C:\Users\ERP Testing Room\Desktop\Joanna\morph21","no","mono","no","18","no","white","no","yes","1080","legacy","66","66","C:/Users/ERP Testing Room/Desktop/Joanna/morph21/subject-171.csv","xpyriment","Kafkaesque Koffka","3.2.5","0","z","NA","NA","NA","NA","space","z","981","NA","NA","NA","NA","214855","981","2","legacy","1024","2","48000","-16","BA_m21","171","odd","FILL_NW","VOGS","2005","463523","461807","458865","216873","NA","NA","NA","NA","463515","462304","NA","461307","NA","461302","463515","2017","463823","NA","NA","462523","2006","2006","462915","461302","2006","462523","463823","morph21_Oliver/Morris","44","55088","67","yes","1280","47"
"300","66.1764705882","66.1764705882","823.676470588","823.676470588","black","no","xpyriment","legacy","legacy","0","206","NA","uniform","51533","1000","0.0194050414298","1","undefined","1","0","67","67","67","0","67","67","67","NA","67","67","0","67","NA","67","67","0","67","NA","67","NA","67","0","0","67","67","0","67","67","68","z","04/09/19 12:30:03","The main experiment item","yes","FIN__BA__M21__7%3A10%3A17.osexp","C:\Users\ERP Testing Room\Desktop\Joanna\morph21","no","mono","no","18","no","white","no","yes","1080","legacy","67","67","C:/Users/ERP Testing Room/Desktop/Joanna/morph21/subject-171.csv","xpyriment","Kafkaesque Koffka","3.2.5","0","z","NA","NA","NA","NA","space","z","922","NA","NA","NA","NA","214855","922","2","legacy","1024","2","48000","-16","BA_m21","171","odd","NW_L_SIMP","BEGENCE","2005","466773","465065","458865","216873","NA","NA","NA","NA","466770","465562","NA","464565","NA","464558","466770","2017","467073","NA","NA","465782","2006","2006","466173","464558","2006","465782","467073","morph21_Oliver/Morris","45","56010","68","yes","1280","4"
"350","65.2173913043","65.2173913043","826.173913043","826.173913043","black","no","xpyriment","legacy","legacy","0","208","NA","uniform","51366","1000","0.0194681306701","0","undefined","0","0","68","68","68","0","68","68","68","NA","68","68","0","68","NA","68","68","0","68","NA","68","NA","68","0","0","68","68","0","68","68","69","z","04/09/19 12:30:03","The main experiment item","yes","FIN__BA__M21__7%3A10%3A17.osexp","C:\Users\ERP Testing Room\Desktop\Joanna\morph21","no","mono","no","18","no","white","no","yes","1080","legacy","68","68","C:/Users/ERP Testing Room/Desktop/Joanna/morph21/subject-171.csv","xpyriment","Kafkaesque Koffka","3.2.5","0","None","NA","NA","NA","NA","space","None","996","NA","NA","NA","NA","214855","996","2","legacy","1024","2","48000","-16","BA_m21","171","odd","FILL_NW","DASP","2005","471558","468357","470050","216873","NA","NA","NA","NA","466770","468854","NA","467857","NA","467851","470046","2017","471908","NA","NA","469050","2006","2006","469450","467851","2006","469050","471908","morph21_Oliver/Morris","45","57006","69","yes","1280","13"
"400","65.7142857143","65.7142857143","825.042857143","825.042857143","black","no","xpyriment","legacy","legacy","0","207","NA","uniform","65284","1000","0.0153176888671","1","undefined","1","0","69","69","69","0","69","69","69","NA","69","69","0","69","NA","69","69","0","69","NA","69","NA","69","0","0","69","69","0","69","69","70","/","04/09/19 12:30:03","The main experiment item","yes","FIN__BA__M21__7%3A10%3A17.osexp","C:\Users\ERP Testing Room\Desktop\Joanna\morph21","no","mono","no","18","no","white","no","yes","1080","legacy","69","69","C:/Users/ERP Testing Room/Desktop/Joanna/morph21/subject-171.csv","xpyriment","Kafkaesque Koffka","3.2.5","0","/","NA","NA","NA","NA","space","/","747","NA","NA","NA","NA","214855","747","2","legacy","1024","2","48000","-16","BA_m21","171","odd","FILL_W","DRUNK","2005","474750","473066","470050","216873","NA","NA","NA","NA","474744","473564","NA","472566","NA","472558","474744","2017","475150","NA","NA","473750","2006","2006","474141","472558","2006","473750","475150","morph21_Oliver/Morris","46","57753","70","yes","1280","19"
"300","66.1971830986","66.1971830986","822.633802817","822.633802817","black","no","xpyriment","legacy","legacy","0","207","NA","uniform","63313","1000","0.0157945445643","1","undefined","1","0","70","70","70","0","70","70","70","NA","70","70","0","70","NA","70","70","0","70","NA","70","NA","70","0","0","70","70","0","70","70","71","/","04/09/19 12:30:03","The main experiment item","yes","FIN__BA__M21__7%3A10%3A17.osexp","C:\Users\ERP Testing Room\Desktop\Joanna\morph21","no","mono","no","18","no","white","no","yes","1080","legacy","70","70","C:/Users/ERP Testing Room/Desktop/Joanna/morph21/subject-171.csv","xpyriment","Kafkaesque Koffka","3.2.5","0","/","NA","NA","NA","NA","space","/","654","NA","NA","NA","NA","214855","654","2","legacy","1024","2","48000","-16","BA_m21","171","odd","FILL_W","BAKE","2005","478083","476408","470050","216873","NA","NA","NA","NA","478073","476905","NA","475908","NA","475901","478073","2017","478383","NA","NA","477083","2006","2006","477475","475901","2006","477083","478383","morph21_Oliver/Morris","47","58407","71","yes","1280","29"
"350","66.6666666667","66.6666666667","822.680555556","822.680555556","black","no","xpyriment","legacy","legacy","0","208","NA","uniform","61527","1000","0.0162530271263","1","undefined","1","0","71","71","71","0","71","71","71","NA","71","71","0","71","NA","71","71","0","71","NA","71","NA","71","0","0","71","71","0","71","71","72","z","04/09/19 12:30:03","The main experiment item","yes","FIN__BA__M21__7%3A10%3A17.osexp","C:\Users\ERP Testing Room\Desktop\Joanna\morph21","no","mono","no","18","no","white","no","yes","1080","legacy","71","71","C:/Users/ERP Testing Room/Desktop/Joanna/morph21/subject-171.csv","xpyriment","Kafkaesque Koffka","3.2.5","0","z","NA","NA","NA","NA","space","z","826","NA","NA","NA","NA","214855","826","2","legacy","1024","2","48000","-16","BA_m21","171","odd","FILL_NW","JADS","2005","482892","479667","481383","216873","NA","NA","NA","NA","481378","480164","NA","479167","NA","479156","481378","2017","483242","NA","NA","480383","2006","2006","480775","479156","2006","480383","483242","morph21_Oliver/Morris","48","59233","72","yes","1280","31"
"400","65.7534246575","65.7534246575","824.98630137","824.98630137","black","no","xpyriment","legacy","legacy","0","206","NA","uniform","53585","1000","0.0186619389755","0","undefined","0","0","72","72","72","0","72","72","72","NA","72","72","0","72","NA","72","72","0","72","NA","72","NA","72","0","0","72","72","0","72","72","73","z","04/09/19 12:30:03","The main experiment item","yes","FIN__BA__M21__7%3A10%3A17.osexp","C:\Users\ERP Testing Room\Desktop\Joanna\morph21","no","mono","no","18","no","white","no","yes","1080","legacy","72","72","C:/Users/ERP Testing Room/Desktop/Joanna/morph21/subject-171.csv","xpyriment","Kafkaesque Koffka","3.2.5","0","None","NA","NA","NA","NA","space","None","991","NA","NA","NA","NA","214855","991","2","legacy","1024","2","48000","-16","BA_m21","171","odd","NW_L_SIMP","BLOODER","2005","486085","484392","481383","216873","NA","NA","NA","NA","481378","484889","NA","483884","NA","483878","486076","2017","486485","NA","NA","485084","2006","2006","485475","483878","2006","485084","486485","morph21_Oliver/Morris","48","60224","73","yes","1280","24"
"200","66.2162162162","66.2162162162","823.743243243","823.743243243","black","no","xpyriment","legacy","legacy","0","202","NA","uniform","62838","1000","0.0159139374264","1","undefined","1","0","73","73","73","0","73","73","73","NA","73","73","0","73","NA","73","73","0","73","NA","73","NA","73","0","0","73","73","0","73","73","74","/","04/09/19 12:30:03","The main experiment item","yes","FIN__BA__M21__7%3A10%3A17.osexp","C:\Users\ERP Testing Room\Desktop\Joanna\morph21","no","mono","no","18","no","white","no","yes","1080","legacy","73","73","C:/Users/ERP Testing Room/Desktop/Joanna/morph21/subject-171.csv","xpyriment","Kafkaesque Koffka","3.2.5","0","/","NA","NA","NA","NA","space","/","733","NA","NA","NA","NA","214855","733","2","legacy","1024","2","48000","-16","BA_m21","171","odd","CW_L","SAILOR","2005","489468","487785","481383","216873","NA","NA","NA","NA","489461","488282","NA","487285","NA","487280","489461","2017","489668","NA","NA","488468","2006","2006","488860","487280","2006","488468","489668","morph21_Oliver/Morris","49","60957","74","yes","1280","43"
"400","65.3333333333","65.3333333333","825.946666667","825.946666667","black","no","xpyriment","legacy","legacy","0","204","NA","uniform","47785","1000","0.020927069164","undefined","undefined","0","0","74","74","74","0","74","74","74","NA","74","74","0","74","NA","74","74","0","74","NA","74","NA","74","0","0","74","74","0","74","74","75","z","04/09/19 12:30:03","The main experiment item","yes","FIN__BA__M21__7%3A10%3A17.osexp","C:\Users\ERP Testing Room\Desktop\Joanna\morph21","no","mono","no","18","no","white","no","yes","1080","legacy","74","74","C:/Users/ERP Testing Room/Desktop/Joanna/morph21/subject-171.csv","xpyriment","Kafkaesque Koffka","3.2.5","0","space","space","NA","NA","NA","space","None","23504","23504","NA","NA","NA","214855","989","2","legacy","1024","2","48000","-16","BA_m21","171","odd","NW_L_COMP","COLDIDY","2005","494152","490960","492643","216873","494560","NA","NA","NA","489461","491457","NA","490452","NA","490440","492632","2017","518065","NA","NA","491643","2006","2006","492035","490440","2006","491643","494552","morph21_Oliver/Morris","49","61946","75","yes","1280","10"
"300","64.4736842105","64.4736842105","828.078947368","828.078947368","black","no","xpyriment","legacy","legacy","0","204","NA","uniform","56985","1000","0.0175484776696","0","undefined","0","0","75","75","75","0","75","75","75","NA","75","75","0","75","NA","75","75","0","75","NA","75","NA","75","0","0","75","75","0","75","75","76","z","04/09/19 12:30:03","The main experiment item","yes","FIN__BA__M21__7%3A10%3A17.osexp","C:\Users\ERP Testing Room\Desktop\Joanna\morph21","no","mono","no","18","no","white","no","yes","1080","legacy","75","75","C:/Users/ERP Testing Room/Desktop/Joanna/morph21/subject-171.csv","xpyriment","Kafkaesque Koffka","3.2.5","0","None","space","NA","NA","NA","space","None","988","23504","NA","NA","NA","214855","988","2","legacy","1024","2","48000","-16","BA_m21","171","odd","NW_L_COMP","ILLILT","2005","521013","519320","492643","216873","494560","NA","NA","NA","489461","519818","NA","518820","NA","518814","521008","2017","521313","NA","NA","520020","2006","2006","520412","518814","2006","520020","521313","morph21_Oliver/Morris","49","62934","76","yes","1280","9"
"250","64.9350649351","64.9350649351","826.883116883","826.883116883","black","no","xpyriment","legacy","legacy","0","207","NA","uniform","59165","1000","0.0169018845601","1","undefined","1","0","76","76","76","0","76","76","76","NA","76","76","0","76","NA","76","76","0","76","NA","76","NA","76","0","0","76","76","0","76","76","77","/","04/09/19 12:30:03","The main experiment item","yes","FIN__BA__M21__7%3A10%3A17.osexp","C:\Users\ERP Testing Room\Desktop\Joanna\morph21","no","mono","no","18","no","white","no","yes","1080","legacy","76","76","C:/Users/ERP Testing Room/Desktop/Joanna/morph21/subject-171.csv","xpyriment","Kafkaesque Koffka","3.2.5","0","/","space","NA","NA","NA","space","/","736","23504","NA","NA","NA","214855","736","2","legacy","1024","2","48000","-16","BA_m21","171","odd","FILL_W","SUIT","2005","524297","522563","492643","216873","494560","NA","NA","NA","524288","523060","NA","522063","NA","522058","524288","2017","524547","NA","NA","523297","2006","2006","523688","522058","2006","523297","524547","morph21_Oliver/Morris","50","63670","77","yes","1280","49"
"250","65.3846153846","65.3846153846","824.102564103","824.102564103","black","no","xpyriment","legacy","legacy","0","207","NA","uniform","68546","1000","0.0145887433256","1","undefined","1","0","77","77","77","0","77","77","77","NA","77","77","0","77","NA","77","77","0","77","NA","77","NA","77","0","0","77","77","0","77","77","78","/","04/09/19 12:30:03","The main experiment item","yes","FIN__BA__M21__7%3A10%3A17.osexp","C:\Users\ERP Testing Room\Desktop\Joanna\morph21","no","mono","no","18","no","white","no","yes","1080","legacy","77","77","C:/Users/ERP Testing Room/Desktop/Joanna/morph21/subject-171.csv","xpyriment","Kafkaesque Koffka","3.2.5","0","/","space","NA","NA","NA","space","/","610","23504","NA","NA","NA","214855","610","2","legacy","1024","2","48000","-16","BA_m21","171","odd","FILL_W","WEAVE","2005","528972","525772","527463","216873","494560","NA","NA","NA","527457","526269","NA","525272","NA","525265","527457","2017","529222","NA","NA","526463","2006","2006","526855","525265","2006","526463","529222","morph21_Oliver/Morris","51","64280","78","yes","1280","12"
"200","65.8227848101","65.8227848101","822.974683544","822.974683544","black","no","xpyriment","legacy","legacy","0","208","NA","uniform","58817","1000","0.0170018872095","1","undefined","1","0","78","78","78","0","78","78","78","NA","78","78","0","78","NA","78","78","0","78","NA","78","NA","78","0","0","78","78","0","78","78","79","z","04/09/19 12:30:03","The main experiment item","yes","FIN__BA__M21__7%3A10%3A17.osexp","C:\Users\ERP Testing Room\Desktop\Joanna\morph21","no","mono","no","18","no","white","no","yes","1080","legacy","78","78","C:/Users/ERP Testing Room/Desktop/Joanna/morph21/subject-171.csv","xpyriment","Kafkaesque Koffka","3.2.5","0","z","space","NA","NA","NA","space","z","735","23504","NA","NA","NA","214855","735","2","legacy","1024","2","48000","-16","BA_m21","171","odd","FILL_NW","BROUPS","2005","532130","530447","527463","216873","494560","NA","NA","NA","532120","530944","NA","529947","NA","529942","532120","2017","532330","NA","NA","531130","2006","2006","531522","529942","2006","531130","532330","morph21_Oliver/Morris","52","65015","79","yes","1280","4"
"250","66.25","66.25","822.05","822.05","black","no","xpyriment","legacy","legacy","0","208","NA","uniform","62153","1000","0.0160893279488","1","undefined","1","0","79","79","79","0","79","79","79","NA","79","79","0","79","NA","79","79","0","79","NA","79","NA","79","0","0","79","79","0","79","79","80","z","04/09/19 12:30:03","The main experiment item","yes","FIN__BA__M21__7%3A10%3A17.osexp","C:\Users\ERP Testing Room\Desktop\Joanna\morph21","no","mono","no","18","no","white","no","yes","1080","legacy","79","79","C:/Users/ERP Testing Room/Desktop/Joanna/morph21/subject-171.csv","xpyriment","Kafkaesque Koffka","3.2.5","0","z","space","NA","NA","NA","space","z","749","23504","NA","NA","NA","214855","749","2","legacy","1024","2","48000","-16","BA_m21","171","odd","FILL_NW","PHEEKS","2005","535139","533455","527463","216873","494560","NA","NA","NA","535133","533952","NA","532955","NA","532946","535133","2017","535389","NA","NA","534139","2006","2006","534530","532946","2006","534139","535389","morph21_Oliver/Morris","53","65764","80","yes","1280","35"
"250","66.6666666667","66.6666666667","820.50617284","820.50617284","black","no","xpyriment","legacy","legacy","0","208","NA","uniform","63754","1000","0.0156852903347","1","undefined","1","0","80","80","80","0","80","80","80","NA","80","80","0","80","NA","80","80","0","80","NA","80","NA","80","0","0","80","80","0","80","80","81","z","04/09/19 12:30:03","The main experiment item","yes","FIN__BA__M21__7%3A10%3A17.osexp","C:\Users\ERP Testing Room\Desktop\Joanna\morph21","no","mono","no","18","no","white","no","yes","1080","legacy","80","80","C:/Users/ERP Testing Room/Desktop/Joanna/morph21/subject-171.csv","xpyriment","Kafkaesque Koffka","3.2.5","0","z","space","NA","NA","NA","space","z","697","23504","NA","NA","NA","214855","697","2","legacy","1024","2","48000","-16","BA_m21","171","odd","FILL_NW","PLAODS","2005","539748","536580","538239","216873","494560","NA","NA","NA","538230","537078","NA","536080","NA","536072","538230","2017","539999","NA","NA","537239","2006","2006","537630","536072","2006","537239","539999","morph21_Oliver/Morris","54","66461","81","yes","1280","37"
"200","67.0731707317","67.0731707317","820.402439024","820.402439024","black","no","xpyriment","legacy","legacy","0","208","NA","uniform","64940","1000","0.0153988296889","1","undefined","1","0","81","81","81","0","81","81","81","NA","81","81","0","81","NA","81","81","0","81","NA","81","NA","81","0","0","81","81","0","81","81","82","z","04/09/19 12:30:03","The main experiment item","yes","FIN__BA__M21__7%3A10%3A17.osexp","C:\Users\ERP Testing Room\Desktop\Joanna\morph21","no","mono","no","18","no","white","no","yes","1080","legacy","81","81","C:/Users/ERP Testing Room/Desktop/Joanna/morph21/subject-171.csv","xpyriment","Kafkaesque Koffka","3.2.5","0","z","space","NA","NA","NA","space","z","812","23504","NA","NA","NA","214855","812","2","legacy","1024","2","48000","-16","BA_m21","171","odd","FILL_NW","PORDS","2005","542757","541107","538239","216873","494560","NA","NA","NA","542749","541604","NA","540607","NA","540598","542749","2017","542957","NA","NA","541757","2006","2006","542148","540598","2006","541757","542957","morph21_Oliver/Morris","55","67273","82","yes","1280","39"
"300","67.4698795181","67.4698795181","818.265060241","818.265060241","black","no","xpyriment","legacy","legacy","0","207","NA","uniform","63446","1000","0.015761434921","1","undefined","1","0","82","82","82","0","82","82","82","NA","82","82","0","82","NA","82","82","0","82","NA","82","NA","82","0","0","82","82","0","82","82","83","/","04/09/19 12:30:03","The main experiment item","yes","FIN__BA__M21__7%3A10%3A17.osexp","C:\Users\ERP Testing Room\Desktop\Joanna\morph21","no","mono","no","18","no","white","no","yes","1080","legacy","82","82","C:/Users/ERP Testing Room/Desktop/Joanna/morph21/subject-171.csv","xpyriment","Kafkaesque Koffka","3.2.5","0","/","space","NA","NA","NA","space","/","643","23504","NA","NA","NA","214855","643","2","legacy","1024","2","48000","-16","BA_m21","171","odd","FILL_W","BALD","2005","545790","544132","538239","216873","494560","NA","NA","NA","545784","544629","NA","543632","NA","543627","545784","2017","546090","NA","NA","544790","2006","2006","545182","543627","2006","544790","546090","morph21_Oliver/Morris","56","67916","83","yes","1280","3"
"350","67.8571428571","67.8571428571","816.511904762","816.511904762","black","no","xpyriment","legacy","legacy","0","207","NA","uniform","65030","1000","0.0153775180686","1","undefined","1","0","83","83","83","0","83","83","83","NA","83","83","0","83","NA","83","83","0","83","NA","83","NA","83","0","0","83","83","0","83","83","84","/","04/09/19 12:30:03","The main experiment item","yes","FIN__BA__M21__7%3A10%3A17.osexp","C:\Users\ERP Testing Room\Desktop\Joanna\morph21","no","mono","no","18","no","white","no","yes","1080","legacy","83","83","C:/Users/ERP Testing Room/Desktop/Joanna/morph21/subject-171.csv","xpyriment","Kafkaesque Koffka","3.2.5","0","/","space","NA","NA","NA","space","/","671","23504","NA","NA","NA","214855","671","2","legacy","1024","2","48000","-16","BA_m21","171","odd","FILL_W","FAINT","2005","550390","547215","548882","216873","494560","NA","NA","NA","548877","547712","NA","546715","NA","546706","548877","2017","550741","NA","NA","547882","2006","2006","548282","546706","2006","547882","550741","morph21_Oliver/Morris","57","68587","84","yes","1280","31"
"350","68.2352941176","68.2352941176","815.035294118","815.035294118","black","no","xpyriment","legacy","legacy","0","202","NA","uniform","64250","1000","0.0155642023346","1","undefined","1","0","84","84","84","0","84","84","84","NA","84","84","0","84","NA","84","84","0","84","NA","84","NA","84","0","0","84","84","0","84","84","85","/","04/09/19 12:30:03","The main experiment item","yes","FIN__BA__M21__7%3A10%3A17.osexp","C:\Users\ERP Testing Room\Desktop\Joanna\morph21","no","mono","no","18","no","white","no","yes","1080","legacy","84","84","C:/Users/ERP Testing Room/Desktop/Joanna/morph21/subject-171.csv","xpyriment","Kafkaesque Koffka","3.2.5","0","/","space","NA","NA","NA","space","/","691","23504","NA","NA","NA","214855","691","2","legacy","1024","2","48000","-16","BA_m21","171","odd","CW_L","FEEDER","2005","553565","551890","548882","216873","494560","NA","NA","NA","553561","552388","NA","551390","NA","551380","553561","2017","553916","NA","NA","552565","2006","2006","552965","551380","2006","552565","553916","morph21_Oliver/Morris","58","69278","85","yes","1280","14"
"400","67.4418604651","67.4418604651","817.139534884","817.139534884","black","no","xpyriment","legacy","legacy","0","208","NA","uniform","57733","1000","0.0173211161727","0","undefined","0","0","85","85","85","0","85","85","85","NA","85","85","0","85","NA","85","85","0","85","NA","85","NA","85","0","0","85","85","0","85","85","86","z","04/09/19 12:30:03","The main experiment item","yes","FIN__BA__M21__7%3A10%3A17.osexp","C:\Users\ERP Testing Room\Desktop\Joanna\morph21","no","mono","no","18","no","white","no","yes","1080","legacy","85","85","C:/Users/ERP Testing Room/Desktop/Joanna/morph21/subject-171.csv","xpyriment","Kafkaesque Koffka","3.2.5","0","None","space","NA","NA","NA","space","None","996","23504","NA","NA","NA","214855","996","2","legacy","1024","2","48000","-16","BA_m21","171","odd","FILL_NW","CORG","2005","556708","555057","548882","216873","494560","NA","NA","NA","553561","555554","NA","554557","NA","554553","556703","2017","557108","NA","NA","555707","2006","2006","556108","554553","2006","555707","557108","morph21_Oliver/Morris","58","70274","86","yes","1280","7"
"250","67.816091954","67.816091954","818.344827586","818.344827586","black","no","xpyriment","legacy","legacy","0","202","NA","uniform","58072","1000","0.0172200027552","1","undefined","1","0","86","86","86","0","86","86","86","NA","86","86","0","86","NA","86","86","0","86","NA","86","NA","86","0","0","86","86","0","86","86","87","/","04/09/19 12:30:03","The main experiment item","yes","FIN__BA__M21__7%3A10%3A17.osexp","C:\Users\ERP Testing Room\Desktop\Joanna\morph21","no","mono","no","18","no","white","no","yes","1080","legacy","86","86","C:/Users/ERP Testing Room/Desktop/Joanna/morph21/subject-171.csv","xpyriment","Kafkaesque Koffka","3.2.5","0","/","space","NA","NA","NA","space","/","922","23504","NA","NA","NA","214855","922","2","legacy","1024","2","48000","-16","BA_m21","171","odd","CW_L","STRIKER","2005","561475","558317","559967","216873","494560","NA","NA","NA","559961","558814","NA","557808","NA","557803","559961","2017","561725","NA","NA","558967","2006","2006","559358","557803","2006","558967","561725","morph21_Oliver/Morris","59","71196","87","yes","1280","17"
"200","68.1818181818","68.1818181818","819.227272727","819.227272727","black","no","xpyriment","legacy","legacy","0","203","NA","uniform","56800","1000","0.0176056338028","1","undefined","1","0","87","87","87","0","87","87","87","NA","87","87","0","87","NA","87","87","0","87","NA","87","NA","87","0","0","87","87","0","87","87","88","z","04/09/19 12:30:03","The main experiment item","yes","FIN__BA__M21__7%3A10%3A17.osexp","C:\Users\ERP Testing Room\Desktop\Joanna\morph21","no","mono","no","18","no","white","no","yes","1080","legacy","87","87","C:/Users/ERP Testing Room/Desktop/Joanna/morph21/subject-171.csv","xpyriment","Kafkaesque Koffka","3.2.5","0","z","space","NA","NA","NA","space","z","896","23504","NA","NA","NA","214855","896","2","legacy","1024","2","48000","-16","BA_m21","171","odd","NW_S_COMP","FANFIL","2005","564625","562917","559967","216873","494560","NA","NA","NA","564618","563414","NA","562417","NA","562407","564618","2017","564825","NA","NA","563625","2006","2006","564017","562407","2006","563625","564825","morph21_Oliver/Morris","60","72092","88","yes","1280","6"
"300","67.4157303371","67.4157303371","821.146067416","821.146067416","black","no","xpyriment","legacy","legacy","0","206","NA","uniform","55141","1000","0.0181353258011","0","undefined","0","0","88","88","88","0","88","88","88","NA","88","88","0","88","NA","88","88","0","88","NA","88","NA","88","0","0","88","88","0","88","88","89","z","04/09/19 12:30:03","The main experiment item","yes","FIN__BA__M21__7%3A10%3A17.osexp","C:\Users\ERP Testing Room\Desktop\Joanna\morph21","no","mono","no","18","no","white","no","yes","1080","legacy","88","88","C:/Users/ERP Testing Room/Desktop/Joanna/morph21/subject-171.csv","xpyriment","Kafkaesque Koffka","3.2.5","0","None","space","NA","NA","NA","space","None","990","23504","NA","NA","NA","214855","990","2","legacy","1024","2","48000","-16","BA_m21","171","odd","NW_L_SIMP","PRAYANCE","2005","567759","566109","559967","216873","494560","NA","NA","NA","564618","566606","NA","565609","NA","565602","567749","2017","568059","NA","NA","566759","2006","2006","567150","565602","2006","566759","568059","morph21_Oliver/Morris","60","73082","89","yes","1280","1"
"400","67.7777777778","67.7777777778","819.144444444","819.144444444","black","no","xpyriment","legacy","legacy","0","202","NA","uniform","58976","1000","0.0169560499186","1","undefined","1","0","89","89","89","0","89","89","89","NA","89","89","0","89","NA","89","89","0","89","NA","89","NA","89","0","0","89","89","0","89","89","90","/","04/09/19 12:30:03","The main experiment item","yes","FIN__BA__M21__7%3A10%3A17.osexp","C:\Users\ERP Testing Room\Desktop\Joanna\morph21","no","mono","no","18","no","white","no","yes","1080","legacy","89","89","C:/Users/ERP Testing Room/Desktop/Joanna/morph21/subject-171.csv","xpyriment","Kafkaesque Koffka","3.2.5","0","/","space","NA","NA","NA","space","/","641","23504","NA","NA","NA","214855","641","2","legacy","1024","2","48000","-16","BA_m21","171","odd","CW_L","DRYNESS","2005","572476","569275","570967","216873","494560","NA","NA","NA","570957","569773","NA","568776","NA","568768","570957","2017","572876","NA","NA","569967","2006","2006","570359","568768","2006","569967","572876","morph21_Oliver/Morris","61","73723","90","yes","1280","42"
