"ITI","acc","accuracy","average_response_time","avg_rt","background","bidi","canvas_backend","clock_backend","color_backend","compensation","cond_trig","condtrigtime","coordinates","coroutines_cycles","coroutines_duration","coroutines_mean_cycle_duration","correct","correct_instructions_1","correct_new_keyboard_response_1","count_AB_m21","count_ITI","count_blank_screen","count_blink_screen","count_block1","count_break1","count_break2","count_break3_1","count_canvas","count_correct_trigger","count_def_chain","count_end_screen","count_fixation_1","count_getting_started","count_inc_counter","count_incorrect_trigger","count_instructions_1","count_logger","count_logscript","count_new_coroutines","count_new_inline_script","count_new_keyboard_response_1","count_reset_counter_prep","count_reset_counter_run","count_responsescreen","count_sequence","count_start_trigger","count_target_present","count_word_trigger","counter","cresp","datetime","description","disable_garbage_collection","experiment_file","experiment_path","font_bold","font_family","font_italic","font_size","font_underline","foreground","form_clicks","fullscreen","height","keyboard_backend","live_row","live_row_block1","logfile","mouse_backend","opensesame_codename","opensesame_version","repeat_cycle","response","response_break1","response_break2","response_break3_1","response_end_screen","response_instructions_1","response_new_keyboard_response_1","response_time","response_time_break1","response_time_break2","response_time_break3_1","response_time_end_screen","response_time_instructions_1","response_time_new_keyboard_response_1","round_decimals","sampler_backend","sound_buf_size","sound_channels","sound_freq","sound_sample_size","start","subject_nr","subject_parity","targ_type","target","time_AB_m21","time_ITI","time_blank_screen","time_blink_screen","time_block1","time_break1","time_break2","time_break3_1","time_canvas","time_correct_trigger","time_def_chain","time_end_screen","time_fixation_1","time_getting_started","time_inc_counter","time_incorrect_trigger","time_instructions_1","time_logger","time_logscript","time_new_inline_script","time_new_keyboard_response_1","time_reset_counter_prep","time_reset_counter_run","time_responsescreen","time_sequence","time_start_trigger","time_target_present","time_word_trigger","title","total_correct","total_response_time","total_responses","uniform_coordinates","width","word_trig"
"250","0","0","577","577","black","no","xpyriment","legacy","legacy","0","206","NA","uniform","72546","1000","0.0137843575111","0","undefined","0","0","0","0","0","0","0","0","0","NA","0","0","0","0","NA","0","0","0","0","NA","0","NA","0","0","0","0","0","0","0","0","1","z","09/26/18 16:02:56","The main experiment item","yes","FIN__AB__M21__7%3A10%3A17.osexp","C:\Users\ERP Testing Room\Desktop\Joanna\morph21","no","mono","no","18","no","white","no","yes","1080","legacy","0","0","C:/Users/ERP Testing Room/Desktop/Joanna/morph21/subject-136.csv","xpyriment","Jazzy James","3.1.4","0","/","NA","NA","NA","NA","space","/","577","NA","NA","NA","NA","169775","577","2","legacy","1024","2","48000","-16","AB_m21","136","even","NW_L_SIMP"," DRESSODY","2368","175039","173438","NA","172153","NA","NA","NA","NA","NA","173936","NA","172934","NA","172867","175037","2377","175289","NA","NA","174047","2369","2369","174438","172866","2369","174047","175289","morph21_Oliver/Morris","0","577","1","yes","1280","21"
"400","50","50","489","489","black","no","xpyriment","legacy","legacy","0","207","NA","uniform","83119","1000","0.0120309435869","1","undefined","1","0","1","1","1","0","1","1","1","NA","1","1","0","1","NA","1","1","0","1","NA","1","NA","1","0","0","1","1","0","1","1","2","/","09/26/18 16:02:56","The main experiment item","yes","FIN__AB__M21__7%3A10%3A17.osexp","C:\Users\ERP Testing Room\Desktop\Joanna\morph21","no","mono","no","18","no","white","no","yes","1080","legacy","1","1","C:/Users/ERP Testing Room/Desktop/Joanna/morph21/subject-136.csv","xpyriment","Jazzy James","3.1.4","0","/","NA","NA","NA","NA","space","/","401","NA","NA","NA","NA","169775","401","2","legacy","1024","2","48000","-16","AB_m21","136","even","FILL_W","STEEP","2368","178040","176456","NA","172153","NA","NA","NA","NA","178033","176953","NA","175956","NA","175953","178033","2377","178440","NA","NA","177040","2369","2369","177431","175953","2369","177040","178440","morph21_Oliver/Morris","1","978","2","yes","1280","16"
"350","33.3333333333","33.3333333333","497","497","black","no","xpyriment","legacy","legacy","0","201","NA","uniform","76272","1000","0.0131109712608","0","undefined","0","0","2","2","2","0","2","2","2","NA","2","2","0","2","NA","2","2","0","2","NA","2","NA","2","0","0","2","2","0","2","2","3","/","09/26/18 16:02:56","The main experiment item","yes","FIN__AB__M21__7%3A10%3A17.osexp","C:\Users\ERP Testing Room\Desktop\Joanna\morph21","no","mono","no","18","no","white","no","yes","1080","legacy","2","2","C:/Users/ERP Testing Room/Desktop/Joanna/morph21/subject-136.csv","xpyriment","Jazzy James","3.1.4","0","z","NA","NA","NA","NA","space","z","513","NA","NA","NA","NA","169775","513","2","legacy","1024","2","48000","-16","AB_m21","136","even","CW_S","NEATLY","2368","182748","179656","181240","172153","NA","NA","NA","NA","178033","180153","NA","179156","NA","179150","181237","2377","183098","NA","NA","180248","2369","2369","180640","179150","2369","180248","183098","morph21_Oliver/Morris","1","1491","3","yes","1280","33"
"400","25","25","504.75","504.75","black","no","xpyriment","legacy","legacy","0","203","NA","uniform","70136","1000","0.0142580130033","0","undefined","0","0","3","3","3","0","3","3","3","NA","3","3","0","3","NA","3","3","0","3","NA","3","NA","3","0","0","3","3","0","3","3","4","z","09/26/18 16:02:56","The main experiment item","yes","FIN__AB__M21__7%3A10%3A17.osexp","C:\Users\ERP Testing Room\Desktop\Joanna\morph21","no","mono","no","18","no","white","no","yes","1080","legacy","3","3","C:/Users/ERP Testing Room/Desktop/Joanna/morph21/subject-136.csv","xpyriment","Jazzy James","3.1.4","0","/","NA","NA","NA","NA","space","/","528","NA","NA","NA","NA","169775","528","2","legacy","1024","2","48000","-16","AB_m21","136","even","NW_S_COMP","TRUENESS","2368","185865","184282","181240","172153","NA","NA","NA","NA","178033","184779","NA","183782","NA","183773","185861","2377","186265","NA","NA","184865","2369","2369","185265","183773","2369","184865","186265","morph21_Oliver/Morris","1","2019","4","yes","1280","15"
"400","20","20","515.8","515.8","black","no","xpyriment","legacy","legacy","0","205","NA","uniform","74985","1000","0.0133360005334","0","undefined","0","0","4","4","4","0","4","4","4","NA","4","4","0","4","NA","4","4","0","4","NA","4","NA","4","0","0","4","4","0","4","4","5","z","09/26/18 16:02:56","The main experiment item","yes","FIN__AB__M21__7%3A10%3A17.osexp","C:\Users\ERP Testing Room\Desktop\Joanna\morph21","no","mono","no","18","no","white","no","yes","1080","legacy","4","4","C:/Users/ERP Testing Room/Desktop/Joanna/morph21/subject-136.csv","xpyriment","Jazzy James","3.1.4","0","/","NA","NA","NA","NA","space","/","560","NA","NA","NA","NA","169775","560","2","legacy","1024","2","48000","-16","AB_m21","136","even","NW_S_SIMP","AIDIG","2368","189073","187457","181240","172153","NA","NA","NA","NA","178033","187954","NA","186957","NA","186948","189067","2377","189473","NA","NA","188073","2369","2369","188465","186948","2369","188073","189473","morph21_Oliver/Morris","1","2579","5","yes","1280","4"
"200","33.3333333333","33.3333333333","517.666666667","517.666666667","black","no","xpyriment","legacy","legacy","0","207","NA","uniform","73668","1000","0.0135744149427","1","undefined","1","0","5","5","5","0","5","5","5","NA","5","5","0","5","NA","5","5","0","5","NA","5","NA","5","0","0","5","5","0","5","5","6","/","09/26/18 16:02:56","The main experiment item","yes","FIN__AB__M21__7%3A10%3A17.osexp","C:\Users\ERP Testing Room\Desktop\Joanna\morph21","no","mono","no","18","no","white","no","yes","1080","legacy","5","5","C:/Users/ERP Testing Room/Desktop/Joanna/morph21/subject-136.csv","xpyriment","Jazzy James","3.1.4","0","/","NA","NA","NA","NA","space","/","527","NA","NA","NA","NA","169775","527","2","legacy","1024","2","48000","-16","AB_m21","136","even","FILL_W","FLESH","2368","193758","190640","192249","172153","NA","NA","NA","NA","192244","191137","NA","190140","NA","190132","192244","2377","193958","NA","NA","191249","2369","2369","191648","190132","2369","191249","193958","morph21_Oliver/Morris","2","3106","6","yes","1280","32"
"200","42.8571428571","42.8571428571","553.857142857","553.857142857","black","no","xpyriment","legacy","legacy","0","208","NA","uniform","69832","1000","0.0143200824837","1","undefined","1","0","6","6","6","0","6","6","6","NA","6","6","0","6","NA","6","6","0","6","NA","6","NA","6","0","0","6","6","0","6","6","7","z","09/26/18 16:02:56","The main experiment item","yes","FIN__AB__M21__7%3A10%3A17.osexp","C:\Users\ERP Testing Room\Desktop\Joanna\morph21","no","mono","no","18","no","white","no","yes","1080","legacy","6","6","C:/Users/ERP Testing Room/Desktop/Joanna/morph21/subject-136.csv","xpyriment","Jazzy James","3.1.4","0","z","NA","NA","NA","NA","space","z","771","NA","NA","NA","NA","169775","771","2","legacy","1024","2","48000","-16","AB_m21","136","even","FILL_NW","VUNKS","2368","196766","195183","192249","172153","NA","NA","NA","NA","196761","195680","NA","194683","NA","194675","196761","2377","196966","NA","NA","195766","2369","2369","196166","194674","2369","195766","196966","morph21_Oliver/Morris","3","3877","7","yes","1280","49"
"300","37.5","37.5","555.75","555.75","black","no","xpyriment","legacy","legacy","0","205","NA","uniform","75929","1000","0.0131701984749","0","undefined","0","0","7","7","7","0","7","7","7","NA","7","7","0","7","NA","7","7","0","7","NA","7","NA","7","0","0","7","7","0","7","7","8","z","09/26/18 16:02:56","The main experiment item","yes","FIN__AB__M21__7%3A10%3A17.osexp","C:\Users\ERP Testing Room\Desktop\Joanna\morph21","no","mono","no","18","no","white","no","yes","1080","legacy","7","7","C:/Users/ERP Testing Room/Desktop/Joanna/morph21/subject-136.csv","xpyriment","Jazzy James","3.1.4","0","/","NA","NA","NA","NA","space","/","569","NA","NA","NA","NA","169775","569","2","legacy","1024","2","48000","-16","AB_m21","136","even","NW_S_SIMP","SOCKETEL","2368","199792","198166","192249","172153","NA","NA","NA","NA","196761","198664","NA","197666","NA","197656","199783","2377","200092","NA","NA","198792","2369","2369","199183","197656","2369","198791","200092","morph21_Oliver/Morris","3","4446","8","yes","1280","1"
"350","33.3333333333","33.3333333333","561","561","black","no","xpyriment","legacy","legacy","0","203","NA","uniform","75752","1000","0.0132009715915","0","undefined","0","0","8","8","8","0","8","8","8","NA","8","8","0","8","NA","8","8","0","8","NA","8","NA","8","0","0","8","8","0","8","8","9","z","09/26/18 16:02:56","The main experiment item","yes","FIN__AB__M21__7%3A10%3A17.osexp","C:\Users\ERP Testing Room\Desktop\Joanna\morph21","no","mono","no","18","no","white","no","yes","1080","legacy","8","8","C:/Users/ERP Testing Room/Desktop/Joanna/morph21/subject-136.csv","xpyriment","Jazzy James","3.1.4","0","/","NA","NA","NA","NA","space","/","603","NA","NA","NA","NA","169775","603","2","legacy","1024","2","48000","-16","AB_m21","136","even","NW_S_COMP","HUMIDOUS","2368","204458","201350","202950","172153","NA","NA","NA","NA","196761","201847","NA","200850","NA","200844","202942","2377","204809","NA","NA","201950","2369","2369","202342","200844","2369","201950","204809","morph21_Oliver/Morris","3","5049","9","yes","1280","25"
"300","40","40","577.7","577.7","black","no","xpyriment","legacy","legacy","0","205","NA","uniform","70868","1000","0.0141107410961","1","undefined","1","0","9","9","9","0","9","9","9","NA","9","9","0","9","NA","9","9","0","9","NA","9","NA","9","0","0","9","9","0","9","9","10","z","09/26/18 16:02:56","The main experiment item","yes","FIN__AB__M21__7%3A10%3A17.osexp","C:\Users\ERP Testing Room\Desktop\Joanna\morph21","no","mono","no","18","no","white","no","yes","1080","legacy","9","9","C:/Users/ERP Testing Room/Desktop/Joanna/morph21/subject-136.csv","xpyriment","Jazzy James","3.1.4","0","z","NA","NA","NA","NA","space","z","728","NA","NA","NA","NA","169775","728","2","legacy","1024","2","48000","-16","AB_m21","136","even","NW_S_SIMP","FEVERIME","2368","207625","206000","202950","172153","NA","NA","NA","NA","207619","206497","NA","205500","NA","205493","207619","2377","207925","NA","NA","206625","2369","2369","207017","205493","2369","206625","207925","morph21_Oliver/Morris","4","5777","10","yes","1280","24"
"400","45.4545454545","45.4545454545","571.181818182","571.181818182","black","no","xpyriment","legacy","legacy","0","201","NA","uniform","75265","1000","0.0132863880954","1","undefined","1","0","10","10","10","0","10","10","10","NA","10","10","0","10","NA","10","10","0","10","NA","10","NA","10","0","0","10","10","0","10","10","11","/","09/26/18 16:02:56","The main experiment item","yes","FIN__AB__M21__7%3A10%3A17.osexp","C:\Users\ERP Testing Room\Desktop\Joanna\morph21","no","mono","no","18","no","white","no","yes","1080","legacy","10","10","C:/Users/ERP Testing Room/Desktop/Joanna/morph21/subject-136.csv","xpyriment","Jazzy James","3.1.4","0","/","NA","NA","NA","NA","space","/","506","NA","NA","NA","NA","169775","506","2","legacy","1024","2","48000","-16","AB_m21","136","even","CW_S","ALLOWANCE","2368","210768","209184","202950","172153","NA","NA","NA","NA","210761","209681","NA","208684","NA","208678","210761","2377","211168","NA","NA","209767","2369","2369","210160","208678","2369","209767","211168","morph21_Oliver/Morris","5","6283","11","yes","1280","5"
"400","50","50","564.166666667","564.166666667","black","no","xpyriment","legacy","legacy","0","202","NA","uniform","73777","1000","0.0135543597598","1","undefined","1","0","11","11","11","0","11","11","11","NA","11","11","0","11","NA","11","11","0","11","NA","11","NA","11","0","0","11","11","0","11","11","12","/","09/26/18 16:02:56","The main experiment item","yes","FIN__AB__M21__7%3A10%3A17.osexp","C:\Users\ERP Testing Room\Desktop\Joanna\morph21","no","mono","no","18","no","white","no","yes","1080","legacy","11","11","C:/Users/ERP Testing Room/Desktop/Joanna/morph21/subject-136.csv","xpyriment","Jazzy James","3.1.4","0","/","NA","NA","NA","NA","space","/","487","NA","NA","NA","NA","169775","487","2","legacy","1024","2","48000","-16","AB_m21","136","even","CW_L","QUIETLY","2368","215527","212410","214018","172153","NA","NA","NA","NA","214013","212907","NA","211902","NA","211889","214013","2377","215927","NA","NA","213018","2369","2369","213418","211889","2369","213018","215927","morph21_Oliver/Morris","6","6770","12","yes","1280","36"
"400","53.8461538462","53.8461538462","568.076923077","568.076923077","black","no","xpyriment","legacy","legacy","0","206","NA","uniform","71607","1000","0.0139651151424","1","undefined","1","0","12","12","12","0","12","12","12","NA","12","12","0","12","NA","12","12","0","12","NA","12","NA","12","0","0","12","12","0","12","12","13","z","09/26/18 16:02:56","The main experiment item","yes","FIN__AB__M21__7%3A10%3A17.osexp","C:\Users\ERP Testing Room\Desktop\Joanna\morph21","no","mono","no","18","no","white","no","yes","1080","legacy","12","12","C:/Users/ERP Testing Room/Desktop/Joanna/morph21/subject-136.csv","xpyriment","Jazzy James","3.1.4","0","z","NA","NA","NA","NA","space","z","615","NA","NA","NA","NA","169775","615","2","legacy","1024","2","48000","-16","AB_m21","136","even","NW_L_SIMP","VALIDEL","2368","218802","217210","214018","172153","NA","NA","NA","NA","218796","217707","NA","216710","NA","216707","218796","2377","219202","NA","NA","217802","2369","2369","218193","216707","2369","217802","219202","morph21_Oliver/Morris","7","7385","13","yes","1280","23"
"250","57.1428571429","57.1428571429","569.214285714","569.214285714","black","no","xpyriment","legacy","legacy","0","207","NA","uniform","69154","1000","0.0144604795095","1","undefined","1","0","13","13","13","0","13","13","13","NA","13","13","0","13","NA","13","13","0","13","NA","13","NA","13","0","0","13","13","0","13","13","14","/","09/26/18 16:02:56","The main experiment item","yes","FIN__AB__M21__7%3A10%3A17.osexp","C:\Users\ERP Testing Room\Desktop\Joanna\morph21","no","mono","no","18","no","white","no","yes","1080","legacy","13","13","C:/Users/ERP Testing Room/Desktop/Joanna/morph21/subject-136.csv","xpyriment","Jazzy James","3.1.4","0","/","NA","NA","NA","NA","space","/","584","NA","NA","NA","NA","169775","584","2","legacy","1024","2","48000","-16","AB_m21","136","even","FILL_W","SOUGHT","2368","221985","220402","214018","172153","NA","NA","NA","NA","221982","220899","NA","219894","NA","219885","221982","2377","222235","NA","NA","220985","2369","2369","221385","219885","2369","220985","222235","morph21_Oliver/Morris","8","7969","14","yes","1280","40"
"400","60","60","567.666666667","567.666666667","black","no","xpyriment","legacy","legacy","0","208","NA","uniform","68584","1000","0.0145806602123","1","undefined","1","0","14","14","14","0","14","14","14","NA","14","14","0","14","NA","14","14","0","14","NA","14","NA","14","0","0","14","14","0","14","14","15","z","09/26/18 16:02:56","The main experiment item","yes","FIN__AB__M21__7%3A10%3A17.osexp","C:\Users\ERP Testing Room\Desktop\Joanna\morph21","no","mono","no","18","no","white","no","yes","1080","legacy","14","14","C:/Users/ERP Testing Room/Desktop/Joanna/morph21/subject-136.csv","xpyriment","Jazzy James","3.1.4","0","z","NA","NA","NA","NA","space","z","546","NA","NA","NA","NA","169775","546","2","legacy","1024","2","48000","-16","AB_m21","136","even","FILL_NW","SOISE","2368","226627","223519","225119","172153","NA","NA","NA","NA","225108","224016","NA","223019","NA","223009","225108","2377","227027","NA","NA","224119","2369","2369","224510","223009","2369","224119","227027","morph21_Oliver/Morris","9","8515","15","yes","1280","43"
"200","62.5","62.5","563.9375","563.9375","black","no","xpyriment","legacy","legacy","0","207","NA","uniform","79498","1000","0.0125789328033","1","undefined","1","0","15","15","15","0","15","15","15","NA","15","15","0","15","NA","15","15","0","15","NA","15","NA","15","0","0","15","15","0","15","15","16","/","09/26/18 16:02:56","The main experiment item","yes","FIN__AB__M21__7%3A10%3A17.osexp","C:\Users\ERP Testing Room\Desktop\Joanna\morph21","no","mono","no","18","no","white","no","yes","1080","legacy","15","15","C:/Users/ERP Testing Room/Desktop/Joanna/morph21/subject-136.csv","xpyriment","Jazzy James","3.1.4","0","/","NA","NA","NA","NA","space","/","508","NA","NA","NA","NA","169775","508","2","legacy","1024","2","48000","-16","AB_m21","136","even","FILL_W","SAVE","2368","229853","228270","225119","172153","NA","NA","NA","NA","229847","228767","NA","227770","NA","227761","229847","2377","230053","NA","NA","228853","2369","2369","229245","227761","2369","228853","230053","morph21_Oliver/Morris","10","9023","16","yes","1280","46"
"200","64.7058823529","64.7058823529","557.823529412","557.823529412","black","no","xpyriment","legacy","legacy","0","208","NA","uniform","77574","1000","0.0128909170598","1","undefined","1","0","16","16","16","0","16","16","16","NA","16","16","0","16","NA","16","16","0","16","NA","16","NA","16","0","0","16","16","0","16","16","17","z","09/26/18 16:02:56","The main experiment item","yes","FIN__AB__M21__7%3A10%3A17.osexp","C:\Users\ERP Testing Room\Desktop\Joanna\morph21","no","mono","no","18","no","white","no","yes","1080","legacy","16","16","C:/Users/ERP Testing Room/Desktop/Joanna/morph21/subject-136.csv","xpyriment","Jazzy James","3.1.4","0","z","NA","NA","NA","NA","space","z","460","NA","NA","NA","NA","169775","460","2","legacy","1024","2","48000","-16","AB_m21","136","even","FILL_NW","CINDS","2368","232845","231253","225119","172153","NA","NA","NA","NA","232838","231750","NA","230753","NA","230744","232838","2377","233045","NA","NA","231845","2369","2369","232237","230744","2369","231845","233045","morph21_Oliver/Morris","11","9483","17","yes","1280","6"
"250","66.6666666667","66.6666666667","556.555555556","556.555555556","black","no","xpyriment","legacy","legacy","0","207","NA","uniform","74833","1000","0.013363088477","1","undefined","1","0","17","17","17","0","17","17","17","NA","17","17","0","17","NA","17","17","0","17","NA","17","NA","17","0","0","17","17","0","17","17","18","/","09/26/18 16:02:56","The main experiment item","yes","FIN__AB__M21__7%3A10%3A17.osexp","C:\Users\ERP Testing Room\Desktop\Joanna\morph21","no","mono","no","18","no","white","no","yes","1080","legacy","17","17","C:/Users/ERP Testing Room/Desktop/Joanna/morph21/subject-136.csv","xpyriment","Jazzy James","3.1.4","0","/","NA","NA","NA","NA","space","/","535","NA","NA","NA","NA","169775","535","2","legacy","1024","2","48000","-16","AB_m21","136","even","FILL_W","PREACH","2368","237470","234378","235962","172153","NA","NA","NA","NA","235959","234876","NA","233878","NA","233872","235959","2377","237720","NA","NA","234970","2369","2369","235362","233872","2369","234970","237720","morph21_Oliver/Morris","12","10018","18","yes","1280","7"
"350","68.4210526316","68.4210526316","557.684210526","557.684210526","black","no","xpyriment","legacy","legacy","0","203","NA","uniform","62310","1000","0.0160487883165","1","undefined","1","0","18","18","18","0","18","18","18","NA","18","18","0","18","NA","18","18","0","18","NA","18","NA","18","0","0","18","18","0","18","18","19","z","09/26/18 16:02:56","The main experiment item","yes","FIN__AB__M21__7%3A10%3A17.osexp","C:\Users\ERP Testing Room\Desktop\Joanna\morph21","no","mono","no","18","no","white","no","yes","1080","legacy","18","18","C:/Users/ERP Testing Room/Desktop/Joanna/morph21/subject-136.csv","xpyriment","Jazzy James","3.1.4","0","z","NA","NA","NA","NA","space","z","578","NA","NA","NA","NA","169775","578","2","legacy","1024","2","48000","-16","AB_m21","136","even","NW_S_COMP","HEIGHTENCE","2368","240495","238912","235962","172153","NA","NA","NA","NA","240492","239409","NA","238412","NA","238405","240492","2377","240845","NA","NA","239495","2369","2369","239895","238405","2369","239495","240845","morph21_Oliver/Morris","13","10596","19","yes","1280","18"
"250","70","70","556.55","556.55","black","no","xpyriment","legacy","legacy","0","207","NA","uniform","68308","1000","0.0146395736956","1","undefined","1","0","19","19","19","0","19","19","19","NA","19","19","0","19","NA","19","19","0","19","NA","19","NA","19","0","0","19","19","0","19","19","20","/","09/26/18 16:02:56","The main experiment item","yes","FIN__AB__M21__7%3A10%3A17.osexp","C:\Users\ERP Testing Room\Desktop\Joanna\morph21","no","mono","no","18","no","white","no","yes","1080","legacy","19","19","C:/Users/ERP Testing Room/Desktop/Joanna/morph21/subject-136.csv","xpyriment","Jazzy James","3.1.4","0","/","NA","NA","NA","NA","space","/","535","NA","NA","NA","NA","169775","535","2","legacy","1024","2","48000","-16","AB_m21","136","even","FILL_W","PACK","2368","243737","242154","235962","172153","NA","NA","NA","NA","243733","242651","NA","241654","NA","241650","243733","2377","243987","NA","NA","242737","2369","2369","243137","241650","2369","242737","243987","morph21_Oliver/Morris","14","11131","20","yes","1280","41"
"350","71.4285714286","71.4285714286","556.80952381","556.80952381","black","no","xpyriment","legacy","legacy","0","203","NA","uniform","74330","1000","0.013453518095","1","undefined","1","0","20","20","20","0","20","20","20","NA","20","20","0","20","NA","20","20","0","20","NA","20","NA","20","0","0","20","20","0","20","20","21","z","09/26/18 16:02:56","The main experiment item","yes","FIN__AB__M21__7%3A10%3A17.osexp","C:\Users\ERP Testing Room\Desktop\Joanna\morph21","no","mono","no","18","no","white","no","yes","1080","legacy","20","20","C:/Users/ERP Testing Room/Desktop/Joanna/morph21/subject-136.csv","xpyriment","Jazzy James","3.1.4","0","z","NA","NA","NA","NA","space","z","562","NA","NA","NA","NA","169775","562","2","legacy","1024","2","48000","-16","AB_m21","136","even","NW_S_COMP","DEBTISH","2368","248363","245272","246855","172153","NA","NA","NA","NA","246852","245769","NA","244772","NA","244768","246852","2377","248714","NA","NA","245863","2369","2369","246255","244768","2369","245863","248714","morph21_Oliver/Morris","15","11693","21","yes","1280","22"
"350","72.7272727273","72.7272727273","559.454545455","559.454545455","black","no","xpyriment","legacy","legacy","0","202","NA","uniform","75879","1000","0.0131788768961","1","undefined","1","0","21","21","21","0","21","21","21","NA","21","21","0","21","NA","21","21","0","21","NA","21","NA","21","0","0","21","21","0","21","21","22","/","09/26/18 16:02:56","The main experiment item","yes","FIN__AB__M21__7%3A10%3A17.osexp","C:\Users\ERP Testing Room\Desktop\Joanna\morph21","no","mono","no","18","no","white","no","yes","1080","legacy","21","21","C:/Users/ERP Testing Room/Desktop/Joanna/morph21/subject-136.csv","xpyriment","Jazzy James","3.1.4","0","/","NA","NA","NA","NA","space","/","615","NA","NA","NA","NA","169775","615","2","legacy","1024","2","48000","-16","AB_m21","136","even","CW_L","GUARDING","2368","251538","249955","246855","172153","NA","NA","NA","NA","251532","250452","NA","249455","NA","249444","251532","2377","251889","NA","NA","250538","2369","2369","250930","249444","2369","250538","251889","morph21_Oliver/Morris","16","12308","22","yes","1280","26"
"400","73.9130434783","73.9130434783","560.565217391","560.565217391","black","no","xpyriment","legacy","legacy","0","202","NA","uniform","73173","1000","0.0136662430131","1","undefined","1","0","22","22","22","0","22","22","22","NA","22","22","0","22","NA","22","22","0","22","NA","22","NA","22","0","0","22","22","0","22","22","23","/","09/26/18 16:02:56","The main experiment item","yes","FIN__AB__M21__7%3A10%3A17.osexp","C:\Users\ERP Testing Room\Desktop\Joanna\morph21","no","mono","no","18","no","white","no","yes","1080","legacy","22","22","C:/Users/ERP Testing Room/Desktop/Joanna/morph21/subject-136.csv","xpyriment","Jazzy James","3.1.4","0","/","NA","NA","NA","NA","space","/","585","NA","NA","NA","NA","169775","585","2","legacy","1024","2","48000","-16","AB_m21","136","even","CW_L","SHAPELY","2368","254664","253080","246855","172153","NA","NA","NA","NA","254657","253577","NA","252580","NA","252575","254657","2377","255064","NA","NA","253664","2369","2369","254055","252575","2369","253664","255064","morph21_Oliver/Morris","17","12893","23","yes","1280","35"
"200","75","75","559.25","559.25","black","no","xpyriment","legacy","legacy","0","208","NA","uniform","70342","1000","0.0142162577123","1","undefined","1","0","23","23","23","0","23","23","23","NA","23","23","0","23","NA","23","23","0","23","NA","23","NA","23","0","0","23","23","0","23","23","24","z","09/26/18 16:02:56","The main experiment item","yes","FIN__AB__M21__7%3A10%3A17.osexp","C:\Users\ERP Testing Room\Desktop\Joanna\morph21","no","mono","no","18","no","white","no","yes","1080","legacy","23","23","C:/Users/ERP Testing Room/Desktop/Joanna/morph21/subject-136.csv","xpyriment","Jazzy James","3.1.4","0","z","NA","NA","NA","NA","space","z","529","NA","NA","NA","NA","169775","529","2","legacy","1024","2","48000","-16","AB_m21","136","even","FILL_NW","SMADE","2368","259372","256280","257864","172153","NA","NA","NA","NA","257860","256778","NA","255780","NA","255772","257860","2377","259572","NA","NA","256864","2369","2369","257264","255772","2369","256864","259572","morph21_Oliver/Morris","18","13422","24","yes","1280","42"
"250","72","72","560.28","560.28","black","no","xpyriment","legacy","legacy","0","207","NA","uniform","77139","1000","0.0129636111435","0","undefined","0","0","24","24","24","0","24","24","24","NA","24","24","0","24","NA","24","24","0","24","NA","24","NA","24","0","0","24","24","0","24","24","25","/","09/26/18 16:02:56","The main experiment item","yes","FIN__AB__M21__7%3A10%3A17.osexp","C:\Users\ERP Testing Room\Desktop\Joanna\morph21","no","mono","no","18","no","white","no","yes","1080","legacy","24","24","C:/Users/ERP Testing Room/Desktop/Joanna/morph21/subject-136.csv","xpyriment","Jazzy James","3.1.4","0","z","NA","NA","NA","NA","space","z","585","NA","NA","NA","NA","169775","585","2","legacy","1024","2","48000","-16","AB_m21","136","even","FILL_W","SPLICE","2368","262432","260847","257864","172153","NA","NA","NA","NA","257860","261344","NA","260347","NA","260341","262424","2377","262682","NA","NA","261431","2369","2369","261822","260341","2369","261431","262682","morph21_Oliver/Morris","18","14007","25","yes","1280","22"
"350","73.0769230769","73.0769230769","561.692307692","561.692307692","black","no","xpyriment","legacy","legacy","0","201","NA","uniform","75451","1000","0.0132536348093","1","undefined","1","0","25","25","25","0","25","25","25","NA","25","25","0","25","NA","25","25","0","25","NA","25","NA","25","0","0","25","25","0","25","25","26","/","09/26/18 16:02:56","The main experiment item","yes","FIN__AB__M21__7%3A10%3A17.osexp","C:\Users\ERP Testing Room\Desktop\Joanna\morph21","no","mono","no","18","no","white","no","yes","1080","legacy","25","25","C:/Users/ERP Testing Room/Desktop/Joanna/morph21/subject-136.csv","xpyriment","Jazzy James","3.1.4","0","/","NA","NA","NA","NA","space","/","597","NA","NA","NA","NA","169775","597","2","legacy","1024","2","48000","-16","AB_m21","136","even","CW_S","SINGER","2368","265532","263923","257864","172153","NA","NA","NA","NA","265522","264421","NA","263423","NA","263415","265522","2377","265882","NA","NA","264532","2369","2369","264923","263415","2369","264532","265882","morph21_Oliver/Morris","19","14604","26","yes","1280","17"
"200","74.0740740741","74.0740740741","558.592592593","558.592592593","black","no","xpyriment","legacy","legacy","0","207","NA","uniform","79751","1000","0.0125390277238","1","undefined","1","0","26","26","26","0","26","26","26","NA","26","26","0","26","NA","26","26","0","26","NA","26","NA","26","0","0","26","26","0","26","26","27","/","09/26/18 16:02:56","The main experiment item","yes","FIN__AB__M21__7%3A10%3A17.osexp","C:\Users\ERP Testing Room\Desktop\Joanna\morph21","no","mono","no","18","no","white","no","yes","1080","legacy","26","26","C:/Users/ERP Testing Room/Desktop/Joanna/morph21/subject-136.csv","xpyriment","Jazzy James","3.1.4","0","/","NA","NA","NA","NA","space","/","478","NA","NA","NA","NA","169775","478","2","legacy","1024","2","48000","-16","AB_m21","136","even","FILL_W","LEGAL","2368","270215","267099","268707","172153","NA","NA","NA","NA","268703","267596","NA","266599","NA","266594","268703","2377","270416","NA","NA","267707","2369","2369","268107","266593","2369","267707","270416","morph21_Oliver/Morris","20","15082","27","yes","1280","35"
"350","75","75","558.428571429","558.428571429","black","no","xpyriment","legacy","legacy","0","208","NA","uniform","76321","1000","0.0131025536877","1","undefined","1","0","27","27","27","0","27","27","27","NA","27","27","0","27","NA","27","27","0","27","NA","27","NA","27","0","0","27","27","0","27","27","28","z","09/26/18 16:02:56","The main experiment item","yes","FIN__AB__M21__7%3A10%3A17.osexp","C:\Users\ERP Testing Room\Desktop\Joanna\morph21","no","mono","no","18","no","white","no","yes","1080","legacy","27","27","C:/Users/ERP Testing Room/Desktop/Joanna/morph21/subject-136.csv","xpyriment","Jazzy James","3.1.4","0","z","NA","NA","NA","NA","space","z","554","NA","NA","NA","NA","169775","554","2","legacy","1024","2","48000","-16","AB_m21","136","even","FILL_NW","DOADS","2368","273199","271615","268707","172153","NA","NA","NA","NA","273192","272113","NA","271115","NA","271109","273192","2377","273549","NA","NA","272199","2369","2369","272590","271109","2369","272199","273549","morph21_Oliver/Morris","21","15636","28","yes","1280","15"
"250","75.8620689655","75.8620689655","561","561","black","no","xpyriment","legacy","legacy","0","202","NA","uniform","70767","1000","0.0141308802125","1","undefined","1","0","28","28","28","0","28","28","28","NA","28","28","0","28","NA","28","28","0","28","NA","28","NA","28","0","0","28","28","0","28","28","29","/","09/26/18 16:02:56","The main experiment item","yes","FIN__AB__M21__7%3A10%3A17.osexp","C:\Users\ERP Testing Room\Desktop\Joanna\morph21","no","mono","no","18","no","white","no","yes","1080","legacy","28","28","C:/Users/ERP Testing Room/Desktop/Joanna/morph21/subject-136.csv","xpyriment","Jazzy James","3.1.4","0","/","NA","NA","NA","NA","space","/","633","NA","NA","NA","NA","169775","633","2","legacy","1024","2","48000","-16","AB_m21","136","even","CW_L","CREAMY","2368","276416","274791","268707","172153","NA","NA","NA","NA","276407","275288","NA","274290","NA","274281","276407","2377","276666","NA","NA","275416","2369","2369","275807","274281","2369","275416","276666","morph21_Oliver/Morris","22","16269","29","yes","1280","49"
"300","73.3333333333","73.3333333333","562.266666667","562.266666667","black","no","xpyriment","legacy","legacy","0","202","NA","uniform","76035","1000","0.0131518379694","0","undefined","0","0","29","29","29","0","29","29","29","NA","29","29","0","29","NA","29","29","0","29","NA","29","NA","29","0","0","29","29","0","29","29","30","/","09/26/18 16:02:56","The main experiment item","yes","FIN__AB__M21__7%3A10%3A17.osexp","C:\Users\ERP Testing Room\Desktop\Joanna\morph21","no","mono","no","18","no","white","no","yes","1080","legacy","29","29","C:/Users/ERP Testing Room/Desktop/Joanna/morph21/subject-136.csv","xpyriment","Jazzy James","3.1.4","0","z","NA","NA","NA","NA","space","z","599","NA","NA","NA","NA","169775","599","2","legacy","1024","2","48000","-16","AB_m21","136","even","CW_L","HEATER","2368","280958","277866","279449","172153","NA","NA","NA","NA","276407","278363","NA","277366","NA","277359","279445","2377","281259","NA","NA","278449","2369","2369","278849","277359","2369","278449","281259","morph21_Oliver/Morris","22","16868","30","yes","1280","16"
"200","74.1935483871","74.1935483871","562.967741935","562.967741935","black","no","xpyriment","legacy","legacy","0","205","NA","uniform","72518","1000","0.0137896798036","1","undefined","1","0","30","30","30","0","30","30","30","NA","30","30","0","30","NA","30","30","0","30","NA","30","NA","30","0","0","30","30","0","30","30","31","z","09/26/18 16:02:56","The main experiment item","yes","FIN__AB__M21__7%3A10%3A17.osexp","C:\Users\ERP Testing Room\Desktop\Joanna\morph21","no","mono","no","18","no","white","no","yes","1080","legacy","30","30","C:/Users/ERP Testing Room/Desktop/Joanna/morph21/subject-136.csv","xpyriment","Jazzy James","3.1.4","0","z","NA","NA","NA","NA","space","z","584","NA","NA","NA","NA","169775","584","2","legacy","1024","2","48000","-16","AB_m21","136","even","NW_S_SIMP","NULLITH","2368","284025","282442","279449","172153","NA","NA","NA","NA","284021","282939","NA","281942","NA","281936","284021","2377","284225","NA","NA","283025","2369","2369","283425","281936","2369","283025","284225","morph21_Oliver/Morris","23","17452","31","yes","1280","23"
"400","75","75","561.5","561.5","black","no","xpyriment","legacy","legacy","0","202","NA","uniform","78899","1000","0.0126744318686","1","undefined","1","0","31","31","31","0","31","31","31","NA","31","31","0","31","NA","31","31","0","31","NA","31","NA","31","0","0","31","31","0","31","31","32","/","09/26/18 16:02:56","The main experiment item","yes","FIN__AB__M21__7%3A10%3A17.osexp","C:\Users\ERP Testing Room\Desktop\Joanna\morph21","no","mono","no","18","no","white","no","yes","1080","legacy","31","31","C:/Users/ERP Testing Room/Desktop/Joanna/morph21/subject-136.csv","xpyriment","Jazzy James","3.1.4","0","/","NA","NA","NA","NA","space","/","516","NA","NA","NA","NA","169775","516","2","legacy","1024","2","48000","-16","AB_m21","136","even","CW_L","STYLISH","2368","287117","285525","279449","172153","NA","NA","NA","NA","287108","286023","NA","285025","NA","285018","287108","2377","287517","NA","NA","286117","2369","2369","286509","285018","2369","286117","287517","morph21_Oliver/Morris","24","17968","32","yes","1280","29"
"400","75.7575757576","75.7575757576","559.121212121","559.121212121","black","no","xpyriment","legacy","legacy","0","202","NA","uniform","73768","1000","0.0135560134476","1","undefined","1","0","32","32","32","0","32","32","32","NA","32","32","0","32","NA","32","32","0","32","NA","32","NA","32","0","0","32","32","0","32","32","33","/","09/26/18 16:02:56","The main experiment item","yes","FIN__AB__M21__7%3A10%3A17.osexp","C:\Users\ERP Testing Room\Desktop\Joanna\morph21","no","mono","no","18","no","white","no","yes","1080","legacy","32","32","C:/Users/ERP Testing Room/Desktop/Joanna/morph21/subject-136.csv","xpyriment","Jazzy James","3.1.4","0","/","NA","NA","NA","NA","space","/","483","NA","NA","NA","NA","169775","483","2","legacy","1024","2","48000","-16","AB_m21","136","even","CW_L","WRONGLY","2368","291834","288734","290325","172153","NA","NA","NA","NA","290318","289231","NA","288234","NA","288227","290318","2377","292234","NA","NA","289326","2369","2369","289717","288227","2369","289325","292234","morph21_Oliver/Morris","25","18451","33","yes","1280","37"
"300","76.4705882353","76.4705882353","559.058823529","559.058823529","black","no","xpyriment","legacy","legacy","0","205","NA","uniform","68543","1000","0.0145893818479","1","undefined","1","0","33","33","33","0","33","33","33","NA","33","33","0","33","NA","33","33","0","33","NA","33","NA","33","0","0","33","33","0","33","33","34","z","09/26/18 16:02:56","The main experiment item","yes","FIN__AB__M21__7%3A10%3A17.osexp","C:\Users\ERP Testing Room\Desktop\Joanna\morph21","no","mono","no","18","no","white","no","yes","1080","legacy","33","33","C:/Users/ERP Testing Room/Desktop/Joanna/morph21/subject-136.csv","xpyriment","Jazzy James","3.1.4","0","z","NA","NA","NA","NA","space","z","557","NA","NA","NA","NA","169775","557","2","legacy","1024","2","48000","-16","AB_m21","136","even","NW_S_SIMP","HELMETOES","2368","295076","293467","290325","172153","NA","NA","NA","NA","295068","293965","NA","292967","NA","292959","295068","2377","295376","NA","NA","294076","2369","2369","294467","292959","2369","294076","295376","morph21_Oliver/Morris","26","19008","34","yes","1280","14"
"300","77.1428571429","77.1428571429","557.342857143","557.342857143","black","no","xpyriment","legacy","legacy","0","201","NA","uniform","78050","1000","0.0128122998078","1","undefined","1","0","34","34","34","0","34","34","34","NA","34","34","0","34","NA","34","34","0","34","NA","34","NA","34","0","0","34","34","0","34","34","35","/","09/26/18 16:02:56","The main experiment item","yes","FIN__AB__M21__7%3A10%3A17.osexp","C:\Users\ERP Testing Room\Desktop\Joanna\morph21","no","mono","no","18","no","white","no","yes","1080","legacy","34","34","C:/Users/ERP Testing Room/Desktop/Joanna/morph21/subject-136.csv","xpyriment","Jazzy James","3.1.4","0","/","NA","NA","NA","NA","space","/","499","NA","NA","NA","NA","169775","499","2","legacy","1024","2","48000","-16","AB_m21","136","even","CW_S","MAGICAL","2368","298127","296543","290325","172153","NA","NA","NA","NA","298121","297040","NA","296042","NA","296032","298121","2377","298427","NA","NA","297126","2369","2369","297519","296032","2369","297126","298427","morph21_Oliver/Morris","27","19507","35","yes","1280","4"
"250","75","75","562.583333333","562.583333333","black","no","xpyriment","legacy","legacy","0","201","NA","uniform","65605","1000","0.0152427406448","0","undefined","0","0","35","35","35","0","35","35","35","NA","35","35","0","35","NA","35","35","0","35","NA","35","NA","35","0","0","35","35","0","35","35","36","/","09/26/18 16:02:56","The main experiment item","yes","FIN__AB__M21__7%3A10%3A17.osexp","C:\Users\ERP Testing Room\Desktop\Joanna\morph21","no","mono","no","18","no","white","no","yes","1080","legacy","35","35","C:/Users/ERP Testing Room/Desktop/Joanna/morph21/subject-136.csv","xpyriment","Jazzy James","3.1.4","0","z","NA","NA","NA","NA","space","z","746","NA","NA","NA","NA","169775","746","2","legacy","1024","2","48000","-16","AB_m21","136","even","CW_S","JAILER","2368","302844","299752","301335","172153","NA","NA","NA","NA","298121","300249","NA","299252","NA","299240","301331","2377","303094","NA","NA","300335","2369","2369","300735","299240","2369","300335","303094","morph21_Oliver/Morris","27","20253","36","yes","1280","13"
"300","75.6756756757","75.6756756757","564.783783784","564.783783784","black","no","xpyriment","legacy","legacy","0","201","NA","uniform","70792","1000","0.0141258899311","1","undefined","1","0","36","36","36","0","36","36","36","NA","36","36","0","36","NA","36","36","0","36","NA","36","NA","36","0","0","36","36","0","36","36","37","/","09/26/18 16:02:56","The main experiment item","yes","FIN__AB__M21__7%3A10%3A17.osexp","C:\Users\ERP Testing Room\Desktop\Joanna\morph21","no","mono","no","18","no","white","no","yes","1080","legacy","36","36","C:/Users/ERP Testing Room/Desktop/Joanna/morph21/subject-136.csv","xpyriment","Jazzy James","3.1.4","0","/","NA","NA","NA","NA","space","/","644","NA","NA","NA","NA","169775","644","2","legacy","1024","2","48000","-16","AB_m21","136","even","CW_S","INSISTENT","2368","305877","304294","301335","172153","NA","NA","NA","NA","305871","304791","NA","303794","NA","303788","305871","2377","306177","NA","NA","304877","2369","2369","305269","303788","2369","304877","306177","morph21_Oliver/Morris","28","20897","37","yes","1280","9"
"350","76.3157894737","76.3157894737","567.842105263","567.842105263","black","no","xpyriment","legacy","legacy","0","203","NA","uniform","70789","1000","0.0141264885787","1","undefined","1","0","37","37","37","0","37","37","37","NA","37","37","0","37","NA","37","37","0","37","NA","37","NA","37","0","0","37","37","0","37","37","38","z","09/26/18 16:02:56","The main experiment item","yes","FIN__AB__M21__7%3A10%3A17.osexp","C:\Users\ERP Testing Room\Desktop\Joanna\morph21","no","mono","no","18","no","white","no","yes","1080","legacy","37","37","C:/Users/ERP Testing Room/Desktop/Joanna/morph21/subject-136.csv","xpyriment","Jazzy James","3.1.4","0","z","NA","NA","NA","NA","space","z","681","NA","NA","NA","NA","169775","681","2","legacy","1024","2","48000","-16","AB_m21","136","even","NW_S_COMP","WELDIC","2368","308952","307369","301335","172153","NA","NA","NA","NA","308949","307866","NA","306869","NA","306862","308949","2377","309302","NA","NA","307952","2369","2369","308352","306862","2369","307952","309302","morph21_Oliver/Morris","29","21578","38","yes","1280","21"
"400","76.9230769231","76.9230769231","570.307692308","570.307692308","black","no","xpyriment","legacy","legacy","0","204","NA","uniform","74061","1000","0.0135023831706","1","undefined","1","0","38","38","38","0","38","38","38","NA","38","38","0","38","NA","38","38","0","38","NA","38","NA","38","0","0","38","38","0","38","38","39","z","09/26/18 16:02:56","The main experiment item","yes","FIN__AB__M21__7%3A10%3A17.osexp","C:\Users\ERP Testing Room\Desktop\Joanna\morph21","no","mono","no","18","no","white","no","yes","1080","legacy","38","38","C:/Users/ERP Testing Room/Desktop/Joanna/morph21/subject-136.csv","xpyriment","Jazzy James","3.1.4","0","z","NA","NA","NA","NA","space","z","664","NA","NA","NA","NA","169775","664","2","legacy","1024","2","48000","-16","AB_m21","136","even","NW_L_COMP","PASSMENT","2368","313678","310586","312169","172153","NA","NA","NA","NA","312162","311083","NA","310086","NA","310080","312162","2377","314078","NA","NA","311169","2369","2369","311561","310080","2369","311169","314078","morph21_Oliver/Morris","30","22242","39","yes","1280","14"
"300","77.5","77.5","578.25","578.25","black","no","xpyriment","legacy","legacy","0","208","NA","uniform","65585","1000","0.0152473888847","1","undefined","1","0","39","39","39","0","39","39","39","NA","39","39","0","39","NA","39","39","0","39","NA","39","NA","39","0","0","39","39","0","39","39","40","z","09/26/18 16:02:56","The main experiment item","yes","FIN__AB__M21__7%3A10%3A17.osexp","C:\Users\ERP Testing Room\Desktop\Joanna\morph21","no","mono","no","18","no","white","no","yes","1080","legacy","39","39","C:/Users/ERP Testing Room/Desktop/Joanna/morph21/subject-136.csv","xpyriment","Jazzy James","3.1.4","0","z","NA","NA","NA","NA","space","z","888","NA","NA","NA","NA","169775","888","2","legacy","1024","2","48000","-16","AB_m21","136","even","FILL_NW","SCURE","2368","316937","315345","312169","172153","NA","NA","NA","NA","316929","315842","NA","314845","NA","314835","316929","2377","317237","NA","NA","315937","2369","2369","316329","314835","2369","315937","317237","morph21_Oliver/Morris","31","23130","40","yes","1280","41"
"350","78.0487804878","78.0487804878","576.365853659","576.365853659","black","no","xpyriment","legacy","legacy","0","202","NA","uniform","72941","1000","0.013709710588","1","undefined","1","0","40","40","40","0","40","40","40","NA","40","40","0","40","NA","40","40","0","40","NA","40","NA","40","0","0","40","40","0","40","40","41","/","09/26/18 16:02:56","The main experiment item","yes","FIN__AB__M21__7%3A10%3A17.osexp","C:\Users\ERP Testing Room\Desktop\Joanna\morph21","no","mono","no","18","no","white","no","yes","1080","legacy","40","40","C:/Users/ERP Testing Room/Desktop/Joanna/morph21/subject-136.csv","xpyriment","Jazzy James","3.1.4","0","/","NA","NA","NA","NA","space","/","501","NA","NA","NA","NA","169775","501","2","legacy","1024","2","48000","-16","AB_m21","136","even","CW_L","HUNTER","2368","319996","318412","312169","172153","NA","NA","NA","NA","319989","318909","NA","317912","NA","317903","319989","2377","320346","NA","NA","318996","2369","2369","319387","317903","2369","318995","320346","morph21_Oliver/Morris","32","23631","41","yes","1280","10"
"200","76.1904761905","76.1904761905","579.928571429","579.928571429","black","no","xpyriment","legacy","legacy","0","208","NA","uniform","72520","1000","0.0137892995036","0","undefined","0","0","41","41","41","0","41","41","41","NA","41","41","0","41","NA","41","41","0","41","NA","41","NA","41","0","0","41","41","0","41","41","42","z","09/26/18 16:02:56","The main experiment item","yes","FIN__AB__M21__7%3A10%3A17.osexp","C:\Users\ERP Testing Room\Desktop\Joanna\morph21","no","mono","no","18","no","white","no","yes","1080","legacy","41","41","C:/Users/ERP Testing Room/Desktop/Joanna/morph21/subject-136.csv","xpyriment","Jazzy James","3.1.4","0","/","NA","NA","NA","NA","space","/","726","NA","NA","NA","NA","169775","726","2","legacy","1024","2","48000","-16","AB_m21","136","even","FILL_NW","FALONS","2368","324696","321604","323187","172153","NA","NA","NA","NA","319989","322101","NA","321104","NA","321101","323182","2377","324896","NA","NA","322187","2369","2369","322579","321101","2369","322187","324896","morph21_Oliver/Morris","32","24357","42","yes","1280","19"
"350","76.7441860465","76.7441860465","581.860465116","581.860465116","black","no","xpyriment","legacy","legacy","0","208","NA","uniform","69506","1000","0.0143872471441","1","undefined","1","0","42","42","42","0","42","42","42","NA","42","42","0","42","NA","42","42","0","42","NA","42","NA","42","0","0","42","42","0","42","42","43","z","09/26/18 16:02:56","The main experiment item","yes","FIN__AB__M21__7%3A10%3A17.osexp","C:\Users\ERP Testing Room\Desktop\Joanna\morph21","no","mono","no","18","no","white","no","yes","1080","legacy","42","42","C:/Users/ERP Testing Room/Desktop/Joanna/morph21/subject-136.csv","xpyriment","Jazzy James","3.1.4","0","z","NA","NA","NA","NA","space","z","663","NA","NA","NA","NA","169775","663","2","legacy","1024","2","48000","-16","AB_m21","136","even","FILL_NW","HEAS","2368","327737","326146","323187","172153","NA","NA","NA","NA","327728","326643","NA","325646","NA","325641","327728","2377","328088","NA","NA","326738","2369","2369","327129","325641","2369","326737","328088","morph21_Oliver/Morris","33","25020","43","yes","1280","26"
"200","77.2727272727","77.2727272727","579.840909091","579.840909091","black","no","xpyriment","legacy","legacy","0","208","NA","uniform","79453","1000","0.0125860571659","1","undefined","1","0","43","43","43","0","43","43","43","NA","43","43","0","43","NA","43","43","0","43","NA","43","NA","43","0","0","43","43","0","43","43","44","z","09/26/18 16:02:56","The main experiment item","yes","FIN__AB__M21__7%3A10%3A17.osexp","C:\Users\ERP Testing Room\Desktop\Joanna\morph21","no","mono","no","18","no","white","no","yes","1080","legacy","43","43","C:/Users/ERP Testing Room/Desktop/Joanna/morph21/subject-136.csv","xpyriment","Jazzy James","3.1.4","0","z","NA","NA","NA","NA","space","z","493","NA","NA","NA","NA","169775","493","2","legacy","1024","2","48000","-16","AB_m21","136","even","FILL_NW","PUCTS","2368","330996","329379","323187","172153","NA","NA","NA","NA","330986","329876","NA","328879","NA","328872","330986","2377","331196","NA","NA","329996","2369","2369","330388","328872","2369","329996","331196","morph21_Oliver/Morris","34","25513","44","yes","1280","40"
"300","77.7777777778","77.7777777778","577.755555556","577.755555556","black","no","xpyriment","legacy","legacy","0","201","NA","uniform","61120","1000","0.0163612565445","1","undefined","1","0","44","44","44","0","44","44","44","NA","44","44","0","44","NA","44","44","0","44","NA","44","NA","44","0","0","44","44","0","44","44","45","/","09/26/18 16:02:56","The main experiment item","yes","FIN__AB__M21__7%3A10%3A17.osexp","C:\Users\ERP Testing Room\Desktop\Joanna\morph21","no","mono","no","18","no","white","no","yes","1080","legacy","44","44","C:/Users/ERP Testing Room/Desktop/Joanna/morph21/subject-136.csv","xpyriment","Jazzy James","3.1.4","0","/","NA","NA","NA","NA","space","/","486","NA","NA","NA","NA","169775","486","2","legacy","1024","2","48000","-16","AB_m21","136","even","CW_S","DESTROYER","2368","335439","332347","333930","172153","NA","NA","NA","NA","333924","332844","NA","331846","NA","331839","333924","2377","335739","NA","NA","332931","2369","2369","333322","331839","2369","332931","335739","morph21_Oliver/Morris","35","25999","45","yes","1280","14"
"350","76.0869565217","76.0869565217","579.717391304","579.717391304","black","no","xpyriment","legacy","legacy","0","202","NA","uniform","64865","1000","0.0154166345487","0","undefined","0","0","45","45","45","0","45","45","45","NA","45","45","0","45","NA","45","45","0","45","NA","45","NA","45","0","0","45","45","0","45","45","46","/","09/26/18 16:02:56","The main experiment item","yes","FIN__AB__M21__7%3A10%3A17.osexp","C:\Users\ERP Testing Room\Desktop\Joanna\morph21","no","mono","no","18","no","white","no","yes","1080","legacy","45","45","C:/Users/ERP Testing Room/Desktop/Joanna/morph21/subject-136.csv","xpyriment","Jazzy James","3.1.4","0","z","NA","NA","NA","NA","space","z","668","NA","NA","NA","NA","169775","668","2","legacy","1024","2","48000","-16","AB_m21","136","even","CW_L","GUILELESS","2368","338597","337006","333930","172153","NA","NA","NA","NA","333924","337503","NA","336506","NA","336499","338587","2377","338947","NA","NA","337597","2369","2369","337989","336499","2369","337597","338947","morph21_Oliver/Morris","35","26667","46","yes","1280","31"
"400","74.4680851064","74.4680851064","581.914893617","581.914893617","black","no","xpyriment","legacy","legacy","0","201","NA","uniform","66825","1000","0.0149644594089","0","undefined","0","0","46","46","46","0","46","46","46","NA","46","46","0","46","NA","46","46","0","46","NA","46","NA","46","0","0","46","46","0","46","46","47","/","09/26/18 16:02:56","The main experiment item","yes","FIN__AB__M21__7%3A10%3A17.osexp","C:\Users\ERP Testing Room\Desktop\Joanna\morph21","no","mono","no","18","no","white","no","yes","1080","legacy","46","46","C:/Users/ERP Testing Room/Desktop/Joanna/morph21/subject-136.csv","xpyriment","Jazzy James","3.1.4","0","z","NA","NA","NA","NA","space","z","683","NA","NA","NA","NA","169775","683","2","legacy","1024","2","48000","-16","AB_m21","136","even","CW_S","AVOIDABLE","2368","341806","340214","333930","172153","NA","NA","NA","NA","333924","340711","NA","339714","NA","339703","341798","2377","342206","NA","NA","340806","2369","2369","341197","339702","2369","340806","342206","morph21_Oliver/Morris","35","27350","47","yes","1280","2"
"300","75","75","578.916666667","578.916666667","black","no","xpyriment","legacy","legacy","0","207","NA","uniform","69099","1000","0.0144719894644","1","undefined","1","0","47","47","47","0","47","47","47","NA","47","47","0","47","NA","47","47","0","47","NA","47","NA","47","0","0","47","47","0","47","47","48","/","09/26/18 16:02:56","The main experiment item","yes","FIN__AB__M21__7%3A10%3A17.osexp","C:\Users\ERP Testing Room\Desktop\Joanna\morph21","no","mono","no","18","no","white","no","yes","1080","legacy","47","47","C:/Users/ERP Testing Room/Desktop/Joanna/morph21/subject-136.csv","xpyriment","Jazzy James","3.1.4","0","/","NA","NA","NA","NA","space","/","438","NA","NA","NA","NA","169775","438","2","legacy","1024","2","48000","-16","AB_m21","136","even","FILL_W","BAKE","2368","346648","343548","345139","172153","NA","NA","NA","NA","345129","344045","NA","343048","NA","343041","345129","2377","346948","NA","NA","344139","2369","2369","344531","343041","2369","344139","346948","morph21_Oliver/Morris","36","27788","48","yes","1280","29"
"400","75.5102040816","75.5102040816","578.081632653","578.081632653","black","no","xpyriment","legacy","legacy","0","206","NA","uniform","70654","1000","0.0141534803408","1","undefined","1","0","48","48","48","0","48","48","48","NA","48","48","0","48","NA","48","48","0","48","NA","48","NA","48","0","0","48","48","0","48","48","49","z","09/26/18 16:02:56","The main experiment item","yes","FIN__AB__M21__7%3A10%3A17.osexp","C:\Users\ERP Testing Room\Desktop\Joanna\morph21","no","mono","no","18","no","white","no","yes","1080","legacy","48","48","C:/Users/ERP Testing Room/Desktop/Joanna/morph21/subject-136.csv","xpyriment","Jazzy James","3.1.4","0","z","NA","NA","NA","NA","space","z","538","NA","NA","NA","NA","169775","538","2","legacy","1024","2","48000","-16","AB_m21","136","even","NW_L_SIMP","BOGADY","2368","349799","348181","345139","172153","NA","NA","NA","NA","349793","348678","NA","347681","NA","347670","349793","2377","350199","NA","NA","348798","2369","2369","349198","347670","2369","348798","350199","morph21_Oliver/Morris","37","28326","49","yes","1280","2"
"250","76","76","576.4","576.4","black","no","xpyriment","legacy","legacy","0","201","NA","uniform","62756","1000","0.0159347313404","1","undefined","1","0","49","49","49","0","49","49","49","NA","49","49","0","49","NA","49","49","0","49","NA","49","NA","49","0","0","49","49","0","49","49","50","/","09/26/18 16:02:56","The main experiment item","yes","FIN__AB__M21__7%3A10%3A17.osexp","C:\Users\ERP Testing Room\Desktop\Joanna\morph21","no","mono","no","18","no","white","no","yes","1080","legacy","49","49","C:/Users/ERP Testing Room/Desktop/Joanna/morph21/subject-136.csv","xpyriment","Jazzy James","3.1.4","0","/","NA","NA","NA","NA","space","/","494","NA","NA","NA","NA","169775","494","2","legacy","1024","2","48000","-16","AB_m21","136","even","CW_S","NOTICEABLE","2368","353091","351491","345139","172153","NA","NA","NA","NA","353087","351988","NA","350991","NA","350985","353087","2377","353341","NA","NA","352099","2369","2369","352491","350985","2369","352099","353341","morph21_Oliver/Morris","38","28820","50","yes","1280","3"
"300","76.4705882353","76.4705882353","574.411764706","574.411764706","black","no","xpyriment","legacy","legacy","0","201","NA","uniform","64259","1000","0.0155620224404","1","undefined","1","0","50","50","50","0","50","50","50","NA","50","50","0","50","NA","50","50","0","50","NA","50","NA","50","0","0","50","50","0","50","50","51","/","09/26/18 16:02:56","The main experiment item","yes","FIN__AB__M21__7%3A10%3A17.osexp","C:\Users\ERP Testing Room\Desktop\Joanna\morph21","no","mono","no","18","no","white","no","yes","1080","legacy","50","50","C:/Users/ERP Testing Room/Desktop/Joanna/morph21/subject-136.csv","xpyriment","Jazzy James","3.1.4","0","/","NA","NA","NA","NA","space","/","475","NA","NA","NA","NA","169775","475","2","legacy","1024","2","48000","-16","AB_m21","136","even","CW_S","GUILTY","2368","357683","354591","356174","172153","NA","NA","NA","NA","356171","355088","NA","354091","NA","354080","356171","2377","357983","NA","NA","355174","2369","2369","355574","354080","2369","355174","357983","morph21_Oliver/Morris","39","29295","51","yes","1280","34"
"300","76.9230769231","76.9230769231","572.634615385","572.634615385","black","no","xpyriment","legacy","legacy","0","207","NA","uniform","74112","1000","0.0134930915371","1","undefined","1","0","51","51","51","0","51","51","51","NA","51","51","0","51","NA","51","51","0","51","NA","51","NA","51","0","0","51","51","0","51","51","52","/","09/26/18 16:02:56","The main experiment item","yes","FIN__AB__M21__7%3A10%3A17.osexp","C:\Users\ERP Testing Room\Desktop\Joanna\morph21","no","mono","no","18","no","white","no","yes","1080","legacy","51","51","C:/Users/ERP Testing Room/Desktop/Joanna/morph21/subject-136.csv","xpyriment","Jazzy James","3.1.4","0","/","NA","NA","NA","NA","space","/","482","NA","NA","NA","NA","169775","482","2","legacy","1024","2","48000","-16","AB_m21","136","even","FILL_W","IRON","2368","360791","359183","356174","172153","NA","NA","NA","NA","360788","359680","NA","358683","NA","358678","360788","2377","361091","NA","NA","359799","2369","2369","360191","358678","2369","359799","361091","morph21_Oliver/Morris","40","29777","52","yes","1280","33"
"400","77.358490566","77.358490566","576.924528302","576.924528302","black","no","xpyriment","legacy","legacy","0","204","NA","uniform","62783","1000","0.0159278785659","1","undefined","1","0","52","52","52","0","52","52","52","NA","52","52","0","52","NA","52","52","0","52","NA","52","NA","52","0","0","52","52","0","52","52","53","z","09/26/18 16:02:56","The main experiment item","yes","FIN__AB__M21__7%3A10%3A17.osexp","C:\Users\ERP Testing Room\Desktop\Joanna\morph21","no","mono","no","18","no","white","no","yes","1080","legacy","52","52","C:/Users/ERP Testing Room/Desktop/Joanna/morph21/subject-136.csv","xpyriment","Jazzy James","3.1.4","0","z","NA","NA","NA","NA","space","z","800","NA","NA","NA","NA","169775","800","2","legacy","1024","2","48000","-16","AB_m21","136","even","NW_L_COMP","FLITENCE","2368","363833","362249","356174","172153","NA","NA","NA","NA","363826","362747","NA","361749","NA","361741","363826","2377","364233","NA","NA","362833","2369","2369","363224","361741","2369","362833","364233","morph21_Oliver/Morris","41","30577","53","yes","1280","3"
"350","77.7777777778","77.7777777778","576.722222222","576.722222222","black","no","xpyriment","legacy","legacy","0","205","NA","uniform","76295","1000","0.0131070188086","1","undefined","1","0","53","53","53","0","53","53","53","NA","53","53","0","53","NA","53","53","0","53","NA","53","NA","53","0","0","53","53","0","53","53","54","z","09/26/18 16:02:56","The main experiment item","yes","FIN__AB__M21__7%3A10%3A17.osexp","C:\Users\ERP Testing Room\Desktop\Joanna\morph21","no","mono","no","18","no","white","no","yes","1080","legacy","53","53","C:/Users/ERP Testing Room/Desktop/Joanna/morph21/subject-136.csv","xpyriment","Jazzy James","3.1.4","0","z","NA","NA","NA","NA","space","z","566","NA","NA","NA","NA","169775","566","2","legacy","1024","2","48000","-16","AB_m21","136","even","NW_S_SIMP","ACREMANT","2368","368559","365466","367050","172153","NA","NA","NA","NA","367044","365963","NA","364966","NA","364959","367044","2377","368909","NA","NA","366050","2369","2369","366441","364959","2369","366050","368909","morph21_Oliver/Morris","42","31143","54","yes","1280","16"
"250","78.1818181818","78.1818181818","576.454545455","576.454545455","black","no","xpyriment","legacy","legacy","0","208","NA","uniform","66297","1000","0.015083638777","1","undefined","1","0","54","54","54","0","54","54","54","NA","54","54","0","54","NA","54","54","0","54","NA","54","NA","54","0","0","54","54","0","54","54","55","z","09/26/18 16:02:56","The main experiment item","yes","FIN__AB__M21__7%3A10%3A17.osexp","C:\Users\ERP Testing Room\Desktop\Joanna\morph21","no","mono","no","18","no","white","no","yes","1080","legacy","54","54","C:/Users/ERP Testing Room/Desktop/Joanna/morph21/subject-136.csv","xpyriment","Jazzy James","3.1.4","0","z","NA","NA","NA","NA","space","z","562","NA","NA","NA","NA","169775","562","2","legacy","1024","2","48000","-16","AB_m21","136","even","FILL_NW","DOWED","2368","371751","370167","367050","172153","NA","NA","NA","NA","371744","370665","NA","369667","NA","369655","371744","2377","372001","NA","NA","370751","2369","2369","371142","369655","2369","370751","372001","morph21_Oliver/Morris","43","31705","55","yes","1280","16"
"250","76.7857142857","76.7857142857","579.339285714","579.339285714","black","no","xpyriment","legacy","legacy","0","203","NA","uniform","70726","1000","0.0141390719113","0","undefined","0","0","55","55","55","0","55","55","55","NA","55","55","0","55","NA","55","55","0","55","NA","55","NA","55","0","0","55","55","0","55","55","56","z","09/26/18 16:02:56","The main experiment item","yes","FIN__AB__M21__7%3A10%3A17.osexp","C:\Users\ERP Testing Room\Desktop\Joanna\morph21","no","mono","no","18","no","white","no","yes","1080","legacy","55","55","C:/Users/ERP Testing Room/Desktop/Joanna/morph21/subject-136.csv","xpyriment","Jazzy James","3.1.4","0","/","NA","NA","NA","NA","space","/","738","NA","NA","NA","NA","169775","738","2","legacy","1024","2","48000","-16","AB_m21","136","even","NW_S_COMP","BRANCHER","2368","374959","373368","367050","172153","NA","NA","NA","NA","371744","373865","NA","372868","NA","372860","374949","2377","375209","NA","NA","373959","2369","2369","374351","372860","2369","373959","375209","morph21_Oliver/Morris","43","32443","56","yes","1280","16"
"400","77.1929824561","77.1929824561","579.754385965","579.754385965","black","no","xpyriment","legacy","legacy","0","208","NA","uniform","71708","1000","0.0139454454175","1","undefined","1","0","56","56","56","0","56","56","56","NA","56","56","0","56","NA","56","56","0","56","NA","56","NA","56","0","0","56","56","0","56","56","57","z","09/26/18 16:02:56","The main experiment item","yes","FIN__AB__M21__7%3A10%3A17.osexp","C:\Users\ERP Testing Room\Desktop\Joanna\morph21","no","mono","no","18","no","white","no","yes","1080","legacy","56","56","C:/Users/ERP Testing Room/Desktop/Joanna/morph21/subject-136.csv","xpyriment","Jazzy James","3.1.4","0","z","NA","NA","NA","NA","space","z","603","NA","NA","NA","NA","169775","603","2","legacy","1024","2","48000","-16","AB_m21","136","even","FILL_NW","BUTE","2368","379618","376493","378109","172153","NA","NA","NA","NA","378106","376990","NA","375993","NA","375983","378106","2377","380018","NA","NA","377118","2369","2369","377509","375983","2369","377118","380018","morph21_Oliver/Morris","44","33046","57","yes","1280","5"
"300","77.5862068966","77.5862068966","578.586206897","578.586206897","black","no","xpyriment","legacy","legacy","0","205","NA","uniform","79079","1000","0.0126455822658","1","undefined","1","0","57","57","57","0","57","57","57","NA","57","57","0","57","NA","57","57","0","57","NA","57","NA","57","0","0","57","57","0","57","57","58","z","09/26/18 16:02:56","The main experiment item","yes","FIN__AB__M21__7%3A10%3A17.osexp","C:\Users\ERP Testing Room\Desktop\Joanna\morph21","no","mono","no","18","no","white","no","yes","1080","legacy","57","57","C:/Users/ERP Testing Room/Desktop/Joanna/morph21/subject-136.csv","xpyriment","Jazzy James","3.1.4","0","z","NA","NA","NA","NA","space","z","512","NA","NA","NA","NA","169775","512","2","legacy","1024","2","48000","-16","AB_m21","136","even","NW_S_SIMP","BOLTOES","2368","382785","381201","378109","172153","NA","NA","NA","NA","382780","381698","NA","380701","NA","380698","382780","2377","383085","NA","NA","381785","2369","2369","382185","380698","2369","381785","383085","morph21_Oliver/Morris","45","33558","58","yes","1280","13"
"200","77.9661016949","77.9661016949","579.152542373","579.152542373","black","no","xpyriment","legacy","legacy","0","208","NA","uniform","75455","1000","0.0132529322113","1","undefined","1","0","58","58","58","0","58","58","58","NA","58","58","0","58","NA","58","58","0","58","NA","58","NA","58","0","0","58","58","0","58","58","59","z","09/26/18 16:02:56","The main experiment item","yes","FIN__AB__M21__7%3A10%3A17.osexp","C:\Users\ERP Testing Room\Desktop\Joanna\morph21","no","mono","no","18","no","white","no","yes","1080","legacy","58","58","C:/Users/ERP Testing Room/Desktop/Joanna/morph21/subject-136.csv","xpyriment","Jazzy James","3.1.4","0","z","NA","NA","NA","NA","space","z","612","NA","NA","NA","NA","169775","612","2","legacy","1024","2","48000","-16","AB_m21","136","even","FILL_NW","FROT","2368","385877","384293","378109","172153","NA","NA","NA","NA","385872","384790","NA","383793","NA","383783","385872","2377","386077","NA","NA","384877","2369","2369","385269","383782","2369","384877","386077","morph21_Oliver/Morris","46","34170","59","yes","1280","22"
"200","78.3333333333","78.3333333333","577.933333333","577.933333333","black","no","xpyriment","legacy","legacy","0","207","NA","uniform","74613","1000","0.0134024901827","1","undefined","1","0","59","59","59","0","59","59","59","NA","59","59","0","59","NA","59","59","0","59","NA","59","NA","59","0","0","59","59","0","59","59","60","/","09/26/18 16:02:56","The main experiment item","yes","FIN__AB__M21__7%3A10%3A17.osexp","C:\Users\ERP Testing Room\Desktop\Joanna\morph21","no","mono","no","18","no","white","no","yes","1080","legacy","59","59","C:/Users/ERP Testing Room/Desktop/Joanna/morph21/subject-136.csv","xpyriment","Jazzy James","3.1.4","0","/","NA","NA","NA","NA","space","/","506","NA","NA","NA","NA","169775","506","2","legacy","1024","2","48000","-16","AB_m21","136","even","FILL_W","BRASS","2368","390411","387294","388903","172153","NA","NA","NA","NA","388893","387791","NA","386794","NA","386784","388893","2377","390611","NA","NA","387903","2369","2369","388294","386784","2369","387903","390611","morph21_Oliver/Morris","47","34676","60","yes","1280","10"
"250","78.6885245902","78.6885245902","576.901639344","576.901639344","black","no","xpyriment","legacy","legacy","0","205","NA","uniform","78137","1000","0.0127980342219","1","undefined","1","0","60","60","60","0","60","60","60","NA","60","60","0","60","NA","60","60","0","60","NA","60","NA","60","0","0","60","60","0","60","60","61","z","09/26/18 16:02:56","The main experiment item","yes","FIN__AB__M21__7%3A10%3A17.osexp","C:\Users\ERP Testing Room\Desktop\Joanna\morph21","no","mono","no","18","no","white","no","yes","1080","legacy","60","60","C:/Users/ERP Testing Room/Desktop/Joanna/morph21/subject-136.csv","xpyriment","Jazzy James","3.1.4","0","z","NA","NA","NA","NA","space","z","515","NA","NA","NA","NA","169775","515","2","legacy","1024","2","48000","-16","AB_m21","136","even","NW_S_SIMP","ZOOMFIL","2368","393469","391861","388903","172153","NA","NA","NA","NA","393460","392358","NA","391361","NA","391351","393460","2377","393719","NA","NA","392470","2369","2369","392861","391351","2369","392469","393719","morph21_Oliver/Morris","48","35191","61","yes","1280","19"
"400","79.0322580645","79.0322580645","575.193548387","575.193548387","black","no","xpyriment","legacy","legacy","0","201","NA","uniform","74933","1000","0.0133452550946","1","undefined","1","0","61","61","61","0","61","61","61","NA","61","61","0","61","NA","61","61","0","61","NA","61","NA","61","0","0","61","61","0","61","61","62","/","09/26/18 16:02:56","The main experiment item","yes","FIN__AB__M21__7%3A10%3A17.osexp","C:\Users\ERP Testing Room\Desktop\Joanna\morph21","no","mono","no","18","no","white","no","yes","1080","legacy","61","61","C:/Users/ERP Testing Room/Desktop/Joanna/morph21/subject-136.csv","xpyriment","Jazzy James","3.1.4","0","/","NA","NA","NA","NA","space","/","471","NA","NA","NA","NA","169775","471","2","legacy","1024","2","48000","-16","AB_m21","136","even","CW_S","DESIGN","2368","396586","395003","388903","172153","NA","NA","NA","NA","396581","395500","NA","394503","NA","394492","396581","2377","396986","NA","NA","395586","2369","2369","395986","394492","2369","395586","396986","morph21_Oliver/Morris","49","35662","62","yes","1280","19"
"350","79.3650793651","79.3650793651","574.53968254","574.53968254","black","no","xpyriment","legacy","legacy","0","208","NA","uniform","71871","1000","0.0139138178125","1","undefined","1","0","62","62","62","0","62","62","62","NA","62","62","0","62","NA","62","62","0","62","NA","62","NA","62","0","0","62","62","0","62","62","63","z","09/26/18 16:02:56","The main experiment item","yes","FIN__AB__M21__7%3A10%3A17.osexp","C:\Users\ERP Testing Room\Desktop\Joanna\morph21","no","mono","no","18","no","white","no","yes","1080","legacy","62","62","C:/Users/ERP Testing Room/Desktop/Joanna/morph21/subject-136.csv","xpyriment","Jazzy James","3.1.4","0","z","NA","NA","NA","NA","space","z","534","NA","NA","NA","NA","169775","534","2","legacy","1024","2","48000","-16","AB_m21","136","even","FILL_NW","DELP","2368","401303","398203","399795","172153","NA","NA","NA","NA","399788","398700","NA","397703","NA","397694","399788","2377","401653","NA","NA","398795","2369","2369","399186","397694","2369","398795","401653","morph21_Oliver/Morris","50","36196","63","yes","1280","14"
"300","79.6875","79.6875","575.984375","575.984375","black","no","xpyriment","legacy","legacy","0","203","NA","uniform","70966","1000","0.0140912549672","1","undefined","1","0","63","63","63","0","63","63","63","NA","63","63","0","63","NA","63","63","0","63","NA","63","NA","63","0","0","63","63","0","63","63","64","z","09/26/18 16:02:56","The main experiment item","yes","FIN__AB__M21__7%3A10%3A17.osexp","C:\Users\ERP Testing Room\Desktop\Joanna\morph21","no","mono","no","18","no","white","no","yes","1080","legacy","63","63","C:/Users/ERP Testing Room/Desktop/Joanna/morph21/subject-136.csv","xpyriment","Jazzy James","3.1.4","0","z","NA","NA","NA","NA","space","z","667","NA","NA","NA","NA","169775","667","2","legacy","1024","2","48000","-16","AB_m21","136","even","NW_S_COMP","CURTITY","2368","404454","402871","399795","172153","NA","NA","NA","NA","404447","403368","NA","402371","NA","402366","404447","2377","404754","NA","NA","403454","2369","2369","403846","402365","2369","403454","404754","morph21_Oliver/Morris","51","36863","64","yes","1280","11"
"350","78.4615384615","78.4615384615","578.061538462","578.061538462","black","no","xpyriment","legacy","legacy","0","202","NA","uniform","71466","1000","0.0139926678421","0","undefined","0","0","64","64","64","0","64","64","64","NA","64","64","0","64","NA","64","64","0","64","NA","64","NA","64","0","0","64","64","0","64","64","65","/","09/26/18 16:02:56","The main experiment item","yes","FIN__AB__M21__7%3A10%3A17.osexp","C:\Users\ERP Testing Room\Desktop\Joanna\morph21","no","mono","no","18","no","white","no","yes","1080","legacy","64","64","C:/Users/ERP Testing Room/Desktop/Joanna/morph21/subject-136.csv","xpyriment","Jazzy James","3.1.4","0","z","NA","NA","NA","NA","space","z","711","NA","NA","NA","NA","169775","711","2","legacy","1024","2","48000","-16","AB_m21","136","even","CW_L","BARKER","2368","407538","405946","399795","172153","NA","NA","NA","NA","404447","406443","NA","405446","NA","405437","407528","2377","407888","NA","NA","406538","2369","2369","406929","405437","2369","406538","407888","morph21_Oliver/Morris","51","37574","65","yes","1280","2"
"400","78.7878787879","78.7878787879","577.46969697","577.46969697","black","no","xpyriment","legacy","legacy","0","205","NA","uniform","78712","1000","0.0127045431446","1","undefined","1","0","65","65","65","0","65","65","65","NA","65","65","0","65","NA","65","65","0","65","NA","65","NA","65","0","0","65","65","0","65","65","66","z","09/26/18 16:02:56","The main experiment item","yes","FIN__AB__M21__7%3A10%3A17.osexp","C:\Users\ERP Testing Room\Desktop\Joanna\morph21","no","mono","no","18","no","white","no","yes","1080","legacy","65","65","C:/Users/ERP Testing Room/Desktop/Joanna/morph21/subject-136.csv","xpyriment","Jazzy James","3.1.4","0","z","NA","NA","NA","NA","space","z","539","NA","NA","NA","NA","169775","539","2","legacy","1024","2","48000","-16","AB_m21","136","even","NW_S_SIMP","MEDICALADY","2368","412138","409046","410630","172153","NA","NA","NA","NA","410622","409543","NA","408546","NA","408539","410622","2377","412538","NA","NA","409630","2369","2369","410021","408539","2369","409630","412538","morph21_Oliver/Morris","52","38113","66","yes","1280","18"
"200","79.1044776119","79.1044776119","576.910447761","576.910447761","black","no","xpyriment","legacy","legacy","0","208","NA","uniform","77694","1000","0.0128710067701","1","undefined","1","0","66","66","66","0","66","66","66","NA","66","66","0","66","NA","66","66","0","66","NA","66","NA","66","0","0","66","66","0","66","66","67","z","09/26/18 16:02:56","The main experiment item","yes","FIN__AB__M21__7%3A10%3A17.osexp","C:\Users\ERP Testing Room\Desktop\Joanna\morph21","no","mono","no","18","no","white","no","yes","1080","legacy","66","66","C:/Users/ERP Testing Room/Desktop/Joanna/morph21/subject-136.csv","xpyriment","Jazzy James","3.1.4","0","z","NA","NA","NA","NA","space","z","540","NA","NA","NA","NA","169775","540","2","legacy","1024","2","48000","-16","AB_m21","136","even","FILL_NW","DARM","2368","415405","413805","410630","172153","NA","NA","NA","NA","415398","414302","NA","413305","NA","413297","415398","2377","415605","NA","NA","414405","2369","2369","414796","413297","2369","414405","415605","morph21_Oliver/Morris","53","38653","67","yes","1280","11"
"300","79.4117647059","79.4117647059","576","576","black","no","xpyriment","legacy","legacy","0","206","NA","uniform","78946","1000","0.012666886226","1","undefined","1","0","67","67","67","0","67","67","67","NA","67","67","0","67","NA","67","67","0","67","NA","67","NA","67","0","0","67","67","0","67","67","68","z","09/26/18 16:02:56","The main experiment item","yes","FIN__AB__M21__7%3A10%3A17.osexp","C:\Users\ERP Testing Room\Desktop\Joanna\morph21","no","mono","no","18","no","white","no","yes","1080","legacy","67","67","C:/Users/ERP Testing Room/Desktop/Joanna/morph21/subject-136.csv","xpyriment","Jazzy James","3.1.4","0","z","NA","NA","NA","NA","space","z","515","NA","NA","NA","NA","169775","515","2","legacy","1024","2","48000","-16","AB_m21","136","even","NW_L_SIMP","TAXFIL","2368","418430","416822","410630","172153","NA","NA","NA","NA","418422","417319","NA","416322","NA","416316","418422","2377","418730","NA","NA","417430","2369","2369","417822","416316","2369","417430","418730","morph21_Oliver/Morris","54","39168","68","yes","1280","6"
"350","79.7101449275","79.7101449275","574.695652174","574.695652174","black","no","xpyriment","legacy","legacy","0","201","NA","uniform","79812","1000","0.0125294441939","1","undefined","1","0","68","68","68","0","68","68","68","NA","68","68","0","68","NA","68","68","0","68","NA","68","NA","68","0","0","68","68","0","68","68","69","/","09/26/18 16:02:56","The main experiment item","yes","FIN__AB__M21__7%3A10%3A17.osexp","C:\Users\ERP Testing Room\Desktop\Joanna\morph21","no","mono","no","18","no","white","no","yes","1080","legacy","68","68","C:/Users/ERP Testing Room/Desktop/Joanna/morph21/subject-136.csv","xpyriment","Jazzy James","3.1.4","0","/","NA","NA","NA","NA","space","/","486","NA","NA","NA","NA","169775","486","2","legacy","1024","2","48000","-16","AB_m21","136","even","CW_S","TEACHER","2368","423031","419939","421523","172153","NA","NA","NA","NA","421515","420436","NA","419438","NA","419431","421515","2377","423381","NA","NA","420523","2369","2369","420914","419431","2369","420523","423381","morph21_Oliver/Morris","55","39654","69","yes","1280","23"
"200","80","80","574.085714286","574.085714286","black","no","xpyriment","legacy","legacy","0","207","NA","uniform","77091","1000","0.0129716828164","1","undefined","1","0","69","69","69","0","69","69","69","NA","69","69","0","69","NA","69","69","0","69","NA","69","NA","69","0","0","69","69","0","69","69","70","/","09/26/18 16:02:56","The main experiment item","yes","FIN__AB__M21__7%3A10%3A17.osexp","C:\Users\ERP Testing Room\Desktop\Joanna\morph21","no","mono","no","18","no","white","no","yes","1080","legacy","69","69","C:/Users/ERP Testing Room/Desktop/Joanna/morph21/subject-136.csv","xpyriment","Jazzy James","3.1.4","0","/","NA","NA","NA","NA","space","/","532","NA","NA","NA","NA","169775","532","2","legacy","1024","2","48000","-16","AB_m21","136","even","FILL_W","STALK","2368","426165","424581","421523","172153","NA","NA","NA","NA","426160","425078","NA","424081","NA","424070","426160","2377","426365","NA","NA","425165","2369","2369","425565","424070","2369","425164","426365","morph21_Oliver/Morris","56","40186","70","yes","1280","27"
"200","80.2816901408","80.2816901408","572.788732394","572.788732394","black","no","xpyriment","legacy","legacy","0","206","NA","uniform","71908","1000","0.0139066585081","1","undefined","1","0","70","70","70","0","70","70","70","NA","70","70","0","70","NA","70","70","0","70","NA","70","NA","70","0","0","70","70","0","70","70","71","z","09/26/18 16:02:56","The main experiment item","yes","FIN__AB__M21__7%3A10%3A17.osexp","C:\Users\ERP Testing Room\Desktop\Joanna\morph21","no","mono","no","18","no","white","no","yes","1080","legacy","70","70","C:/Users/ERP Testing Room/Desktop/Joanna/morph21/subject-136.csv","xpyriment","Jazzy James","3.1.4","0","z","NA","NA","NA","NA","space","z","482","NA","NA","NA","NA","169775","482","2","legacy","1024","2","48000","-16","AB_m21","136","even","NW_L_SIMP","TOWERLA","2368","429223","427631","421523","172153","NA","NA","NA","NA","429217","428128","NA","427131","NA","427120","429217","2377","429423","NA","NA","428223","2369","2369","428615","427120","2369","428223","429423","morph21_Oliver/Morris","57","40668","71","yes","1280","15"
"250","79.1666666667","79.1666666667","573.722222222","573.722222222","black","no","xpyriment","legacy","legacy","0","207","NA","uniform","75268","1000","0.0132858585322","0","undefined","0","0","71","71","71","0","71","71","71","NA","71","71","0","71","NA","71","71","0","71","NA","71","NA","71","0","0","71","71","0","71","71","72","/","09/26/18 16:02:56","The main experiment item","yes","FIN__AB__M21__7%3A10%3A17.osexp","C:\Users\ERP Testing Room\Desktop\Joanna\morph21","no","mono","no","18","no","white","no","yes","1080","legacy","71","71","C:/Users/ERP Testing Room/Desktop/Joanna/morph21/subject-136.csv","xpyriment","Jazzy James","3.1.4","0","z","NA","NA","NA","NA","space","z","640","NA","NA","NA","NA","169775","640","2","legacy","1024","2","48000","-16","AB_m21","136","even","FILL_W","STARVE","2368","433773","430681","432265","172153","NA","NA","NA","NA","429217","431179","NA","430181","NA","430176","432259","2377","434023","NA","NA","431265","2369","2369","431656","430176","2369","431265","434023","morph21_Oliver/Morris","57","41308","72","yes","1280","15"
"350","79.4520547945","79.4520547945","574.01369863","574.01369863","black","no","xpyriment","legacy","legacy","0","201","NA","uniform","72783","1000","0.0137394721295","1","undefined","1","0","72","72","72","0","72","72","72","NA","72","72","0","72","NA","72","72","0","72","NA","72","NA","72","0","0","72","72","0","72","72","73","/","09/26/18 16:02:56","The main experiment item","yes","FIN__AB__M21__7%3A10%3A17.osexp","C:\Users\ERP Testing Room\Desktop\Joanna\morph21","no","mono","no","18","no","white","no","yes","1080","legacy","72","72","C:/Users/ERP Testing Room/Desktop/Joanna/morph21/subject-136.csv","xpyriment","Jazzy James","3.1.4","0","/","NA","NA","NA","NA","space","/","595","NA","NA","NA","NA","169775","595","2","legacy","1024","2","48000","-16","AB_m21","136","even","CW_S","CHILLY","2368","436782","435190","432265","172153","NA","NA","NA","NA","436777","435687","NA","434690","NA","434686","436777","2377","437132","NA","NA","435782","2369","2369","436182","434686","2369","435782","437132","morph21_Oliver/Morris","58","41903","73","yes","1280","48"
"200","79.7297297297","79.7297297297","572.77027027","572.77027027","black","no","xpyriment","legacy","legacy","0","202","NA","uniform","77829","1000","0.0128486810829","1","undefined","1","0","73","73","73","0","73","73","73","NA","73","73","0","73","NA","73","73","0","73","NA","73","NA","73","0","0","73","73","0","73","73","74","/","09/26/18 16:02:56","The main experiment item","yes","FIN__AB__M21__7%3A10%3A17.osexp","C:\Users\ERP Testing Room\Desktop\Joanna\morph21","no","mono","no","18","no","white","no","yes","1080","legacy","73","73","C:/Users/ERP Testing Room/Desktop/Joanna/morph21/subject-136.csv","xpyriment","Jazzy James","3.1.4","0","/","NA","NA","NA","NA","space","/","482","NA","NA","NA","NA","169775","482","2","legacy","1024","2","48000","-16","AB_m21","136","even","CW_L","COLLECTOR","2368","439974","438383","432265","172153","NA","NA","NA","NA","439965","438880","NA","437883","NA","437874","439965","2377","440175","NA","NA","438975","2369","2369","439366","437874","2369","438975","440175","morph21_Oliver/Morris","59","42385","74","yes","1280","46"
"350","80","80","570.72","570.72","black","no","xpyriment","legacy","legacy","0","202","NA","uniform","82403","1000","0.0121354805044","undefined","undefined","1","0","74","74","74","0","74","74","74","NA","74","74","0","74","NA","74","74","0","74","NA","74","NA","74","0","0","74","74","0","74","74","75","/","09/26/18 16:02:56","The main experiment item","yes","FIN__AB__M21__7%3A10%3A17.osexp","C:\Users\ERP Testing Room\Desktop\Joanna\morph21","no","mono","no","18","no","white","no","yes","1080","legacy","74","74","C:/Users/ERP Testing Room/Desktop/Joanna/morph21/subject-136.csv","xpyriment","Jazzy James","3.1.4","0","space","space","NA","NA","NA","space","/","7096","7096","NA","NA","NA","169775","419","2","legacy","1024","2","48000","-16","AB_m21","136","even","CW_L","BOMBER","2368","444475","441375","442966","172153","444833","NA","NA","NA","442958","441872","NA","440875","NA","440866","442958","2377","451929","NA","NA","441966","2369","2369","442358","440866","2369","441966","444825","morph21_Oliver/Morris","60","42804","75","yes","1280","7"
"250","80.2631578947","80.2631578947","569.934210526","569.934210526","black","no","xpyriment","legacy","legacy","0","201","NA","uniform","78735","1000","0.0127008319045","1","undefined","1","0","75","75","75","0","75","75","75","NA","75","75","0","75","NA","75","75","0","75","NA","75","NA","75","0","0","75","75","0","75","75","76","/","09/26/18 16:02:56","The main experiment item","yes","FIN__AB__M21__7%3A10%3A17.osexp","C:\Users\ERP Testing Room\Desktop\Joanna\morph21","no","mono","no","18","no","white","no","yes","1080","legacy","75","75","C:/Users/ERP Testing Room/Desktop/Joanna/morph21/subject-136.csv","xpyriment","Jazzy James","3.1.4","0","/","space","NA","NA","NA","space","/","511","7096","NA","NA","NA","169775","511","2","legacy","1024","2","48000","-16","AB_m21","136","even","CW_S","SEEKER","2368","454651","453067","442966","172153","444833","NA","NA","NA","454645","453564","NA","452567","NA","452558","454645","2377","454901","NA","NA","453650","2369","2369","454050","452558","2369","453650","454901","morph21_Oliver/Morris","61","43315","76","yes","1280","16"
"300","80.5194805195","80.5194805195","571.623376623","571.623376623","black","no","xpyriment","legacy","legacy","0","205","NA","uniform","65558","1000","0.0152536685073","1","undefined","1","0","76","76","76","0","76","76","76","NA","76","76","0","76","NA","76","76","0","76","NA","76","NA","76","0","0","76","76","0","76","76","77","z","09/26/18 16:02:56","The main experiment item","yes","FIN__AB__M21__7%3A10%3A17.osexp","C:\Users\ERP Testing Room\Desktop\Joanna\morph21","no","mono","no","18","no","white","no","yes","1080","legacy","76","76","C:/Users/ERP Testing Room/Desktop/Joanna/morph21/subject-136.csv","xpyriment","Jazzy James","3.1.4","0","z","space","NA","NA","NA","space","z","700","7096","NA","NA","NA","169775","700","2","legacy","1024","2","48000","-16","AB_m21","136","even","NW_S_SIMP","WINKIDY","2368","457693","456101","442966","172153","444833","NA","NA","NA","457687","456598","NA","455601","NA","455592","457687","2377","457993","NA","NA","456693","2369","2369","457085","455592","2369","456693","457993","morph21_Oliver/Morris","62","44015","77","yes","1280","21"
"250","80.7692307692","80.7692307692","570.435897436","570.435897436","black","no","xpyriment","legacy","legacy","0","201","NA","uniform","79812","1000","0.0125294441939","1","undefined","1","0","77","77","77","0","77","77","77","NA","77","77","0","77","NA","77","77","0","77","NA","77","NA","77","0","0","77","77","0","77","77","78","/","09/26/18 16:02:56","The main experiment item","yes","FIN__AB__M21__7%3A10%3A17.osexp","C:\Users\ERP Testing Room\Desktop\Joanna\morph21","no","mono","no","18","no","white","no","yes","1080","legacy","77","77","C:/Users/ERP Testing Room/Desktop/Joanna/morph21/subject-136.csv","xpyriment","Jazzy James","3.1.4","0","/","space","NA","NA","NA","space","/","479","7096","NA","NA","NA","169775","479","2","legacy","1024","2","48000","-16","AB_m21","136","even","CW_S","PLANNER","2368","462327","459226","460818","172153","444833","NA","NA","NA","460809","459724","NA","458726","NA","458715","460809","2377","462577","NA","NA","459818","2369","2369","460210","458715","2369","459818","462577","morph21_Oliver/Morris","63","44494","78","yes","1280","22"
"400","81.0126582278","81.0126582278","570.430379747","570.430379747","black","no","xpyriment","legacy","legacy","0","202","NA","uniform","75126","1000","0.0133109709022","1","undefined","1","0","78","78","78","0","78","78","78","NA","78","78","0","78","NA","78","78","0","78","NA","78","NA","78","0","0","78","78","0","78","78","79","/","09/26/18 16:02:56","The main experiment item","yes","FIN__AB__M21__7%3A10%3A17.osexp","C:\Users\ERP Testing Room\Desktop\Joanna\morph21","no","mono","no","18","no","white","no","yes","1080","legacy","78","78","C:/Users/ERP Testing Room/Desktop/Joanna/morph21/subject-136.csv","xpyriment","Jazzy James","3.1.4","0","/","space","NA","NA","NA","space","/","570","7096","NA","NA","NA","169775","570","2","legacy","1024","2","48000","-16","AB_m21","136","even","CW_L","DRYNESS","2368","465343","463760","460818","172153","444833","NA","NA","NA","465338","464257","NA","463260","NA","463253","465338","2377","465743","NA","NA","464343","2369","2369","464743","463253","2369","464343","465743","morph21_Oliver/Morris","64","45064","79","yes","1280","42"
"350","81.25","81.25","570.0875","570.0875","black","no","xpyriment","legacy","legacy","0","205","NA","uniform","75618","1000","0.0132243645693","1","undefined","1","0","79","79","79","0","79","79","79","NA","79","79","0","79","NA","79","79","0","79","NA","79","NA","79","0","0","79","79","0","79","79","80","z","09/26/18 16:02:56","The main experiment item","yes","FIN__AB__M21__7%3A10%3A17.osexp","C:\Users\ERP Testing Room\Desktop\Joanna\morph21","no","mono","no","18","no","white","no","yes","1080","legacy","79","79","C:/Users/ERP Testing Room/Desktop/Joanna/morph21/subject-136.csv","xpyriment","Jazzy James","3.1.4","0","z","space","NA","NA","NA","space","z","543","7096","NA","NA","NA","169775","543","2","legacy","1024","2","48000","-16","AB_m21","136","even","NW_S_SIMP","BASKODY","2368","468602","466985","460818","172153","444833","NA","NA","NA","468598","467482","NA","466485","NA","466478","468598","2377","468952","NA","NA","467602","2369","2369","468002","466478","2369","467602","468952","morph21_Oliver/Morris","65","45607","80","yes","1280","10"
"300","81.4814814815","81.4814814815","571.419753086","571.419753086","black","no","xpyriment","legacy","legacy","0","201","NA","uniform","68682","1000","0.0145598555662","1","undefined","1","0","80","80","80","0","80","80","80","NA","80","80","0","80","NA","80","80","0","80","NA","80","NA","80","0","0","80","80","0","80","80","81","/","09/26/18 16:02:56","The main experiment item","yes","FIN__AB__M21__7%3A10%3A17.osexp","C:\Users\ERP Testing Room\Desktop\Joanna\morph21","no","mono","no","18","no","white","no","yes","1080","legacy","80","80","C:/Users/ERP Testing Room/Desktop/Joanna/morph21/subject-136.csv","xpyriment","Jazzy James","3.1.4","0","/","space","NA","NA","NA","space","/","678","7096","NA","NA","NA","169775","678","2","legacy","1024","2","48000","-16","AB_m21","136","even","CW_S","RISKY","2368","473345","470252","471835","172153","444833","NA","NA","NA","471829","470749","NA","469752","NA","469747","471829","2377","473645","NA","NA","470835","2369","2369","471227","469747","2369","470835","473645","morph21_Oliver/Morris","66","46285","81","yes","1280","50"
"350","81.7073170732","81.7073170732","570.731707317","570.731707317","black","no","xpyriment","legacy","legacy","0","206","NA","uniform","77280","1000","0.0129399585921","1","undefined","1","0","81","81","81","0","81","81","81","NA","81","81","0","81","NA","81","81","0","81","NA","81","NA","81","0","0","81","81","0","81","81","82","z","09/26/18 16:02:56","The main experiment item","yes","FIN__AB__M21__7%3A10%3A17.osexp","C:\Users\ERP Testing Room\Desktop\Joanna\morph21","no","mono","no","18","no","white","no","yes","1080","legacy","81","81","C:/Users/ERP Testing Room/Desktop/Joanna/morph21/subject-136.csv","xpyriment","Jazzy James","3.1.4","0","z","space","NA","NA","NA","space","z","515","7096","NA","NA","NA","169775","515","2","legacy","1024","2","48000","-16","AB_m21","136","even","NW_L_SIMP","PICKENGE","2368","476478","474886","471835","172153","444833","NA","NA","NA","476469","475384","NA","474386","NA","474382","476469","2377","476828","NA","NA","475478","2369","2369","475870","474382","2369","475478","476828","morph21_Oliver/Morris","67","46800","82","yes","1280","5"
"250","81.9277108434","81.9277108434","570.43373494","570.43373494","black","no","xpyriment","legacy","legacy","0","208","NA","uniform","76219","1000","0.013120088167","1","undefined","1","0","82","82","82","0","82","82","82","NA","82","82","0","82","NA","82","82","0","82","NA","82","NA","82","0","0","82","82","0","82","82","83","z","09/26/18 16:02:56","The main experiment item","yes","FIN__AB__M21__7%3A10%3A17.osexp","C:\Users\ERP Testing Room\Desktop\Joanna\morph21","no","mono","no","18","no","white","no","yes","1080","legacy","82","82","C:/Users/ERP Testing Room/Desktop/Joanna/morph21/subject-136.csv","xpyriment","Jazzy James","3.1.4","0","z","space","NA","NA","NA","space","z","546","7096","NA","NA","NA","169775","546","2","legacy","1024","2","48000","-16","AB_m21","136","even","FILL_NW","LOLDS","2368","479687","478103","471835","172153","444833","NA","NA","NA","479681","478600","NA","477603","NA","477593","479681","2377","479937","NA","NA","478687","2369","2369","479078","477593","2369","478687","479937","morph21_Oliver/Morris","68","47346","83","yes","1280","34"
"250","82.1428571429","82.1428571429","569.726190476","569.726190476","black","no","xpyriment","legacy","legacy","0","202","NA","uniform","76153","1000","0.0131314590364","1","undefined","1","0","83","83","83","0","83","83","83","NA","83","83","0","83","NA","83","83","0","83","NA","83","NA","83","0","0","83","83","0","83","83","84","/","09/26/18 16:02:56","The main experiment item","yes","FIN__AB__M21__7%3A10%3A17.osexp","C:\Users\ERP Testing Room\Desktop\Joanna\morph21","no","mono","no","18","no","white","no","yes","1080","legacy","83","83","C:/Users/ERP Testing Room/Desktop/Joanna/morph21/subject-136.csv","xpyriment","Jazzy James","3.1.4","0","/","space","NA","NA","NA","space","/","511","7096","NA","NA","NA","169775","511","2","legacy","1024","2","48000","-16","AB_m21","136","even","CW_L","DEAFNESS","2368","484279","481178","482770","172153","444833","NA","NA","NA","482766","481675","NA","480678","NA","480667","482766","2377","484529","NA","NA","481770","2369","2369","482170","480667","2369","481770","484529","morph21_Oliver/Morris","69","47857","84","yes","1280","39"
"200","82.3529411765","82.3529411765","570.658823529","570.658823529","black","no","xpyriment","legacy","legacy","0","208","NA","uniform","66817","1000","0.0149662511038","1","undefined","1","0","84","84","84","0","84","84","84","NA","84","84","0","84","NA","84","84","0","84","NA","84","NA","84","0","0","84","84","0","84","84","85","z","09/26/18 16:02:56","The main experiment item","yes","FIN__AB__M21__7%3A10%3A17.osexp","C:\Users\ERP Testing Room\Desktop\Joanna\morph21","no","mono","no","18","no","white","no","yes","1080","legacy","84","84","C:/Users/ERP Testing Room/Desktop/Joanna/morph21/subject-136.csv","xpyriment","Jazzy James","3.1.4","0","z","space","NA","NA","NA","space","z","649","7096","NA","NA","NA","169775","649","2","legacy","1024","2","48000","-16","AB_m21","136","even","FILL_NW","BROUPS","2368","487312","485729","482770","172153","444833","NA","NA","NA","487306","486226","NA","485229","NA","485223","487306","2377","487512","NA","NA","486312","2369","2369","486704","485223","2369","486312","487512","morph21_Oliver/Morris","70","48506","85","yes","1280","4"
"350","81.3953488372","81.3953488372","570.988372093","570.988372093","black","no","xpyriment","legacy","legacy","0","204","NA","uniform","72411","1000","0.0138100564831","0","undefined","0","0","85","85","85","0","85","85","85","NA","85","85","0","85","NA","85","85","0","85","NA","85","NA","85","0","0","85","85","0","85","85","86","z","09/26/18 16:02:56","The main experiment item","yes","FIN__AB__M21__7%3A10%3A17.osexp","C:\Users\ERP Testing Room\Desktop\Joanna\morph21","no","mono","no","18","no","white","no","yes","1080","legacy","85","85","C:/Users/ERP Testing Room/Desktop/Joanna/morph21/subject-136.csv","xpyriment","Jazzy James","3.1.4","0","/","space","NA","NA","NA","space","/","599","7096","NA","NA","NA","169775","599","2","legacy","1024","2","48000","-16","AB_m21","136","even","NW_L_COMP","AGREELY","2368","490388","488787","482770","172153","444833","NA","NA","NA","487306","489284","NA","488287","NA","488281","490380","2377","490738","NA","NA","489387","2369","2369","489780","488281","2369","489387","490738","morph21_Oliver/Morris","70","49105","86","yes","1280","24"
"350","81.6091954023","81.6091954023","571.252873563","571.252873563","black","no","xpyriment","legacy","legacy","0","204","NA","uniform","76076","1000","0.0131447499869","1","undefined","1","0","86","86","86","0","86","86","86","NA","86","86","0","86","NA","86","86","0","86","NA","86","NA","86","0","0","86","86","0","86","86","87","z","09/26/18 16:02:56","The main experiment item","yes","FIN__AB__M21__7%3A10%3A17.osexp","C:\Users\ERP Testing Room\Desktop\Joanna\morph21","no","mono","no","18","no","white","no","yes","1080","legacy","86","86","C:/Users/ERP Testing Room/Desktop/Joanna/morph21/subject-136.csv","xpyriment","Jazzy James","3.1.4","0","z","space","NA","NA","NA","space","z","594","7096","NA","NA","NA","169775","594","2","legacy","1024","2","48000","-16","AB_m21","136","even","NW_L_COMP","MOUTHIZE","2368","495172","492072","493663","172153","444833","NA","NA","NA","493657","492569","NA","491572","NA","491567","493657","2377","495522","NA","NA","492663","2369","2369","493055","491567","2369","492663","495522","morph21_Oliver/Morris","71","49699","87","yes","1280","11"
"400","81.8181818182","81.8181818182","569.943181818","569.943181818","black","no","xpyriment","legacy","legacy","0","207","NA","uniform","78222","1000","0.0127841272276","1","undefined","1","0","87","87","87","0","87","87","87","NA","87","87","0","87","NA","87","87","0","87","NA","87","NA","87","0","0","87","87","0","87","87","88","/","09/26/18 16:02:56","The main experiment item","yes","FIN__AB__M21__7%3A10%3A17.osexp","C:\Users\ERP Testing Room\Desktop\Joanna\morph21","no","mono","no","18","no","white","no","yes","1080","legacy","87","87","C:/Users/ERP Testing Room/Desktop/Joanna/morph21/subject-136.csv","xpyriment","Jazzy James","3.1.4","0","/","space","NA","NA","NA","space","/","456","7096","NA","NA","NA","169775","456","2","legacy","1024","2","48000","-16","AB_m21","136","even","FILL_W","DRUNK","2368","498313","496730","493663","172153","444833","NA","NA","NA","498308","497227","NA","496230","NA","496221","498308","2377","498713","NA","NA","497313","2369","2369","497705","496221","2369","497313","498713","morph21_Oliver/Morris","72","50155","88","yes","1280","19"
"250","82.0224719101","82.0224719101","569.02247191","569.02247191","black","no","xpyriment","legacy","legacy","0","207","NA","uniform","79351","1000","0.0126022356366","1","undefined","1","0","88","88","88","0","88","88","88","NA","88","88","0","88","NA","88","88","0","88","NA","88","NA","88","0","0","88","88","0","88","88","89","/","09/26/18 16:02:56","The main experiment item","yes","FIN__AB__M21__7%3A10%3A17.osexp","C:\Users\ERP Testing Room\Desktop\Joanna\morph21","no","mono","no","18","no","white","no","yes","1080","legacy","88","88","C:/Users/ERP Testing Room/Desktop/Joanna/morph21/subject-136.csv","xpyriment","Jazzy James","3.1.4","0","/","space","NA","NA","NA","space","/","488","7096","NA","NA","NA","169775","488","2","legacy","1024","2","48000","-16","AB_m21","136","even","FILL_W","WEAVE","2368","501505","499922","493663","172153","444833","NA","NA","NA","501498","500419","NA","499422","NA","499413","501498","2377","501755","NA","NA","500505","2369","2369","500897","499413","2369","500505","501755","morph21_Oliver/Morris","73","50643","89","yes","1280","12"
"200","82.2222222222","82.2222222222","568.6","568.6","black","no","xpyriment","legacy","legacy","0","208","NA","uniform","77362","1000","0.0129262428583","1","undefined","1","0","89","89","89","0","89","89","89","NA","89","89","0","89","NA","89","89","0","89","NA","89","NA","89","0","0","89","89","0","89","89","90","z","09/26/18 16:02:56","The main experiment item","yes","FIN__AB__M21__7%3A10%3A17.osexp","C:\Users\ERP Testing Room\Desktop\Joanna\morph21","no","mono","no","18","no","white","no","yes","1080","legacy","89","89","C:/Users/ERP Testing Room/Desktop/Joanna/morph21/subject-136.csv","xpyriment","Jazzy James","3.1.4","0","z","space","NA","NA","NA","space","z","531","7096","NA","NA","NA","169775","531","2","legacy","1024","2","48000","-16","AB_m21","136","even","FILL_NW","HESK","2368","506122","503030","504614","172153","444833","NA","NA","NA","504610","503527","NA","502530","NA","502520","504610","2377","506322","NA","NA","503622","2369","2369","504014","502520","2369","503622","506322","morph21_Oliver/Morris","74","51174","90","yes","1280","29"
"200","82.4175824176","82.4175824176","567.450549451","567.450549451","black","no","xpyriment","legacy","legacy","0","207","NA","uniform","80539","1000","0.0124163448764","1","undefined","1","0","90","90","90","0","90","90","90","NA","90","90","0","90","NA","90","90","0","90","NA","90","NA","90","0","0","90","90","0","90","90","91","/","09/26/18 16:02:56","The main experiment item","yes","FIN__AB__M21__7%3A10%3A17.osexp","C:\Users\ERP Testing Room\Desktop\Joanna\morph21","no","mono","no","18","no","white","no","yes","1080","legacy","90","90","C:/Users/ERP Testing Room/Desktop/Joanna/morph21/subject-136.csv","xpyriment","Jazzy James","3.1.4","0","/","space","NA","NA","NA","space","/","464","7096","NA","NA","NA","169775","464","2","legacy","1024","2","48000","-16","AB_m21","136","even","FILL_W","OLD","2368","509090","507507","504614","172153","444833","NA","NA","NA","509083","508004","NA","507005","NA","506998","509083","2377","509290","NA","NA","508090","2369","2369","508482","506998","2369","508090","509290","morph21_Oliver/Morris","75","51638","91","yes","1280","44"
