"ITI","acc","accuracy","average_response_time","avg_rt","background","bidi","canvas_backend","clock_backend","color_backend","compensation","cond_trig","condtrigtime","coordinates","coroutines_cycles","coroutines_duration","coroutines_mean_cycle_duration","correct","correct_instructions_1","correct_new_keyboard_response_1","count_BA_m21","count_ITI","count_blank_screen","count_blink_screen","count_block1","count_break1","count_break2","count_break3_1","count_canvas","count_correct_trigger","count_def_chain","count_end_screen","count_fixation_1","count_getting_started","count_inc_counter","count_incorrect_trigger","count_instructions_1","count_logger","count_logscript","count_new_coroutines","count_new_inline_script","count_new_keyboard_response_1","count_reset_counter_prep","count_reset_counter_run","count_responsescreen","count_sequence","count_start_trigger","count_target_present","count_word_trigger","counter","cresp","datetime","description","disable_garbage_collection","experiment_file","experiment_path","font_bold","font_family","font_italic","font_size","font_underline","foreground","form_clicks","fullscreen","height","keyboard_backend","live_row","live_row_block1","logfile","mouse_backend","opensesame_codename","opensesame_version","repeat_cycle","response","response_break1","response_break2","response_break3_1","response_end_screen","response_instructions_1","response_new_keyboard_response_1","response_time","response_time_break1","response_time_break2","response_time_break3_1","response_time_end_screen","response_time_instructions_1","response_time_new_keyboard_response_1","round_decimals","sampler_backend","sound_buf_size","sound_channels","sound_freq","sound_sample_size","start","subject_nr","subject_parity","targ_type","target","time_BA_m21","time_ITI","time_blank_screen","time_blink_screen","time_block1","time_break1","time_break2","time_break3_1","time_canvas","time_correct_trigger","time_def_chain","time_end_screen","time_fixation_1","time_getting_started","time_inc_counter","time_incorrect_trigger","time_instructions_1","time_logger","time_logscript","time_new_inline_script","time_new_keyboard_response_1","time_reset_counter_prep","time_reset_counter_run","time_responsescreen","time_sequence","time_start_trigger","time_target_present","time_word_trigger","title","total_correct","total_response_time","total_responses","uniform_coordinates","width","word_trig"
"350","0","0","991","991","black","no","xpyriment","legacy","legacy","0","203","NA","uniform","53762","1000","0.0186004984934","0","undefined","0","0","0","0","0","0","0","0","0","NA","0","0","0","0","NA","0","0","0","0","NA","0","NA","0","0","0","0","0","0","0","0","1","z","07/30/18 14:55:21","The main experiment item","yes","FIN__BA__M21__7%3A10%3A17.osexp","C:\Users\ERP Testing Room\Desktop\Joanna\morph21","no","mono","no","18","no","white","no","yes","1080","legacy","0","0","C:/Users/ERP Testing Room/Desktop/Joanna/morph21/subject-133.csv","xpyriment","Jazzy James","3.1.4","0","None","NA","NA","NA","NA","space","None","991","NA","NA","NA","NA","152706","991","2","legacy","1024","2","48000","-16","BA_m21","133","odd","NW_S_COMP","EJECTENGE","1986","157540","155907","NA","154701","NA","NA","NA","NA","NA","156404","NA","155405","NA","155335","157531","1995","157890","NA","NA","156540","1986","1986","156932","155335","1986","156540","157890","morph21_Oliver/Morris","0","991","1","yes","1280","20"
"250","50","50","855","855","black","no","xpyriment","legacy","legacy","0","208","NA","uniform","66855","1000","0.0149577443721","1","undefined","1","0","1","1","1","0","1","1","1","NA","1","1","0","1","NA","1","1","0","1","NA","1","NA","1","0","0","1","1","0","1","1","2","z","07/30/18 14:55:21","The main experiment item","yes","FIN__BA__M21__7%3A10%3A17.osexp","C:\Users\ERP Testing Room\Desktop\Joanna\morph21","no","mono","no","18","no","white","no","yes","1080","legacy","1","1","C:/Users/ERP Testing Room/Desktop/Joanna/morph21/subject-133.csv","xpyriment","Jazzy James","3.1.4","0","z","NA","NA","NA","NA","space","z","719","NA","NA","NA","NA","152706","719","2","legacy","1024","2","48000","-16","BA_m21","133","odd","FILL_NW","PHEEKS","1986","160774","159157","NA","154701","NA","NA","NA","NA","160764","159654","NA","158657","NA","158652","160764","1995","161024","NA","NA","159774","1986","1986","160166","158652","1986","159774","161024","morph21_Oliver/Morris","1","1710","2","yes","1280","35"
"350","66.6666666667","66.6666666667","702.666666667","702.666666667","black","no","xpyriment","legacy","legacy","0","203","NA","uniform","79383","1000","0.0125971555623","1","undefined","1","0","2","2","2","0","2","2","2","NA","2","2","0","2","NA","2","2","0","2","NA","2","NA","2","0","0","2","2","0","2","2","3","z","07/30/18 14:55:21","The main experiment item","yes","FIN__BA__M21__7%3A10%3A17.osexp","C:\Users\ERP Testing Room\Desktop\Joanna\morph21","no","mono","no","18","no","white","no","yes","1080","legacy","2","2","C:/Users/ERP Testing Room/Desktop/Joanna/morph21/subject-133.csv","xpyriment","Jazzy James","3.1.4","0","z","NA","NA","NA","NA","space","z","398","NA","NA","NA","NA","152706","398","2","legacy","1024","2","48000","-16","BA_m21","133","odd","NW_S_COMP","FIENDILM","1986","165300","162200","163792","154701","NA","NA","NA","NA","163784","162697","NA","161700","NA","161693","163784","1995","165650","NA","NA","162792","1986","1986","163183","161693","1986","162792","165650","morph21_Oliver/Morris","2","2108","3","yes","1280","24"
"250","75","75","759.5","759.5","black","no","xpyriment","legacy","legacy","0","206","NA","uniform","59134","1000","0.0169107450874","1","undefined","1","0","3","3","3","0","3","3","3","NA","3","3","0","3","NA","3","3","0","3","NA","3","NA","3","0","0","3","3","0","3","3","4","z","07/30/18 14:55:21","The main experiment item","yes","FIN__BA__M21__7%3A10%3A17.osexp","C:\Users\ERP Testing Room\Desktop\Joanna\morph21","no","mono","no","18","no","white","no","yes","1080","legacy","3","3","C:/Users/ERP Testing Room/Desktop/Joanna/morph21/subject-133.csv","xpyriment","Jazzy James","3.1.4","0","z","NA","NA","NA","NA","space","z","930","NA","NA","NA","NA","152706","930","2","legacy","1024","2","48000","-16","BA_m21","133","odd","NW_L_SIMP","BEARIST","1986","168459","166884","163792","154701","NA","NA","NA","NA","168453","167381","NA","166384","NA","166378","168453","1995","168709","NA","NA","167459","1986","1986","167850","166378","1986","167459","168709","morph21_Oliver/Morris","3","3038","4","yes","1280","25"
"250","60","60","692","692","black","no","xpyriment","legacy","legacy","0","201","NA","uniform","76441","1000","0.0130819847987","0","undefined","0","0","4","4","4","0","4","4","4","NA","4","4","0","4","NA","4","4","0","4","NA","4","NA","4","0","0","4","4","0","4","4","5","/","07/30/18 14:55:21","The main experiment item","yes","FIN__BA__M21__7%3A10%3A17.osexp","C:\Users\ERP Testing Room\Desktop\Joanna\morph21","no","mono","no","18","no","white","no","yes","1080","legacy","4","4","C:/Users/ERP Testing Room/Desktop/Joanna/morph21/subject-133.csv","xpyriment","Jazzy James","3.1.4","0","z","NA","NA","NA","NA","space","z","422","NA","NA","NA","NA","152706","422","2","legacy","1024","2","48000","-16","BA_m21","133","odd","CW_S","GRIMLY","1986","171567","169984","163792","154701","NA","NA","NA","NA","168453","170481","NA","169484","NA","169473","171563","1995","171817","NA","NA","170575","1986","1986","170967","169473","1986","170575","171817","morph21_Oliver/Morris","3","3460","5","yes","1280","31"
"400","66.6666666667","66.6666666667","671.333333333","671.333333333","black","no","xpyriment","legacy","legacy","0","201","NA","uniform","65364","1000","0.0152989413133","1","undefined","1","0","5","5","5","0","5","5","5","NA","5","5","0","5","NA","5","5","0","5","NA","5","NA","5","0","0","5","5","0","5","5","6","/","07/30/18 14:55:21","The main experiment item","yes","FIN__BA__M21__7%3A10%3A17.osexp","C:\Users\ERP Testing Room\Desktop\Joanna\morph21","no","mono","no","18","no","white","no","yes","1080","legacy","5","5","C:/Users/ERP Testing Room/Desktop/Joanna/morph21/subject-133.csv","xpyriment","Jazzy James","3.1.4","0","/","NA","NA","NA","NA","space","/","568","NA","NA","NA","NA","152706","568","2","legacy","1024","2","48000","-16","BA_m21","133","odd","CW_S","RAIDER","1986","176217","173084","174709","154701","NA","NA","NA","NA","174699","173581","NA","172575","NA","172571","174699","1995","176617","NA","NA","173709","1986","1986","174100","172571","1986","173709","176617","morph21_Oliver/Morris","4","4028","6","yes","1280","12"
"350","71.4285714286","71.4285714286","664.428571429","664.428571429","black","no","xpyriment","legacy","legacy","0","203","NA","uniform","72098","1000","0.0138700102638","1","undefined","1","0","6","6","6","0","6","6","6","NA","6","6","0","6","NA","6","6","0","6","NA","6","NA","6","0","0","6","6","0","6","6","7","z","07/30/18 14:55:21","The main experiment item","yes","FIN__BA__M21__7%3A10%3A17.osexp","C:\Users\ERP Testing Room\Desktop\Joanna\morph21","no","mono","no","18","no","white","no","yes","1080","legacy","6","6","C:/Users/ERP Testing Room/Desktop/Joanna/morph21/subject-133.csv","xpyriment","Jazzy James","3.1.4","0","z","NA","NA","NA","NA","space","z","623","NA","NA","NA","NA","152706","623","2","legacy","1024","2","48000","-16","BA_m21","133","odd","NW_S_COMP","HEIGHTENGE","1986","179527","177901","174709","154701","NA","NA","NA","NA","179517","178398","NA","177392","NA","177386","179517","1995","179877","NA","NA","178527","1986","1986","178918","177386","1986","178527","179877","morph21_Oliver/Morris","5","4651","7","yes","1280","18"
"200","75","75","702.125","702.125","black","no","xpyriment","legacy","legacy","0","203","NA","uniform","58814","1000","0.0170027544462","1","undefined","1","0","7","7","7","0","7","7","7","NA","7","7","0","7","NA","7","7","0","7","NA","7","NA","7","0","0","7","7","0","7","7","8","z","07/30/18 14:55:21","The main experiment item","yes","FIN__BA__M21__7%3A10%3A17.osexp","C:\Users\ERP Testing Room\Desktop\Joanna\morph21","no","mono","no","18","no","white","no","yes","1080","legacy","7","7","C:/Users/ERP Testing Room/Desktop/Joanna/morph21/subject-133.csv","xpyriment","Jazzy James","3.1.4","0","z","NA","NA","NA","NA","space","z","966","NA","NA","NA","NA","152706","966","2","legacy","1024","2","48000","-16","BA_m21","133","odd","NW_S_COMP","ADOPTISH","1986","182719","181127","174709","154701","NA","NA","NA","NA","182713","181624","NA","180627","NA","180623","182713","1995","182919","NA","NA","181719","1986","1986","182110","180623","1986","181719","182919","morph21_Oliver/Morris","6","5617","8","yes","1280","19"
"200","66.6666666667","66.6666666667","734.555555556","734.555555556","black","no","xpyriment","legacy","legacy","0","205","NA","uniform","58385","1000","0.0171276869059","0","undefined","0","0","8","8","8","0","8","8","8","NA","8","8","0","8","NA","8","8","0","8","NA","8","NA","8","0","0","8","8","0","8","8","9","z","07/30/18 14:55:21","The main experiment item","yes","FIN__BA__M21__7%3A10%3A17.osexp","C:\Users\ERP Testing Room\Desktop\Joanna\morph21","no","mono","no","18","no","white","no","yes","1080","legacy","8","8","C:/Users/ERP Testing Room/Desktop/Joanna/morph21/subject-133.csv","xpyriment","Jazzy James","3.1.4","0","None","NA","NA","NA","NA","space","None","994","NA","NA","NA","NA","152706","994","2","legacy","1024","2","48000","-16","BA_m21","133","odd","NW_S_SIMP","NULLISH","1986","187235","184135","185727","154701","NA","NA","NA","NA","182713","184632","NA","183635","NA","183625","185721","1995","187436","NA","NA","184727","1986","1986","185119","183625","1986","184727","187436","morph21_Oliver/Morris","6","6611","9","yes","1280","23"
"250","70","70","753.7","753.7","black","no","xpyriment","legacy","legacy","0","203","NA","uniform","61679","1000","0.0162129736215","1","undefined","1","0","9","9","9","0","9","9","9","NA","9","9","0","9","NA","9","9","0","9","NA","9","NA","9","0","0","9","9","0","9","9","10","z","07/30/18 14:55:21","The main experiment item","yes","FIN__BA__M21__7%3A10%3A17.osexp","C:\Users\ERP Testing Room\Desktop\Joanna\morph21","no","mono","no","18","no","white","no","yes","1080","legacy","9","9","C:/Users/ERP Testing Room/Desktop/Joanna/morph21/subject-133.csv","xpyriment","Jazzy James","3.1.4","0","z","NA","NA","NA","NA","space","z","926","NA","NA","NA","NA","152706","926","2","legacy","1024","2","48000","-16","BA_m21","133","odd","NW_S_COMP","TREASONIME","1986","190319","188736","185727","154701","NA","NA","NA","NA","190310","189233","NA","188236","NA","188227","190310","1995","190569","NA","NA","189319","1986","1986","189711","188227","1986","189319","190569","morph21_Oliver/Morris","7","7537","10","yes","1280","14"
"250","72.7272727273","72.7272727273","744.545454545","744.545454545","black","no","xpyriment","legacy","legacy","0","202","NA","uniform","63158","1000","0.0158333069445","1","undefined","1","0","10","10","10","0","10","10","10","NA","10","10","0","10","NA","10","10","0","10","NA","10","NA","10","0","0","10","10","0","10","10","11","/","07/30/18 14:55:21","The main experiment item","yes","FIN__BA__M21__7%3A10%3A17.osexp","C:\Users\ERP Testing Room\Desktop\Joanna\morph21","no","mono","no","18","no","white","no","yes","1080","legacy","10","10","C:/Users/ERP Testing Room/Desktop/Joanna/morph21/subject-133.csv","xpyriment","Jazzy James","3.1.4","0","/","NA","NA","NA","NA","space","/","653","NA","NA","NA","NA","152706","653","2","legacy","1024","2","48000","-16","BA_m21","133","odd","CW_L","DREAMER","1986","193527","191911","185727","154701","NA","NA","NA","NA","193525","192408","NA","191411","NA","191406","193525","1995","193777","NA","NA","192536","1986","1986","192927","191406","1986","192536","193777","morph21_Oliver/Morris","8","8190","11","yes","1280","12"
"200","75","75","738.166666667","738.166666667","black","no","xpyriment","legacy","legacy","0","207","NA","uniform","65944","1000","0.0151643818998","1","undefined","1","0","11","11","11","0","11","11","11","NA","11","11","0","11","NA","11","11","0","11","NA","11","NA","11","0","0","11","11","0","11","11","12","/","07/30/18 14:55:21","The main experiment item","yes","FIN__BA__M21__7%3A10%3A17.osexp","C:\Users\ERP Testing Room\Desktop\Joanna\morph21","no","mono","no","18","no","white","no","yes","1080","legacy","11","11","C:/Users/ERP Testing Room/Desktop/Joanna/morph21/subject-133.csv","xpyriment","Jazzy James","3.1.4","0","/","NA","NA","NA","NA","space","/","668","NA","NA","NA","NA","152706","668","2","legacy","1024","2","48000","-16","BA_m21","133","odd","FILL_W","BRASS","1986","198095","194994","196587","154701","NA","NA","NA","NA","196580","195491","NA","194494","NA","194484","196580","1995","198295","NA","NA","195586","1986","1986","195979","194484","1986","195586","198295","morph21_Oliver/Morris","9","8858","12","yes","1280","10"
"300","76.9230769231","76.9230769231","747.692307692","747.692307692","black","no","xpyriment","legacy","legacy","0","206","NA","uniform","63223","1000","0.015817028613","1","undefined","1","0","12","12","12","0","12","12","12","NA","12","12","0","12","NA","12","12","0","12","NA","12","NA","12","0","0","12","12","0","12","12","13","z","07/30/18 14:55:21","The main experiment item","yes","FIN__BA__M21__7%3A10%3A17.osexp","C:\Users\ERP Testing Room\Desktop\Joanna\morph21","no","mono","no","18","no","white","no","yes","1080","legacy","12","12","C:/Users/ERP Testing Room/Desktop/Joanna/morph21/subject-133.csv","xpyriment","Jazzy James","3.1.4","0","z","NA","NA","NA","NA","space","z","862","NA","NA","NA","NA","152706","862","2","legacy","1024","2","48000","-16","BA_m21","133","odd","NW_L_SIMP","EARIST","1986","201087","199504","196587","154701","NA","NA","NA","NA","201079","200001","NA","199004","NA","198994","201079","1995","201387","NA","NA","200087","1986","1986","200479","198994","1986","200087","201387","morph21_Oliver/Morris","10","9720","13","yes","1280","12"
"400","78.5714285714","78.5714285714","740.357142857","740.357142857","black","no","xpyriment","legacy","legacy","0","205","NA","uniform","64109","1000","0.0155984339172","1","undefined","1","0","13","13","13","0","13","13","13","NA","13","13","0","13","NA","13","13","0","13","NA","13","NA","13","0","0","13","13","0","13","13","14","z","07/30/18 14:55:21","The main experiment item","yes","FIN__BA__M21__7%3A10%3A17.osexp","C:\Users\ERP Testing Room\Desktop\Joanna\morph21","no","mono","no","18","no","white","no","yes","1080","legacy","13","13","C:/Users/ERP Testing Room/Desktop/Joanna/morph21/subject-133.csv","xpyriment","Jazzy James","3.1.4","0","z","NA","NA","NA","NA","space","z","645","NA","NA","NA","NA","152706","645","2","legacy","1024","2","48000","-16","BA_m21","133","odd","NW_S_SIMP","MEDICALARY","1986","204296","202670","196587","154701","NA","NA","NA","NA","204290","203168","NA","202170","NA","202165","204290","1995","204696","NA","NA","203296","1986","1986","203687","202164","1986","203296","204696","morph21_Oliver/Morris","11","10365","14","yes","1280","18"
"350","80","80","733.133333333","733.133333333","black","no","xpyriment","legacy","legacy","0","202","NA","uniform","60893","1000","0.0164222488628","1","undefined","1","0","14","14","14","0","14","14","14","NA","14","14","0","14","NA","14","14","0","14","NA","14","NA","14","0","0","14","14","0","14","14","15","/","07/30/18 14:55:21","The main experiment item","yes","FIN__BA__M21__7%3A10%3A17.osexp","C:\Users\ERP Testing Room\Desktop\Joanna\morph21","no","mono","no","18","no","white","no","yes","1080","legacy","14","14","C:/Users/ERP Testing Room/Desktop/Joanna/morph21/subject-133.csv","xpyriment","Jazzy James","3.1.4","0","/","NA","NA","NA","NA","space","/","632","NA","NA","NA","NA","152706","632","2","legacy","1024","2","48000","-16","BA_m21","133","odd","CW_L","SWIMMER","1986","209137","205996","207629","154701","NA","NA","NA","NA","207622","206493","NA","205496","NA","205487","207622","1995","209488","NA","NA","206629","1986","1986","207021","205487","1986","206629","209488","morph21_Oliver/Morris","12","10997","15","yes","1280","5"
"300","81.25","81.25","741.0625","741.0625","black","no","xpyriment","legacy","legacy","0","205","NA","uniform","63738","1000","0.0156892277762","1","undefined","1","0","15","15","15","0","15","15","15","NA","15","15","0","15","NA","15","15","0","15","NA","15","NA","15","0","0","15","15","0","15","15","16","z","07/30/18 14:55:21","The main experiment item","yes","FIN__BA__M21__7%3A10%3A17.osexp","C:\Users\ERP Testing Room\Desktop\Joanna\morph21","no","mono","no","18","no","white","no","yes","1080","legacy","15","15","C:/Users/ERP Testing Room/Desktop/Joanna/morph21/subject-133.csv","xpyriment","Jazzy James","3.1.4","0","z","NA","NA","NA","NA","space","z","860","NA","NA","NA","NA","152706","860","2","legacy","1024","2","48000","-16","BA_m21","133","odd","NW_S_SIMP","HEIRIC","1986","212313","210713","207629","154701","NA","NA","NA","NA","212310","211210","NA","210213","NA","210201","212310","1995","212613","NA","NA","211321","1986","1986","211713","210201","1986","211321","212613","morph21_Oliver/Morris","13","11857","16","yes","1280","3"
"300","82.3529411765","82.3529411765","728.588235294","728.588235294","black","no","xpyriment","legacy","legacy","0","205","NA","uniform","70551","1000","0.0141741435274","1","undefined","1","0","16","16","16","0","16","16","16","NA","16","16","0","16","NA","16","16","0","16","NA","16","NA","16","0","0","16","16","0","16","16","17","z","07/30/18 14:55:21","The main experiment item","yes","FIN__BA__M21__7%3A10%3A17.osexp","C:\Users\ERP Testing Room\Desktop\Joanna\morph21","no","mono","no","18","no","white","no","yes","1080","legacy","16","16","C:/Users/ERP Testing Room/Desktop/Joanna/morph21/subject-133.csv","xpyriment","Jazzy James","3.1.4","0","z","NA","NA","NA","NA","space","z","529","NA","NA","NA","NA","152706","529","2","legacy","1024","2","48000","-16","BA_m21","133","odd","NW_S_SIMP","WARNORY","1986","215389","213805","207629","154701","NA","NA","NA","NA","215385","214302","NA","213305","NA","213302","215385","1995","215689","NA","NA","214397","1986","1986","214789","213302","1986","214397","215689","morph21_Oliver/Morris","14","12386","17","yes","1280","12"
"300","83.3333333333","83.3333333333","716.777777778","716.777777778","black","no","xpyriment","legacy","legacy","0","206","NA","uniform","67847","1000","0.0147390452047","1","undefined","1","0","17","17","17","0","17","17","17","NA","17","17","0","17","NA","17","17","0","17","NA","17","NA","17","0","0","17","17","0","17","17","18","z","07/30/18 14:55:21","The main experiment item","yes","FIN__BA__M21__7%3A10%3A17.osexp","C:\Users\ERP Testing Room\Desktop\Joanna\morph21","no","mono","no","18","no","white","no","yes","1080","legacy","17","17","C:/Users/ERP Testing Room/Desktop/Joanna/morph21/subject-133.csv","xpyriment","Jazzy James","3.1.4","0","z","NA","NA","NA","NA","space","z","516","NA","NA","NA","NA","152706","516","2","legacy","1024","2","48000","-16","BA_m21","133","odd","NW_L_SIMP","ELBOWISM","1986","220006","216889","218497","154701","NA","NA","NA","NA","218493","217386","NA","216380","NA","216373","218493","1995","220306","NA","NA","217506","1986","1986","217897","216373","1986","217506","220306","morph21_Oliver/Morris","15","12902","18","yes","1280","10"
"300","84.2105263158","84.2105263158","718.315789474","718.315789474","black","no","xpyriment","legacy","legacy","0","206","NA","uniform","60589","1000","0.0165046460579","1","undefined","1","0","18","18","18","0","18","18","18","NA","18","18","0","18","NA","18","18","0","18","NA","18","NA","18","0","0","18","18","0","18","18","19","z","07/30/18 14:55:21","The main experiment item","yes","FIN__BA__M21__7%3A10%3A17.osexp","C:\Users\ERP Testing Room\Desktop\Joanna\morph21","no","mono","no","18","no","white","no","yes","1080","legacy","18","18","C:/Users/ERP Testing Room/Desktop/Joanna/morph21/subject-133.csv","xpyriment","Jazzy James","3.1.4","0","z","NA","NA","NA","NA","space","z","746","NA","NA","NA","NA","152706","746","2","legacy","1024","2","48000","-16","BA_m21","133","odd","NW_L_SIMP","PRAYANCE","1986","223139","221539","218497","154701","NA","NA","NA","NA","223130","222036","NA","221039","NA","221030","223130","1995","223439","NA","NA","222139","1986","1986","222531","221030","1986","222139","223439","morph21_Oliver/Morris","16","13648","19","yes","1280","1"
"200","85","85","711.45","711.45","black","no","xpyriment","legacy","legacy","0","208","NA","uniform","68922","1000","0.014509155277","1","undefined","1","0","19","19","19","0","19","19","19","NA","19","19","0","19","NA","19","19","0","19","NA","19","NA","19","0","0","19","19","0","19","19","20","z","07/30/18 14:55:21","The main experiment item","yes","FIN__BA__M21__7%3A10%3A17.osexp","C:\Users\ERP Testing Room\Desktop\Joanna\morph21","no","mono","no","18","no","white","no","yes","1080","legacy","19","19","C:/Users/ERP Testing Room/Desktop/Joanna/morph21/subject-133.csv","xpyriment","Jazzy James","3.1.4","0","z","NA","NA","NA","NA","space","z","581","NA","NA","NA","NA","152706","581","2","legacy","1024","2","48000","-16","BA_m21","133","odd","FILL_NW","HOITS","1986","226264","224681","218497","154701","NA","NA","NA","NA","226257","225178","NA","224181","NA","224174","226257","1995","226464","NA","NA","225264","1986","1986","225656","224174","1986","225264","226464","morph21_Oliver/Morris","17","14229","20","yes","1280","30"
"400","85.7142857143","85.7142857143","711.761904762","711.761904762","black","no","xpyriment","legacy","legacy","0","203","NA","uniform","63415","1000","0.0157691397934","1","undefined","1","0","20","20","20","0","20","20","20","NA","20","20","0","20","NA","20","20","0","20","NA","20","NA","20","0","0","20","20","0","20","20","21","z","07/30/18 14:55:21","The main experiment item","yes","FIN__BA__M21__7%3A10%3A17.osexp","C:\Users\ERP Testing Room\Desktop\Joanna\morph21","no","mono","no","18","no","white","no","yes","1080","legacy","20","20","C:/Users/ERP Testing Room/Desktop/Joanna/morph21/subject-133.csv","xpyriment","Jazzy James","3.1.4","0","z","NA","NA","NA","NA","space","z","718","NA","NA","NA","NA","152706","718","2","legacy","1024","2","48000","-16","BA_m21","133","odd","NW_S_COMP","ALTARIG","1986","230932","227806","229423","154701","NA","NA","NA","NA","229420","228303","NA","227306","NA","227297","229420","1995","231332","NA","NA","228431","1986","1986","228823","227297","1986","228431","231332","morph21_Oliver/Morris","18","14947","21","yes","1280","7"
"300","86.3636363636","86.3636363636","705.227272727","705.227272727","black","no","xpyriment","legacy","legacy","0","205","NA","uniform","64857","1000","0.0154185361642","1","undefined","1","0","21","21","21","0","21","21","21","NA","21","21","0","21","NA","21","21","0","21","NA","21","NA","21","0","0","21","21","0","21","21","22","z","07/30/18 14:55:21","The main experiment item","yes","FIN__BA__M21__7%3A10%3A17.osexp","C:\Users\ERP Testing Room\Desktop\Joanna\morph21","no","mono","no","18","no","white","no","yes","1080","legacy","21","21","C:/Users/ERP Testing Room/Desktop/Joanna/morph21/subject-133.csv","xpyriment","Jazzy James","3.1.4","0","z","NA","NA","NA","NA","space","z","568","NA","NA","NA","NA","152706","568","2","legacy","1024","2","48000","-16","BA_m21","133","odd","NW_S_SIMP","HELMETOUS","1986","234182","232599","229423","154701","NA","NA","NA","NA","234174","233096","NA","232099","NA","232093","234174","1995","234482","NA","NA","233182","1986","1986","233574","232093","1986","233182","234482","morph21_Oliver/Morris","19","15515","22","yes","1280","14"
"250","82.6086956522","82.6086956522","687.869565217","687.869565217","black","no","xpyriment","legacy","legacy","0","202","NA","uniform","79092","1000","0.0126435037678","0","undefined","0","0","22","22","22","0","22","22","22","NA","22","22","0","22","NA","22","22","0","22","NA","22","NA","22","0","0","22","22","0","22","22","23","/","07/30/18 14:55:21","The main experiment item","yes","FIN__BA__M21__7%3A10%3A17.osexp","C:\Users\ERP Testing Room\Desktop\Joanna\morph21","no","mono","no","18","no","white","no","yes","1080","legacy","22","22","C:/Users/ERP Testing Room/Desktop/Joanna/morph21/subject-133.csv","xpyriment","Jazzy James","3.1.4","0","z","NA","NA","NA","NA","space","z","306","NA","NA","NA","NA","152706","306","2","legacy","1024","2","48000","-16","BA_m21","133","odd","CW_L","LAUGHING","1986","237307","235724","229423","154701","NA","NA","NA","NA","234174","236221","NA","235224","NA","235218","237301","1995","237557","NA","NA","236307","1986","1986","236699","235218","1986","236307","237557","morph21_Oliver/Morris","19","15821","23","yes","1280","27"
"400","83.3333333333","83.3333333333","681.791666667","681.791666667","black","no","xpyriment","legacy","legacy","0","207","NA","uniform","65599","1000","0.0152441348191","1","undefined","1","0","23","23","23","0","23","23","23","NA","23","23","0","23","NA","23","23","0","23","NA","23","NA","23","0","0","23","23","0","23","23","24","/","07/30/18 14:55:21","The main experiment item","yes","FIN__BA__M21__7%3A10%3A17.osexp","C:\Users\ERP Testing Room\Desktop\Joanna\morph21","no","mono","no","18","no","white","no","yes","1080","legacy","23","23","C:/Users/ERP Testing Room/Desktop/Joanna/morph21/subject-133.csv","xpyriment","Jazzy James","3.1.4","0","/","NA","NA","NA","NA","space","/","542","NA","NA","NA","NA","152706","542","2","legacy","1024","2","48000","-16","BA_m21","133","odd","FILL_W","CEASE","1986","241916","238816","240407","154701","NA","NA","NA","NA","240402","239313","NA","238316","NA","238312","240402","1995","242316","NA","NA","239407","1986","1986","239799","238312","1986","239407","242316","morph21_Oliver/Morris","20","16363","24","yes","1280","18"
"300","84","84","687.08","687.08","black","no","xpyriment","legacy","legacy","0","206","NA","uniform","57994","1000","0.0172431630858","1","undefined","1","0","24","24","24","0","24","24","24","NA","24","24","0","24","NA","24","24","0","24","NA","24","NA","24","0","0","24","24","0","24","24","25","z","07/30/18 14:55:21","The main experiment item","yes","FIN__BA__M21__7%3A10%3A17.osexp","C:\Users\ERP Testing Room\Desktop\Joanna\morph21","no","mono","no","18","no","white","no","yes","1080","legacy","24","24","C:/Users/ERP Testing Room/Desktop/Joanna/morph21/subject-133.csv","xpyriment","Jazzy James","3.1.4","0","z","NA","NA","NA","NA","space","z","814","NA","NA","NA","NA","152706","814","2","legacy","1024","2","48000","-16","BA_m21","133","odd","NW_L_SIMP","BEGENCE","1986","245183","243549","240407","154701","NA","NA","NA","NA","245179","244046","NA","243049","NA","243038","245179","1995","245483","NA","NA","244183","1986","1986","244583","243038","1986","244183","245483","morph21_Oliver/Morris","21","17177","25","yes","1280","4"
"200","84.6153846154","84.6153846154","695.307692308","695.307692308","black","no","xpyriment","legacy","legacy","0","204","NA","uniform","57994","1000","0.0172431630858","1","undefined","1","0","25","25","25","0","25","25","25","NA","25","25","0","25","NA","25","25","0","25","NA","25","NA","25","0","0","25","25","0","25","25","26","z","07/30/18 14:55:21","The main experiment item","yes","FIN__BA__M21__7%3A10%3A17.osexp","C:\Users\ERP Testing Room\Desktop\Joanna\morph21","no","mono","no","18","no","white","no","yes","1080","legacy","25","25","C:/Users/ERP Testing Room/Desktop/Joanna/morph21/subject-133.csv","xpyriment","Jazzy James","3.1.4","0","z","NA","NA","NA","NA","space","z","901","NA","NA","NA","NA","152706","901","2","legacy","1024","2","48000","-16","BA_m21","133","odd","NW_L_COMP","PITCHODY","1986","248426","246800","240407","154701","NA","NA","NA","NA","248419","247297","NA","246299","NA","246295","248419","1995","248626","NA","NA","247425","1986","1986","247816","246295","1986","247425","248626","morph21_Oliver/Morris","22","18078","26","yes","1280","25"
"300","85.1851851852","85.1851851852","694.259259259","694.259259259","black","no","xpyriment","legacy","legacy","0","204","NA","uniform","71131","1000","0.0140585679943","1","undefined","1","0","26","26","26","0","26","26","26","NA","26","26","0","26","NA","26","26","0","26","NA","26","NA","26","0","0","26","26","0","26","26","27","z","07/30/18 14:55:21","The main experiment item","yes","FIN__BA__M21__7%3A10%3A17.osexp","C:\Users\ERP Testing Room\Desktop\Joanna\morph21","no","mono","no","18","no","white","no","yes","1080","legacy","26","26","C:/Users/ERP Testing Room/Desktop/Joanna/morph21/subject-133.csv","xpyriment","Jazzy James","3.1.4","0","z","NA","NA","NA","NA","space","z","667","NA","NA","NA","NA","152706","667","2","legacy","1024","2","48000","-16","BA_m21","133","odd","NW_L_COMP","KINGILM","1986","252976","249884","251467","154701","NA","NA","NA","NA","251461","250381","NA","249384","NA","249376","251461","1995","253276","NA","NA","250467","1986","1986","250859","249376","1986","250467","253276","morph21_Oliver/Morris","23","18745","27","yes","1280","19"
"300","85.7142857143","85.7142857143","694.607142857","694.607142857","black","no","xpyriment","legacy","legacy","0","207","NA","uniform","64218","1000","0.015571958018","1","undefined","1","0","27","27","27","0","27","27","27","NA","27","27","0","27","NA","27","27","0","27","NA","27","NA","27","0","0","27","27","0","27","27","28","/","07/30/18 14:55:21","The main experiment item","yes","FIN__BA__M21__7%3A10%3A17.osexp","C:\Users\ERP Testing Room\Desktop\Joanna\morph21","no","mono","no","18","no","white","no","yes","1080","legacy","27","27","C:/Users/ERP Testing Room/Desktop/Joanna/morph21/subject-133.csv","xpyriment","Jazzy James","3.1.4","0","/","NA","NA","NA","NA","space","/","704","NA","NA","NA","NA","152706","704","2","legacy","1024","2","48000","-16","BA_m21","133","odd","FILL_W","BLUNT","1986","256101","254518","251467","154701","NA","NA","NA","NA","256096","255015","NA","254018","NA","254007","256096","1995","256401","NA","NA","255101","1986","1986","255501","254007","1986","255101","256401","morph21_Oliver/Morris","24","19449","28","yes","1280","4"
"400","86.2068965517","86.2068965517","687.551724138","687.551724138","black","no","xpyriment","legacy","legacy","0","202","NA","uniform","68591","1000","0.0145791721946","1","undefined","1","0","28","28","28","0","28","28","28","NA","28","28","0","28","NA","28","28","0","28","NA","28","NA","28","0","0","28","28","0","28","28","29","/","07/30/18 14:55:21","The main experiment item","yes","FIN__BA__M21__7%3A10%3A17.osexp","C:\Users\ERP Testing Room\Desktop\Joanna\morph21","no","mono","no","18","no","white","no","yes","1080","legacy","28","28","C:/Users/ERP Testing Room/Desktop/Joanna/morph21/subject-133.csv","xpyriment","Jazzy James","3.1.4","0","/","NA","NA","NA","NA","space","/","490","NA","NA","NA","NA","152706","490","2","legacy","1024","2","48000","-16","BA_m21","133","odd","CW_L","FAITHFUL","1986","259251","257659","251467","154701","NA","NA","NA","NA","259243","258156","NA","257159","NA","257156","259243","1995","259651","NA","NA","258251","1986","1986","258643","257156","1986","258251","259651","morph21_Oliver/Morris","25","19939","29","yes","1280","20"
"400","86.6666666667","86.6666666667","682.7","682.7","black","no","xpyriment","legacy","legacy","0","202","NA","uniform","70947","1000","0.0140950286834","1","undefined","1","0","29","29","29","0","29","29","29","NA","29","29","0","29","NA","29","29","0","29","NA","29","NA","29","0","0","29","29","0","29","29","30","/","07/30/18 14:55:21","The main experiment item","yes","FIN__BA__M21__7%3A10%3A17.osexp","C:\Users\ERP Testing Room\Desktop\Joanna\morph21","no","mono","no","18","no","white","no","yes","1080","legacy","29","29","C:/Users/ERP Testing Room/Desktop/Joanna/morph21/subject-133.csv","xpyriment","Jazzy James","3.1.4","0","/","NA","NA","NA","NA","space","/","542","NA","NA","NA","NA","152706","542","2","legacy","1024","2","48000","-16","BA_m21","133","odd","CW_L","SPELLER","1986","264043","260943","262535","154701","NA","NA","NA","NA","262526","261440","NA","260443","NA","260436","262526","1995","264443","NA","NA","261535","1986","1986","261926","260436","1986","261534","264443","morph21_Oliver/Morris","26","20481","30","yes","1280","3"
"250","87.0967741935","87.0967741935","679.35483871","679.35483871","black","no","xpyriment","legacy","legacy","0","207","NA","uniform","70954","1000","0.0140936381317","1","undefined","1","0","30","30","30","0","30","30","30","NA","30","30","0","30","NA","30","30","0","30","NA","30","NA","30","0","0","30","30","0","30","30","31","/","07/30/18 14:55:21","The main experiment item","yes","FIN__BA__M21__7%3A10%3A17.osexp","C:\Users\ERP Testing Room\Desktop\Joanna\morph21","no","mono","no","18","no","white","no","yes","1080","legacy","30","30","C:/Users/ERP Testing Room/Desktop/Joanna/morph21/subject-133.csv","xpyriment","Jazzy James","3.1.4","0","/","NA","NA","NA","NA","space","/","579","NA","NA","NA","NA","152706","579","2","legacy","1024","2","48000","-16","BA_m21","133","odd","FILL_W","SHIP","1986","267219","265635","262535","154701","NA","NA","NA","NA","267213","266132","NA","265135","NA","265127","267213","1995","267469","NA","NA","266219","1986","1986","266611","265127","1986","266219","267469","morph21_Oliver/Morris","27","21060","31","yes","1280","37"
"350","87.5","87.5","677.09375","677.09375","black","no","xpyriment","legacy","legacy","0","203","NA","uniform","72425","1000","0.013807386952","1","undefined","1","0","31","31","31","0","31","31","31","NA","31","31","0","31","NA","31","31","0","31","NA","31","NA","31","0","0","31","31","0","31","31","32","z","07/30/18 14:55:21","The main experiment item","yes","FIN__BA__M21__7%3A10%3A17.osexp","C:\Users\ERP Testing Room\Desktop\Joanna\morph21","no","mono","no","18","no","white","no","yes","1080","legacy","31","31","C:/Users/ERP Testing Room/Desktop/Joanna/morph21/subject-133.csv","xpyriment","Jazzy James","3.1.4","0","z","NA","NA","NA","NA","space","z","607","NA","NA","NA","NA","152706","607","2","legacy","1024","2","48000","-16","BA_m21","133","odd","NW_S_COMP","WELDIG","1986","270319","268736","262535","154701","NA","NA","NA","NA","270316","269233","NA","268236","NA","268228","270316","1995","270669","NA","NA","269319","1986","1986","269719","268228","1986","269319","270669","morph21_Oliver/Morris","28","21667","32","yes","1280","21"
"300","87.8787878788","87.8787878788","674.606060606","674.606060606","black","no","xpyriment","legacy","legacy","0","202","NA","uniform","70551","1000","0.0141741435274","1","undefined","1","0","32","32","32","0","32","32","32","NA","32","32","0","32","NA","32","32","0","32","NA","32","NA","32","0","0","32","32","0","32","32","33","/","07/30/18 14:55:21","The main experiment item","yes","FIN__BA__M21__7%3A10%3A17.osexp","C:\Users\ERP Testing Room\Desktop\Joanna\morph21","no","mono","no","18","no","white","no","yes","1080","legacy","32","32","C:/Users/ERP Testing Room/Desktop/Joanna/morph21/subject-133.csv","xpyriment","Jazzy James","3.1.4","0","/","NA","NA","NA","NA","space","/","595","NA","NA","NA","NA","152706","595","2","legacy","1024","2","48000","-16","BA_m21","133","odd","CW_L","HEATER","1986","274903","271811","273394","154701","NA","NA","NA","NA","273387","272308","NA","271311","NA","271306","273387","1995","275203","NA","NA","272394","1986","1986","272786","271306","1986","272394","275203","morph21_Oliver/Morris","29","22262","33","yes","1280","16"
"200","88.2352941176","88.2352941176","680.411764706","680.411764706","black","no","xpyriment","legacy","legacy","0","205","NA","uniform","60798","1000","0.0164479094707","1","undefined","1","0","33","33","33","0","33","33","33","NA","33","33","0","33","NA","33","33","0","33","NA","33","NA","33","0","0","33","33","0","33","33","34","z","07/30/18 14:55:21","The main experiment item","yes","FIN__BA__M21__7%3A10%3A17.osexp","C:\Users\ERP Testing Room\Desktop\Joanna\morph21","no","mono","no","18","no","white","no","yes","1080","legacy","33","33","C:/Users/ERP Testing Room/Desktop/Joanna/morph21/subject-133.csv","xpyriment","Jazzy James","3.1.4","0","z","NA","NA","NA","NA","space","z","872","NA","NA","NA","NA","152706","872","2","legacy","1024","2","48000","-16","BA_m21","133","odd","NW_S_SIMP","THRILLANCE","1986","278061","276478","273394","154701","NA","NA","NA","NA","278055","276975","NA","275969","NA","275962","278055","1995","278261","NA","NA","277061","1986","1986","277453","275962","1986","277061","278261","morph21_Oliver/Morris","30","23134","34","yes","1280","22"
"350","88.5714285714","88.5714285714","679.171428571","679.171428571","black","no","xpyriment","legacy","legacy","0","203","NA","uniform","66765","1000","0.0149779075863","1","undefined","1","0","34","34","34","0","34","34","34","NA","34","34","0","34","NA","34","34","0","34","NA","34","NA","34","0","0","34","34","0","34","34","35","z","07/30/18 14:55:21","The main experiment item","yes","FIN__BA__M21__7%3A10%3A17.osexp","C:\Users\ERP Testing Room\Desktop\Joanna\morph21","no","mono","no","18","no","white","no","yes","1080","legacy","34","34","C:/Users/ERP Testing Room/Desktop/Joanna/morph21/subject-133.csv","xpyriment","Jazzy James","3.1.4","0","z","NA","NA","NA","NA","space","z","637","NA","NA","NA","NA","152706","637","2","legacy","1024","2","48000","-16","BA_m21","133","odd","NW_S_COMP","DEBTITH","1986","281128","279511","273394","154701","NA","NA","NA","NA","281121","280008","NA","279011","NA","279004","281121","1995","281478","NA","NA","280128","1986","1986","280520","279003","1986","280128","281478","morph21_Oliver/Morris","31","23771","35","yes","1280","22"
"400","88.8888888889","88.8888888889","677.722222222","677.722222222","black","no","xpyriment","legacy","legacy","0","202","NA","uniform","75030","1000","0.0133280021325","1","undefined","1","0","35","35","35","0","35","35","35","NA","35","35","0","35","NA","35","35","0","35","NA","35","NA","35","0","0","35","35","0","35","35","36","/","07/30/18 14:55:21","The main experiment item","yes","FIN__BA__M21__7%3A10%3A17.osexp","C:\Users\ERP Testing Room\Desktop\Joanna\morph21","no","mono","no","18","no","white","no","yes","1080","legacy","35","35","C:/Users/ERP Testing Room/Desktop/Joanna/morph21/subject-133.csv","xpyriment","Jazzy James","3.1.4","0","/","NA","NA","NA","NA","space","/","627","NA","NA","NA","NA","152706","627","2","legacy","1024","2","48000","-16","BA_m21","133","odd","CW_L","SHAPELY","1986","285888","282795","284379","154701","NA","NA","NA","NA","284372","283292","NA","282295","NA","282287","284372","1995","286288","NA","NA","283379","1986","1986","283771","282287","1986","283379","286288","morph21_Oliver/Morris","32","24398","36","yes","1280","35"
"250","89.1891891892","89.1891891892","678.837837838","678.837837838","black","no","xpyriment","legacy","legacy","0","207","NA","uniform","68527","1000","0.014592788244","1","undefined","1","0","36","36","36","0","36","36","36","NA","36","36","0","36","NA","36","36","0","36","NA","36","NA","36","0","0","36","36","0","36","36","37","/","07/30/18 14:55:21","The main experiment item","yes","FIN__BA__M21__7%3A10%3A17.osexp","C:\Users\ERP Testing Room\Desktop\Joanna\morph21","no","mono","no","18","no","white","no","yes","1080","legacy","36","36","C:/Users/ERP Testing Room/Desktop/Joanna/morph21/subject-133.csv","xpyriment","Jazzy James","3.1.4","0","/","NA","NA","NA","NA","space","/","719","NA","NA","NA","NA","152706","719","2","legacy","1024","2","48000","-16","BA_m21","133","odd","FILL_W","SLIM","1986","289054","287463","284379","154701","NA","NA","NA","NA","289048","287960","NA","286963","NA","286952","289048","1995","289304","NA","NA","288054","1986","1986","288446","286952","1986","288054","289304","morph21_Oliver/Morris","33","25117","37","yes","1280","6"
"200","89.4736842105","89.4736842105","671.552631579","671.552631579","black","no","xpyriment","legacy","legacy","0","207","NA","uniform","74302","1000","0.013458587925","1","undefined","1","0","37","37","37","0","37","37","37","NA","37","37","0","37","NA","37","37","0","37","NA","37","NA","37","0","0","37","37","0","37","37","38","/","07/30/18 14:55:21","The main experiment item","yes","FIN__BA__M21__7%3A10%3A17.osexp","C:\Users\ERP Testing Room\Desktop\Joanna\morph21","no","mono","no","18","no","white","no","yes","1080","legacy","37","37","C:/Users/ERP Testing Room/Desktop/Joanna/morph21/subject-133.csv","xpyriment","Jazzy James","3.1.4","0","/","NA","NA","NA","NA","space","/","402","NA","NA","NA","NA","152706","402","2","legacy","1024","2","48000","-16","BA_m21","133","odd","FILL_W","OLD","1986","292154","290538","284379","154701","NA","NA","NA","NA","292147","291035","NA","290038","NA","290029","292147","1995","292355","NA","NA","291155","1986","1986","291546","290029","1986","291154","292355","morph21_Oliver/Morris","34","25519","38","yes","1280","44"
"200","89.7435897436","89.7435897436","668.282051282","668.282051282","black","no","xpyriment","legacy","legacy","0","204","NA","uniform","66607","1000","0.0150134370261","1","undefined","1","0","38","38","38","0","38","38","38","NA","38","38","0","38","NA","38","38","0","38","NA","38","NA","38","0","0","38","38","0","38","38","39","z","07/30/18 14:55:21","The main experiment item","yes","FIN__BA__M21__7%3A10%3A17.osexp","C:\Users\ERP Testing Room\Desktop\Joanna\morph21","no","mono","no","18","no","white","no","yes","1080","legacy","38","38","C:/Users/ERP Testing Room/Desktop/Joanna/morph21/subject-133.csv","xpyriment","Jazzy James","3.1.4","0","z","NA","NA","NA","NA","space","z","544","NA","NA","NA","NA","152706","544","2","legacy","1024","2","48000","-16","BA_m21","133","odd","NW_L_COMP","GASFIL","1986","296721","293571","295213","154701","NA","NA","NA","NA","295204","294068","NA","293071","NA","293066","295204","1995","296922","NA","NA","294213","1986","1986","294605","293066","1986","294213","296922","morph21_Oliver/Morris","35","26063","39","yes","1280","6"
"250","90","90","672.6","672.6","black","no","xpyriment","legacy","legacy","0","202","NA","uniform","66041","1000","0.0151421086901","1","undefined","1","0","39","39","39","0","39","39","39","NA","39","39","0","39","NA","39","39","0","39","NA","39","NA","39","0","0","39","39","0","39","39","40","/","07/30/18 14:55:21","The main experiment item","yes","FIN__BA__M21__7%3A10%3A17.osexp","C:\Users\ERP Testing Room\Desktop\Joanna\morph21","no","mono","no","18","no","white","no","yes","1080","legacy","39","39","C:/Users/ERP Testing Room/Desktop/Joanna/morph21/subject-133.csv","xpyriment","Jazzy James","3.1.4","0","/","NA","NA","NA","NA","space","/","841","NA","NA","NA","NA","152706","841","2","legacy","1024","2","48000","-16","BA_m21","133","odd","CW_L","STRIKER","1986","299797","298188","295213","154701","NA","NA","NA","NA","299792","298685","NA","297688","NA","297679","299792","1995","300047","NA","NA","298796","1986","1986","299197","297679","1986","298796","300047","morph21_Oliver/Morris","36","26904","40","yes","1280","17"
"250","90.243902439","90.243902439","667.634146341","667.634146341","black","no","xpyriment","legacy","legacy","0","202","NA","uniform","72323","1000","0.0138268600583","1","undefined","1","0","40","40","40","0","40","40","40","NA","40","40","0","40","NA","40","40","0","40","NA","40","NA","40","0","0","40","40","0","40","40","41","/","07/30/18 14:55:21","The main experiment item","yes","FIN__BA__M21__7%3A10%3A17.osexp","C:\Users\ERP Testing Room\Desktop\Joanna\morph21","no","mono","no","18","no","white","no","yes","1080","legacy","40","40","C:/Users/ERP Testing Room/Desktop/Joanna/morph21/subject-133.csv","xpyriment","Jazzy James","3.1.4","0","/","NA","NA","NA","NA","space","/","469","NA","NA","NA","NA","152706","469","2","legacy","1024","2","48000","-16","BA_m21","133","odd","CW_L","PUSHER","1986","302864","301231","295213","154701","NA","NA","NA","NA","302862","301728","NA","300731","NA","300725","302862","1995","303114","NA","NA","301873","1986","1986","302264","300725","1986","301873","303114","morph21_Oliver/Morris","37","27373","41","yes","1280","13"
"200","90.4761904762","90.4761904762","675.404761905","675.404761905","black","no","xpyriment","legacy","legacy","0","203","NA","uniform","61709","1000","0.0162050916398","1","undefined","1","0","41","41","41","0","41","41","41","NA","41","41","0","41","NA","41","41","0","41","NA","41","NA","41","0","0","41","41","0","41","41","42","z","07/30/18 14:55:21","The main experiment item","yes","FIN__BA__M21__7%3A10%3A17.osexp","C:\Users\ERP Testing Room\Desktop\Joanna\morph21","no","mono","no","18","no","white","no","yes","1080","legacy","41","41","C:/Users/ERP Testing Room/Desktop/Joanna/morph21/subject-133.csv","xpyriment","Jazzy James","3.1.4","0","z","NA","NA","NA","NA","space","z","994","NA","NA","NA","NA","152706","994","2","legacy","1024","2","48000","-16","BA_m21","133","odd","NW_S_COMP","ANTILM","1986","307440","304348","305931","154701","NA","NA","NA","NA","305926","304845","NA","303848","NA","303840","305926","1995","307640","NA","NA","304931","1986","1986","305331","303840","1986","304931","307640","morph21_Oliver/Morris","38","28367","42","yes","1280","8"
"250","90.6976744186","90.6976744186","677.302325581","677.302325581","black","no","xpyriment","legacy","legacy","0","203","NA","uniform","61972","1000","0.0161363196282","1","undefined","1","0","42","42","42","0","42","42","42","NA","42","42","0","42","NA","42","42","0","42","NA","42","NA","42","0","0","42","42","0","42","42","43","z","07/30/18 14:55:21","The main experiment item","yes","FIN__BA__M21__7%3A10%3A17.osexp","C:\Users\ERP Testing Room\Desktop\Joanna\morph21","no","mono","no","18","no","white","no","yes","1080","legacy","42","42","C:/Users/ERP Testing Room/Desktop/Joanna/morph21/subject-133.csv","xpyriment","Jazzy James","3.1.4","0","z","NA","NA","NA","NA","space","z","757","NA","NA","NA","NA","152706","757","2","legacy","1024","2","48000","-16","BA_m21","133","odd","NW_S_COMP","BEEREL","1986","310456","308856","305931","154701","NA","NA","NA","NA","310452","309353","NA","308356","NA","308350","310452","1995","310706","NA","NA","309456","1986","1986","309856","308350","1986","309456","310706","morph21_Oliver/Morris","39","29124","43","yes","1280","5"
"400","90.9090909091","90.9090909091","675.363636364","675.363636364","black","no","xpyriment","legacy","legacy","0","208","NA","uniform","68305","1000","0.0146402166752","1","undefined","1","0","43","43","43","0","43","43","43","NA","43","43","0","43","NA","43","43","0","43","NA","43","NA","43","0","0","43","43","0","43","43","44","z","07/30/18 14:55:21","The main experiment item","yes","FIN__BA__M21__7%3A10%3A17.osexp","C:\Users\ERP Testing Room\Desktop\Joanna\morph21","no","mono","no","18","no","white","no","yes","1080","legacy","43","43","C:/Users/ERP Testing Room/Desktop/Joanna/morph21/subject-133.csv","xpyriment","Jazzy James","3.1.4","0","z","NA","NA","NA","NA","space","z","592","NA","NA","NA","NA","152706","592","2","legacy","1024","2","48000","-16","BA_m21","133","odd","FILL_NW","BORMS","1986","313581","311965","305931","154701","NA","NA","NA","NA","313575","312462","NA","311465","NA","311453","313575","1995","313982","NA","NA","312581","1986","1986","312973","311453","1986","312581","313982","morph21_Oliver/Morris","40","29716","44","yes","1280","50"
"300","91.1111111111","91.1111111111","678.977777778","678.977777778","black","no","xpyriment","legacy","legacy","0","205","NA","uniform","63611","1000","0.0157205514769","1","undefined","1","0","44","44","44","0","44","44","44","NA","44","44","0","44","NA","44","44","0","44","NA","44","NA","44","0","0","44","44","0","44","44","45","z","07/30/18 14:55:21","The main experiment item","yes","FIN__BA__M21__7%3A10%3A17.osexp","C:\Users\ERP Testing Room\Desktop\Joanna\morph21","no","mono","no","18","no","white","no","yes","1080","legacy","44","44","C:/Users/ERP Testing Room/Desktop/Joanna/morph21/subject-133.csv","xpyriment","Jazzy James","3.1.4","0","z","NA","NA","NA","NA","space","z","838","NA","NA","NA","NA","152706","838","2","legacy","1024","2","48000","-16","BA_m21","133","odd","NW_S_SIMP","YIELDIST","1986","318316","315198","316807","154701","NA","NA","NA","NA","316800","315695","NA","314698","NA","314690","316800","1995","318616","NA","NA","315807","1986","1986","316198","314690","1986","315807","318616","morph21_Oliver/Morris","41","30554","45","yes","1280","20"
"200","91.3043478261","91.3043478261","674.108695652","674.108695652","black","no","xpyriment","legacy","legacy","0","207","NA","uniform","74301","1000","0.013458769061","1","undefined","1","0","45","45","45","0","45","45","45","NA","45","45","0","45","NA","45","45","0","45","NA","45","NA","45","0","0","45","45","0","45","45","46","/","07/30/18 14:55:21","The main experiment item","yes","FIN__BA__M21__7%3A10%3A17.osexp","C:\Users\ERP Testing Room\Desktop\Joanna\morph21","no","mono","no","18","no","white","no","yes","1080","legacy","45","45","C:/Users/ERP Testing Room/Desktop/Joanna/morph21/subject-133.csv","xpyriment","Jazzy James","3.1.4","0","/","NA","NA","NA","NA","space","/","455","NA","NA","NA","NA","152706","455","2","legacy","1024","2","48000","-16","BA_m21","133","odd","FILL_W","STALK","1986","321383","319791","316807","154701","NA","NA","NA","NA","321374","320288","NA","319291","NA","319287","321374","1995","321583","NA","NA","320383","1986","1986","320774","319286","1986","320383","321583","morph21_Oliver/Morris","42","31009","46","yes","1280","27"
"200","91.4893617021","91.4893617021","669.127659574","669.127659574","black","no","xpyriment","legacy","legacy","0","207","NA","uniform","81447","1000","0.0122779230665","1","undefined","1","0","46","46","46","0","46","46","46","NA","46","46","0","46","NA","46","46","0","46","NA","46","NA","46","0","0","46","46","0","46","46","47","/","07/30/18 14:55:21","The main experiment item","yes","FIN__BA__M21__7%3A10%3A17.osexp","C:\Users\ERP Testing Room\Desktop\Joanna\morph21","no","mono","no","18","no","white","no","yes","1080","legacy","46","46","C:/Users/ERP Testing Room/Desktop/Joanna/morph21/subject-133.csv","xpyriment","Jazzy James","3.1.4","0","/","NA","NA","NA","NA","space","/","440","NA","NA","NA","NA","152706","440","2","legacy","1024","2","48000","-16","BA_m21","133","odd","FILL_W","FLESH","1986","324350","322766","316807","154701","NA","NA","NA","NA","324346","323263","NA","322266","NA","322255","324346","1995","324550","NA","NA","323350","1986","1986","323750","322255","1986","323350","324550","morph21_Oliver/Morris","43","31449","47","yes","1280","32"
"300","91.6666666667","91.6666666667","665.895833333","665.895833333","black","no","xpyriment","legacy","legacy","0","201","NA","uniform","74935","1000","0.0133448989124","1","undefined","1","0","47","47","47","0","47","47","47","NA","47","47","0","47","NA","47","47","0","47","NA","47","NA","47","0","0","47","47","0","47","47","48","/","07/30/18 14:55:21","The main experiment item","yes","FIN__BA__M21__7%3A10%3A17.osexp","C:\Users\ERP Testing Room\Desktop\Joanna\morph21","no","mono","no","18","no","white","no","yes","1080","legacy","47","47","C:/Users/ERP Testing Room/Desktop/Joanna/morph21/subject-133.csv","xpyriment","Jazzy James","3.1.4","0","/","NA","NA","NA","NA","space","/","514","NA","NA","NA","NA","152706","514","2","legacy","1024","2","48000","-16","BA_m21","133","odd","CW_S","DESTROYER","1986","328983","325891","327475","154701","NA","NA","NA","NA","327467","326388","NA","325391","NA","325384","327467","1995","329283","NA","NA","326475","1986","1986","326866","325383","1986","326475","329283","morph21_Oliver/Morris","44","31963","48","yes","1280","14"
"400","91.8367346939","91.8367346939","665.06122449","665.06122449","black","no","xpyriment","legacy","legacy","0","201","NA","uniform","68927","1000","0.0145081027754","1","undefined","1","0","48","48","48","0","48","48","48","NA","48","48","0","48","NA","48","48","0","48","NA","48","NA","48","0","0","48","48","0","48","48","49","/","07/30/18 14:55:21","The main experiment item","yes","FIN__BA__M21__7%3A10%3A17.osexp","C:\Users\ERP Testing Room\Desktop\Joanna\morph21","no","mono","no","18","no","white","no","yes","1080","legacy","48","48","C:/Users/ERP Testing Room/Desktop/Joanna/morph21/subject-133.csv","xpyriment","Jazzy James","3.1.4","0","/","NA","NA","NA","NA","space","/","625","NA","NA","NA","NA","152706","625","2","legacy","1024","2","48000","-16","BA_m21","133","odd","CW_S","WIDOWED","1986","332092","330508","327475","154701","NA","NA","NA","NA","332086","331005","NA","330008","NA","330004","332086","1995","332492","NA","NA","331092","1986","1986","331483","330004","1986","331092","332492","morph21_Oliver/Morris","45","32588","49","yes","1280","7"
"200","92","92","664.34","664.34","black","no","xpyriment","legacy","legacy","0","201","NA","uniform","73340","1000","0.0136351240796","1","undefined","1","0","49","49","49","0","49","49","49","NA","49","49","0","49","NA","49","49","0","49","NA","49","NA","49","0","0","49","49","0","49","49","50","/","07/30/18 14:55:21","The main experiment item","yes","FIN__BA__M21__7%3A10%3A17.osexp","C:\Users\ERP Testing Room\Desktop\Joanna\morph21","no","mono","no","18","no","white","no","yes","1080","legacy","49","49","C:/Users/ERP Testing Room/Desktop/Joanna/morph21/subject-133.csv","xpyriment","Jazzy James","3.1.4","0","/","NA","NA","NA","NA","space","/","629","NA","NA","NA","NA","152706","629","2","legacy","1024","2","48000","-16","BA_m21","133","odd","CW_S","BOLDNESS","1986","335392","333808","327475","154701","NA","NA","NA","NA","335386","334306","NA","333308","NA","333306","335386","1995","335592","NA","NA","334392","1986","1986","334783","333306","1986","334392","335592","morph21_Oliver/Morris","46","33217","50","yes","1280","41"
"400","90.1960784314","90.1960784314","670.745098039","670.745098039","black","no","xpyriment","legacy","legacy","0","208","NA","uniform","55864","1000","0.0179006157812","0","undefined","0","0","50","50","50","0","50","50","50","NA","50","50","0","50","NA","50","50","0","50","NA","50","NA","50","0","0","50","50","0","50","50","51","z","07/30/18 14:55:21","The main experiment item","yes","FIN__BA__M21__7%3A10%3A17.osexp","C:\Users\ERP Testing Room\Desktop\Joanna\morph21","no","mono","no","18","no","white","no","yes","1080","legacy","50","50","C:/Users/ERP Testing Room/Desktop/Joanna/morph21/subject-133.csv","xpyriment","Jazzy James","3.1.4","0","None","NA","NA","NA","NA","space","None","991","NA","NA","NA","NA","152706","991","2","legacy","1024","2","48000","-16","BA_m21","133","odd","FILL_NW","BUTE","1986","339910","336818","338401","154701","NA","NA","NA","NA","335386","337315","NA","336318","NA","336314","338392","1995","340310","NA","NA","337401","1986","1986","337793","336313","1986","337401","340310","morph21_Oliver/Morris","46","34208","51","yes","1280","5"
"350","90.3846153846","90.3846153846","667.692307692","667.692307692","black","no","xpyriment","legacy","legacy","0","201","NA","uniform","74553","1000","0.013413276461","1","undefined","1","0","51","51","51","0","51","51","51","NA","51","51","0","51","NA","51","51","0","51","NA","51","NA","51","0","0","51","51","0","51","51","52","/","07/30/18 14:55:21","The main experiment item","yes","FIN__BA__M21__7%3A10%3A17.osexp","C:\Users\ERP Testing Room\Desktop\Joanna\morph21","no","mono","no","18","no","white","no","yes","1080","legacy","51","51","C:/Users/ERP Testing Room/Desktop/Joanna/morph21/subject-133.csv","xpyriment","Jazzy James","3.1.4","0","/","NA","NA","NA","NA","space","/","512","NA","NA","NA","NA","152706","512","2","legacy","1024","2","48000","-16","BA_m21","133","odd","CW_S","CHILLY","1986","343118","341526","338401","154701","NA","NA","NA","NA","343114","342024","NA","341026","NA","341021","343114","1995","343468","NA","NA","342118","1986","1986","342518","341021","1986","342118","343468","morph21_Oliver/Morris","47","34720","52","yes","1280","48"
"300","90.5660377358","90.5660377358","665.962264151","665.962264151","black","no","xpyriment","legacy","legacy","0","204","NA","uniform","69408","1000","0.0144075610881","1","undefined","1","0","52","52","52","0","52","52","52","NA","52","52","0","52","NA","52","52","0","52","NA","52","NA","52","0","0","52","52","0","52","52","53","z","07/30/18 14:55:21","The main experiment item","yes","FIN__BA__M21__7%3A10%3A17.osexp","C:\Users\ERP Testing Room\Desktop\Joanna\morph21","no","mono","no","18","no","white","no","yes","1080","legacy","52","52","C:/Users/ERP Testing Room/Desktop/Joanna/morph21/subject-133.csv","xpyriment","Jazzy James","3.1.4","0","z","NA","NA","NA","NA","space","z","576","NA","NA","NA","NA","152706","576","2","legacy","1024","2","48000","-16","BA_m21","133","odd","NW_L_COMP","EMPLOYNELS","1986","346277","344693","338401","154701","NA","NA","NA","NA","346274","345190","NA","344193","NA","344187","346274","1995","346577","NA","NA","345285","1986","1986","345677","344187","1986","345285","346577","morph21_Oliver/Morris","48","35296","53","yes","1280","21"
"300","88.8888888889","88.8888888889","672.055555556","672.055555556","black","no","xpyriment","legacy","legacy","0","202","NA","uniform","58221","1000","0.0171759330826","0","undefined","0","0","53","53","53","0","53","53","53","NA","53","53","0","53","NA","53","53","0","53","NA","53","NA","53","0","0","53","53","0","53","53","54","/","07/30/18 14:55:21","The main experiment item","yes","FIN__BA__M21__7%3A10%3A17.osexp","C:\Users\ERP Testing Room\Desktop\Joanna\morph21","no","mono","no","18","no","white","no","yes","1080","legacy","53","53","C:/Users/ERP Testing Room/Desktop/Joanna/morph21/subject-133.csv","xpyriment","Jazzy James","3.1.4","0","None","NA","NA","NA","NA","space","None","995","NA","NA","NA","NA","152706","995","2","legacy","1024","2","48000","-16","BA_m21","133","odd","CW_L","WEEDY","1986","350952","347852","349443","154701","NA","NA","NA","NA","346274","348349","NA","347352","NA","347346","349438","1995","351252","NA","NA","348443","1986","1986","348835","347346","1986","348443","351252","morph21_Oliver/Morris","48","36291","54","yes","1280","48"
"300","89.0909090909","89.0909090909","668.545454545","668.545454545","black","no","xpyriment","legacy","legacy","0","207","NA","uniform","74768","1000","0.0133747057565","1","undefined","1","0","54","54","54","0","54","54","54","NA","54","54","0","54","NA","54","54","0","54","NA","54","NA","54","0","0","54","54","0","54","54","55","/","07/30/18 14:55:21","The main experiment item","yes","FIN__BA__M21__7%3A10%3A17.osexp","C:\Users\ERP Testing Room\Desktop\Joanna\morph21","no","mono","no","18","no","white","no","yes","1080","legacy","54","54","C:/Users/ERP Testing Room/Desktop/Joanna/morph21/subject-133.csv","xpyriment","Jazzy James","3.1.4","0","/","NA","NA","NA","NA","space","/","479","NA","NA","NA","NA","152706","479","2","legacy","1024","2","48000","-16","BA_m21","133","odd","FILL_W","IRON","1986","354136","352569","349443","154701","NA","NA","NA","NA","354131","353066","NA","352069","NA","352065","354131","1995","354436","NA","NA","353135","1986","1986","353536","352065","1986","353135","354436","morph21_Oliver/Morris","49","36770","55","yes","1280","33"
"300","89.2857142857","89.2857142857","666.839285714","666.839285714","black","no","xpyriment","legacy","legacy","0","201","NA","uniform","70812","1000","0.0141219002429","1","undefined","1","0","55","55","55","0","55","55","55","NA","55","55","0","55","NA","55","55","0","55","NA","55","NA","55","0","0","55","55","0","55","55","56","/","07/30/18 14:55:21","The main experiment item","yes","FIN__BA__M21__7%3A10%3A17.osexp","C:\Users\ERP Testing Room\Desktop\Joanna\morph21","no","mono","no","18","no","white","no","yes","1080","legacy","55","55","C:/Users/ERP Testing Room/Desktop/Joanna/morph21/subject-133.csv","xpyriment","Jazzy James","3.1.4","0","/","NA","NA","NA","NA","space","/","573","NA","NA","NA","NA","152706","573","2","legacy","1024","2","48000","-16","BA_m21","133","odd","CW_S","RISKY","1986","357353","355753","349443","154701","NA","NA","NA","NA","357347","356250","NA","355253","NA","355243","357347","1995","357653","NA","NA","356353","1986","1986","356745","355243","1986","356353","357653","morph21_Oliver/Morris","50","37343","56","yes","1280","50"
"250","89.4736842105","89.4736842105","662.771929825","662.771929825","black","no","xpyriment","legacy","legacy","0","207","NA","uniform","77009","1000","0.0129854952019","1","undefined","1","0","56","56","56","0","56","56","56","NA","56","56","0","56","NA","56","56","0","56","NA","56","NA","56","0","0","56","56","0","56","56","57","/","07/30/18 14:55:21","The main experiment item","yes","FIN__BA__M21__7%3A10%3A17.osexp","C:\Users\ERP Testing Room\Desktop\Joanna\morph21","no","mono","no","18","no","white","no","yes","1080","legacy","56","56","C:/Users/ERP Testing Room/Desktop/Joanna/morph21/subject-133.csv","xpyriment","Jazzy James","3.1.4","0","/","NA","NA","NA","NA","space","/","435","NA","NA","NA","NA","152706","435","2","legacy","1024","2","48000","-16","BA_m21","133","odd","FILL_W","SOFT","1986","362070","358953","360562","154701","NA","NA","NA","NA","360554","359450","NA","358453","NA","358443","360554","1995","362320","NA","NA","359562","1986","1986","359953","358443","1986","359562","362320","morph21_Oliver/Morris","51","37778","57","yes","1280","43"
"350","87.9310344828","87.9310344828","659.603448276","659.603448276","black","no","xpyriment","legacy","legacy","0","204","NA","uniform","69685","1000","0.0143502905934","0","undefined","0","0","57","57","57","0","57","57","57","NA","57","57","0","57","NA","57","57","0","57","NA","57","NA","57","0","0","57","57","0","57","57","58","z","07/30/18 14:55:21","The main experiment item","yes","FIN__BA__M21__7%3A10%3A17.osexp","C:\Users\ERP Testing Room\Desktop\Joanna\morph21","no","mono","no","18","no","white","no","yes","1080","legacy","57","57","C:/Users/ERP Testing Room/Desktop/Joanna/morph21/subject-133.csv","xpyriment","Jazzy James","3.1.4","0","/","NA","NA","NA","NA","space","/","479","NA","NA","NA","NA","152706","479","2","legacy","1024","2","48000","-16","BA_m21","133","odd","NW_L_COMP","MOUTHIME","1986","365262","363653","360562","154701","NA","NA","NA","NA","360554","364151","NA","363153","NA","363146","365258","1995","365612","NA","NA","364262","1986","1986","364662","363146","1986","364262","365612","morph21_Oliver/Morris","51","38257","58","yes","1280","11"
"350","88.1355932203","88.1355932203","660.220338983","660.220338983","black","no","xpyriment","legacy","legacy","0","206","NA","uniform","58043","1000","0.017228606378","1","undefined","1","0","58","58","58","0","58","58","58","NA","58","58","0","58","NA","58","58","0","58","NA","58","NA","58","0","0","58","58","0","58","58","59","z","07/30/18 14:55:21","The main experiment item","yes","FIN__BA__M21__7%3A10%3A17.osexp","C:\Users\ERP Testing Room\Desktop\Joanna\morph21","no","mono","no","18","no","white","no","yes","1080","legacy","58","58","C:/Users/ERP Testing Room/Desktop/Joanna/morph21/subject-133.csv","xpyriment","Jazzy James","3.1.4","0","z","NA","NA","NA","NA","space","z","696","NA","NA","NA","NA","152706","696","2","legacy","1024","2","48000","-16","BA_m21","133","odd","NW_L_SIMP","PICKENCE","1986","368429","366845","360562","154701","NA","NA","NA","NA","368420","367342","NA","366345","NA","366334","368420","1995","368779","NA","NA","367429","1986","1986","367820","366334","1986","367429","368779","morph21_Oliver/Morris","52","38953","59","yes","1280","5"
"200","88.3333333333","88.3333333333","659.116666667","659.116666667","black","no","xpyriment","legacy","legacy","0","207","NA","uniform","71296","1000","0.014026032316","1","undefined","1","0","59","59","59","0","59","59","59","NA","59","59","0","59","NA","59","59","0","59","NA","59","NA","59","0","0","59","59","0","59","59","60","/","07/30/18 14:55:21","The main experiment item","yes","FIN__BA__M21__7%3A10%3A17.osexp","C:\Users\ERP Testing Room\Desktop\Joanna\morph21","no","mono","no","18","no","white","no","yes","1080","legacy","59","59","C:/Users/ERP Testing Room/Desktop/Joanna/morph21/subject-133.csv","xpyriment","Jazzy James","3.1.4","0","/","NA","NA","NA","NA","space","/","594","NA","NA","NA","NA","152706","594","2","legacy","1024","2","48000","-16","BA_m21","133","odd","FILL_W","GOLF","1986","373113","370020","371605","154701","NA","NA","NA","NA","371596","370517","NA","369520","NA","369510","371596","1995","373313","NA","NA","370604","1986","1986","370996","369510","1986","370604","373313","morph21_Oliver/Morris","53","39547","60","yes","1280","28"
"400","88.5245901639","88.5245901639","661","661","black","no","xpyriment","legacy","legacy","0","204","NA","uniform","63993","1000","0.0156267091713","1","undefined","1","0","60","60","60","0","60","60","60","NA","60","60","0","60","NA","60","60","0","60","NA","60","NA","60","0","0","60","60","0","60","60","61","z","07/30/18 14:55:21","The main experiment item","yes","FIN__BA__M21__7%3A10%3A17.osexp","C:\Users\ERP Testing Room\Desktop\Joanna\morph21","no","mono","no","18","no","white","no","yes","1080","legacy","60","60","C:/Users/ERP Testing Room/Desktop/Joanna/morph21/subject-133.csv","xpyriment","Jazzy James","3.1.4","0","z","NA","NA","NA","NA","space","z","774","NA","NA","NA","NA","152706","774","2","legacy","1024","2","48000","-16","BA_m21","133","odd","NW_L_COMP","ANGELITH","1986","376072","374488","371605","154701","NA","NA","NA","NA","376067","374985","NA","373988","NA","373982","376067","1995","376472","NA","NA","375072","1986","1986","375472","373982","1986","375072","376472","morph21_Oliver/Morris","54","40321","61","yes","1280","7"
"400","88.7096774194","88.7096774194","662.919354839","662.919354839","black","no","xpyriment","legacy","legacy","0","202","NA","uniform","69894","1000","0.0143073797465","1","undefined","1","0","61","61","61","0","61","61","61","NA","61","61","0","61","NA","61","61","0","61","NA","61","NA","61","0","0","61","61","0","61","61","62","/","07/30/18 14:55:21","The main experiment item","yes","FIN__BA__M21__7%3A10%3A17.osexp","C:\Users\ERP Testing Room\Desktop\Joanna\morph21","no","mono","no","18","no","white","no","yes","1080","legacy","61","61","C:/Users/ERP Testing Room/Desktop/Joanna/morph21/subject-133.csv","xpyriment","Jazzy James","3.1.4","0","/","NA","NA","NA","NA","space","/","780","NA","NA","NA","NA","152706","780","2","legacy","1024","2","48000","-16","BA_m21","133","odd","CW_L","CONDUCTOR","1986","379313","377722","371605","154701","NA","NA","NA","NA","379304","378219","NA","377222","NA","377214","379304","1995","379714","NA","NA","378313","1986","1986","378705","377214","1986","378313","379714","morph21_Oliver/Morris","55","41101","62","yes","1280","44"
"400","88.8888888889","88.8888888889","665.507936508","665.507936508","black","no","xpyriment","legacy","legacy","0","208","NA","uniform","56993","1000","0.0175460144228","1","undefined","1","0","62","62","62","0","62","62","62","NA","62","62","0","62","NA","62","62","0","62","NA","62","NA","62","0","0","62","62","0","62","62","63","z","07/30/18 14:55:21","The main experiment item","yes","FIN__BA__M21__7%3A10%3A17.osexp","C:\Users\ERP Testing Room\Desktop\Joanna\morph21","no","mono","no","18","no","white","no","yes","1080","legacy","62","62","C:/Users/ERP Testing Room/Desktop/Joanna/morph21/subject-133.csv","xpyriment","Jazzy James","3.1.4","0","z","NA","NA","NA","NA","space","z","826","NA","NA","NA","NA","152706","826","2","legacy","1024","2","48000","-16","BA_m21","133","odd","FILL_NW","VELT","1986","384064","380963","382555","154701","NA","NA","NA","NA","382545","381461","NA","380464","NA","380454","382545","1995","384464","NA","NA","381555","1986","1986","381947","380454","1986","381555","384464","morph21_Oliver/Morris","56","41927","63","yes","1280","46"
"250","89.0625","89.0625","670.53125","670.53125","black","no","xpyriment","legacy","legacy","0","208","NA","uniform","63339","1000","0.0157880610682","1","undefined","1","0","63","63","63","0","63","63","63","NA","63","63","0","63","NA","63","63","0","63","NA","63","NA","63","0","0","63","63","0","63","63","64","z","07/30/18 14:55:21","The main experiment item","yes","FIN__BA__M21__7%3A10%3A17.osexp","C:\Users\ERP Testing Room\Desktop\Joanna\morph21","no","mono","no","18","no","white","no","yes","1080","legacy","63","63","C:/Users/ERP Testing Room/Desktop/Joanna/morph21/subject-133.csv","xpyriment","Jazzy James","3.1.4","0","z","NA","NA","NA","NA","space","z","987","NA","NA","NA","NA","152706","987","2","legacy","1024","2","48000","-16","BA_m21","133","odd","FILL_NW","PLAODS","1986","387322","385730","382555","154701","NA","NA","NA","NA","387315","386228","NA","385230","NA","385226","387315","1995","387572","NA","NA","386322","1986","1986","386714","385226","1986","386322","387572","morph21_Oliver/Morris","57","42914","64","yes","1280","37"
"300","87.6923076923","87.6923076923","675.507692308","675.507692308","black","no","xpyriment","legacy","legacy","0","201","NA","uniform","59597","1000","0.016779368089","0","undefined","0","0","64","64","64","0","64","64","64","NA","64","64","0","64","NA","64","64","0","64","NA","64","NA","64","0","0","64","64","0","64","64","65","/","07/30/18 14:55:21","The main experiment item","yes","FIN__BA__M21__7%3A10%3A17.osexp","C:\Users\ERP Testing Room\Desktop\Joanna\morph21","no","mono","no","18","no","white","no","yes","1080","legacy","64","64","C:/Users/ERP Testing Room/Desktop/Joanna/morph21/subject-133.csv","xpyriment","Jazzy James","3.1.4","0","None","NA","NA","NA","NA","space","None","994","NA","NA","NA","NA","152706","994","2","legacy","1024","2","48000","-16","BA_m21","133","odd","CW_S","DETECTABLE","1986","390323","388740","382555","154701","NA","NA","NA","NA","387315","389237","NA","388232","NA","388228","390317","1995","390623","NA","NA","389323","1986","1986","389715","388228","1986","389323","390623","morph21_Oliver/Morris","57","43908","65","yes","1280","1"
"250","87.8787878788","87.8787878788","673.742424242","673.742424242","black","no","xpyriment","legacy","legacy","0","203","NA","uniform","69514","1000","0.0143855913917","1","undefined","1","0","65","65","65","0","65","65","65","NA","65","65","0","65","NA","65","65","0","65","NA","65","NA","65","0","0","65","65","0","65","65","66","z","07/30/18 14:55:21","The main experiment item","yes","FIN__BA__M21__7%3A10%3A17.osexp","C:\Users\ERP Testing Room\Desktop\Joanna\morph21","no","mono","no","18","no","white","no","yes","1080","legacy","65","65","C:/Users/ERP Testing Room/Desktop/Joanna/morph21/subject-133.csv","xpyriment","Jazzy James","3.1.4","0","z","NA","NA","NA","NA","space","z","559","NA","NA","NA","NA","152706","559","2","legacy","1024","2","48000","-16","BA_m21","133","odd","NW_S_COMP","LIDADY","1986","394923","391823","393415","154701","NA","NA","NA","NA","393405","392320","NA","391323","NA","391314","393405","1995","395174","NA","NA","392415","1986","1986","392807","391313","1986","392415","395174","morph21_Oliver/Morris","58","44467","66","yes","1280","3"
"200","88.0597014925","88.0597014925","677.671641791","677.671641791","black","no","xpyriment","legacy","legacy","0","202","NA","uniform","64788","1000","0.0154349570908","1","undefined","1","0","66","66","66","0","66","66","66","NA","66","66","0","66","NA","66","66","0","66","NA","66","NA","66","0","0","66","66","0","66","66","67","/","07/30/18 14:55:21","The main experiment item","yes","FIN__BA__M21__7%3A10%3A17.osexp","C:\Users\ERP Testing Room\Desktop\Joanna\morph21","no","mono","no","18","no","white","no","yes","1080","legacy","66","66","C:/Users/ERP Testing Room/Desktop/Joanna/morph21/subject-133.csv","xpyriment","Jazzy James","3.1.4","0","/","NA","NA","NA","NA","space","/","937","NA","NA","NA","NA","152706","937","2","legacy","1024","2","48000","-16","BA_m21","133","odd","CW_L","BOOTLESS","1986","397940","396357","393415","154701","NA","NA","NA","NA","397935","396854","NA","395857","NA","395847","397935","1995","398140","NA","NA","396940","1986","1986","397340","395847","1986","396940","398140","morph21_Oliver/Morris","59","45404","67","yes","1280","32"
"250","88.2352941176","88.2352941176","679.941176471","679.941176471","black","no","xpyriment","legacy","legacy","0","203","NA","uniform","66889","1000","0.0149501412788","1","undefined","1","0","67","67","67","0","67","67","67","NA","67","67","0","67","NA","67","67","0","67","NA","67","NA","67","0","0","67","67","0","67","67","68","z","07/30/18 14:55:21","The main experiment item","yes","FIN__BA__M21__7%3A10%3A17.osexp","C:\Users\ERP Testing Room\Desktop\Joanna\morph21","no","mono","no","18","no","white","no","yes","1080","legacy","67","67","C:/Users/ERP Testing Room/Desktop/Joanna/morph21/subject-133.csv","xpyriment","Jazzy James","3.1.4","0","z","NA","NA","NA","NA","space","z","832","NA","NA","NA","NA","152706","832","2","legacy","1024","2","48000","-16","BA_m21","133","odd","NW_S_COMP","BRANCHEL","1986","401157","399532","393415","154701","NA","NA","NA","NA","401150","400029","NA","399032","NA","399028","401150","1995","401407","NA","NA","400157","1986","1986","400549","399028","1986","400157","401407","morph21_Oliver/Morris","60","46236","68","yes","1280","16"
"300","86.9565217391","86.9565217391","684.463768116","684.463768116","black","no","xpyriment","legacy","legacy","0","205","NA","uniform","62898","1000","0.0158987567172","0","undefined","0","0","68","68","68","0","68","68","68","NA","68","68","0","68","NA","68","68","0","68","NA","68","NA","68","0","0","68","68","0","68","68","69","z","07/30/18 14:55:21","The main experiment item","yes","FIN__BA__M21__7%3A10%3A17.osexp","C:\Users\ERP Testing Room\Desktop\Joanna\morph21","no","mono","no","18","no","white","no","yes","1080","legacy","68","68","C:/Users/ERP Testing Room/Desktop/Joanna/morph21/subject-133.csv","xpyriment","Jazzy James","3.1.4","0","None","NA","NA","NA","NA","space","None","992","NA","NA","NA","NA","152706","992","2","legacy","1024","2","48000","-16","BA_m21","133","odd","NW_S_SIMP","TILTARY","1986","405750","402649","404241","154701","NA","NA","NA","NA","401150","403146","NA","402149","NA","402142","404233","1995","406050","NA","NA","403241","1986","1986","403632","402141","1986","403241","406050","morph21_Oliver/Morris","60","47228","69","yes","1280","17"
"200","87.1428571429","87.1428571429","687.842857143","687.842857143","black","no","xpyriment","legacy","legacy","0","208","NA","uniform","61273","1000","0.0163204021347","1","undefined","1","0","69","69","69","0","69","69","69","NA","69","69","0","69","NA","69","69","0","69","NA","69","NA","69","0","0","69","69","0","69","69","70","z","07/30/18 14:55:21","The main experiment item","yes","FIN__BA__M21__7%3A10%3A17.osexp","C:\Users\ERP Testing Room\Desktop\Joanna\morph21","no","mono","no","18","no","white","no","yes","1080","legacy","69","69","C:/Users/ERP Testing Room/Desktop/Joanna/morph21/subject-133.csv","xpyriment","Jazzy James","3.1.4","0","z","NA","NA","NA","NA","space","z","921","NA","NA","NA","NA","152706","921","2","legacy","1024","2","48000","-16","BA_m21","133","odd","FILL_NW","VUNKS","1986","408908","407292","404241","154701","NA","NA","NA","NA","408906","407789","NA","406792","NA","406781","408906","1995","409108","NA","NA","407917","1986","1986","408308","406781","1986","407917","409108","morph21_Oliver/Morris","61","48149","70","yes","1280","49"
"200","87.323943662","87.323943662","688.985915493","688.985915493","black","no","xpyriment","legacy","legacy","0","208","NA","uniform","66080","1000","0.0151331719128","1","undefined","1","0","70","70","70","0","70","70","70","NA","70","70","0","70","NA","70","70","0","70","NA","70","NA","70","0","0","70","70","0","70","70","71","z","07/30/18 14:55:21","The main experiment item","yes","FIN__BA__M21__7%3A10%3A17.osexp","C:\Users\ERP Testing Room\Desktop\Joanna\morph21","no","mono","no","18","no","white","no","yes","1080","legacy","70","70","C:/Users/ERP Testing Room/Desktop/Joanna/morph21/subject-133.csv","xpyriment","Jazzy James","3.1.4","0","z","NA","NA","NA","NA","space","z","769","NA","NA","NA","NA","152706","769","2","legacy","1024","2","48000","-16","BA_m21","133","odd","FILL_NW","GILN","1986","411925","410342","404241","154701","NA","NA","NA","NA","411918","410839","NA","409842","NA","409837","411918","1995","412125","NA","NA","410925","1986","1986","411317","409836","1986","410925","412125","morph21_Oliver/Morris","62","48918","71","yes","1280","25"
"350","87.5","87.5","688.930555556","688.930555556","black","no","xpyriment","legacy","legacy","0","207","NA","uniform","67392","1000","0.0148385565052","1","undefined","1","0","71","71","71","0","71","71","71","NA","71","71","0","71","NA","71","71","0","71","NA","71","NA","71","0","0","71","71","0","71","71","72","/","07/30/18 14:55:21","The main experiment item","yes","FIN__BA__M21__7%3A10%3A17.osexp","C:\Users\ERP Testing Room\Desktop\Joanna\morph21","no","mono","no","18","no","white","no","yes","1080","legacy","71","71","C:/Users/ERP Testing Room/Desktop/Joanna/morph21/subject-133.csv","xpyriment","Jazzy James","3.1.4","0","/","NA","NA","NA","NA","space","/","685","NA","NA","NA","NA","152706","685","2","legacy","1024","2","48000","-16","BA_m21","133","odd","FILL_W","GLOOM","1986","416525","413434","415017","154701","NA","NA","NA","NA","415008","413931","NA","412934","NA","412923","415008","1995","416876","NA","NA","414017","1986","1986","414409","412923","1986","414017","416876","morph21_Oliver/Morris","63","49603","72","yes","1280","14"
"400","87.6712328767","87.6712328767","689.095890411","689.095890411","black","no","xpyriment","legacy","legacy","0","203","NA","uniform","68216","1000","0.0146593174622","1","undefined","1","0","72","72","72","0","72","72","72","NA","72","72","0","72","NA","72","72","0","72","NA","72","NA","72","0","0","72","72","0","72","72","73","z","07/30/18 14:55:21","The main experiment item","yes","FIN__BA__M21__7%3A10%3A17.osexp","C:\Users\ERP Testing Room\Desktop\Joanna\morph21","no","mono","no","18","no","white","no","yes","1080","legacy","72","72","C:/Users/ERP Testing Room/Desktop/Joanna/morph21/subject-133.csv","xpyriment","Jazzy James","3.1.4","0","z","NA","NA","NA","NA","space","z","701","NA","NA","NA","NA","152706","701","2","legacy","1024","2","48000","-16","BA_m21","133","odd","NW_S_COMP","TRUENELS","1986","419775","418175","415017","154701","NA","NA","NA","NA","419769","418673","NA","417676","NA","417666","419769","1995","420176","NA","NA","418776","1986","1986","419167","417666","1986","418775","420176","morph21_Oliver/Morris","64","50304","73","yes","1280","15"
"350","87.8378378378","87.8378378378","690.310810811","690.310810811","black","no","xpyriment","legacy","legacy","0","204","NA","uniform","61607","1000","0.0162319216972","1","undefined","1","0","73","73","73","0","73","73","73","NA","73","73","0","73","NA","73","73","0","73","NA","73","NA","73","0","0","73","73","0","73","73","74","z","07/30/18 14:55:21","The main experiment item","yes","FIN__BA__M21__7%3A10%3A17.osexp","C:\Users\ERP Testing Room\Desktop\Joanna\morph21","no","mono","no","18","no","white","no","yes","1080","legacy","73","73","C:/Users/ERP Testing Room/Desktop/Joanna/morph21/subject-133.csv","xpyriment","Jazzy James","3.1.4","0","z","NA","NA","NA","NA","space","z","779","NA","NA","NA","NA","152706","779","2","legacy","1024","2","48000","-16","BA_m21","133","odd","NW_L_COMP","AGREELA","1986","423026","421442","415017","154701","NA","NA","NA","NA","423017","421939","NA","420942","NA","420933","423017","1995","423376","NA","NA","422026","1986","1986","422417","420933","1986","422026","423376","morph21_Oliver/Morris","65","51083","74","yes","1280","24"
"400","88","88","689.066666667","689.066666667","black","no","xpyriment","legacy","legacy","0","202","NA","uniform","72719","1000","0.0137515642404","undefined","undefined","1","0","74","74","74","0","74","74","74","NA","74","74","0","74","NA","74","74","0","74","NA","74","NA","74","0","0","74","74","0","74","74","75","/","07/30/18 14:55:21","The main experiment item","yes","FIN__BA__M21__7%3A10%3A17.osexp","C:\Users\ERP Testing Room\Desktop\Joanna\morph21","no","mono","no","18","no","white","no","yes","1080","legacy","74","74","C:/Users/ERP Testing Room/Desktop/Joanna/morph21/subject-133.csv","xpyriment","Jazzy James","3.1.4","0","space","space","NA","NA","NA","space","/","8735","8735","NA","NA","NA","152706","597","2","legacy","1024","2","48000","-16","BA_m21","133","odd","CW_L","QUIETLY","1986","427685","424577","426177","154701","428094","NA","NA","NA","426168","425074","NA","424077","NA","424072","426168","1995","436830","NA","NA","425177","1986","1986","425569","424072","1986","425177","428086","morph21_Oliver/Morris","66","51680","75","yes","1280","36"
"400","88.1578947368","88.1578947368","690.421052632","690.421052632","black","no","xpyriment","legacy","legacy","0","206","NA","uniform","64529","1000","0.0154969083668","1","undefined","1","0","75","75","75","0","75","75","75","NA","75","75","0","75","NA","75","75","0","75","NA","75","NA","75","0","0","75","75","0","75","75","76","z","07/30/18 14:55:21","The main experiment item","yes","FIN__BA__M21__7%3A10%3A17.osexp","C:\Users\ERP Testing Room\Desktop\Joanna\morph21","no","mono","no","18","no","white","no","yes","1080","legacy","75","75","C:/Users/ERP Testing Room/Desktop/Joanna/morph21/subject-133.csv","xpyriment","Jazzy James","3.1.4","0","z","space","NA","NA","NA","space","z","792","8735","NA","NA","NA","152706","792","2","legacy","1024","2","48000","-16","BA_m21","133","odd","NW_L_SIMP","VALIDER","1986","439669","438086","426177","154701","428094","NA","NA","NA","439665","438583","NA","437586","NA","437577","439665","1995","440069","NA","NA","438669","1986","1986","439069","437577","1986","438669","440069","morph21_Oliver/Morris","67","52472","76","yes","1280","23"
"200","88.3116883117","88.3116883117","688.103896104","688.103896104","black","no","xpyriment","legacy","legacy","0","208","NA","uniform","80546","1000","0.0124152658108","1","undefined","1","0","76","76","76","0","76","76","76","NA","76","76","0","76","NA","76","76","0","76","NA","76","NA","76","0","0","76","76","0","76","76","77","z","07/30/18 14:55:21","The main experiment item","yes","FIN__BA__M21__7%3A10%3A17.osexp","C:\Users\ERP Testing Room\Desktop\Joanna\morph21","no","mono","no","18","no","white","no","yes","1080","legacy","76","76","C:/Users/ERP Testing Room/Desktop/Joanna/morph21/subject-133.csv","xpyriment","Jazzy James","3.1.4","0","z","space","NA","NA","NA","space","z","512","8735","NA","NA","NA","152706","512","2","legacy","1024","2","48000","-16","BA_m21","133","odd","FILL_NW","GAIRS","1986","442862","441279","426177","154701","428094","NA","NA","NA","442855","441776","NA","440779","NA","440771","442855","1995","443062","NA","NA","441862","1986","1986","442254","440771","1986","441862","443062","morph21_Oliver/Morris","68","52984","77","yes","1280","23"
"400","88.4615384615","88.4615384615","687.217948718","687.217948718","black","no","xpyriment","legacy","legacy","0","201","NA","uniform","71617","1000","0.0139631651703","1","undefined","1","0","77","77","77","0","77","77","77","NA","77","77","0","77","NA","77","77","0","77","NA","77","NA","77","0","0","77","77","0","77","77","78","/","07/30/18 14:55:21","The main experiment item","yes","FIN__BA__M21__7%3A10%3A17.osexp","C:\Users\ERP Testing Room\Desktop\Joanna\morph21","no","mono","no","18","no","white","no","yes","1080","legacy","77","77","C:/Users/ERP Testing Room/Desktop/Joanna/morph21/subject-133.csv","xpyriment","Jazzy James","3.1.4","0","/","space","NA","NA","NA","space","/","619","8735","NA","NA","NA","152706","619","2","legacy","1024","2","48000","-16","BA_m21","133","odd","CW_S","DIETARY","1986","447304","444212","445795","154701","428094","NA","NA","NA","445788","444709","NA","443712","NA","443704","445788","1995","447704","NA","NA","444795","1986","1986","445187","443704","1986","444795","447704","morph21_Oliver/Morris","69","53603","78","yes","1280","6"
"250","88.6075949367","88.6075949367","686.46835443","686.46835443","black","no","xpyriment","legacy","legacy","0","204","NA","uniform","71558","1000","0.0139746778837","1","undefined","1","0","78","78","78","0","78","78","78","NA","78","78","0","78","NA","78","78","0","78","NA","78","NA","78","0","0","78","78","0","78","78","79","z","07/30/18 14:55:21","The main experiment item","yes","FIN__BA__M21__7%3A10%3A17.osexp","C:\Users\ERP Testing Room\Desktop\Joanna\morph21","no","mono","no","18","no","white","no","yes","1080","legacy","78","78","C:/Users/ERP Testing Room/Desktop/Joanna/morph21/subject-133.csv","xpyriment","Jazzy James","3.1.4","0","z","space","NA","NA","NA","space","z","628","8735","NA","NA","NA","152706","628","2","legacy","1024","2","48000","-16","BA_m21","133","odd","NW_L_COMP","TRIPADY","1986","450537","448954","445795","154701","428094","NA","NA","NA","450528","449451","NA","448454","NA","448446","450528","1995","450787","NA","NA","449537","1986","1986","449929","448446","1986","449537","450787","morph21_Oliver/Morris","70","54231","79","yes","1280","2"
"200","88.75","88.75","687.3","687.3","black","no","xpyriment","legacy","legacy","0","202","NA","uniform","68134","1000","0.014676960108","1","undefined","1","0","79","79","79","0","79","79","79","NA","79","79","0","79","NA","79","79","0","79","NA","79","NA","79","0","0","79","79","0","79","79","80","/","07/30/18 14:55:21","The main experiment item","yes","FIN__BA__M21__7%3A10%3A17.osexp","C:\Users\ERP Testing Room\Desktop\Joanna\morph21","no","mono","no","18","no","white","no","yes","1080","legacy","79","79","C:/Users/ERP Testing Room/Desktop/Joanna/morph21/subject-133.csv","xpyriment","Jazzy James","3.1.4","0","/","space","NA","NA","NA","space","/","753","8735","NA","NA","NA","152706","753","2","legacy","1024","2","48000","-16","BA_m21","133","odd","CW_L","VERBAL","1986","453604","451996","445795","154701","428094","NA","NA","NA","453600","452493","NA","451496","NA","451487","453600","1995","453804","NA","NA","452604","1986","1986","453004","451487","1986","452604","453804","morph21_Oliver/Morris","71","54984","80","yes","1280","50"
"350","88.8888888889","88.8888888889","685.160493827","685.160493827","black","no","xpyriment","legacy","legacy","0","202","NA","uniform","70882","1000","0.0141079540645","1","undefined","1","0","80","80","80","0","80","80","80","NA","80","80","0","80","NA","80","80","0","80","NA","80","NA","80","0","0","80","80","0","80","80","81","/","07/30/18 14:55:21","The main experiment item","yes","FIN__BA__M21__7%3A10%3A17.osexp","C:\Users\ERP Testing Room\Desktop\Joanna\morph21","no","mono","no","18","no","white","no","yes","1080","legacy","80","80","C:/Users/ERP Testing Room/Desktop/Joanna/morph21/subject-133.csv","xpyriment","Jazzy James","3.1.4","0","/","space","NA","NA","NA","space","/","514","8735","NA","NA","NA","152706","514","2","legacy","1024","2","48000","-16","BA_m21","133","odd","CW_L","PARKING","1986","458089","454971","456579","154701","428094","NA","NA","NA","456571","455468","NA","454462","NA","454453","456571","1995","458439","NA","NA","455579","1986","1986","455971","454453","1986","455579","458439","morph21_Oliver/Morris","72","55498","81","yes","1280","25"
"250","89.0243902439","89.0243902439","684.207317073","684.207317073","black","no","xpyriment","legacy","legacy","0","201","NA","uniform","76667","1000","0.0130434215503","1","undefined","1","0","81","81","81","0","81","81","81","NA","81","81","0","81","NA","81","81","0","81","NA","81","NA","81","0","0","81","81","0","81","81","82","/","07/30/18 14:55:21","The main experiment item","yes","FIN__BA__M21__7%3A10%3A17.osexp","C:\Users\ERP Testing Room\Desktop\Joanna\morph21","no","mono","no","18","no","white","no","yes","1080","legacy","81","81","C:/Users/ERP Testing Room/Desktop/Joanna/morph21/subject-133.csv","xpyriment","Jazzy James","3.1.4","0","/","space","NA","NA","NA","space","/","607","8735","NA","NA","NA","152706","607","2","legacy","1024","2","48000","-16","BA_m21","133","odd","CW_S","NOTICEABLE","1986","461239","459647","456579","154701","428094","NA","NA","NA","461233","460144","NA","459147","NA","459137","461233","1995","461489","NA","NA","460239","1986","1986","460630","459137","1986","460239","461489","morph21_Oliver/Morris","73","56105","82","yes","1280","3"
"300","87.9518072289","87.9518072289","687.915662651","687.915662651","black","no","xpyriment","legacy","legacy","0","204","NA","uniform","51115","1000","0.0195637288467","0","undefined","0","0","82","82","82","0","82","82","82","NA","82","82","0","82","NA","82","82","0","82","NA","82","NA","82","0","0","82","82","0","82","82","83","z","07/30/18 14:55:21","The main experiment item","yes","FIN__BA__M21__7%3A10%3A17.osexp","C:\Users\ERP Testing Room\Desktop\Joanna\morph21","no","mono","no","18","no","white","no","yes","1080","legacy","82","82","C:/Users/ERP Testing Room/Desktop/Joanna/morph21/subject-133.csv","xpyriment","Jazzy James","3.1.4","0","None","space","NA","NA","NA","space","None","992","8735","NA","NA","NA","152706","992","2","legacy","1024","2","48000","-16","BA_m21","133","odd","NW_L_COMP","ILLILT","1986","464272","462680","456579","154701","428094","NA","NA","NA","461233","463178","NA","462181","NA","462170","464264","1995","464572","NA","NA","463272","1986","1986","463664","462170","1986","463272","464572","morph21_Oliver/Morris","73","57097","83","yes","1280","9"
"300","88.0952380952","88.0952380952","686.988095238","686.988095238","black","no","xpyriment","legacy","legacy","0","202","NA","uniform","61474","1000","0.0162670397241","1","undefined","1","0","83","83","83","0","83","83","83","NA","83","83","0","83","NA","83","83","0","83","NA","83","NA","83","0","0","83","83","0","83","83","84","/","07/30/18 14:55:21","The main experiment item","yes","FIN__BA__M21__7%3A10%3A17.osexp","C:\Users\ERP Testing Room\Desktop\Joanna\morph21","no","mono","no","18","no","white","no","yes","1080","legacy","83","83","C:/Users/ERP Testing Room/Desktop/Joanna/morph21/subject-133.csv","xpyriment","Jazzy James","3.1.4","0","/","space","NA","NA","NA","space","/","610","8735","NA","NA","NA","152706","610","2","legacy","1024","2","48000","-16","BA_m21","133","odd","CW_L","PROFESSOR","1986","468847","465756","467339","154701","428094","NA","NA","NA","467331","466253","NA","465256","NA","465251","467331","1995","469148","NA","NA","466339","1986","1986","466731","465251","1986","466339","469148","morph21_Oliver/Morris","74","57707","84","yes","1280","47"
"350","88.2352941176","88.2352941176","687.4","687.4","black","no","xpyriment","legacy","legacy","0","202","NA","uniform","68426","1000","0.0146143278871","1","undefined","1","0","84","84","84","0","84","84","84","NA","84","84","0","84","NA","84","84","0","84","NA","84","NA","84","0","0","84","84","0","84","84","85","/","07/30/18 14:55:21","The main experiment item","yes","FIN__BA__M21__7%3A10%3A17.osexp","C:\Users\ERP Testing Room\Desktop\Joanna\morph21","no","mono","no","18","no","white","no","yes","1080","legacy","84","84","C:/Users/ERP Testing Room/Desktop/Joanna/morph21/subject-133.csv","xpyriment","Jazzy James","3.1.4","0","/","space","NA","NA","NA","space","/","722","8735","NA","NA","NA","152706","722","2","legacy","1024","2","48000","-16","BA_m21","133","odd","CW_L","FEEDER","1986","471923","470339","467339","154701","428094","NA","NA","NA","471916","470836","NA","469839","NA","469831","471916","1995","472273","NA","NA","470923","1986","1986","471314","469831","1986","470923","472273","morph21_Oliver/Morris","75","58429","85","yes","1280","14"
"250","88.3720930233","88.3720930233","686.569767442","686.569767442","black","no","xpyriment","legacy","legacy","0","207","NA","uniform","68612","1000","0.0145747099633","1","undefined","1","0","85","85","85","0","85","85","85","NA","85","85","0","85","NA","85","85","0","85","NA","85","NA","85","0","0","85","85","0","85","85","86","/","07/30/18 14:55:21","The main experiment item","yes","FIN__BA__M21__7%3A10%3A17.osexp","C:\Users\ERP Testing Room\Desktop\Joanna\morph21","no","mono","no","18","no","white","no","yes","1080","legacy","85","85","C:/Users/ERP Testing Room/Desktop/Joanna/morph21/subject-133.csv","xpyriment","Jazzy James","3.1.4","0","/","space","NA","NA","NA","space","/","616","8735","NA","NA","NA","152706","616","2","legacy","1024","2","48000","-16","BA_m21","133","odd","FILL_W","SPLICE","1986","475189","473606","467339","154701","428094","NA","NA","NA","475185","474103","NA","473106","NA","473102","475185","1995","475439","NA","NA","474189","1986","1986","474589","473102","1986","474189","475439","morph21_Oliver/Morris","76","59045","86","yes","1280","22"
"350","88.5057471264","88.5057471264","687.712643678","687.712643678","black","no","xpyriment","legacy","legacy","0","206","NA","uniform","62576","1000","0.0159805676298","1","undefined","1","0","86","86","86","0","86","86","86","NA","86","86","0","86","NA","86","86","0","86","NA","86","NA","86","0","0","86","86","0","86","86","87","z","07/30/18 14:55:21","The main experiment item","yes","FIN__BA__M21__7%3A10%3A17.osexp","C:\Users\ERP Testing Room\Desktop\Joanna\morph21","no","mono","no","18","no","white","no","yes","1080","legacy","86","86","C:/Users/ERP Testing Room/Desktop/Joanna/morph21/subject-133.csv","xpyriment","Jazzy James","3.1.4","0","z","space","NA","NA","NA","space","z","786","8735","NA","NA","NA","152706","786","2","legacy","1024","2","48000","-16","BA_m21","133","odd","NW_L_SIMP","HABITIC","1986","479849","476749","478340","154701","428094","NA","NA","NA","478334","477246","NA","476249","NA","476242","478334","1995","480199","NA","NA","477340","1986","1986","477732","476242","1986","477340","480199","morph21_Oliver/Morris","77","59831","87","yes","1280","7"
"350","88.6363636364","88.6363636364","686.875","686.875","black","no","xpyriment","legacy","legacy","0","207","NA","uniform","73679","1000","0.0135723883332","1","undefined","1","0","87","87","87","0","87","87","87","NA","87","87","0","87","NA","87","87","0","87","NA","87","NA","87","0","0","87","87","0","87","87","88","/","07/30/18 14:55:21","The main experiment item","yes","FIN__BA__M21__7%3A10%3A17.osexp","C:\Users\ERP Testing Room\Desktop\Joanna\morph21","no","mono","no","18","no","white","no","yes","1080","legacy","87","87","C:/Users/ERP Testing Room/Desktop/Joanna/morph21/subject-133.csv","xpyriment","Jazzy James","3.1.4","0","/","space","NA","NA","NA","space","/","614","8735","NA","NA","NA","152706","614","2","legacy","1024","2","48000","-16","BA_m21","133","odd","FILL_W","FAINT","1986","483024","481441","478340","154701","428094","NA","NA","NA","483017","481938","NA","480941","NA","480936","483017","1995","483374","NA","NA","482024","1986","1986","482416","480936","1986","482024","483374","morph21_Oliver/Morris","78","60445","88","yes","1280","31"
"200","88.7640449438","88.7640449438","684.337078652","684.337078652","black","no","xpyriment","legacy","legacy","0","202","NA","uniform","77836","1000","0.0128475255666","1","undefined","1","0","88","88","88","0","88","88","88","NA","88","88","0","88","NA","88","88","0","88","NA","88","NA","88","0","0","88","88","0","88","88","89","/","07/30/18 14:55:21","The main experiment item","yes","FIN__BA__M21__7%3A10%3A17.osexp","C:\Users\ERP Testing Room\Desktop\Joanna\morph21","no","mono","no","18","no","white","no","yes","1080","legacy","88","88","C:/Users/ERP Testing Room/Desktop/Joanna/morph21/subject-133.csv","xpyriment","Jazzy James","3.1.4","0","/","space","NA","NA","NA","space","/","461","8735","NA","NA","NA","152706","461","2","legacy","1024","2","48000","-16","BA_m21","133","odd","CW_L","SHAMEFUL","1986","486216","484632","478340","154701","428094","NA","NA","NA","486210","485130","NA","484132","NA","484128","486210","1995","486416","NA","NA","485216","1986","1986","485608","484127","1986","485216","486416","morph21_Oliver/Morris","79","60906","89","yes","1280","19"
"300","88.8888888889","88.8888888889","683.988888889","683.988888889","black","no","xpyriment","legacy","legacy","0","201","NA","uniform","61359","1000","0.0162975276651","1","undefined","1","0","89","89","89","0","89","89","89","NA","89","89","0","89","NA","89","89","0","89","NA","89","NA","89","0","0","89","89","0","89","89","90","/","07/30/18 14:55:21","The main experiment item","yes","FIN__BA__M21__7%3A10%3A17.osexp","C:\Users\ERP Testing Room\Desktop\Joanna\morph21","no","mono","no","18","no","white","no","yes","1080","legacy","89","89","C:/Users/ERP Testing Room/Desktop/Joanna/morph21/subject-133.csv","xpyriment","Jazzy James","3.1.4","0","/","space","NA","NA","NA","space","/","653","8735","NA","NA","NA","152706","653","2","legacy","1024","2","48000","-16","BA_m21","133","odd","CW_S","BUYER","1986","490716","487624","489208","154701","428094","NA","NA","NA","489198","488121","NA","487124","NA","487118","489198","1995","491016","NA","NA","488208","1986","1986","488599","487118","1986","488208","491016","morph21_Oliver/Morris","80","61559","90","yes","1280","21"
"200","87.9120879121","87.9120879121","687.351648352","687.351648352","black","no","xpyriment","legacy","legacy","0","208","NA","uniform","61051","1000","0.0163797480795","0","undefined","0","0","90","90","90","0","90","90","90","NA","90","90","0","90","NA","90","90","0","90","NA","90","NA","90","0","0","90","90","0","90","90","91","z","07/30/18 14:55:21","The main experiment item","yes","FIN__BA__M21__7%3A10%3A17.osexp","C:\Users\ERP Testing Room\Desktop\Joanna\morph21","no","mono","no","18","no","white","no","yes","1080","legacy","90","90","C:/Users/ERP Testing Room/Desktop/Joanna/morph21/subject-133.csv","xpyriment","Jazzy James","3.1.4","0","None","space","NA","NA","NA","space","None","990","8735","NA","NA","NA","152706","990","2","legacy","1024","2","48000","-16","BA_m21","133","odd","FILL_NW","PUCTS","1986","493834","492249","489208","154701","428094","NA","NA","NA","489198","492747","NA","491750","NA","491740","493823","1995","494034","NA","NA","492833","1986","1986","493226","491740","1986","492833","494034","morph21_Oliver/Morris","80","62549","91","yes","1280","40"
