"ITI","acc","accuracy","average_response_time","avg_rt","background","bidi","canvas_backend","clock_backend","color_backend","compensation","cond_trig","condtrigtime","coordinates","coroutines_cycles","coroutines_duration","coroutines_mean_cycle_duration","correct","correct_instructions_1","correct_new_keyboard_response_1","count_BA_m21","count_ITI","count_blank_screen","count_blink_screen","count_block1","count_break1","count_break2","count_break3_1","count_canvas","count_correct_trigger","count_def_chain","count_end_screen","count_fixation_1","count_getting_started","count_inc_counter","count_incorrect_trigger","count_instructions_1","count_logger","count_logscript","count_new_coroutines","count_new_inline_script","count_new_keyboard_response_1","count_reset_counter_prep","count_reset_counter_run","count_responsescreen","count_sequence","count_start_trigger","count_target_present","count_word_trigger","counter","cresp","datetime","description","disable_garbage_collection","experiment_file","experiment_path","font_bold","font_family","font_italic","font_size","font_underline","foreground","form_clicks","fullscreen","height","keyboard_backend","live_row","live_row_block1","logfile","mouse_backend","opensesame_codename","opensesame_version","repeat_cycle","response","response_break1","response_break2","response_break3_1","response_end_screen","response_instructions_1","response_new_keyboard_response_1","response_time","response_time_break1","response_time_break2","response_time_break3_1","response_time_end_screen","response_time_instructions_1","response_time_new_keyboard_response_1","round_decimals","sampler_backend","sound_buf_size","sound_channels","sound_freq","sound_sample_size","start","subject_nr","subject_parity","targ_type","target","time_BA_m21","time_ITI","time_blank_screen","time_blink_screen","time_block1","time_break1","time_break2","time_break3_1","time_canvas","time_correct_trigger","time_def_chain","time_end_screen","time_fixation_1","time_getting_started","time_inc_counter","time_incorrect_trigger","time_instructions_1","time_logger","time_logscript","time_new_inline_script","time_new_keyboard_response_1","time_reset_counter_prep","time_reset_counter_run","time_responsescreen","time_sequence","time_start_trigger","time_target_present","time_word_trigger","title","total_correct","total_response_time","total_responses","uniform_coordinates","width","word_trig"
"200","100","100","484","484","black","no","xpyriment","legacy","legacy","0","202","NA","uniform","66174","1000","0.0151116752803","1","undefined","1","0","0","0","0","0","0","0","0","NA","0","0","0","0","NA","0","0","0","0","NA","0","NA","0","0","0","0","0","0","0","0","1","/","04/25/19 15:47:08","The main experiment item","yes","FIN__BA__M21__7%3A10%3A17.osexp","C:\Users\ERP Testing Room\Desktop\Joanna\morph21","no","mono","no","18","no","white","no","yes","1080","legacy","0","0","C:/Users/ERP Testing Room/Desktop/Joanna/morph21/subject-175.csv","xpyriment","Kafkaesque Koffka","3.2.5","0","/","NA","NA","NA","NA","space","/","484","NA","NA","NA","NA","207860","484","2","legacy","1024","2","48000","-16","BA_m21","175","odd","CW_L","VERBAL","1230","211960","210310","NA","209099","NA","NA","NA","NA","211956","210808","NA","209807","NA","209743","211956","1239","212160","NA","NA","210960","1231","1231","211360","209743","1230","210960","212160","morph21_Oliver/Morris","1","484","1","yes","1280","50"
"200","100","100","499.5","499.5","black","no","xpyriment","legacy","legacy","0","208","NA","uniform","72367","1000","0.0138184531624","1","undefined","1","0","1","1","1","0","1","1","1","NA","1","1","0","1","NA","1","1","0","1","NA","1","NA","1","0","0","1","1","0","1","1","2","z","04/25/19 15:47:08","The main experiment item","yes","FIN__BA__M21__7%3A10%3A17.osexp","C:\Users\ERP Testing Room\Desktop\Joanna\morph21","no","mono","no","18","no","white","no","yes","1080","legacy","1","1","C:/Users/ERP Testing Room/Desktop/Joanna/morph21/subject-175.csv","xpyriment","Kafkaesque Koffka","3.2.5","0","z","NA","NA","NA","NA","space","z","515","NA","NA","NA","NA","207860","515","2","legacy","1024","2","48000","-16","BA_m21","175","odd","FILL_NW","CINDS","1230","214961","213294","NA","209099","NA","NA","NA","NA","214950","213791","NA","212794","NA","212787","214950","1239","215161","NA","NA","213961","1231","1231","214352","212787","1230","213961","215161","morph21_Oliver/Morris","2","999","2","yes","1280","6"
"200","100","100","466.666666667","466.666666667","black","no","xpyriment","legacy","legacy","0","207","NA","uniform","76297","1000","0.0131066752297","1","undefined","1","0","2","2","2","0","2","2","2","NA","2","2","0","2","NA","2","2","0","2","NA","2","NA","2","0","0","2","2","0","2","2","3","/","04/25/19 15:47:08","The main experiment item","yes","FIN__BA__M21__7%3A10%3A17.osexp","C:\Users\ERP Testing Room\Desktop\Joanna\morph21","no","mono","no","18","no","white","no","yes","1080","legacy","2","2","C:/Users/ERP Testing Room/Desktop/Joanna/morph21/subject-175.csv","xpyriment","Kafkaesque Koffka","3.2.5","0","/","NA","NA","NA","NA","space","/","401","NA","NA","NA","NA","207860","401","2","legacy","1024","2","48000","-16","BA_m21","175","odd","FILL_W","TEST","1230","219511","216336","218002","209099","NA","NA","NA","NA","217999","216833","NA","215836","NA","215826","217999","1239","219711","NA","NA","217011","1231","1231","217402","215826","1230","217011","219711","morph21_Oliver/Morris","3","1400","3","yes","1280","47"
"350","100","100","486.25","486.25","black","no","xpyriment","legacy","legacy","0","208","NA","uniform","70330","1000","0.0142186833499","1","undefined","1","0","3","3","3","0","3","3","3","NA","3","3","0","3","NA","3","3","0","3","NA","3","NA","3","0","0","3","3","0","3","3","4","z","04/25/19 15:47:08","The main experiment item","yes","FIN__BA__M21__7%3A10%3A17.osexp","C:\Users\ERP Testing Room\Desktop\Joanna\morph21","no","mono","no","18","no","white","no","yes","1080","legacy","3","3","C:/Users/ERP Testing Room/Desktop/Joanna/morph21/subject-175.csv","xpyriment","Kafkaesque Koffka","3.2.5","0","z","NA","NA","NA","NA","space","z","545","NA","NA","NA","NA","207860","545","2","legacy","1024","2","48000","-16","BA_m21","175","odd","FILL_NW","DELP","1230","222578","220878","218002","209099","NA","NA","NA","NA","222567","221375","NA","220378","NA","220369","222567","1239","222928","NA","NA","221578","1231","1231","221969","220369","1230","221578","222928","morph21_Oliver/Morris","4","1945","4","yes","1280","14"
"250","100","100","487.4","487.4","black","no","xpyriment","legacy","legacy","0","207","NA","uniform","69132","1000","0.0144650812938","1","undefined","1","0","4","4","4","0","4","4","4","NA","4","4","0","4","NA","4","4","0","4","NA","4","NA","4","0","0","4","4","0","4","4","5","/","04/25/19 15:47:08","The main experiment item","yes","FIN__BA__M21__7%3A10%3A17.osexp","C:\Users\ERP Testing Room\Desktop\Joanna\morph21","no","mono","no","18","no","white","no","yes","1080","legacy","4","4","C:/Users/ERP Testing Room/Desktop/Joanna/morph21/subject-175.csv","xpyriment","Kafkaesque Koffka","3.2.5","0","/","NA","NA","NA","NA","space","/","492","NA","NA","NA","NA","207860","492","2","legacy","1024","2","48000","-16","BA_m21","175","odd","FILL_W","SMOKE","1230","225711","224036","218002","209099","NA","NA","NA","NA","225705","224533","NA","223536","NA","223527","225705","1239","225961","NA","NA","224711","1231","1231","225103","223527","1230","224711","225961","morph21_Oliver/Morris","5","2437","5","yes","1280","50"
"350","100","100","478.333333333","478.333333333","black","no","xpyriment","legacy","legacy","0","202","NA","uniform","75244","1000","0.0132900962203","1","undefined","1","0","5","5","5","0","5","5","5","NA","5","5","0","5","NA","5","5","0","5","NA","5","NA","5","0","0","5","5","0","5","5","6","/","04/25/19 15:47:08","The main experiment item","yes","FIN__BA__M21__7%3A10%3A17.osexp","C:\Users\ERP Testing Room\Desktop\Joanna\morph21","no","mono","no","18","no","white","no","yes","1080","legacy","5","5","C:/Users/ERP Testing Room/Desktop/Joanna/morph21/subject-175.csv","xpyriment","Kafkaesque Koffka","3.2.5","0","/","NA","NA","NA","NA","space","/","433","NA","NA","NA","NA","207860","433","2","legacy","1024","2","48000","-16","BA_m21","175","odd","CW_L","JUMPING","1230","230287","227103","228779","209099","NA","NA","NA","NA","228770","227600","NA","226603","NA","226598","228770","1239","230637","NA","NA","227779","1231","1231","228170","226598","1230","227779","230637","morph21_Oliver/Morris","6","2870","6","yes","1280","30"
"400","100","100","480.285714286","480.285714286","black","no","xpyriment","legacy","legacy","0","201","NA","uniform","70881","1000","0.0141081531017","1","undefined","1","0","6","6","6","0","6","6","6","NA","6","6","0","6","NA","6","6","0","6","NA","6","NA","6","0","0","6","6","0","6","6","7","/","04/25/19 15:47:08","The main experiment item","yes","FIN__BA__M21__7%3A10%3A17.osexp","C:\Users\ERP Testing Room\Desktop\Joanna\morph21","no","mono","no","18","no","white","no","yes","1080","legacy","6","6","C:/Users/ERP Testing Room/Desktop/Joanna/morph21/subject-175.csv","xpyriment","Kafkaesque Koffka","3.2.5","0","/","NA","NA","NA","NA","space","/","492","NA","NA","NA","NA","207860","492","2","legacy","1024","2","48000","-16","BA_m21","175","odd","CW_S","ALLOWANCE","1230","233496","231804","228779","209099","NA","NA","NA","NA","233491","232301","NA","231304","NA","231294","233491","1239","233896","NA","NA","232496","1231","1231","232896","231294","1230","232496","233896","morph21_Oliver/Morris","7","3362","7","yes","1280","5"
"250","100","100","485.75","485.75","black","no","xpyriment","legacy","legacy","0","202","NA","uniform","69481","1000","0.0143924238281","1","undefined","1","0","7","7","7","0","7","7","7","NA","7","7","0","7","NA","7","7","0","7","NA","7","NA","7","0","0","7","7","0","7","7","8","/","04/25/19 15:47:08","The main experiment item","yes","FIN__BA__M21__7%3A10%3A17.osexp","C:\Users\ERP Testing Room\Desktop\Joanna\morph21","no","mono","no","18","no","white","no","yes","1080","legacy","7","7","C:/Users/ERP Testing Room/Desktop/Joanna/morph21/subject-175.csv","xpyriment","Kafkaesque Koffka","3.2.5","0","/","NA","NA","NA","NA","space","/","524","NA","NA","NA","NA","207860","524","2","legacy","1024","2","48000","-16","BA_m21","175","odd","CW_L","DREAMER","1230","236871","235171","228779","209099","NA","NA","NA","NA","236862","235668","NA","234671","NA","234668","236862","1239","237121","NA","NA","235871","1231","1231","236262","234667","1230","235871","237121","morph21_Oliver/Morris","8","3886","8","yes","1280","12"
"400","100","100","484.222222222","484.222222222","black","no","xpyriment","legacy","legacy","0","202","NA","uniform","74144","1000","0.013487268019","1","undefined","1","0","8","8","8","0","8","8","8","NA","8","8","0","8","NA","8","8","0","8","NA","8","NA","8","0","0","8","8","0","8","8","9","/","04/25/19 15:47:08","The main experiment item","yes","FIN__BA__M21__7%3A10%3A17.osexp","C:\Users\ERP Testing Room\Desktop\Joanna\morph21","no","mono","no","18","no","white","no","yes","1080","legacy","8","8","C:/Users/ERP Testing Room/Desktop/Joanna/morph21/subject-175.csv","xpyriment","Kafkaesque Koffka","3.2.5","0","/","NA","NA","NA","NA","space","/","472","NA","NA","NA","NA","207860","472","2","legacy","1024","2","48000","-16","BA_m21","175","odd","CW_L","COOLING","1230","241488","238296","239979","209099","NA","NA","NA","NA","239973","238793","NA","237796","NA","237784","239973","1239","241888","NA","NA","238979","1231","1231","239371","237784","1230","238979","241888","morph21_Oliver/Morris","9","4358","9","yes","1280","24"
"350","100","100","481.4","481.4","black","no","xpyriment","legacy","legacy","0","202","NA","uniform","71941","1000","0.0139002793956","1","undefined","1","0","9","9","9","0","9","9","9","NA","9","9","0","9","NA","9","9","0","9","NA","9","NA","9","0","0","9","9","0","9","9","10","/","04/25/19 15:47:08","The main experiment item","yes","FIN__BA__M21__7%3A10%3A17.osexp","C:\Users\ERP Testing Room\Desktop\Joanna\morph21","no","mono","no","18","no","white","no","yes","1080","legacy","9","9","C:/Users/ERP Testing Room/Desktop/Joanna/morph21/subject-175.csv","xpyriment","Kafkaesque Koffka","3.2.5","0","/","NA","NA","NA","NA","space","/","456","NA","NA","NA","NA","207860","456","2","legacy","1024","2","48000","-16","BA_m21","175","odd","CW_L","PARKING","1230","244772","243104","239979","209099","NA","NA","NA","NA","244762","243602","NA","242604","NA","242593","244762","1239","245122","NA","NA","243771","1231","1231","244163","242593","1230","243771","245122","morph21_Oliver/Morris","10","4814","10","yes","1280","25"
"400","100","100","494","494","black","no","xpyriment","legacy","legacy","0","205","NA","uniform","64757","1000","0.0154423460012","1","undefined","1","0","10","10","10","0","10","10","10","NA","10","10","0","10","NA","10","10","0","10","NA","10","NA","10","0","0","10","10","0","10","10","11","z","04/25/19 15:47:08","The main experiment item","yes","FIN__BA__M21__7%3A10%3A17.osexp","C:\Users\ERP Testing Room\Desktop\Joanna\morph21","no","mono","no","18","no","white","no","yes","1080","legacy","10","10","C:/Users/ERP Testing Room/Desktop/Joanna/morph21/subject-175.csv","xpyriment","Kafkaesque Koffka","3.2.5","0","z","NA","NA","NA","NA","space","z","620","NA","NA","NA","NA","207860","620","2","legacy","1024","2","48000","-16","BA_m21","175","odd","NW_S_SIMP","RAMPIZE","1230","247864","246214","239979","209099","NA","NA","NA","NA","247860","246711","NA","245714","NA","245707","247860","1239","248264","NA","NA","246872","1231","1231","247264","245707","1230","246872","248264","morph21_Oliver/Morris","11","5434","11","yes","1280","6"
"250","100","100","514.583333333","514.583333333","black","no","xpyriment","legacy","legacy","0","201","NA","uniform","58760","1000","0.0170183798502","1","undefined","1","0","11","11","11","0","11","11","11","NA","11","11","0","11","NA","11","11","0","11","NA","11","NA","11","0","0","11","11","0","11","11","12","/","04/25/19 15:47:08","The main experiment item","yes","FIN__BA__M21__7%3A10%3A17.osexp","C:\Users\ERP Testing Room\Desktop\Joanna\morph21","no","mono","no","18","no","white","no","yes","1080","legacy","11","11","C:/Users/ERP Testing Room/Desktop/Joanna/morph21/subject-175.csv","xpyriment","Kafkaesque Koffka","3.2.5","0","/","NA","NA","NA","NA","space","/","741","NA","NA","NA","NA","207860","741","2","legacy","1024","2","48000","-16","BA_m21","175","odd","CW_S","GRIMLY","1230","252548","249347","251039","209099","NA","NA","NA","NA","251034","249845","NA","248847","NA","248837","251034","1239","252798","NA","NA","250039","1231","1231","250439","248837","1230","250039","252798","morph21_Oliver/Morris","12","6175","12","yes","1280","31"
"300","100","100","538.076923077","538.076923077","black","no","xpyriment","legacy","legacy","0","204","NA","uniform","60183","1000","0.0166159879036","1","undefined","1","0","12","12","12","0","12","12","12","NA","12","12","0","12","NA","12","12","0","12","NA","12","NA","12","0","0","12","12","0","12","12","13","z","04/25/19 15:47:08","The main experiment item","yes","FIN__BA__M21__7%3A10%3A17.osexp","C:\Users\ERP Testing Room\Desktop\Joanna\morph21","no","mono","no","18","no","white","no","yes","1080","legacy","12","12","C:/Users/ERP Testing Room/Desktop/Joanna/morph21/subject-175.csv","xpyriment","Kafkaesque Koffka","3.2.5","0","z","NA","NA","NA","NA","space","z","820","NA","NA","NA","NA","207860","820","2","legacy","1024","2","48000","-16","BA_m21","175","odd","NW_L_COMP","FELLOWOES","1230","255623","253956","251039","209099","NA","NA","NA","NA","255620","254453","NA","253456","NA","253449","255620","1239","255923","NA","NA","254631","1231","1231","255023","253449","1230","254631","255923","morph21_Oliver/Morris","13","6995","13","yes","1280","17"
"300","100","100","546.5","546.5","black","no","xpyriment","legacy","legacy","0","201","NA","uniform","64399","1000","0.0155281914315","1","undefined","1","0","13","13","13","0","13","13","13","NA","13","13","0","13","NA","13","13","0","13","NA","13","NA","13","0","0","13","13","0","13","13","14","/","04/25/19 15:47:08","The main experiment item","yes","FIN__BA__M21__7%3A10%3A17.osexp","C:\Users\ERP Testing Room\Desktop\Joanna\morph21","no","mono","no","18","no","white","no","yes","1080","legacy","13","13","C:/Users/ERP Testing Room/Desktop/Joanna/morph21/subject-175.csv","xpyriment","Kafkaesque Koffka","3.2.5","0","/","NA","NA","NA","NA","space","/","656","NA","NA","NA","NA","207860","656","2","legacy","1024","2","48000","-16","BA_m21","175","odd","CW_S","RISKY","1230","258739","257073","251039","209099","NA","NA","NA","NA","258736","257570","NA","256573","NA","256563","258736","1239","259039","NA","NA","257739","1231","1231","258139","256563","1230","257739","259039","morph21_Oliver/Morris","14","7651","14","yes","1280","50"
"350","100","100","543.4","543.4","black","no","xpyriment","legacy","legacy","0","201","NA","uniform","72768","1000","0.0137423043096","1","undefined","1","0","14","14","14","0","14","14","14","NA","14","14","0","14","NA","14","14","0","14","NA","14","NA","14","0","0","14","14","0","14","14","15","/","04/25/19 15:47:08","The main experiment item","yes","FIN__BA__M21__7%3A10%3A17.osexp","C:\Users\ERP Testing Room\Desktop\Joanna\morph21","no","mono","no","18","no","white","no","yes","1080","legacy","14","14","C:/Users/ERP Testing Room/Desktop/Joanna/morph21/subject-175.csv","xpyriment","Kafkaesque Koffka","3.2.5","0","/","NA","NA","NA","NA","space","/","500","NA","NA","NA","NA","207860","500","2","legacy","1024","2","48000","-16","BA_m21","175","odd","CW_S","CHILLY","1230","263324","260140","261815","209099","NA","NA","NA","NA","261806","260637","NA","259640","NA","259635","261806","1239","263674","NA","NA","260815","1231","1231","261206","259635","1230","260814","263674","morph21_Oliver/Morris","15","8151","15","yes","1280","48"
"250","100","100","539.625","539.625","black","no","xpyriment","legacy","legacy","0","202","NA","uniform","65659","1000","0.0152302045416","1","undefined","1","0","15","15","15","0","15","15","15","NA","15","15","0","15","NA","15","15","0","15","NA","15","NA","15","0","0","15","15","0","15","15","16","/","04/25/19 15:47:08","The main experiment item","yes","FIN__BA__M21__7%3A10%3A17.osexp","C:\Users\ERP Testing Room\Desktop\Joanna\morph21","no","mono","no","18","no","white","no","yes","1080","legacy","15","15","C:/Users/ERP Testing Room/Desktop/Joanna/morph21/subject-175.csv","xpyriment","Kafkaesque Koffka","3.2.5","0","/","NA","NA","NA","NA","space","/","483","NA","NA","NA","NA","207860","483","2","legacy","1024","2","48000","-16","BA_m21","175","odd","CW_L","PUSHER","1230","266449","264757","261815","209099","NA","NA","NA","NA","266441","265254","NA","264257","NA","264251","266441","1239","266699","NA","NA","265449","1231","1231","265841","264251","1230","265449","266699","morph21_Oliver/Morris","16","8634","16","yes","1280","13"
"350","100","100","547","547","black","no","xpyriment","legacy","legacy","0","203","NA","uniform","63777","1000","0.0156796337238","1","undefined","1","0","16","16","16","0","16","16","16","NA","16","16","0","16","NA","16","16","0","16","NA","16","NA","16","0","0","16","16","0","16","16","17","z","04/25/19 15:47:08","The main experiment item","yes","FIN__BA__M21__7%3A10%3A17.osexp","C:\Users\ERP Testing Room\Desktop\Joanna\morph21","no","mono","no","18","no","white","no","yes","1080","legacy","16","16","C:/Users/ERP Testing Room/Desktop/Joanna/morph21/subject-175.csv","xpyriment","Kafkaesque Koffka","3.2.5","0","z","NA","NA","NA","NA","space","z","665","NA","NA","NA","NA","207860","665","2","legacy","1024","2","48000","-16","BA_m21","175","odd","NW_S_COMP","WELDIG","1230","269491","267799","261815","209099","NA","NA","NA","NA","269481","268296","NA","267299","NA","267287","269481","1239","269841","NA","NA","268491","1231","1231","268882","267287","1230","268491","269841","morph21_Oliver/Morris","17","9299","17","yes","1280","21"
"250","100","100","549.722222222","549.722222222","black","no","xpyriment","legacy","legacy","0","201","NA","uniform","68598","1000","0.0145776844806","1","undefined","1","0","17","17","17","0","17","17","17","NA","17","17","0","17","NA","17","17","0","17","NA","17","NA","17","0","0","17","17","0","17","17","18","/","04/25/19 15:47:08","The main experiment item","yes","FIN__BA__M21__7%3A10%3A17.osexp","C:\Users\ERP Testing Room\Desktop\Joanna\morph21","no","mono","no","18","no","white","no","yes","1080","legacy","17","17","C:/Users/ERP Testing Room/Desktop/Joanna/morph21/subject-175.csv","xpyriment","Kafkaesque Koffka","3.2.5","0","/","NA","NA","NA","NA","space","/","596","NA","NA","NA","NA","207860","596","2","legacy","1024","2","48000","-16","BA_m21","175","odd","CW_S","MOSSY","1230","274099","270916","272591","209099","NA","NA","NA","NA","272583","271413","NA","270416","NA","270404","272583","1239","274350","NA","NA","271591","1231","1231","271983","270404","1230","271591","274350","morph21_Oliver/Morris","18","9895","18","yes","1280","47"
"250","94.7368421053","94.7368421053","546.789473684","546.789473684","black","no","xpyriment","legacy","legacy","0","206","NA","uniform","72755","1000","0.0137447598103","0","undefined","0","0","18","18","18","0","18","18","18","NA","18","18","0","18","NA","18","18","0","18","NA","18","NA","18","0","0","18","18","0","18","18","19","z","04/25/19 15:47:08","The main experiment item","yes","FIN__BA__M21__7%3A10%3A17.osexp","C:\Users\ERP Testing Room\Desktop\Joanna\morph21","no","mono","no","18","no","white","no","yes","1080","legacy","18","18","C:/Users/ERP Testing Room/Desktop/Joanna/morph21/subject-175.csv","xpyriment","Kafkaesque Koffka","3.2.5","0","/","NA","NA","NA","NA","space","/","494","NA","NA","NA","NA","207860","494","2","legacy","1024","2","48000","-16","BA_m21","175","odd","NW_L_SIMP","SMOOTHFUL","1230","277133","275474","272591","209099","NA","NA","NA","NA","272583","275972","NA","274974","NA","274970","277123","1239","277383","NA","NA","276133","1231","1231","276524","274970","1230","276133","277383","morph21_Oliver/Morris","18","10389","19","yes","1280","19"
"250","95","95","555.55","555.55","black","no","xpyriment","legacy","legacy","0","203","NA","uniform","63996","1000","0.0156259766235","1","undefined","1","0","19","19","19","0","19","19","19","NA","19","19","0","19","NA","19","19","0","19","NA","19","NA","19","0","0","19","19","0","19","19","20","z","04/25/19 15:47:08","The main experiment item","yes","FIN__BA__M21__7%3A10%3A17.osexp","C:\Users\ERP Testing Room\Desktop\Joanna\morph21","no","mono","no","18","no","white","no","yes","1080","legacy","19","19","C:/Users/ERP Testing Room/Desktop/Joanna/morph21/subject-175.csv","xpyriment","Kafkaesque Koffka","3.2.5","0","z","NA","NA","NA","NA","space","z","722","NA","NA","NA","NA","207860","722","2","legacy","1024","2","48000","-16","BA_m21","175","odd","NW_S_COMP","LIDADY","1230","280242","278575","272591","209099","NA","NA","NA","NA","280240","279072","NA","278075","NA","278068","280240","1239","280492","NA","NA","279250","1231","1231","279641","278068","1230","279250","280492","morph21_Oliver/Morris","19","11111","20","yes","1280","3"
"350","95.2380952381","95.2380952381","560.476190476","560.476190476","black","no","xpyriment","legacy","legacy","0","203","NA","uniform","67427","1000","0.0148308541089","1","undefined","1","0","20","20","20","0","20","20","20","NA","20","20","0","20","NA","20","20","0","20","NA","20","NA","20","0","0","20","20","0","20","20","21","z","04/25/19 15:47:08","The main experiment item","yes","FIN__BA__M21__7%3A10%3A17.osexp","C:\Users\ERP Testing Room\Desktop\Joanna\morph21","no","mono","no","18","no","white","no","yes","1080","legacy","20","20","C:/Users/ERP Testing Room/Desktop/Joanna/morph21/subject-175.csv","xpyriment","Kafkaesque Koffka","3.2.5","0","z","NA","NA","NA","NA","space","z","659","NA","NA","NA","NA","207860","659","2","legacy","1024","2","48000","-16","BA_m21","175","odd","NW_S_COMP","HUMIDOES","1230","284918","281726","283409","209099","NA","NA","NA","NA","283399","282223","NA","281226","NA","281217","283399","1239","285268","NA","NA","282409","1231","1231","282801","281217","1230","282409","285268","morph21_Oliver/Morris","20","11770","21","yes","1280","25"
"250","95.4545454545","95.4545454545","578.545454545","578.545454545","black","no","xpyriment","legacy","legacy","0","201","NA","uniform","54187","1000","0.0184546108845","1","undefined","1","0","21","21","21","0","21","21","21","NA","21","21","0","21","NA","21","21","0","21","NA","21","NA","21","0","0","21","21","0","21","21","22","/","04/25/19 15:47:08","The main experiment item","yes","FIN__BA__M21__7%3A10%3A17.osexp","C:\Users\ERP Testing Room\Desktop\Joanna\morph21","no","mono","no","18","no","white","no","yes","1080","legacy","21","21","C:/Users/ERP Testing Room/Desktop/Joanna/morph21/subject-175.csv","xpyriment","Kafkaesque Koffka","3.2.5","0","/","NA","NA","NA","NA","space","/","958","NA","NA","NA","NA","207860","958","2","legacy","1024","2","48000","-16","BA_m21","175","odd","CW_S","MILDNESS","1230","288134","286434","283409","209099","NA","NA","NA","NA","288129","286931","NA","285934","NA","285923","288129","1239","288384","NA","NA","287134","1231","1231","287534","285923","1230","287134","288384","morph21_Oliver/Morris","21","12728","22","yes","1280","42"
"200","95.652173913","95.652173913","580.304347826","580.304347826","black","no","xpyriment","legacy","legacy","0","207","NA","uniform","68368","1000","0.0146267259537","1","undefined","1","0","22","22","22","0","22","22","22","NA","22","22","0","22","NA","22","22","0","22","NA","22","NA","22","0","0","22","22","0","22","22","23","/","04/25/19 15:47:08","The main experiment item","yes","FIN__BA__M21__7%3A10%3A17.osexp","C:\Users\ERP Testing Room\Desktop\Joanna\morph21","no","mono","no","18","no","white","no","yes","1080","legacy","22","22","C:/Users/ERP Testing Room/Desktop/Joanna/morph21/subject-175.csv","xpyriment","Kafkaesque Koffka","3.2.5","0","/","NA","NA","NA","NA","space","/","619","NA","NA","NA","NA","207860","619","2","legacy","1024","2","48000","-16","BA_m21","175","odd","FILL_W","LEGAL","1230","291159","289509","283409","209099","NA","NA","NA","NA","291156","290006","NA","289009","NA","289005","291156","1239","291359","NA","NA","290168","1231","1231","290559","289005","1230","290168","291359","morph21_Oliver/Morris","22","13347","23","yes","1280","35"
"400","95.8333333333","95.8333333333","580.541666667","580.541666667","black","no","xpyriment","legacy","legacy","0","207","NA","uniform","67611","1000","0.0147904926713","1","undefined","1","0","23","23","23","0","23","23","23","NA","23","23","0","23","NA","23","23","0","23","NA","23","NA","23","0","0","23","23","0","23","23","24","/","04/25/19 15:47:08","The main experiment item","yes","FIN__BA__M21__7%3A10%3A17.osexp","C:\Users\ERP Testing Room\Desktop\Joanna\morph21","no","mono","no","18","no","white","no","yes","1080","legacy","23","23","C:/Users/ERP Testing Room/Desktop/Joanna/morph21/subject-175.csv","xpyriment","Kafkaesque Koffka","3.2.5","0","/","NA","NA","NA","NA","space","/","586","NA","NA","NA","NA","207860","586","2","legacy","1024","2","48000","-16","BA_m21","175","odd","FILL_W","EAT","1230","295701","292518","294193","209099","NA","NA","NA","NA","294185","293015","NA","292018","NA","292008","294185","1239","296102","NA","NA","293193","1231","1231","293585","292008","1230","293193","296102","morph21_Oliver/Morris","23","13933","24","yes","1280","25"
"350","96","96","583","583","black","no","xpyriment","legacy","legacy","0","202","NA","uniform","67713","1000","0.0147682128986","1","undefined","1","0","24","24","24","0","24","24","24","NA","24","24","0","24","NA","24","24","0","24","NA","24","NA","24","0","0","24","24","0","24","24","25","/","04/25/19 15:47:08","The main experiment item","yes","FIN__BA__M21__7%3A10%3A17.osexp","C:\Users\ERP Testing Room\Desktop\Joanna\morph21","no","mono","no","18","no","white","no","yes","1080","legacy","24","24","C:/Users/ERP Testing Room/Desktop/Joanna/morph21/subject-175.csv","xpyriment","Kafkaesque Koffka","3.2.5","0","/","NA","NA","NA","NA","space","/","642","NA","NA","NA","NA","207860","642","2","legacy","1024","2","48000","-16","BA_m21","175","odd","CW_L","BOMBER","1230","298986","297252","294193","209099","NA","NA","NA","NA","298979","297750","NA","296751","NA","296742","298979","1239","299336","NA","NA","297986","1231","1231","298377","296742","1230","297986","299336","morph21_Oliver/Morris","24","14575","25","yes","1280","7"
"250","96.1538461538","96.1538461538","583.076923077","583.076923077","black","no","xpyriment","legacy","legacy","0","207","NA","uniform","67969","1000","0.0147125895629","1","undefined","1","0","25","25","25","0","25","25","25","NA","25","25","0","25","NA","25","25","0","25","NA","25","NA","25","0","0","25","25","0","25","25","26","/","04/25/19 15:47:08","The main experiment item","yes","FIN__BA__M21__7%3A10%3A17.osexp","C:\Users\ERP Testing Room\Desktop\Joanna\morph21","no","mono","no","18","no","white","no","yes","1080","legacy","25","25","C:/Users/ERP Testing Room/Desktop/Joanna/morph21/subject-175.csv","xpyriment","Kafkaesque Koffka","3.2.5","0","/","NA","NA","NA","NA","space","/","585","NA","NA","NA","NA","207860","585","2","legacy","1024","2","48000","-16","BA_m21","175","odd","FILL_W","PACK","1230","302203","300553","294193","209099","NA","NA","NA","NA","302196","301050","NA","300053","NA","300045","302196","1239","302453","NA","NA","301203","1231","1231","301594","300045","1230","301203","302453","morph21_Oliver/Morris","25","15160","26","yes","1280","41"
"200","96.2962962963","96.2962962963","583.407407407","583.407407407","black","no","xpyriment","legacy","legacy","0","201","NA","uniform","64532","1000","0.0154961879378","1","undefined","1","0","26","26","26","0","26","26","26","NA","26","26","0","26","NA","26","26","0","26","NA","26","NA","26","0","0","26","26","0","26","26","27","/","04/25/19 15:47:08","The main experiment item","yes","FIN__BA__M21__7%3A10%3A17.osexp","C:\Users\ERP Testing Room\Desktop\Joanna\morph21","no","mono","no","18","no","white","no","yes","1080","legacy","26","26","C:/Users/ERP Testing Room/Desktop/Joanna/morph21/subject-175.csv","xpyriment","Kafkaesque Koffka","3.2.5","0","/","NA","NA","NA","NA","space","/","592","NA","NA","NA","NA","207860","592","2","legacy","1024","2","48000","-16","BA_m21","175","odd","CW_S","ANGELIC","1230","306728","303561","305219","209099","NA","NA","NA","NA","305216","304058","NA","303061","NA","303057","305216","1239","306928","NA","NA","304228","1231","1231","304619","303057","1230","304228","306928","morph21_Oliver/Morris","26","15752","27","yes","1280","25"
"400","92.8571428571","92.8571428571","583.535714286","583.535714286","black","no","xpyriment","legacy","legacy","0","204","NA","uniform","69837","1000","0.0143190572333","0","undefined","0","0","27","27","27","0","27","27","27","NA","27","27","0","27","NA","27","27","0","27","NA","27","NA","27","0","0","27","27","0","27","27","28","z","04/25/19 15:47:08","The main experiment item","yes","FIN__BA__M21__7%3A10%3A17.osexp","C:\Users\ERP Testing Room\Desktop\Joanna\morph21","no","mono","no","18","no","white","no","yes","1080","legacy","27","27","C:/Users/ERP Testing Room/Desktop/Joanna/morph21/subject-175.csv","xpyriment","Kafkaesque Koffka","3.2.5","0","/","NA","NA","NA","NA","space","/","587","NA","NA","NA","NA","207860","587","2","legacy","1024","2","48000","-16","BA_m21","175","odd","NW_L_COMP","BOIL","1230","309736","308036","305219","209099","NA","NA","NA","NA","305216","308533","NA","307536","NA","307530","309726","1239","310136","NA","NA","308736","1231","1231","309128","307530","1230","308736","310136","morph21_Oliver/Morris","26","16339","28","yes","1280","18"
"400","93.1034482759","93.1034482759","583.482758621","583.482758621","black","no","xpyriment","legacy","legacy","0","208","NA","uniform","68086","1000","0.0146873072291","1","undefined","1","0","28","28","28","0","28","28","28","NA","28","28","0","28","NA","28","28","0","28","NA","28","NA","28","0","0","28","28","0","28","28","29","z","04/25/19 15:47:08","The main experiment item","yes","FIN__BA__M21__7%3A10%3A17.osexp","C:\Users\ERP Testing Room\Desktop\Joanna\morph21","no","mono","no","18","no","white","no","yes","1080","legacy","28","28","C:/Users/ERP Testing Room/Desktop/Joanna/morph21/subject-175.csv","xpyriment","Kafkaesque Koffka","3.2.5","0","z","NA","NA","NA","NA","space","z","582","NA","NA","NA","NA","207860","582","2","legacy","1024","2","48000","-16","BA_m21","175","odd","FILL_NW","BALFS","1230","312853","311203","305219","209099","NA","NA","NA","NA","312847","311700","NA","310703","NA","310698","312847","1239","313253","NA","NA","311853","1231","1231","312245","310698","1230","311853","313253","morph21_Oliver/Morris","27","16921","29","yes","1280","2"
"400","93.3333333333","93.3333333333","590.666666667","590.666666667","black","no","xpyriment","legacy","legacy","0","206","NA","uniform","60008","1000","0.0166644447407","1","undefined","1","0","29","29","29","0","29","29","29","NA","29","29","0","29","NA","29","29","0","29","NA","29","NA","29","0","0","29","29","0","29","29","30","z","04/25/19 15:47:08","The main experiment item","yes","FIN__BA__M21__7%3A10%3A17.osexp","C:\Users\ERP Testing Room\Desktop\Joanna\morph21","no","mono","no","18","no","white","no","yes","1080","legacy","29","29","C:/Users/ERP Testing Room/Desktop/Joanna/morph21/subject-175.csv","xpyriment","Kafkaesque Koffka","3.2.5","0","z","NA","NA","NA","NA","space","z","799","NA","NA","NA","NA","207860","799","2","legacy","1024","2","48000","-16","BA_m21","175","odd","NW_L_SIMP","BLOODER","1230","317529","314345","316021","209099","NA","NA","NA","NA","316016","314842","NA","313836","NA","313829","316016","1239","317929","NA","NA","315021","1231","1231","315421","313829","1230","315021","317929","morph21_Oliver/Morris","28","17720","30","yes","1280","24"
"200","93.5483870968","93.5483870968","597.258064516","597.258064516","black","no","xpyriment","legacy","legacy","0","204","NA","uniform","59353","1000","0.0168483480195","1","undefined","1","0","30","30","30","0","30","30","30","NA","30","30","0","30","NA","30","30","0","30","NA","30","NA","30","0","0","30","30","0","30","30","31","z","04/25/19 15:47:08","The main experiment item","yes","FIN__BA__M21__7%3A10%3A17.osexp","C:\Users\ERP Testing Room\Desktop\Joanna\morph21","no","mono","no","18","no","white","no","yes","1080","legacy","30","30","C:/Users/ERP Testing Room/Desktop/Joanna/morph21/subject-175.csv","xpyriment","Kafkaesque Koffka","3.2.5","0","z","NA","NA","NA","NA","space","z","795","NA","NA","NA","NA","207860","795","2","legacy","1024","2","48000","-16","BA_m21","175","odd","NW_L_COMP","FLIPODY","1230","320713","319054","316021","209099","NA","NA","NA","NA","320706","319551","NA","318554","NA","318549","320706","1239","320913","NA","NA","319713","1231","1231","320104","318549","1230","319713","320913","morph21_Oliver/Morris","29","18515","31","yes","1280","16"
"350","93.75","93.75","598.40625","598.40625","black","no","xpyriment","legacy","legacy","0","202","NA","uniform","65588","1000","0.015246691468","1","undefined","1","0","31","31","31","0","31","31","31","NA","31","31","0","31","NA","31","31","0","31","NA","31","NA","31","0","0","31","31","0","31","31","32","/","04/25/19 15:47:08","The main experiment item","yes","FIN__BA__M21__7%3A10%3A17.osexp","C:\Users\ERP Testing Room\Desktop\Joanna\morph21","no","mono","no","18","no","white","no","yes","1080","legacy","31","31","C:/Users/ERP Testing Room/Desktop/Joanna/morph21/subject-175.csv","xpyriment","Kafkaesque Koffka","3.2.5","0","/","NA","NA","NA","NA","space","/","634","NA","NA","NA","NA","207860","634","2","legacy","1024","2","48000","-16","BA_m21","175","odd","CW_L","PAINTER","1230","323738","322021","316021","209099","NA","NA","NA","NA","323735","322518","NA","321521","NA","321513","323735","1239","324088","NA","NA","322746","1231","1231","323138","321513","1230","322746","324088","morph21_Oliver/Morris","30","19149","32","yes","1280","18"
"200","93.9393939394","93.9393939394","597.03030303","597.03030303","black","no","xpyriment","legacy","legacy","0","208","NA","uniform","67028","1000","0.0149191382706","1","undefined","1","0","32","32","32","0","32","32","32","NA","32","32","0","32","NA","32","32","0","32","NA","32","NA","32","0","0","32","32","0","32","32","33","z","04/25/19 15:47:08","The main experiment item","yes","FIN__BA__M21__7%3A10%3A17.osexp","C:\Users\ERP Testing Room\Desktop\Joanna\morph21","no","mono","no","18","no","white","no","yes","1080","legacy","32","32","C:/Users/ERP Testing Room/Desktop/Joanna/morph21/subject-175.csv","xpyriment","Kafkaesque Koffka","3.2.5","0","z","NA","NA","NA","NA","space","z","553","NA","NA","NA","NA","207860","553","2","legacy","1024","2","48000","-16","BA_m21","175","odd","FILL_NW","TUEER","1230","328438","325263","326930","209099","NA","NA","NA","NA","326922","325760","NA","324763","NA","324756","326922","1239","328638","NA","NA","325930","1231","1231","326321","324756","1230","325930","328638","morph21_Oliver/Morris","31","19702","33","yes","1280","44"
"300","94.1176470588","94.1176470588","595.294117647","595.294117647","black","no","xpyriment","legacy","legacy","0","207","NA","uniform","72018","1000","0.0138854175345","1","undefined","1","0","33","33","33","0","33","33","33","NA","33","33","0","33","NA","33","33","0","33","NA","33","NA","33","0","0","33","33","0","33","33","34","/","04/25/19 15:47:08","The main experiment item","yes","FIN__BA__M21__7%3A10%3A17.osexp","C:\Users\ERP Testing Room\Desktop\Joanna\morph21","no","mono","no","18","no","white","no","yes","1080","legacy","33","33","C:/Users/ERP Testing Room/Desktop/Joanna/morph21/subject-175.csv","xpyriment","Kafkaesque Koffka","3.2.5","0","/","NA","NA","NA","NA","space","/","538","NA","NA","NA","NA","207860","538","2","legacy","1024","2","48000","-16","BA_m21","175","odd","FILL_W","BALD","1230","331505","329846","326930","209099","NA","NA","NA","NA","331498","330344","NA","329346","NA","329335","331498","1239","331805","NA","NA","330505","1231","1231","330896","329335","1230","330505","331805","morph21_Oliver/Morris","32","20240","34","yes","1280","3"
"350","94.2857142857","94.2857142857","597.4","597.4","black","no","xpyriment","legacy","legacy","0","206","NA","uniform","63872","1000","0.0156563126253","1","undefined","1","0","34","34","34","0","34","34","34","NA","34","34","0","34","NA","34","34","0","34","NA","34","NA","34","0","0","34","34","0","34","34","35","z","04/25/19 15:47:08","The main experiment item","yes","FIN__BA__M21__7%3A10%3A17.osexp","C:\Users\ERP Testing Room\Desktop\Joanna\morph21","no","mono","no","18","no","white","no","yes","1080","legacy","34","34","C:/Users/ERP Testing Room/Desktop/Joanna/morph21/subject-175.csv","xpyriment","Kafkaesque Koffka","3.2.5","0","z","NA","NA","NA","NA","space","z","669","NA","NA","NA","NA","207860","669","2","legacy","1024","2","48000","-16","BA_m21","175","odd","NW_L_SIMP","PICKENCE","1230","334623","332931","326930","209099","NA","NA","NA","NA","334613","333428","NA","332431","NA","332427","334613","1239","334973","NA","NA","333623","1231","1231","334014","332427","1230","333623","334973","morph21_Oliver/Morris","33","20909","35","yes","1280","5"
"400","94.4444444444","94.4444444444","596","596","black","no","xpyriment","legacy","legacy","0","207","NA","uniform","68106","1000","0.0146829941562","1","undefined","1","0","35","35","35","0","35","35","35","NA","35","35","0","35","NA","35","35","0","35","NA","35","NA","35","0","0","35","35","0","35","35","36","/","04/25/19 15:47:08","The main experiment item","yes","FIN__BA__M21__7%3A10%3A17.osexp","C:\Users\ERP Testing Room\Desktop\Joanna\morph21","no","mono","no","18","no","white","no","yes","1080","legacy","35","35","C:/Users/ERP Testing Room/Desktop/Joanna/morph21/subject-175.csv","xpyriment","Kafkaesque Koffka","3.2.5","0","/","NA","NA","NA","NA","space","/","547","NA","NA","NA","NA","207860","547","2","legacy","1024","2","48000","-16","BA_m21","175","odd","FILL_W","CHIP","1230","339381","336148","337873","209099","NA","NA","NA","NA","337865","336645","NA","335648","NA","335643","337865","1239","339781","NA","NA","336873","1231","1231","337264","335643","1230","336873","339781","morph21_Oliver/Morris","34","21456","36","yes","1280","11"
"350","94.5945945946","94.5945945946","598.135135135","598.135135135","black","no","xpyriment","legacy","legacy","0","202","NA","uniform","66659","1000","0.0150017251984","1","undefined","1","0","36","36","36","0","36","36","36","NA","36","36","0","36","NA","36","36","0","36","NA","36","NA","36","0","0","36","36","0","36","36","37","/","04/25/19 15:47:08","The main experiment item","yes","FIN__BA__M21__7%3A10%3A17.osexp","C:\Users\ERP Testing Room\Desktop\Joanna\morph21","no","mono","no","18","no","white","no","yes","1080","legacy","36","36","C:/Users/ERP Testing Room/Desktop/Joanna/morph21/subject-175.csv","xpyriment","Kafkaesque Koffka","3.2.5","0","/","NA","NA","NA","NA","space","/","675","NA","NA","NA","NA","207860","675","2","legacy","1024","2","48000","-16","BA_m21","175","odd","CW_L","FEEDER","1230","342656","340973","337873","209099","NA","NA","NA","NA","342648","341470","NA","340465","NA","340453","342648","1239","343006","NA","NA","341656","1231","1231","342048","340453","1230","341656","343006","morph21_Oliver/Morris","35","22131","37","yes","1280","14"
"300","94.7368421053","94.7368421053","597.263157895","597.263157895","black","no","xpyriment","legacy","legacy","0","206","NA","uniform","65303","1000","0.0153132321639","1","undefined","1","0","37","37","37","0","37","37","37","NA","37","37","0","37","NA","37","37","0","37","NA","37","NA","37","0","0","37","37","0","37","37","38","z","04/25/19 15:47:08","The main experiment item","yes","FIN__BA__M21__7%3A10%3A17.osexp","C:\Users\ERP Testing Room\Desktop\Joanna\morph21","no","mono","no","18","no","white","no","yes","1080","legacy","37","37","C:/Users/ERP Testing Room/Desktop/Joanna/morph21/subject-175.csv","xpyriment","Kafkaesque Koffka","3.2.5","0","z","NA","NA","NA","NA","space","z","565","NA","NA","NA","NA","207860","565","2","legacy","1024","2","48000","-16","BA_m21","175","odd","NW_L_SIMP","BANDARY","1230","345790","344090","337873","209099","NA","NA","NA","NA","345783","344587","NA","343590","NA","343586","345783","1239","346090","NA","NA","344790","1231","1231","345181","343586","1230","344790","346090","morph21_Oliver/Morris","36","22696","38","yes","1280","3"
"300","94.8717948718","94.8717948718","595.487179487","595.487179487","black","no","xpyriment","legacy","legacy","0","207","NA","uniform","65336","1000","0.0153054977348","1","undefined","1","0","38","38","38","0","38","38","38","NA","38","38","0","38","NA","38","38","0","38","NA","38","NA","38","0","0","38","38","0","38","38","39","/","04/25/19 15:47:08","The main experiment item","yes","FIN__BA__M21__7%3A10%3A17.osexp","C:\Users\ERP Testing Room\Desktop\Joanna\morph21","no","mono","no","18","no","white","no","yes","1080","legacy","38","38","C:/Users/ERP Testing Room/Desktop/Joanna/morph21/subject-175.csv","xpyriment","Kafkaesque Koffka","3.2.5","0","/","NA","NA","NA","NA","space","/","528","NA","NA","NA","NA","207860","528","2","legacy","1024","2","48000","-16","BA_m21","175","odd","FILL_W","IRON","1230","350424","347223","348915","209099","NA","NA","NA","NA","348911","347720","NA","346723","NA","346719","348911","1239","350724","NA","NA","347915","1231","1231","348315","346719","1230","347915","350724","morph21_Oliver/Morris","37","23224","39","yes","1280","33"
"250","92.5","92.5","597.4","597.4","black","no","xpyriment","legacy","legacy","0","201","NA","uniform","64089","1000","0.0156033016586","0","undefined","0","0","39","39","39","0","39","39","39","NA","39","39","0","39","NA","39","39","0","39","NA","39","NA","39","0","0","39","39","0","39","39","40","/","04/25/19 15:47:08","The main experiment item","yes","FIN__BA__M21__7%3A10%3A17.osexp","C:\Users\ERP Testing Room\Desktop\Joanna\morph21","no","mono","no","18","no","white","no","yes","1080","legacy","39","39","C:/Users/ERP Testing Room/Desktop/Joanna/morph21/subject-175.csv","xpyriment","Kafkaesque Koffka","3.2.5","0","z","NA","NA","NA","NA","space","z","672","NA","NA","NA","NA","207860","672","2","legacy","1024","2","48000","-16","BA_m21","175","odd","CW_S","TUTORING","1230","353524","351841","348915","209099","NA","NA","NA","NA","348911","352338","NA","351341","NA","351337","353518","1239","353774","NA","NA","352524","1231","1231","352916","351337","1230","352524","353774","morph21_Oliver/Morris","37","23896","40","yes","1280","27"
"200","92.6829268293","92.6829268293","597.707317073","597.707317073","black","no","xpyriment","legacy","legacy","0","208","NA","uniform","65127","1000","0.0153546148295","1","undefined","1","0","40","40","40","0","40","40","40","NA","40","40","0","40","NA","40","40","0","40","NA","40","NA","40","0","0","40","40","0","40","40","41","z","04/25/19 15:47:08","The main experiment item","yes","FIN__BA__M21__7%3A10%3A17.osexp","C:\Users\ERP Testing Room\Desktop\Joanna\morph21","no","mono","no","18","no","white","no","yes","1080","legacy","40","40","C:/Users/ERP Testing Room/Desktop/Joanna/morph21/subject-175.csv","xpyriment","Kafkaesque Koffka","3.2.5","0","z","NA","NA","NA","NA","space","z","610","NA","NA","NA","NA","207860","610","2","legacy","1024","2","48000","-16","BA_m21","175","odd","FILL_NW","HESK","1230","356666","354991","348915","209099","NA","NA","NA","NA","356662","355488","NA","354491","NA","354479","356662","1239","356866","NA","NA","355666","1231","1231","356066","354479","1230","355666","356866","morph21_Oliver/Morris","38","24506","41","yes","1280","29"
"300","92.8571428571","92.8571428571","598.761904762","598.761904762","black","no","xpyriment","legacy","legacy","0","204","NA","uniform","67863","1000","0.0147355701929","1","undefined","1","0","41","41","41","0","41","41","41","NA","41","41","0","41","NA","41","41","0","41","NA","41","NA","41","0","0","41","41","0","41","41","42","z","04/25/19 15:47:08","The main experiment item","yes","FIN__BA__M21__7%3A10%3A17.osexp","C:\Users\ERP Testing Room\Desktop\Joanna\morph21","no","mono","no","18","no","white","no","yes","1080","legacy","41","41","C:/Users/ERP Testing Room/Desktop/Joanna/morph21/subject-175.csv","xpyriment","Kafkaesque Koffka","3.2.5","0","z","NA","NA","NA","NA","space","z","642","NA","NA","NA","NA","207860","642","2","legacy","1024","2","48000","-16","BA_m21","175","odd","NW_L_COMP","SHEETEL","1230","361150","357991","359641","209099","NA","NA","NA","NA","359639","358488","NA","357491","NA","357486","359639","1239","361450","NA","NA","358650","1231","1231","359041","357486","1230","358650","361450","morph21_Oliver/Morris","39","25148","42","yes","1280","5"
"250","93.023255814","93.023255814","600.302325581","600.302325581","black","no","xpyriment","legacy","legacy","0","207","NA","uniform","64529","1000","0.0154969083668","1","undefined","1","0","42","42","42","0","42","42","42","NA","42","42","0","42","NA","42","42","0","42","NA","42","NA","42","0","0","42","42","0","42","42","43","/","04/25/19 15:47:08","The main experiment item","yes","FIN__BA__M21__7%3A10%3A17.osexp","C:\Users\ERP Testing Room\Desktop\Joanna\morph21","no","mono","no","18","no","white","no","yes","1080","legacy","42","42","C:/Users/ERP Testing Room/Desktop/Joanna/morph21/subject-175.csv","xpyriment","Kafkaesque Koffka","3.2.5","0","/","NA","NA","NA","NA","space","/","665","NA","NA","NA","NA","207860","665","2","legacy","1024","2","48000","-16","BA_m21","175","odd","FILL_W","STARVE","1230","364258","362608","359641","209099","NA","NA","NA","NA","364255","363105","NA","362108","NA","362099","364255","1239","364508","NA","NA","363266","1231","1231","363658","362099","1230","363266","364508","morph21_Oliver/Morris","40","25813","43","yes","1280","15"
"350","93.1818181818","93.1818181818","605.318181818","605.318181818","black","no","xpyriment","legacy","legacy","0","201","NA","uniform","61327","1000","0.0163060316011","1","undefined","1","0","43","43","43","0","43","43","43","NA","43","43","0","43","NA","43","43","0","43","NA","43","NA","43","0","0","43","43","0","43","43","44","/","04/25/19 15:47:08","The main experiment item","yes","FIN__BA__M21__7%3A10%3A17.osexp","C:\Users\ERP Testing Room\Desktop\Joanna\morph21","no","mono","no","18","no","white","no","yes","1080","legacy","43","43","C:/Users/ERP Testing Room/Desktop/Joanna/morph21/subject-175.csv","xpyriment","Kafkaesque Koffka","3.2.5","0","/","NA","NA","NA","NA","space","/","821","NA","NA","NA","NA","207860","821","2","legacy","1024","2","48000","-16","BA_m21","175","odd","CW_S","STRANGENESS","1230","367376","365708","359641","209099","NA","NA","NA","NA","367369","366205","NA","365208","NA","365204","367369","1239","367726","NA","NA","366375","1231","1231","366767","365204","1230","366375","367726","morph21_Oliver/Morris","41","26634","44","yes","1280","46"
"250","93.3333333333","93.3333333333","604.266666667","604.266666667","black","no","xpyriment","legacy","legacy","0","201","NA","uniform","63667","1000","0.0157067240486","1","undefined","1","0","44","44","44","0","44","44","44","NA","44","44","0","44","NA","44","44","0","44","NA","44","NA","44","0","0","44","44","0","44","44","45","/","04/25/19 15:47:08","The main experiment item","yes","FIN__BA__M21__7%3A10%3A17.osexp","C:\Users\ERP Testing Room\Desktop\Joanna\morph21","no","mono","no","18","no","white","no","yes","1080","legacy","44","44","C:/Users/ERP Testing Room/Desktop/Joanna/morph21/subject-175.csv","xpyriment","Kafkaesque Koffka","3.2.5","0","/","NA","NA","NA","NA","space","/","558","NA","NA","NA","NA","207860","558","2","legacy","1024","2","48000","-16","BA_m21","175","odd","CW_S","COSTLY","1230","372026","368843","370518","209099","NA","NA","NA","NA","370515","369340","NA","368343","NA","368336","370515","1239","372276","NA","NA","369526","1231","1231","369918","368336","1230","369526","372276","morph21_Oliver/Morris","42","27192","45","yes","1280","36"
"200","93.4782608696","93.4782608696","603.304347826","603.304347826","black","no","xpyriment","legacy","legacy","0","202","NA","uniform","69339","1000","0.0144218982102","1","undefined","1","0","45","45","45","0","45","45","45","NA","45","45","0","45","NA","45","45","0","45","NA","45","NA","45","0","0","45","45","0","45","45","46","/","04/25/19 15:47:08","The main experiment item","yes","FIN__BA__M21__7%3A10%3A17.osexp","C:\Users\ERP Testing Room\Desktop\Joanna\morph21","no","mono","no","18","no","white","no","yes","1080","legacy","45","45","C:/Users/ERP Testing Room/Desktop/Joanna/morph21/subject-175.csv","xpyriment","Kafkaesque Koffka","3.2.5","0","/","NA","NA","NA","NA","space","/","560","NA","NA","NA","NA","207860","560","2","legacy","1024","2","48000","-16","BA_m21","175","odd","CW_L","SHAMEFUL","1230","375060","373410","370518","209099","NA","NA","NA","NA","375056","373907","NA","372910","NA","372905","375056","1239","375260","NA","NA","374060","1231","1231","374460","372905","1230","374060","375260","morph21_Oliver/Morris","43","27752","46","yes","1280","19"
"300","93.6170212766","93.6170212766","604.085106383","604.085106383","black","no","xpyriment","legacy","legacy","0","202","NA","uniform","64945","1000","0.0153976441604","1","undefined","1","0","46","46","46","0","46","46","46","NA","46","46","0","46","NA","46","46","0","46","NA","46","NA","46","0","0","46","46","0","46","46","47","/","04/25/19 15:47:08","The main experiment item","yes","FIN__BA__M21__7%3A10%3A17.osexp","C:\Users\ERP Testing Room\Desktop\Joanna\morph21","no","mono","no","18","no","white","no","yes","1080","legacy","46","46","C:/Users/ERP Testing Room/Desktop/Joanna/morph21/subject-175.csv","xpyriment","Kafkaesque Koffka","3.2.5","0","/","NA","NA","NA","NA","space","/","640","NA","NA","NA","NA","207860","640","2","legacy","1024","2","48000","-16","BA_m21","175","odd","CW_L","HEATER","1230","378043","376385","370518","209099","NA","NA","NA","NA","378037","376882","NA","375885","NA","375874","378037","1239","378343","NA","NA","377043","1231","1231","377435","375874","1230","377043","378343","morph21_Oliver/Morris","44","28392","47","yes","1280","16"
"200","93.75","93.75","603.291666667","603.291666667","black","no","xpyriment","legacy","legacy","0","208","NA","uniform","69360","1000","0.0144175317186","1","undefined","1","0","47","47","47","0","47","47","47","NA","47","47","0","47","NA","47","47","0","47","NA","47","NA","47","0","0","47","47","0","47","47","48","z","04/25/19 15:47:08","The main experiment item","yes","FIN__BA__M21__7%3A10%3A17.osexp","C:\Users\ERP Testing Room\Desktop\Joanna\morph21","no","mono","no","18","no","white","no","yes","1080","legacy","47","47","C:/Users/ERP Testing Room/Desktop/Joanna/morph21/subject-175.csv","xpyriment","Kafkaesque Koffka","3.2.5","0","z","NA","NA","NA","NA","space","z","566","NA","NA","NA","NA","207860","566","2","legacy","1024","2","48000","-16","BA_m21","175","odd","FILL_NW","PORDS","1230","382602","379418","381093","209099","NA","NA","NA","NA","381083","379915","NA","378918","NA","378913","381083","1239","382802","NA","NA","380093","1231","1231","380485","378913","1230","380093","382802","morph21_Oliver/Morris","45","28958","48","yes","1280","39"
"300","93.8775510204","93.8775510204","604.530612245","604.530612245","black","no","xpyriment","legacy","legacy","0","203","NA","uniform","66348","1000","0.0150720443721","1","undefined","1","0","48","48","48","0","48","48","48","NA","48","48","0","48","NA","48","48","0","48","NA","48","NA","48","0","0","48","48","0","48","48","49","z","04/25/19 15:47:08","The main experiment item","yes","FIN__BA__M21__7%3A10%3A17.osexp","C:\Users\ERP Testing Room\Desktop\Joanna\morph21","no","mono","no","18","no","white","no","yes","1080","legacy","48","48","C:/Users/ERP Testing Room/Desktop/Joanna/morph21/subject-175.csv","xpyriment","Kafkaesque Koffka","3.2.5","0","z","NA","NA","NA","NA","space","z","664","NA","NA","NA","NA","207860","664","2","legacy","1024","2","48000","-16","BA_m21","175","odd","NW_S_COMP","CURTIDY","1230","385636","383985","381093","209099","NA","NA","NA","NA","385633","384482","NA","383485","NA","383475","385633","1239","385936","NA","NA","384644","1231","1231","385036","383475","1230","384644","385936","morph21_Oliver/Morris","46","29622","49","yes","1280","11"
"350","94","94","601.8","601.8","black","no","xpyriment","legacy","legacy","0","202","NA","uniform","65267","1000","0.0153216786431","1","undefined","1","0","49","49","49","0","49","49","49","NA","49","49","0","49","NA","49","49","0","49","NA","49","NA","49","0","0","49","49","0","49","49","50","/","04/25/19 15:47:08","The main experiment item","yes","FIN__BA__M21__7%3A10%3A17.osexp","C:\Users\ERP Testing Room\Desktop\Joanna\morph21","no","mono","no","18","no","white","no","yes","1080","legacy","49","49","C:/Users/ERP Testing Room/Desktop/Joanna/morph21/subject-175.csv","xpyriment","Kafkaesque Koffka","3.2.5","0","/","NA","NA","NA","NA","space","/","468","NA","NA","NA","NA","207860","468","2","legacy","1024","2","48000","-16","BA_m21","175","odd","CW_L","KICKING","1230","388728","387053","381093","209099","NA","NA","NA","NA","388723","387550","NA","386553","NA","386542","388723","1239","389078","NA","NA","387728","1231","1231","388128","386542","1230","387728","389078","morph21_Oliver/Morris","47","30090","50","yes","1280","23"
"400","94.1176470588","94.1176470588","599.176470588","599.176470588","black","no","xpyriment","legacy","legacy","0","202","NA","uniform","69748","1000","0.0143373286689","1","undefined","1","0","50","50","50","0","50","50","50","NA","50","50","0","50","NA","50","50","0","50","NA","50","NA","50","0","0","50","50","0","50","50","51","/","04/25/19 15:47:08","The main experiment item","yes","FIN__BA__M21__7%3A10%3A17.osexp","C:\Users\ERP Testing Room\Desktop\Joanna\morph21","no","mono","no","18","no","white","no","yes","1080","legacy","50","50","C:/Users/ERP Testing Room/Desktop/Joanna/morph21/subject-175.csv","xpyriment","Kafkaesque Koffka","3.2.5","0","/","NA","NA","NA","NA","space","/","468","NA","NA","NA","NA","207860","468","2","legacy","1024","2","48000","-16","BA_m21","175","odd","CW_L","FAITHFUL","1230","393436","390220","391928","209099","NA","NA","NA","NA","391918","390717","NA","389720","NA","389713","391918","1239","393837","NA","NA","390928","1231","1231","391320","389713","1230","390928","393837","morph21_Oliver/Morris","48","30558","51","yes","1280","20"
"200","94.2307692308","94.2307692308","597.711538462","597.711538462","black","no","xpyriment","legacy","legacy","0","203","NA","uniform","71584","1000","0.0139696021457","1","undefined","1","0","51","51","51","0","51","51","51","NA","51","51","0","51","NA","51","51","0","51","NA","51","NA","51","0","0","51","51","0","51","51","52","z","04/25/19 15:47:08","The main experiment item","yes","FIN__BA__M21__7%3A10%3A17.osexp","C:\Users\ERP Testing Room\Desktop\Joanna\morph21","no","mono","no","18","no","white","no","yes","1080","legacy","51","51","C:/Users/ERP Testing Room/Desktop/Joanna/morph21/subject-175.csv","xpyriment","Kafkaesque Koffka","3.2.5","0","z","NA","NA","NA","NA","space","z","523","NA","NA","NA","NA","207860","523","2","legacy","1024","2","48000","-16","BA_m21","175","odd","NW_S_COMP","YANKODY","1230","396703","395003","391928","209099","NA","NA","NA","NA","396700","395500","NA","394503","NA","394499","396700","1239","396903","NA","NA","395712","1231","1231","396103","394499","1230","395711","396903","morph21_Oliver/Morris","49","31081","52","yes","1280","23"
"200","94.3396226415","94.3396226415","597.981132075","597.981132075","black","no","xpyriment","legacy","legacy","0","203","NA","uniform","66441","1000","0.0150509474571","1","undefined","1","0","52","52","52","0","52","52","52","NA","52","52","0","52","NA","52","52","0","52","NA","52","NA","52","0","0","52","52","0","52","52","53","z","04/25/19 15:47:08","The main experiment item","yes","FIN__BA__M21__7%3A10%3A17.osexp","C:\Users\ERP Testing Room\Desktop\Joanna\morph21","no","mono","no","18","no","white","no","yes","1080","legacy","52","52","C:/Users/ERP Testing Room/Desktop/Joanna/morph21/subject-175.csv","xpyriment","Kafkaesque Koffka","3.2.5","0","z","NA","NA","NA","NA","space","z","612","NA","NA","NA","NA","207860","612","2","legacy","1024","2","48000","-16","BA_m21","175","odd","NW_S_COMP","HAPPENANGE","1230","399687","398028","391928","209099","NA","NA","NA","NA","399683","398525","NA","397528","NA","397517","399683","1239","399887","NA","NA","398687","1231","1231","399087","397517","1230","398687","399887","morph21_Oliver/Morris","50","31693","53","yes","1280","2"
"350","94.4444444444","94.4444444444","596.277777778","596.277777778","black","no","xpyriment","legacy","legacy","0","207","NA","uniform","68149","1000","0.0146737296219","1","undefined","1","0","53","53","53","0","53","53","53","NA","53","53","0","53","NA","53","53","0","53","NA","53","NA","53","0","0","53","53","0","53","53","54","/","04/25/19 15:47:08","The main experiment item","yes","FIN__BA__M21__7%3A10%3A17.osexp","C:\Users\ERP Testing Room\Desktop\Joanna\morph21","no","mono","no","18","no","white","no","yes","1080","legacy","53","53","C:/Users/ERP Testing Room/Desktop/Joanna/morph21/subject-175.csv","xpyriment","Kafkaesque Koffka","3.2.5","0","/","NA","NA","NA","NA","space","/","506","NA","NA","NA","NA","207860","506","2","legacy","1024","2","48000","-16","BA_m21","175","odd","FILL_W","FAINT","1230","404271","401078","402763","209099","NA","NA","NA","NA","402760","401576","NA","400578","NA","400568","402760","1239","404621","NA","NA","401770","1231","1231","402163","400568","1230","401770","404621","morph21_Oliver/Morris","51","32199","54","yes","1280","31"
"200","94.5454545455","94.5454545455","597.309090909","597.309090909","black","no","xpyriment","legacy","legacy","0","206","NA","uniform","65109","1000","0.0153588597583","1","undefined","1","0","54","54","54","0","54","54","54","NA","54","54","0","54","NA","54","54","0","54","NA","54","NA","54","0","0","54","54","0","54","54","55","z","04/25/19 15:47:08","The main experiment item","yes","FIN__BA__M21__7%3A10%3A17.osexp","C:\Users\ERP Testing Room\Desktop\Joanna\morph21","no","mono","no","18","no","white","no","yes","1080","legacy","54","54","C:/Users/ERP Testing Room/Desktop/Joanna/morph21/subject-175.csv","xpyriment","Kafkaesque Koffka","3.2.5","0","z","NA","NA","NA","NA","space","z","653","NA","NA","NA","NA","207860","653","2","legacy","1024","2","48000","-16","BA_m21","175","odd","NW_L_SIMP","GROWIST","1230","407471","405755","402763","209099","NA","NA","NA","NA","407466","406252","NA","405255","NA","405247","407466","1239","407671","NA","NA","406471","1231","1231","406871","405247","1230","406471","407671","morph21_Oliver/Morris","52","32852","55","yes","1280","20"
"400","94.6428571429","94.6428571429","598.571428571","598.571428571","black","no","xpyriment","legacy","legacy","0","201","NA","uniform","58155","1000","0.0171954260167","1","undefined","1","0","55","55","55","0","55","55","55","NA","55","55","0","55","NA","55","55","0","55","NA","55","NA","55","0","0","55","55","0","55","55","56","/","04/25/19 15:47:08","The main experiment item","yes","FIN__BA__M21__7%3A10%3A17.osexp","C:\Users\ERP Testing Room\Desktop\Joanna\morph21","no","mono","no","18","no","white","no","yes","1080","legacy","55","55","C:/Users/ERP Testing Room/Desktop/Joanna/morph21/subject-175.csv","xpyriment","Kafkaesque Koffka","3.2.5","0","/","NA","NA","NA","NA","space","/","668","NA","NA","NA","NA","207860","668","2","legacy","1024","2","48000","-16","BA_m21","175","odd","CW_S","DIETARY","1230","410471","408796","402763","209099","NA","NA","NA","NA","410468","409294","NA","408296","NA","408293","410468","1239","410871","NA","NA","409480","1231","1231","409871","408293","1230","409480","410871","morph21_Oliver/Morris","53","33520","56","yes","1280","6"
"250","94.7368421053","94.7368421053","596","596","black","no","xpyriment","legacy","legacy","0","207","NA","uniform","72800","1000","0.0137362637363","1","undefined","1","0","56","56","56","0","56","56","56","NA","56","56","0","56","NA","56","56","0","56","NA","56","NA","56","0","0","56","56","0","56","56","57","/","04/25/19 15:47:08","The main experiment item","yes","FIN__BA__M21__7%3A10%3A17.osexp","C:\Users\ERP Testing Room\Desktop\Joanna\morph21","no","mono","no","18","no","white","no","yes","1080","legacy","56","56","C:/Users/ERP Testing Room/Desktop/Joanna/morph21/subject-175.csv","xpyriment","Kafkaesque Koffka","3.2.5","0","/","NA","NA","NA","NA","space","/","452","NA","NA","NA","NA","207860","452","2","legacy","1024","2","48000","-16","BA_m21","175","odd","FILL_W","COOK","1230","415155","411972","413647","209099","NA","NA","NA","NA","413637","412469","NA","411472","NA","411465","413637","1239","415405","NA","NA","412647","1231","1231","413038","411465","1230","412647","415405","morph21_Oliver/Morris","54","33972","57","yes","1280","38"
"350","94.8275862069","94.8275862069","594.482758621","594.482758621","black","no","xpyriment","legacy","legacy","0","202","NA","uniform","69986","1000","0.0142885720001","1","undefined","1","0","57","57","57","0","57","57","57","NA","57","57","0","57","NA","57","57","0","57","NA","57","NA","57","0","0","57","57","0","57","57","58","/","04/25/19 15:47:08","The main experiment item","yes","FIN__BA__M21__7%3A10%3A17.osexp","C:\Users\ERP Testing Room\Desktop\Joanna\morph21","no","mono","no","18","no","white","no","yes","1080","legacy","57","57","C:/Users/ERP Testing Room/Desktop/Joanna/morph21/subject-175.csv","xpyriment","Kafkaesque Koffka","3.2.5","0","/","NA","NA","NA","NA","space","/","508","NA","NA","NA","NA","207860","508","2","legacy","1024","2","48000","-16","BA_m21","175","odd","CW_L","HUNTER","1230","418238","416588","413647","209099","NA","NA","NA","NA","418233","417086","NA","416088","NA","416084","418233","1239","418588","NA","NA","417239","1231","1231","417630","416084","1230","417238","418588","morph21_Oliver/Morris","55","34480","58","yes","1280","10"
"200","94.9152542373","94.9152542373","593.593220339","593.593220339","black","no","xpyriment","legacy","legacy","0","207","NA","uniform","66879","1000","0.0149523766803","1","undefined","1","0","58","58","58","0","58","58","58","NA","58","58","0","58","NA","58","58","0","58","NA","58","NA","58","0","0","58","58","0","58","58","59","/","04/25/19 15:47:08","The main experiment item","yes","FIN__BA__M21__7%3A10%3A17.osexp","C:\Users\ERP Testing Room\Desktop\Joanna\morph21","no","mono","no","18","no","white","no","yes","1080","legacy","58","58","C:/Users/ERP Testing Room/Desktop/Joanna/morph21/subject-175.csv","xpyriment","Kafkaesque Koffka","3.2.5","0","/","NA","NA","NA","NA","space","/","542","NA","NA","NA","NA","207860","542","2","legacy","1024","2","48000","-16","BA_m21","175","odd","FILL_W","FLOAT","1230","421398","419665","413647","209099","NA","NA","NA","NA","421390","420162","NA","419164","NA","419155","421390","1239","421598","NA","NA","420398","1231","1231","420790","419155","1230","420398","421598","morph21_Oliver/Morris","56","35022","59","yes","1280","30"
"300","95","95","593.016666667","593.016666667","black","no","xpyriment","legacy","legacy","0","203","NA","uniform","67987","1000","0.0147086943092","1","undefined","1","0","59","59","59","0","59","59","59","NA","59","59","0","59","NA","59","59","0","59","NA","59","NA","59","0","0","59","59","0","59","59","60","z","04/25/19 15:47:08","The main experiment item","yes","FIN__BA__M21__7%3A10%3A17.osexp","C:\Users\ERP Testing Room\Desktop\Joanna\morph21","no","mono","no","18","no","white","no","yes","1080","legacy","59","59","C:/Users/ERP Testing Room/Desktop/Joanna/morph21/subject-175.csv","xpyriment","Kafkaesque Koffka","3.2.5","0","z","NA","NA","NA","NA","space","z","559","NA","NA","NA","NA","207860","559","2","legacy","1024","2","48000","-16","BA_m21","175","odd","NW_S_COMP","FIGEL","1230","425865","422656","424356","209099","NA","NA","NA","NA","424353","423153","NA","422156","NA","422151","424353","1239","426165","NA","NA","423365","1231","1231","423756","422151","1230","423365","426165","morph21_Oliver/Morris","57","35581","60","yes","1280","4"
"300","95.0819672131","95.0819672131","593.327868852","593.327868852","black","no","xpyriment","legacy","legacy","0","205","NA","uniform","63337","1000","0.0157885596097","1","undefined","1","0","60","60","60","0","60","60","60","NA","60","60","0","60","NA","60","60","0","60","NA","60","NA","60","0","0","60","60","0","60","60","61","z","04/25/19 15:47:08","The main experiment item","yes","FIN__BA__M21__7%3A10%3A17.osexp","C:\Users\ERP Testing Room\Desktop\Joanna\morph21","no","mono","no","18","no","white","no","yes","1080","legacy","60","60","C:/Users/ERP Testing Room/Desktop/Joanna/morph21/subject-175.csv","xpyriment","Kafkaesque Koffka","3.2.5","0","z","NA","NA","NA","NA","space","z","612","NA","NA","NA","NA","207860","612","2","legacy","1024","2","48000","-16","BA_m21","175","odd","NW_S_SIMP","TILTARY","1230","429040","427382","424356","209099","NA","NA","NA","NA","429030","427879","NA","426882","NA","426870","429030","1239","429340","NA","NA","428040","1231","1231","428432","426870","1230","428040","429340","morph21_Oliver/Morris","58","36193","61","yes","1280","17"
"200","95.1612903226","95.1612903226","593.774193548","593.774193548","black","no","xpyriment","legacy","legacy","0","207","NA","uniform","63796","1000","0.0156749639476","1","undefined","1","0","61","61","61","0","61","61","61","NA","61","61","0","61","NA","61","61","0","61","NA","61","NA","61","0","0","61","61","0","61","61","62","/","04/25/19 15:47:08","The main experiment item","yes","FIN__BA__M21__7%3A10%3A17.osexp","C:\Users\ERP Testing Room\Desktop\Joanna\morph21","no","mono","no","18","no","white","no","yes","1080","legacy","61","61","C:/Users/ERP Testing Room/Desktop/Joanna/morph21/subject-175.csv","xpyriment","Kafkaesque Koffka","3.2.5","0","/","NA","NA","NA","NA","space","/","621","NA","NA","NA","NA","207860","621","2","legacy","1024","2","48000","-16","BA_m21","175","odd","FILL_W","BRASS","1230","432182","430490","424356","209099","NA","NA","NA","NA","432175","430987","NA","429990","NA","429986","432175","1239","432382","NA","NA","431182","1231","1231","431573","429986","1230","431182","432382","morph21_Oliver/Morris","59","36814","62","yes","1280","10"
"400","95.2380952381","95.2380952381","593.26984127","593.26984127","black","no","xpyriment","legacy","legacy","0","208","NA","uniform","68242","1000","0.0146537323056","1","undefined","1","0","62","62","62","0","62","62","62","NA","62","62","0","62","NA","62","62","0","62","NA","62","NA","62","0","0","62","62","0","62","62","63","z","04/25/19 15:47:08","The main experiment item","yes","FIN__BA__M21__7%3A10%3A17.osexp","C:\Users\ERP Testing Room\Desktop\Joanna\morph21","no","mono","no","18","no","white","no","yes","1080","legacy","62","62","C:/Users/ERP Testing Room/Desktop/Joanna/morph21/subject-175.csv","xpyriment","Kafkaesque Koffka","3.2.5","0","z","NA","NA","NA","NA","space","z","562","NA","NA","NA","NA","207860","562","2","legacy","1024","2","48000","-16","BA_m21","175","odd","FILL_NW","BORMS","1230","436757","433598","435248","209099","NA","NA","NA","NA","435241","434096","NA","433098","NA","433088","435241","1239","437157","NA","NA","434249","1231","1231","434640","433088","1230","434248","437157","morph21_Oliver/Morris","60","37376","63","yes","1280","50"
"350","95.3125","95.3125","594.109375","594.109375","black","no","xpyriment","legacy","legacy","0","206","NA","uniform","65026","1000","0.015378463999","1","undefined","1","0","63","63","63","0","63","63","63","NA","63","63","0","63","NA","63","63","0","63","NA","63","NA","63","0","0","63","63","0","63","63","64","z","04/25/19 15:47:08","The main experiment item","yes","FIN__BA__M21__7%3A10%3A17.osexp","C:\Users\ERP Testing Room\Desktop\Joanna\morph21","no","mono","no","18","no","white","no","yes","1080","legacy","63","63","C:/Users/ERP Testing Room/Desktop/Joanna/morph21/subject-175.csv","xpyriment","Kafkaesque Koffka","3.2.5","0","z","NA","NA","NA","NA","space","z","647","NA","NA","NA","NA","207860","647","2","legacy","1024","2","48000","-16","BA_m21","175","odd","NW_L_SIMP","HABITIC","1230","439941","438266","435248","209099","NA","NA","NA","NA","439934","438764","NA","437766","NA","437760","439934","1239","440291","NA","NA","438941","1231","1231","439333","437760","1230","438941","440291","morph21_Oliver/Morris","61","38023","64","yes","1280","7"
"300","95.3846153846","95.3846153846","596.030769231","596.030769231","black","no","xpyriment","legacy","legacy","0","206","NA","uniform","61822","1000","0.016175471515","1","undefined","1","0","64","64","64","0","64","64","64","NA","64","64","0","64","NA","64","64","0","64","NA","64","NA","64","0","0","64","64","0","64","64","65","z","04/25/19 15:47:08","The main experiment item","yes","FIN__BA__M21__7%3A10%3A17.osexp","C:\Users\ERP Testing Room\Desktop\Joanna\morph21","no","mono","no","18","no","white","no","yes","1080","legacy","64","64","C:/Users/ERP Testing Room/Desktop/Joanna/morph21/subject-175.csv","xpyriment","Kafkaesque Koffka","3.2.5","0","z","NA","NA","NA","NA","space","z","719","NA","NA","NA","NA","207860","719","2","legacy","1024","2","48000","-16","BA_m21","175","odd","NW_L_SIMP","ELBOWISM","1230","443125","441458","435248","209099","NA","NA","NA","NA","443120","441955","NA","440958","NA","440948","443120","1239","443425","NA","NA","442125","1231","1231","442525","440948","1230","442125","443425","morph21_Oliver/Morris","62","38742","65","yes","1280","10"
"350","95.4545454545","95.4545454545","595.96969697","595.96969697","black","no","xpyriment","legacy","legacy","0","201","NA","uniform","67130","1000","0.0148964695367","1","undefined","1","0","65","65","65","0","65","65","65","NA","65","65","0","65","NA","65","65","0","65","NA","65","NA","65","0","0","65","65","0","65","65","66","/","04/25/19 15:47:08","The main experiment item","yes","FIN__BA__M21__7%3A10%3A17.osexp","C:\Users\ERP Testing Room\Desktop\Joanna\morph21","no","mono","no","18","no","white","no","yes","1080","legacy","65","65","C:/Users/ERP Testing Room/Desktop/Joanna/morph21/subject-175.csv","xpyriment","Kafkaesque Koffka","3.2.5","0","/","NA","NA","NA","NA","space","/","592","NA","NA","NA","NA","207860","592","2","legacy","1024","2","48000","-16","BA_m21","175","odd","CW_S","RICHNESS","1230","447808","444608","446300","209099","NA","NA","NA","NA","446291","445105","NA","444108","NA","444098","446291","1239","448159","NA","NA","445300","1231","1231","445692","444098","1230","445300","448159","morph21_Oliver/Morris","63","39334","66","yes","1280","45"
"250","95.5223880597","95.5223880597","596.298507463","596.298507463","black","no","xpyriment","legacy","legacy","0","206","NA","uniform","68524","1000","0.0145934271204","1","undefined","1","0","66","66","66","0","66","66","66","NA","66","66","0","66","NA","66","66","0","66","NA","66","NA","66","0","0","66","66","0","66","66","67","z","04/25/19 15:47:08","The main experiment item","yes","FIN__BA__M21__7%3A10%3A17.osexp","C:\Users\ERP Testing Room\Desktop\Joanna\morph21","no","mono","no","18","no","white","no","yes","1080","legacy","66","66","C:/Users/ERP Testing Room/Desktop/Joanna/morph21/subject-175.csv","xpyriment","Kafkaesque Koffka","3.2.5","0","z","NA","NA","NA","NA","space","z","618","NA","NA","NA","NA","207860","618","2","legacy","1024","2","48000","-16","BA_m21","175","odd","NW_L_SIMP","BEARIST","1230","451017","449342","446300","209099","NA","NA","NA","NA","451011","449839","NA","448842","NA","448833","451011","1239","451267","NA","NA","450017","1231","1231","450408","448833","1230","450017","451267","morph21_Oliver/Morris","64","39952","67","yes","1280","25"
"250","95.5882352941","95.5882352941","595.058823529","595.058823529","black","no","xpyriment","legacy","legacy","0","207","NA","uniform","73872","1000","0.0135369287416","1","undefined","1","0","67","67","67","0","67","67","67","NA","67","67","0","67","NA","67","67","0","67","NA","67","NA","67","0","0","67","67","0","67","67","68","/","04/25/19 15:47:08","The main experiment item","yes","FIN__BA__M21__7%3A10%3A17.osexp","C:\Users\ERP Testing Room\Desktop\Joanna\morph21","no","mono","no","18","no","white","no","yes","1080","legacy","67","67","C:/Users/ERP Testing Room/Desktop/Joanna/morph21/subject-175.csv","xpyriment","Kafkaesque Koffka","3.2.5","0","/","NA","NA","NA","NA","space","/","512","NA","NA","NA","NA","207860","512","2","legacy","1024","2","48000","-16","BA_m21","175","odd","FILL_W","WEAVE","1230","454059","452375","446300","209099","NA","NA","NA","NA","454048","452872","NA","451875","NA","451864","454048","1239","454309","NA","NA","453059","1231","1231","453450","451864","1230","453059","454309","morph21_Oliver/Morris","65","40464","68","yes","1280","12"
"400","95.652173913","95.652173913","594.724637681","594.724637681","black","no","xpyriment","legacy","legacy","0","202","NA","uniform","66548","1000","0.0150267476107","1","undefined","1","0","68","68","68","0","68","68","68","NA","68","68","0","68","NA","68","68","0","68","NA","68","NA","68","0","0","68","68","0","68","68","69","/","04/25/19 15:47:08","The main experiment item","yes","FIN__BA__M21__7%3A10%3A17.osexp","C:\Users\ERP Testing Room\Desktop\Joanna\morph21","no","mono","no","18","no","white","no","yes","1080","legacy","68","68","C:/Users/ERP Testing Room/Desktop/Joanna/morph21/subject-175.csv","xpyriment","Kafkaesque Koffka","3.2.5","0","/","NA","NA","NA","NA","space","/","572","NA","NA","NA","NA","207860","572","2","legacy","1024","2","48000","-16","BA_m21","175","odd","CW_L","QUIETLY","1230","458677","455476","457168","209099","NA","NA","NA","NA","457162","455974","NA","454976","NA","454970","457162","1239","459077","NA","NA","456168","1231","1231","456560","454970","1230","456168","459077","morph21_Oliver/Morris","66","41036","69","yes","1280","36"
"400","95.7142857143","95.7142857143","596.957142857","596.957142857","black","no","xpyriment","legacy","legacy","0","202","NA","uniform","63332","1000","0.0157898061012","1","undefined","1","0","69","69","69","0","69","69","69","NA","69","69","0","69","NA","69","69","0","69","NA","69","NA","69","0","0","69","69","0","69","69","70","/","04/25/19 15:47:08","The main experiment item","yes","FIN__BA__M21__7%3A10%3A17.osexp","C:\Users\ERP Testing Room\Desktop\Joanna\morph21","no","mono","no","18","no","white","no","yes","1080","legacy","69","69","C:/Users/ERP Testing Room/Desktop/Joanna/morph21/subject-175.csv","xpyriment","Kafkaesque Koffka","3.2.5","0","/","NA","NA","NA","NA","space","/","751","NA","NA","NA","NA","207860","751","2","legacy","1024","2","48000","-16","BA_m21","175","odd","CW_L","SHAPELY","1230","461885","460235","457168","209099","NA","NA","NA","NA","461877","460732","NA","459735","NA","459725","461877","1239","462285","NA","NA","460885","1231","1231","461277","459725","1230","460885","462285","morph21_Oliver/Morris","67","41787","70","yes","1280","35"
"400","95.7746478873","95.7746478873","595.408450704","595.408450704","black","no","xpyriment","legacy","legacy","0","203","NA","uniform","67904","1000","0.01472667295","1","undefined","1","0","70","70","70","0","70","70","70","NA","70","70","0","70","NA","70","70","0","70","NA","70","NA","70","0","0","70","70","0","70","70","71","z","04/25/19 15:47:08","The main experiment item","yes","FIN__BA__M21__7%3A10%3A17.osexp","C:\Users\ERP Testing Room\Desktop\Joanna\morph21","no","mono","no","18","no","white","no","yes","1080","legacy","70","70","C:/Users/ERP Testing Room/Desktop/Joanna/morph21/subject-175.csv","xpyriment","Kafkaesque Koffka","3.2.5","0","z","NA","NA","NA","NA","space","z","487","NA","NA","NA","NA","207860","487","2","legacy","1024","2","48000","-16","BA_m21","175","odd","NW_S_COMP","ALTARIG","1230","465093","463435","457168","209099","NA","NA","NA","NA","465087","463932","NA","462935","NA","462926","465087","1239","465494","NA","NA","464093","1231","1231","464485","462926","1230","464093","465494","morph21_Oliver/Morris","68","42274","71","yes","1280","7"
"400","95.8333333333","95.8333333333","594.555555556","594.555555556","black","no","xpyriment","legacy","legacy","0","208","NA","uniform","69545","1000","0.0143791789489","1","undefined","1","0","71","71","71","0","71","71","71","NA","71","71","0","71","NA","71","71","0","71","NA","71","NA","71","0","0","71","71","0","71","71","72","z","04/25/19 15:47:08","The main experiment item","yes","FIN__BA__M21__7%3A10%3A17.osexp","C:\Users\ERP Testing Room\Desktop\Joanna\morph21","no","mono","no","18","no","white","no","yes","1080","legacy","71","71","C:/Users/ERP Testing Room/Desktop/Joanna/morph21/subject-175.csv","xpyriment","Kafkaesque Koffka","3.2.5","0","z","NA","NA","NA","NA","space","z","534","NA","NA","NA","NA","207860","534","2","legacy","1024","2","48000","-16","BA_m21","175","odd","FILL_NW","ULNS","1230","469777","466602","468269","209099","NA","NA","NA","NA","468259","467099","NA","466093","NA","466087","468259","1239","470177","NA","NA","467269","1231","1231","467660","466087","1230","467269","470177","morph21_Oliver/Morris","69","42808","72","yes","1280","45"
"200","95.8904109589","95.8904109589","592.575342466","592.575342466","black","no","xpyriment","legacy","legacy","0","208","NA","uniform","71567","1000","0.0139729204801","1","undefined","1","0","72","72","72","0","72","72","72","NA","72","72","0","72","NA","72","72","0","72","NA","72","NA","72","0","0","72","72","0","72","72","73","z","04/25/19 15:47:08","The main experiment item","yes","FIN__BA__M21__7%3A10%3A17.osexp","C:\Users\ERP Testing Room\Desktop\Joanna\morph21","no","mono","no","18","no","white","no","yes","1080","legacy","72","72","C:/Users/ERP Testing Room/Desktop/Joanna/morph21/subject-175.csv","xpyriment","Kafkaesque Koffka","3.2.5","0","z","NA","NA","NA","NA","space","z","450","NA","NA","NA","NA","207860","450","2","legacy","1024","2","48000","-16","BA_m21","175","odd","FILL_NW","HOITS","1230","472978","471302","468269","209099","NA","NA","NA","NA","472970","471799","NA","470802","NA","470797","472970","1239","473178","NA","NA","471978","1231","1231","472370","470797","1230","471978","473178","morph21_Oliver/Morris","70","43258","73","yes","1280","30"
"350","94.5945945946","94.5945945946","594.945945946","594.945945946","black","no","xpyriment","legacy","legacy","0","202","NA","uniform","58960","1000","0.016960651289","0","undefined","0","0","73","73","73","0","73","73","73","NA","73","73","0","73","NA","73","73","0","73","NA","73","NA","73","0","0","73","73","0","73","73","74","/","04/25/19 15:47:08","The main experiment item","yes","FIN__BA__M21__7%3A10%3A17.osexp","C:\Users\ERP Testing Room\Desktop\Joanna\morph21","no","mono","no","18","no","white","no","yes","1080","legacy","73","73","C:/Users/ERP Testing Room/Desktop/Joanna/morph21/subject-175.csv","xpyriment","Kafkaesque Koffka","3.2.5","0","z","NA","NA","NA","NA","space","z","768","NA","NA","NA","NA","207860","768","2","legacy","1024","2","48000","-16","BA_m21","175","odd","CW_L","GUILELESS","1230","476020","474345","468269","209099","NA","NA","NA","NA","472970","474842","NA","473845","NA","473838","476009","1239","476370","NA","NA","475020","1231","1231","475412","473838","1230","475020","476370","morph21_Oliver/Morris","70","44026","74","yes","1280","31"
"300","94.6666666667","94.6666666667","594.906666667","594.906666667","black","no","xpyriment","legacy","legacy","0","202","NA","uniform","66059","1000","0.0151379827124","undefined","undefined","1","0","74","74","74","0","74","74","74","NA","74","74","0","74","NA","74","74","0","74","NA","74","NA","74","0","0","74","74","0","74","74","75","/","04/25/19 15:47:08","The main experiment item","yes","FIN__BA__M21__7%3A10%3A17.osexp","C:\Users\ERP Testing Room\Desktop\Joanna\morph21","no","mono","no","18","no","white","no","yes","1080","legacy","74","74","C:/Users/ERP Testing Room/Desktop/Joanna/morph21/subject-175.csv","xpyriment","Kafkaesque Koffka","3.2.5","0","space","space","NA","NA","NA","space","/","18295","18295","NA","NA","NA","207860","592","2","legacy","1024","2","48000","-16","BA_m21","175","odd","CW_L","MADNESS","1230","480737","477578","479228","209099","481045","NA","NA","NA","479221","478075","NA","477078","NA","477068","479221","1239","499342","NA","NA","478228","1231","1231","478620","477068","1230","478228","481037","morph21_Oliver/Morris","71","44618","75","yes","1280","41"
"300","94.7368421053","94.7368421053","593.828947368","593.828947368","black","no","xpyriment","legacy","legacy","0","208","NA","uniform","67183","1000","0.0148847178602","1","undefined","1","0","75","75","75","0","75","75","75","NA","75","75","0","75","NA","75","75","0","75","NA","75","NA","75","0","0","75","75","0","75","75","76","z","04/25/19 15:47:08","The main experiment item","yes","FIN__BA__M21__7%3A10%3A17.osexp","C:\Users\ERP Testing Room\Desktop\Joanna\morph21","no","mono","no","18","no","white","no","yes","1080","legacy","75","75","C:/Users/ERP Testing Room/Desktop/Joanna/morph21/subject-175.csv","xpyriment","Kafkaesque Koffka","3.2.5","0","z","space","NA","NA","NA","space","z","513","18295","NA","NA","NA","207860","513","2","legacy","1024","2","48000","-16","BA_m21","175","odd","FILL_NW","DULKS","1230","502139","500455","479228","209099","481045","NA","NA","NA","502136","500952","NA","499955","NA","499952","502136","1239","502439","NA","NA","501147","1231","1231","501539","499952","1230","501147","502439","morph21_Oliver/Morris","72","45131","76","yes","1280","18"
"200","94.8051948052","94.8051948052","593.012987013","593.012987013","black","no","xpyriment","legacy","legacy","0","207","NA","uniform","69988","1000","0.0142881636852","1","undefined","1","0","76","76","76","0","76","76","76","NA","76","76","0","76","NA","76","76","0","76","NA","76","NA","76","0","0","76","76","0","76","76","77","/","04/25/19 15:47:08","The main experiment item","yes","FIN__BA__M21__7%3A10%3A17.osexp","C:\Users\ERP Testing Room\Desktop\Joanna\morph21","no","mono","no","18","no","white","no","yes","1080","legacy","76","76","C:/Users/ERP Testing Room/Desktop/Joanna/morph21/subject-175.csv","xpyriment","Kafkaesque Koffka","3.2.5","0","/","space","NA","NA","NA","space","/","531","18295","NA","NA","NA","207860","531","2","legacy","1024","2","48000","-16","BA_m21","175","odd","FILL_W","GOLF","1230","505264","503614","479228","209099","481045","NA","NA","NA","505258","504111","NA","503114","NA","503105","505258","1239","505464","NA","NA","504264","1231","1231","504655","503105","1230","504264","505464","morph21_Oliver/Morris","73","45662","77","yes","1280","28"
"250","94.8717948718","94.8717948718","592.128205128","592.128205128","black","no","xpyriment","legacy","legacy","0","207","NA","uniform","71221","1000","0.0140408025723","1","undefined","1","0","77","77","77","0","77","77","77","NA","77","77","0","77","NA","77","77","0","77","NA","77","NA","77","0","0","77","77","0","77","77","78","/","04/25/19 15:47:08","The main experiment item","yes","FIN__BA__M21__7%3A10%3A17.osexp","C:\Users\ERP Testing Room\Desktop\Joanna\morph21","no","mono","no","18","no","white","no","yes","1080","legacy","77","77","C:/Users/ERP Testing Room/Desktop/Joanna/morph21/subject-175.csv","xpyriment","Kafkaesque Koffka","3.2.5","0","/","space","NA","NA","NA","space","/","524","18295","NA","NA","NA","207860","524","2","legacy","1024","2","48000","-16","BA_m21","175","odd","FILL_W","SOFT","1230","509748","506589","508240","209099","481045","NA","NA","NA","508233","507086","NA","506089","NA","506081","508233","1239","509999","NA","NA","507240","1231","1231","507632","506081","1230","507240","509999","morph21_Oliver/Morris","74","46186","78","yes","1280","43"
"400","94.9367088608","94.9367088608","592.493670886","592.493670886","black","no","xpyriment","legacy","legacy","0","202","NA","uniform","65771","1000","0.0152042693588","1","undefined","1","0","78","78","78","0","78","78","78","NA","78","78","0","78","NA","78","78","0","78","NA","78","NA","78","0","0","78","78","0","78","78","79","/","04/25/19 15:47:08","The main experiment item","yes","FIN__BA__M21__7%3A10%3A17.osexp","C:\Users\ERP Testing Room\Desktop\Joanna\morph21","no","mono","no","18","no","white","no","yes","1080","legacy","78","78","C:/Users/ERP Testing Room/Desktop/Joanna/morph21/subject-175.csv","xpyriment","Kafkaesque Koffka","3.2.5","0","/","space","NA","NA","NA","space","/","621","18295","NA","NA","NA","207860","621","2","legacy","1024","2","48000","-16","BA_m21","175","odd","CW_L","SPELLER","1230","512815","511140","508240","209099","481045","NA","NA","NA","512807","511637","NA","510640","NA","510630","512807","1239","513215","NA","NA","511815","1231","1231","512207","510630","1230","511815","513215","morph21_Oliver/Morris","75","46807","79","yes","1280","3"
"250","95","95","591.1125","591.1125","black","no","xpyriment","legacy","legacy","0","207","NA","uniform","72396","1000","0.0138129178408","1","undefined","1","0","79","79","79","0","79","79","79","NA","79","79","0","79","NA","79","79","0","79","NA","79","NA","79","0","0","79","79","0","79","79","80","/","04/25/19 15:47:08","The main experiment item","yes","FIN__BA__M21__7%3A10%3A17.osexp","C:\Users\ERP Testing Room\Desktop\Joanna\morph21","no","mono","no","18","no","white","no","yes","1080","legacy","79","79","C:/Users/ERP Testing Room/Desktop/Joanna/morph21/subject-175.csv","xpyriment","Kafkaesque Koffka","3.2.5","0","/","space","NA","NA","NA","space","/","482","18295","NA","NA","NA","207860","482","2","legacy","1024","2","48000","-16","BA_m21","175","odd","FILL_W","SOUGHT","1230","516065","514382","508240","209099","481045","NA","NA","NA","516062","514879","NA","513882","NA","513873","516062","1239","516315","NA","NA","515074","1231","1231","515465","513873","1230","515074","516315","morph21_Oliver/Morris","76","47289","80","yes","1280","40"
"300","95.0617283951","95.0617283951","591.12345679","591.12345679","black","no","xpyriment","legacy","legacy","0","207","NA","uniform","66391","1000","0.0150622825383","1","undefined","1","0","80","80","80","0","80","80","80","NA","80","80","0","80","NA","80","80","0","80","NA","80","NA","80","0","0","80","80","0","80","80","81","/","04/25/19 15:47:08","The main experiment item","yes","FIN__BA__M21__7%3A10%3A17.osexp","C:\Users\ERP Testing Room\Desktop\Joanna\morph21","no","mono","no","18","no","white","no","yes","1080","legacy","80","80","C:/Users/ERP Testing Room/Desktop/Joanna/morph21/subject-175.csv","xpyriment","Kafkaesque Koffka","3.2.5","0","/","space","NA","NA","NA","space","/","592","18295","NA","NA","NA","207860","592","2","legacy","1024","2","48000","-16","BA_m21","175","odd","FILL_W","MOURN","1230","520632","517440","519124","209099","481045","NA","NA","NA","519118","517937","NA","516940","NA","516929","519118","1239","520932","NA","NA","518124","1231","1231","518515","516929","1230","518124","520932","morph21_Oliver/Morris","77","47881","81","yes","1280","26"
"200","95.1219512195","95.1219512195","592.43902439","592.43902439","black","no","xpyriment","legacy","legacy","0","203","NA","uniform","59320","1000","0.0168577208361","1","undefined","1","0","81","81","81","0","81","81","81","NA","81","81","0","81","NA","81","81","0","81","NA","81","NA","81","0","0","81","81","0","81","81","82","z","04/25/19 15:47:08","The main experiment item","yes","FIN__BA__M21__7%3A10%3A17.osexp","C:\Users\ERP Testing Room\Desktop\Joanna\morph21","no","mono","no","18","no","white","no","yes","1080","legacy","81","81","C:/Users/ERP Testing Room/Desktop/Joanna/morph21/subject-175.csv","xpyriment","Kafkaesque Koffka","3.2.5","0","z","space","NA","NA","NA","space","z","699","18295","NA","NA","NA","207860","699","2","legacy","1024","2","48000","-16","BA_m21","175","odd","NW_S_COMP","DUMBIDY","1230","523832","522141","519124","209099","481045","NA","NA","NA","523822","522638","NA","521641","NA","521631","523822","1239","524032","NA","NA","522832","1231","1231","523224","521631","1230","522832","524032","morph21_Oliver/Morris","78","48580","82","yes","1280","12"
"350","95.1807228916","95.1807228916","591.036144578","591.036144578","black","no","xpyriment","legacy","legacy","0","202","NA","uniform","73608","1000","0.0135854798391","1","undefined","1","0","82","82","82","0","82","82","82","NA","82","82","0","82","NA","82","82","0","82","NA","82","NA","82","0","0","82","82","0","82","82","83","/","04/25/19 15:47:08","The main experiment item","yes","FIN__BA__M21__7%3A10%3A17.osexp","C:\Users\ERP Testing Room\Desktop\Joanna\morph21","no","mono","no","18","no","white","no","yes","1080","legacy","82","82","C:/Users/ERP Testing Room/Desktop/Joanna/morph21/subject-175.csv","xpyriment","Kafkaesque Koffka","3.2.5","0","/","space","NA","NA","NA","space","/","476","18295","NA","NA","NA","207860","476","2","legacy","1024","2","48000","-16","BA_m21","175","odd","CW_L","SWIMMER","1230","526800","525142","519124","209099","481045","NA","NA","NA","526797","525639","NA","524642","NA","524631","526797","1239","527150","NA","NA","525808","1231","1231","526200","524631","1230","525808","527150","morph21_Oliver/Morris","79","49056","83","yes","1280","5"
"350","95.2380952381","95.2380952381","594.047619048","594.047619048","black","no","xpyriment","legacy","legacy","0","205","NA","uniform","60947","1000","0.0164076984921","1","undefined","1","0","83","83","83","0","83","83","83","NA","83","83","0","83","NA","83","83","0","83","NA","83","NA","83","0","0","83","83","0","83","83","84","z","04/25/19 15:47:08","The main experiment item","yes","FIN__BA__M21__7%3A10%3A17.osexp","C:\Users\ERP Testing Room\Desktop\Joanna\morph21","no","mono","no","18","no","white","no","yes","1080","legacy","83","83","C:/Users/ERP Testing Room/Desktop/Joanna/morph21/subject-175.csv","xpyriment","Kafkaesque Koffka","3.2.5","0","z","space","NA","NA","NA","space","z","844","18295","NA","NA","NA","207860","844","2","legacy","1024","2","48000","-16","BA_m21","175","odd","NW_S_SIMP","ACREMENT","1230","531509","528308","530000","209099","481045","NA","NA","NA","529994","528806","NA","527808","NA","527802","529994","1239","531859","NA","NA","529000","1231","1231","529392","527802","1230","529000","531859","morph21_Oliver/Morris","80","49900","84","yes","1280","16"
"200","95.2941176471","95.2941176471","594.847058824","594.847058824","black","no","xpyriment","legacy","legacy","0","201","NA","uniform","66777","1000","0.0149752160175","1","undefined","1","0","84","84","84","0","84","84","84","NA","84","84","0","84","NA","84","84","0","84","NA","84","NA","84","0","0","84","84","0","84","84","85","/","04/25/19 15:47:08","The main experiment item","yes","FIN__BA__M21__7%3A10%3A17.osexp","C:\Users\ERP Testing Room\Desktop\Joanna\morph21","no","mono","no","18","no","white","no","yes","1080","legacy","84","84","C:/Users/ERP Testing Room/Desktop/Joanna/morph21/subject-175.csv","xpyriment","Kafkaesque Koffka","3.2.5","0","/","space","NA","NA","NA","space","/","662","18295","NA","NA","NA","207860","662","2","legacy","1024","2","48000","-16","BA_m21","175","odd","CW_S","AMUSEMENT","1230","534750","533084","530000","209099","481045","NA","NA","NA","534744","533581","NA","532584","NA","532574","534744","1239","534950","NA","NA","533750","1231","1231","534142","532574","1230","533750","534950","morph21_Oliver/Morris","81","50562","85","yes","1280","38"
"400","95.3488372093","95.3488372093","597","597","black","no","xpyriment","legacy","legacy","0","205","NA","uniform","64002","1000","0.015624511734","1","undefined","1","0","85","85","85","0","85","85","85","NA","85","85","0","85","NA","85","85","0","85","NA","85","NA","85","0","0","85","85","0","85","85","86","z","04/25/19 15:47:08","The main experiment item","yes","FIN__BA__M21__7%3A10%3A17.osexp","C:\Users\ERP Testing Room\Desktop\Joanna\morph21","no","mono","no","18","no","white","no","yes","1080","legacy","85","85","C:/Users/ERP Testing Room/Desktop/Joanna/morph21/subject-175.csv","xpyriment","Kafkaesque Koffka","3.2.5","0","z","space","NA","NA","NA","space","z","780","18295","NA","NA","NA","207860","780","2","legacy","1024","2","48000","-16","BA_m21","175","odd","NW_S_SIMP","URNIST","1230","537759","536084","530000","209099","481045","NA","NA","NA","537753","536581","NA","535584","NA","535575","537753","1239","538159","NA","NA","536759","1231","1231","537150","535575","1230","536759","538159","morph21_Oliver/Morris","82","51342","86","yes","1280","5"
"200","95.4022988506","95.4022988506","596.218390805","596.218390805","black","no","xpyriment","legacy","legacy","0","207","NA","uniform","71268","1000","0.0140315429085","1","undefined","1","0","86","86","86","0","86","86","86","NA","86","86","0","86","NA","86","86","0","86","NA","86","NA","86","0","0","86","86","0","86","86","87","/","04/25/19 15:47:08","The main experiment item","yes","FIN__BA__M21__7%3A10%3A17.osexp","C:\Users\ERP Testing Room\Desktop\Joanna\morph21","no","mono","no","18","no","white","no","yes","1080","legacy","86","86","C:/Users/ERP Testing Room/Desktop/Joanna/morph21/subject-175.csv","xpyriment","Kafkaesque Koffka","3.2.5","0","/","space","NA","NA","NA","space","/","529","18295","NA","NA","NA","207860","529","2","legacy","1024","2","48000","-16","BA_m21","175","odd","FILL_W","TAX","1230","542552","539376","541042","209099","481045","NA","NA","NA","541034","539873","NA","538876","NA","538869","541034","1239","542752","NA","NA","540042","1231","1231","540434","538869","1230","540042","542752","morph21_Oliver/Morris","83","51871","87","yes","1280","45"
"300","95.4545454545","95.4545454545","595.215909091","595.215909091","black","no","xpyriment","legacy","legacy","0","201","NA","uniform","68691","1000","0.0145579479117","1","undefined","1","0","87","87","87","0","87","87","87","NA","87","87","0","87","NA","87","87","0","87","NA","87","NA","87","0","0","87","87","0","87","87","88","/","04/25/19 15:47:08","The main experiment item","yes","FIN__BA__M21__7%3A10%3A17.osexp","C:\Users\ERP Testing Room\Desktop\Joanna\morph21","no","mono","no","18","no","white","no","yes","1080","legacy","87","87","C:/Users/ERP Testing Room/Desktop/Joanna/morph21/subject-175.csv","xpyriment","Kafkaesque Koffka","3.2.5","0","/","space","NA","NA","NA","space","/","508","18295","NA","NA","NA","207860","508","2","legacy","1024","2","48000","-16","BA_m21","175","odd","CW_S","BUYER","1230","545560","543868","541042","209099","481045","NA","NA","NA","545556","544366","NA","543368","NA","543364","545556","1239","545860","NA","NA","544560","1231","1231","544960","543364","1230","544560","545860","morph21_Oliver/Morris","84","52379","88","yes","1280","21"
"350","95.5056179775","95.5056179775","594.337078652","594.337078652","black","no","xpyriment","legacy","legacy","0","201","NA","uniform","69804","1000","0.0143258266002","1","undefined","1","0","88","88","88","0","88","88","88","NA","88","88","0","88","NA","88","88","0","88","NA","88","NA","88","0","0","88","88","0","88","88","89","/","04/25/19 15:47:08","The main experiment item","yes","FIN__BA__M21__7%3A10%3A17.osexp","C:\Users\ERP Testing Room\Desktop\Joanna\morph21","no","mono","no","18","no","white","no","yes","1080","legacy","88","88","C:/Users/ERP Testing Room/Desktop/Joanna/morph21/subject-175.csv","xpyriment","Kafkaesque Koffka","3.2.5","0","/","space","NA","NA","NA","space","/","517","18295","NA","NA","NA","207860","517","2","legacy","1024","2","48000","-16","BA_m21","175","odd","CW_S","TEACHER","1230","548727","547052","541042","209099","481045","NA","NA","NA","548717","547549","NA","546552","NA","546541","548717","1239","549077","NA","NA","547727","1231","1231","548119","546541","1230","547727","549077","morph21_Oliver/Morris","85","52896","89","yes","1280","23"
"250","95.5555555556","95.5555555556","593.555555556","593.555555556","black","no","xpyriment","legacy","legacy","0","202","NA","uniform","64327","1000","0.0155455718439","1","undefined","1","0","89","89","89","0","89","89","89","NA","89","89","0","89","NA","89","89","0","89","NA","89","NA","89","0","0","89","89","0","89","89","90","/","04/25/19 15:47:08","The main experiment item","yes","FIN__BA__M21__7%3A10%3A17.osexp","C:\Users\ERP Testing Room\Desktop\Joanna\morph21","no","mono","no","18","no","white","no","yes","1080","legacy","89","89","C:/Users/ERP Testing Room/Desktop/Joanna/morph21/subject-175.csv","xpyriment","Kafkaesque Koffka","3.2.5","0","/","space","NA","NA","NA","space","/","524","18295","NA","NA","NA","207860","524","2","legacy","1024","2","48000","-16","BA_m21","175","odd","CW_L","STRIKER","1230","553452","550294","551944","209099","481045","NA","NA","NA","551941","550791","NA","549794","NA","549785","551941","1239","553702","NA","NA","550944","1231","1231","551344","549785","1230","550944","553702","morph21_Oliver/Morris","86","53420","90","yes","1280","17"
