"ITI","acc","accuracy","average_response_time","avg_rt","background","bidi","canvas_backend","clock_backend","color_backend","compensation","cond_trig","condtrigtime","coordinates","coroutines_cycles","coroutines_duration","coroutines_mean_cycle_duration","correct","correct_instructions_1","correct_new_keyboard_response_1","count_AB_m21","count_ITI","count_blank_screen","count_blink_screen","count_block1","count_break1","count_break2","count_break3_1","count_canvas","count_close_port","count_cond_trigger","count_correct_trigger","count_def_chain","count_end_screen","count_fixation_1","count_getting_started","count_inc_counter","count_instructions_1","count_logger","count_logscript","count_new_inline_script","count_new_inline_script_2","count_new_keyboard_response_1","count_open_port","count_reset_counter_prep","count_reset_counter_run","count_response_trigger_trial","count_responsescreen","count_sequence","count_target_present","count_word_trigger","counter","cresp","datetime","description","disable_garbage_collection","experiment_file","experiment_path","font_bold","font_family","font_italic","font_size","font_underline","foreground","form_clicks","fullscreen","height","keyboard_backend","live_row","live_row_block1","logfile","mouse_backend","opensesame_codename","opensesame_version","repeat_cycle","response","response_break1","response_break2","response_break3_1","response_end_screen","response_instructions_1","response_new_keyboard_response_1","response_time","response_time_break1","response_time_break2","response_time_break3_1","response_time_end_screen","response_time_instructions_1","response_time_new_keyboard_response_1","round_decimals","sampler_backend","sound_buf_size","sound_channels","sound_freq","sound_sample_size","start","subject_nr","subject_parity","targ_type","target","time_AB_m21","time_ITI","time_blank_screen","time_blink_screen","time_block1","time_break1","time_break2","time_break3_1","time_canvas","time_close_port","time_cond_trigger","time_correct_trigger","time_def_chain","time_end_screen","time_fixation_1","time_getting_started","time_inc_counter","time_instructions_1","time_logger","time_logscript","time_new_inline_script","time_new_inline_script_2","time_new_keyboard_response_1","time_open_port","time_reset_counter_prep","time_reset_counter_run","time_response_trigger_trial","time_responsescreen","time_sequence","time_target_present","time_word_trigger","title","total_correct","total_response_time","total_responses","uniform_coordinates","width","word_trig"
"400","0","0","1200","1200","black","no","xpyriment","legacy","legacy","0","206","NA","uniform","NA","NA","NA","0","undefined","0","0","0","0","0","0","0","0","0","NA","0","0","NA","NA","0","0","NA","0","0","0","NA","NA","NA","0","0","0","NA","0","0","0","0","0","1","z","Mon Jun 12 18:32:04 2023","The main experiment item","yes","m21-ab-lexicalDecision.osexp","C:\Users\ekealey\Desktop","no","mono","no","18","no","white","no","yes","1080","legacy","0","0","C:/Users/ekealey/Desktop/subject-201.csv","xpyriment","Lentiform Loewenfeld","3.3.11","0","None","NA","NA","NA","NA","space","None","1200","NA","NA","NA","NA","70063","1200","2","legacy","1024","2","48000","-16","AB_m21","201","odd","NW_L_SIMP","POORIDY","1952","76117","73747","NA","72025","NA","NA","NA","NA","NA","74249","NA","NA","NA","73246","NA","73215","1961","76517","NA","NA","NA","74289","1953","1953","NA","75489","75513","73215","74249","74269","morph21_Oliver/Morris","0","1200","1","yes","1920","13"
"250","0","0","648","648","black","no","xpyriment","legacy","legacy","0","207","NA","uniform","NA","NA","NA","0","undefined","0","0","1","1","1","0","1","1","1","NA","0","1","NA","NA","0","1","NA","1","0","1","NA","NA","NA","1","0","0","NA","1","1","1","1","1","2","/","Mon Jun 12 18:32:04 2023","The main experiment item","yes","m21-ab-lexicalDecision.osexp","C:\Users\ekealey\Desktop","no","mono","no","18","no","white","no","yes","1080","legacy","1","1","C:/Users/ekealey/Desktop/subject-201.csv","xpyriment","Lentiform Loewenfeld","3.3.11","0","z","NA","NA","NA","NA","space","z","96","NA","NA","NA","NA","70063","96","2","legacy","1024","2","48000","-16","AB_m21","201","odd","FILL_W","SMOKE","1952","79317","78049","NA","72025","NA","NA","NA","NA","NA","78551","NA","NA","NA","77546","NA","77518","1961","79567","NA","NA","NA","78592","1953","1953","NA","78689","78713","77518","78551","78572","morph21_Oliver/Morris","0","1296","2","yes","1920","50"
"200","0","0","832","832","black","no","xpyriment","legacy","legacy","0","201","NA","uniform","NA","NA","NA","0","undefined","0","0","2","2","2","0","2","2","2","NA","0","2","NA","NA","0","2","NA","2","0","2","NA","NA","NA","2","0","0","NA","2","2","2","2","2","3","/","Mon Jun 12 18:32:04 2023","The main experiment item","yes","m21-ab-lexicalDecision.osexp","C:\Users\ekealey\Desktop","no","mono","no","18","no","white","no","yes","1080","legacy","2","2","C:/Users/ekealey/Desktop/subject-201.csv","xpyriment","Lentiform Loewenfeld","3.3.11","0","None","NA","NA","NA","NA","space","None","1200","NA","NA","NA","NA","70063","1200","2","legacy","1024","2","48000","-16","AB_m21","201","odd","CW_S","AMUSEMENT","1952","84988","81113","83484","72025","NA","NA","NA","NA","NA","81615","NA","NA","NA","80613","NA","80587","1961","85188","NA","NA","NA","81655","1953","1953","NA","82855","82880","80587","81615","81635","morph21_Oliver/Morris","0","2496","3","yes","1920","38"
"350","25","25","863.5","863.5","black","no","xpyriment","legacy","legacy","0","202","NA","uniform","NA","NA","NA","1","undefined","1","0","3","3","3","0","3","3","3","NA","0","3","NA","NA","0","3","NA","3","0","3","NA","NA","NA","3","0","0","NA","3","3","3","3","3","4","/","Mon Jun 12 18:32:04 2023","The main experiment item","yes","m21-ab-lexicalDecision.osexp","C:\Users\ekealey\Desktop","no","mono","no","18","no","white","no","yes","1080","legacy","3","3","C:/Users/ekealey/Desktop/subject-201.csv","xpyriment","Lentiform Loewenfeld","3.3.11","0","/","NA","NA","NA","NA","space","/","958","NA","NA","NA","NA","70063","958","2","legacy","1024","2","48000","-16","AB_m21","201","odd","CW_L","PAINTER","1952","88858","86732","83484","72025","NA","NA","NA","NA","NA","87232","NA","NA","NA","86231","NA","86199","1961","89208","NA","NA","NA","87273","1953","1953","NA","88232","88255","86199","87232","87253","morph21_Oliver/Morris","1","3454","4","yes","1920","18"
"350","40","40","827.4","827.4","black","no","xpyriment","legacy","legacy","0","202","NA","uniform","NA","NA","NA","1","undefined","1","0","4","4","4","0","4","4","4","NA","0","4","NA","NA","0","4","NA","4","0","4","NA","NA","NA","4","0","0","NA","4","4","4","4","4","5","/","Mon Jun 12 18:32:04 2023","The main experiment item","yes","m21-ab-lexicalDecision.osexp","C:\Users\ekealey\Desktop","no","mono","no","18","no","white","no","yes","1080","legacy","4","4","C:/Users/ekealey/Desktop/subject-201.csv","xpyriment","Lentiform Loewenfeld","3.3.11","0","/","NA","NA","NA","NA","space","/","683","NA","NA","NA","NA","70063","683","2","legacy","1024","2","48000","-16","AB_m21","201","odd","CW_L","KICKING","1952","92562","90711","83484","72025","NA","NA","NA","NA","NA","91212","NA","NA","NA","90210","NA","90185","1961","92912","NA","NA","NA","91253","1953","1953","NA","91936","91959","90185","91212","91233","morph21_Oliver/Morris","2","4137","5","yes","1920","23"
"250","50","50","825.5","825.5","black","no","xpyriment","legacy","legacy","0","202","NA","uniform","NA","NA","NA","1","undefined","1","0","5","5","5","0","5","5","5","NA","0","5","NA","NA","0","5","NA","5","0","5","NA","NA","NA","5","0","0","NA","5","5","5","5","5","6","/","Mon Jun 12 18:32:04 2023","The main experiment item","yes","m21-ab-lexicalDecision.osexp","C:\Users\ekealey\Desktop","no","mono","no","18","no","white","no","yes","1080","legacy","5","5","C:/Users/ekealey/Desktop/subject-201.csv","xpyriment","Lentiform Loewenfeld","3.3.11","0","/","NA","NA","NA","NA","space","/","816","NA","NA","NA","NA","70063","816","2","legacy","1024","2","48000","-16","AB_m21","201","odd","CW_L","PUSHER","1952","97908","94417","96403","72025","NA","NA","NA","NA","NA","94918","NA","NA","NA","93916","NA","93890","1961","98158","NA","NA","NA","94959","1953","1953","NA","95776","95800","93890","94918","94939","morph21_Oliver/Morris","3","4953","6","yes","1920","13"
"400","57.142857142857146","57.142857142857146","797.2857142857143","797.2857142857143","black","no","xpyriment","legacy","legacy","0","202","NA","uniform","NA","NA","NA","1","undefined","1","0","6","6","6","0","6","6","6","NA","0","6","NA","NA","0","6","NA","6","0","6","NA","NA","NA","6","0","0","NA","6","6","6","6","6","7","/","Mon Jun 12 18:32:04 2023","The main experiment item","yes","m21-ab-lexicalDecision.osexp","C:\Users\ekealey\Desktop","no","mono","no","18","no","white","no","yes","1080","legacy","6","6","C:/Users/ekealey/Desktop/subject-201.csv","xpyriment","Lentiform Loewenfeld","3.3.11","0","/","NA","NA","NA","NA","space","/","628","NA","NA","NA","NA","70063","628","2","legacy","1024","2","48000","-16","AB_m21","201","odd","CW_L","COOLING","1952","101485","99687","96403","72025","NA","NA","NA","NA","NA","100187","NA","NA","NA","99186","NA","99159","1961","101885","NA","NA","NA","100227","1953","1953","NA","100856","100881","99159","100187","100207","morph21_Oliver/Morris","4","5581","7","yes","1920","24"
"400","62.5","62.5","769.5","769.5","black","no","xpyriment","legacy","legacy","0","207","NA","uniform","NA","NA","NA","1","undefined","1","0","7","7","7","0","7","7","7","NA","0","7","NA","NA","0","7","NA","7","0","7","NA","NA","NA","7","0","0","NA","7","7","7","7","7","8","/","Mon Jun 12 18:32:04 2023","The main experiment item","yes","m21-ab-lexicalDecision.osexp","C:\Users\ekealey\Desktop","no","mono","no","18","no","white","no","yes","1080","legacy","7","7","C:/Users/ekealey/Desktop/subject-201.csv","xpyriment","Lentiform Loewenfeld","3.3.11","0","/","NA","NA","NA","NA","space","/","575","NA","NA","NA","NA","70063","575","2","legacy","1024","2","48000","-16","AB_m21","201","odd","FILL_W","EAT","1952","105155","103409","96403","72025","NA","NA","NA","NA","NA","103910","NA","NA","NA","102906","NA","102880","1961","105555","NA","NA","NA","103952","1953","1953","NA","104528","104552","102880","103910","103931","morph21_Oliver/Morris","5","6156","8","yes","1920","25"
"400","66.66666666666667","66.66666666666667","767.7777777777778","767.7777777777778","black","no","xpyriment","legacy","legacy","0","208","NA","uniform","NA","NA","NA","1","undefined","1","0","8","8","8","0","8","8","8","NA","0","8","NA","NA","0","8","NA","8","0","8","NA","NA","NA","8","0","0","NA","8","8","8","8","8","9","z","Mon Jun 12 18:32:04 2023","The main experiment item","yes","m21-ab-lexicalDecision.osexp","C:\Users\ekealey\Desktop","no","mono","no","18","no","white","no","yes","1080","legacy","8","8","C:/Users/ekealey/Desktop/subject-201.csv","xpyriment","Lentiform Loewenfeld","3.3.11","0","z","NA","NA","NA","NA","space","z","754","NA","NA","NA","NA","70063","754","2","legacy","1024","2","48000","-16","AB_m21","201","odd","FILL_NW","SOISE","1952","110477","107050","108973","72025","NA","NA","NA","NA","NA","107550","NA","NA","NA","106550","NA","106524","1961","110877","NA","NA","NA","107590","1953","1953","NA","108344","108368","106524","107550","107570","morph21_Oliver/Morris","6","6910","9","yes","1920","43"
"300","70","70","769.7","769.7","black","no","xpyriment","legacy","legacy","0","205","NA","uniform","NA","NA","NA","1","undefined","1","0","9","9","9","0","9","9","9","NA","0","9","NA","NA","0","9","NA","9","0","9","NA","NA","NA","9","0","0","NA","9","9","9","9","9","10","z","Mon Jun 12 18:32:04 2023","The main experiment item","yes","m21-ab-lexicalDecision.osexp","C:\Users\ekealey\Desktop","no","mono","no","18","no","white","no","yes","1080","legacy","9","9","C:/Users/ekealey/Desktop/subject-201.csv","xpyriment","Lentiform Loewenfeld","3.3.11","0","z","NA","NA","NA","NA","space","z","787","NA","NA","NA","NA","70063","787","2","legacy","1024","2","48000","-16","AB_m21","201","odd","NW_S_SIMP","SOCKETEL","1952","114348","112392","108973","72025","NA","NA","NA","NA","NA","112892","NA","NA","NA","111892","NA","111864","1961","114648","NA","NA","NA","112933","1953","1953","NA","113720","113744","111864","112892","112913","morph21_Oliver/Morris","7","7697","10","yes","1920","1"
"250","72.72727272727273","72.72727272727273","787.7272727272727","787.7272727272727","black","no","xpyriment","legacy","legacy","0","201","NA","uniform","NA","NA","NA","1","undefined","1","0","10","10","10","0","10","10","10","NA","0","10","NA","NA","0","10","NA","10","0","10","NA","NA","NA","10","0","0","NA","10","10","10","10","10","11","/","Mon Jun 12 18:32:04 2023","The main experiment item","yes","m21-ab-lexicalDecision.osexp","C:\Users\ekealey\Desktop","no","mono","no","18","no","white","no","yes","1080","legacy","10","10","C:/Users/ekealey/Desktop/subject-201.csv","xpyriment","Lentiform Loewenfeld","3.3.11","0","/","NA","NA","NA","NA","space","/","968","NA","NA","NA","NA","70063","968","2","legacy","1024","2","48000","-16","AB_m21","201","odd","CW_S","TOSSING","1952","118291","116154","108973","72025","NA","NA","NA","NA","NA","116654","NA","NA","NA","115653","NA","115628","1961","118541","NA","NA","NA","116695","1953","1953","NA","117664","117688","115628","116654","116675","morph21_Oliver/Morris","8","8665","11","yes","1920","26"
"200","75","75","778.5833333333334","778.5833333333334","black","no","xpyriment","legacy","legacy","0","208","NA","uniform","NA","NA","NA","1","undefined","1","0","11","11","11","0","11","11","11","NA","0","11","NA","NA","0","11","NA","11","0","11","NA","NA","NA","11","0","0","NA","11","11","11","11","11","12","z","Mon Jun 12 18:32:04 2023","The main experiment item","yes","m21-ab-lexicalDecision.osexp","C:\Users\ekealey\Desktop","no","mono","no","18","no","white","no","yes","1080","legacy","11","11","C:/Users/ekealey/Desktop/subject-201.csv","xpyriment","Lentiform Loewenfeld","3.3.11","0","z","NA","NA","NA","NA","space","z","678","NA","NA","NA","NA","70063","678","2","legacy","1024","2","48000","-16","AB_m21","201","odd","FILL_NW","HESK","1952","123386","120037","121884","72025","NA","NA","NA","NA","NA","120537","NA","NA","NA","119537","NA","119513","1961","123586","NA","NA","NA","120578","1953","1953","NA","121257","121280","119513","120537","120558","morph21_Oliver/Morris","9","9343","12","yes","1920","29"
"200","76.92307692307692","76.92307692307692","771.9230769230769","771.9230769230769","black","no","xpyriment","legacy","legacy","0","202","NA","uniform","NA","NA","NA","1","undefined","1","0","12","12","12","0","12","12","12","NA","0","12","NA","NA","0","12","NA","12","0","12","NA","NA","NA","12","0","0","NA","12","12","12","12","12","13","/","Mon Jun 12 18:32:04 2023","The main experiment item","yes","m21-ab-lexicalDecision.osexp","C:\Users\ekealey\Desktop","no","mono","no","18","no","white","no","yes","1080","legacy","12","12","C:/Users/ekealey/Desktop/subject-201.csv","xpyriment","Lentiform Loewenfeld","3.3.11","0","/","NA","NA","NA","NA","space","/","692","NA","NA","NA","NA","70063","692","2","legacy","1024","2","48000","-16","AB_m21","201","odd","CW_L","SAILOR","1952","126949","125086","121884","72025","NA","NA","NA","NA","NA","125588","NA","NA","NA","124585","NA","124558","1961","127149","NA","NA","NA","125628","1953","1953","NA","126321","126345","124558","125588","125608","morph21_Oliver/Morris","10","10035","13","yes","1920","43"
"250","78.57142857142857","78.57142857142857","770.7857142857143","770.7857142857143","black","no","xpyriment","legacy","legacy","0","208","NA","uniform","NA","NA","NA","1","undefined","1","0","13","13","13","0","13","13","13","NA","0","13","NA","NA","0","13","NA","13","0","13","NA","NA","NA","13","0","0","NA","13","13","13","13","13","14","z","Mon Jun 12 18:32:04 2023","The main experiment item","yes","m21-ab-lexicalDecision.osexp","C:\Users\ekealey\Desktop","no","mono","no","18","no","white","no","yes","1080","legacy","13","13","C:/Users/ekealey/Desktop/subject-201.csv","xpyriment","Lentiform Loewenfeld","3.3.11","0","z","NA","NA","NA","NA","space","z","756","NA","NA","NA","NA","70063","756","2","legacy","1024","2","48000","-16","AB_m21","201","odd","FILL_NW","PHEEKS","1952","130582","128655","121884","72025","NA","NA","NA","NA","NA","129156","NA","NA","NA","128155","NA","128130","1961","130832","NA","NA","NA","129196","1953","1953","NA","129952","129977","128130","129156","129176","morph21_Oliver/Morris","11","10791","14","yes","1920","35"
"300","80","80","769.9333333333333","769.9333333333333","black","no","xpyriment","legacy","legacy","0","206","NA","uniform","NA","NA","NA","1","undefined","1","0","14","14","14","0","14","14","14","NA","0","14","NA","NA","0","14","NA","14","0","14","NA","NA","NA","14","0","0","NA","14","14","14","14","14","15","z","Mon Jun 12 18:32:04 2023","The main experiment item","yes","m21-ab-lexicalDecision.osexp","C:\Users\ekealey\Desktop","no","mono","no","18","no","white","no","yes","1080","legacy","14","14","C:/Users/ekealey/Desktop/subject-201.csv","xpyriment","Lentiform Loewenfeld","3.3.11","0","z","NA","NA","NA","NA","space","z","758","NA","NA","NA","NA","70063","758","2","legacy","1024","2","48000","-16","AB_m21","201","odd","NW_L_SIMP","LONGNELS","1952","135781","132349","134277","72025","NA","NA","NA","NA","NA","132850","NA","NA","NA","131848","NA","131819","1961","136081","NA","NA","NA","132890","1953","1953","NA","133648","133672","131819","132850","132870","morph21_Oliver/Morris","12","11549","15","yes","1920","17"
"300","75","75","796.8125","796.8125","black","no","xpyriment","legacy","legacy","0","205","NA","uniform","NA","NA","NA","0","undefined","0","0","15","15","15","0","15","15","15","NA","0","15","NA","NA","0","15","NA","15","0","15","NA","NA","NA","15","0","0","NA","15","15","15","15","15","16","z","Mon Jun 12 18:32:04 2023","The main experiment item","yes","m21-ab-lexicalDecision.osexp","C:\Users\ekealey\Desktop","no","mono","no","18","no","white","no","yes","1080","legacy","15","15","C:/Users/ekealey/Desktop/subject-201.csv","xpyriment","Lentiform Loewenfeld","3.3.11","0","None","NA","NA","NA","NA","space","None","1200","NA","NA","NA","NA","70063","1200","2","legacy","1024","2","48000","-16","AB_m21","201","odd","NW_S_SIMP","HEIRIG","1952","139950","137579","134277","72025","NA","NA","NA","NA","NA","138079","NA","NA","NA","137078","NA","137053","1961","140250","NA","NA","NA","138120","1953","1953","NA","139320","139346","137052","138079","138100","morph21_Oliver/Morris","12","12749","16","yes","1920","3"
"300","76.47058823529412","76.47058823529412","792.4117647058823","792.4117647058823","black","no","xpyriment","legacy","legacy","0","207","NA","uniform","NA","NA","NA","1","undefined","1","0","16","16","16","0","16","16","16","NA","0","16","NA","NA","0","16","NA","16","0","16","NA","NA","NA","16","0","0","NA","16","16","16","16","16","17","/","Mon Jun 12 18:32:04 2023","The main experiment item","yes","m21-ab-lexicalDecision.osexp","C:\Users\ekealey\Desktop","no","mono","no","18","no","white","no","yes","1080","legacy","16","16","C:/Users/ekealey/Desktop/subject-201.csv","xpyriment","Lentiform Loewenfeld","3.3.11","0","/","NA","NA","NA","NA","space","/","722","NA","NA","NA","NA","70063","722","2","legacy","1024","2","48000","-16","AB_m21","201","odd","FILL_W","IRON","1952","143646","141753","134277","72025","NA","NA","NA","NA","NA","142253","NA","NA","NA","141253","NA","141227","1961","143946","NA","NA","NA","142294","1953","1953","NA","143016","143041","141227","142253","142274","morph21_Oliver/Morris","13","13471","17","yes","1920","33"
"400","77.77777777777777","77.77777777777777","786.5","786.5","black","no","xpyriment","legacy","legacy","0","208","NA","uniform","NA","NA","NA","1","undefined","1","0","17","17","17","0","17","17","17","NA","0","17","NA","NA","0","17","NA","17","0","17","NA","NA","NA","17","0","0","NA","17","17","17","17","17","18","z","Mon Jun 12 18:32:04 2023","The main experiment item","yes","m21-ab-lexicalDecision.osexp","C:\Users\ekealey\Desktop","no","mono","no","18","no","white","no","yes","1080","legacy","17","17","C:/Users/ekealey/Desktop/subject-201.csv","xpyriment","Lentiform Loewenfeld","3.3.11","0","z","NA","NA","NA","NA","space","z","686","NA","NA","NA","NA","70063","686","2","legacy","1024","2","48000","-16","AB_m21","201","odd","FILL_NW","BALFS","1952","148812","145452","147308","72025","NA","NA","NA","NA","NA","145953","NA","NA","NA","144952","NA","144927","1961","149212","NA","NA","NA","145994","1953","1953","NA","146680","146704","144927","145953","145974","morph21_Oliver/Morris","14","14157","18","yes","1920","2"
"400","78.94736842105263","78.94736842105263","784.7894736842105","784.7894736842105","black","no","xpyriment","legacy","legacy","0","204","NA","uniform","NA","NA","NA","1","undefined","1","0","18","18","18","0","18","18","18","NA","0","18","NA","NA","0","18","NA","18","0","18","NA","NA","NA","18","0","0","NA","18","18","18","18","18","19","z","Mon Jun 12 18:32:04 2023","The main experiment item","yes","m21-ab-lexicalDecision.osexp","C:\Users\ekealey\Desktop","no","mono","no","18","no","white","no","yes","1080","legacy","18","18","C:/Users/ekealey/Desktop/subject-201.csv","xpyriment","Lentiform Loewenfeld","3.3.11","0","z","NA","NA","NA","NA","space","z","754","NA","NA","NA","NA","70063","754","2","legacy","1024","2","48000","-16","AB_m21","201","odd","NW_L_COMP","COLDITY","1952","152635","150712","147308","72025","NA","NA","NA","NA","NA","151214","NA","NA","NA","150211","NA","150187","1961","153035","NA","NA","NA","151254","1953","1953","NA","152009","152032","150187","151213","151234","morph21_Oliver/Morris","15","14911","19","yes","1920","10"
"200","75","75","805.55","805.55","black","no","xpyriment","legacy","legacy","0","202","NA","uniform","NA","NA","NA","0","undefined","0","0","19","19","19","0","19","19","19","NA","0","19","NA","NA","0","19","NA","19","0","19","NA","NA","NA","19","0","0","NA","19","19","19","19","19","20","/","Mon Jun 12 18:32:04 2023","The main experiment item","yes","m21-ab-lexicalDecision.osexp","C:\Users\ekealey\Desktop","no","mono","no","18","no","white","no","yes","1080","legacy","19","19","C:/Users/ekealey/Desktop/subject-201.csv","xpyriment","Lentiform Loewenfeld","3.3.11","0","None","NA","NA","NA","NA","space","None","1200","NA","NA","NA","NA","70063","1200","2","legacy","1024","2","48000","-16","AB_m21","201","odd","CW_L","BOOTLESS","1952","156908","154538","147308","72025","NA","NA","NA","NA","NA","155039","NA","NA","NA","154036","NA","154013","1961","157108","NA","NA","NA","155079","1953","1953","NA","156279","156303","154013","155038","155059","morph21_Oliver/Morris","15","16111","20","yes","1920","32"
"250","76.19047619047619","76.19047619047619","800.5238095238095","800.5238095238095","black","no","xpyriment","legacy","legacy","0","208","NA","uniform","NA","NA","NA","1","undefined","1","0","20","20","20","0","20","20","20","NA","0","20","NA","NA","0","20","NA","20","0","20","NA","NA","NA","20","0","0","NA","20","20","20","20","20","21","z","Mon Jun 12 18:32:04 2023","The main experiment item","yes","m21-ab-lexicalDecision.osexp","C:\Users\ekealey\Desktop","no","mono","no","18","no","white","no","yes","1080","legacy","20","20","C:/Users/ekealey/Desktop/subject-201.csv","xpyriment","Lentiform Loewenfeld","3.3.11","0","z","NA","NA","NA","NA","space","z","700","NA","NA","NA","NA","70063","700","2","legacy","1024","2","48000","-16","AB_m21","201","odd","FILL_NW","POLT","1952","161970","158599","160467","72025","NA","NA","NA","NA","NA","159099","NA","NA","NA","158098","NA","158070","1961","162220","NA","NA","NA","159140","1953","1953","NA","159840","159864","158070","159099","159120","morph21_Oliver/Morris","16","16811","21","yes","1920","38"
"200","72.72727272727273","72.72727272727273","818.6818181818181","818.6818181818181","black","no","xpyriment","legacy","legacy","0","204","NA","uniform","NA","NA","NA","0","undefined","0","0","21","21","21","0","21","21","21","NA","0","21","NA","NA","0","21","NA","21","0","21","NA","NA","NA","21","0","0","NA","21","21","21","21","21","22","z","Mon Jun 12 18:32:04 2023","The main experiment item","yes","m21-ab-lexicalDecision.osexp","C:\Users\ekealey\Desktop","no","mono","no","18","no","white","no","yes","1080","legacy","21","21","C:/Users/ekealey/Desktop/subject-201.csv","xpyriment","Lentiform Loewenfeld","3.3.11","0","None","NA","NA","NA","NA","space","None","1200","NA","NA","NA","NA","70063","1200","2","legacy","1024","2","48000","-16","AB_m21","201","odd","NW_L_COMP","GASFUL","1952","166087","163716","160467","72025","NA","NA","NA","NA","NA","164217","NA","NA","NA","163215","NA","163190","1961","166287","NA","NA","NA","164258","1953","1953","NA","165458","165483","163190","164217","164238","morph21_Oliver/Morris","16","18011","22","yes","1920","6"
"400","73.91304347826087","73.91304347826087","809.1739130434783","809.1739130434783","black","no","xpyriment","legacy","legacy","0","202","NA","uniform","NA","NA","NA","1","undefined","1","0","22","22","22","0","22","22","22","NA","0","22","NA","NA","0","22","NA","22","0","22","NA","NA","NA","22","0","0","NA","22","22","22","22","22","23","/","Mon Jun 12 18:32:04 2023","The main experiment item","yes","m21-ab-lexicalDecision.osexp","C:\Users\ekealey\Desktop","no","mono","no","18","no","white","no","yes","1080","legacy","22","22","C:/Users/ekealey/Desktop/subject-201.csv","xpyriment","Lentiform Loewenfeld","3.3.11","0","/","NA","NA","NA","NA","space","/","600","NA","NA","NA","NA","70063","600","2","legacy","1024","2","48000","-16","AB_m21","201","odd","CW_L","BLINDNESS","1952","169554","167787","160467","72025","NA","NA","NA","NA","NA","168288","NA","NA","NA","167286","NA","167260","1961","169954","NA","NA","NA","168328","1953","1953","NA","168928","168951","167260","168288","168308","morph21_Oliver/Morris","17","18611","23","yes","1920","40"
"250","75","75","811.5833333333334","811.5833333333334","black","no","xpyriment","legacy","legacy","0","208","NA","uniform","NA","NA","NA","1","undefined","1","0","23","23","23","0","23","23","23","NA","0","23","NA","NA","0","23","NA","23","0","23","NA","NA","NA","23","0","0","NA","23","23","23","23","23","24","z","Mon Jun 12 18:32:04 2023","The main experiment item","yes","m21-ab-lexicalDecision.osexp","C:\Users\ekealey\Desktop","no","mono","no","18","no","white","no","yes","1080","legacy","23","23","C:/Users/ekealey/Desktop/subject-201.csv","xpyriment","Lentiform Loewenfeld","3.3.11","0","z","NA","NA","NA","NA","space","z","867","NA","NA","NA","NA","70063","867","2","legacy","1024","2","48000","-16","AB_m21","201","odd","FILL_NW","DOWED","1952","174997","171457","173492","72025","NA","NA","NA","NA","NA","171957","NA","NA","NA","170957","NA","170931","1961","175247","NA","NA","NA","171997","1953","1953","NA","172864","172889","170931","171957","171977","morph21_Oliver/Morris","18","19478","24","yes","1920","16"
"350","76","76","808.32","808.32","black","no","xpyriment","legacy","legacy","0","208","NA","uniform","NA","NA","NA","1","undefined","1","0","24","24","24","0","24","24","24","NA","0","24","NA","NA","0","24","NA","24","0","24","NA","NA","NA","24","0","0","NA","24","24","24","24","24","25","z","Mon Jun 12 18:32:04 2023","The main experiment item","yes","m21-ab-lexicalDecision.osexp","C:\Users\ekealey\Desktop","no","mono","no","18","no","white","no","yes","1080","legacy","24","24","C:/Users/ekealey/Desktop/subject-201.csv","xpyriment","Lentiform Loewenfeld","3.3.11","0","z","NA","NA","NA","NA","space","z","730","NA","NA","NA","NA","70063","730","2","legacy","1024","2","48000","-16","AB_m21","201","odd","FILL_NW","DASP","1952","178668","176769","173492","72025","NA","NA","NA","NA","NA","177269","NA","NA","NA","176269","NA","176244","1961","179018","NA","NA","NA","177310","1953","1953","NA","178041","178064","176244","177269","177290","morph21_Oliver/Morris","19","20208","25","yes","1920","13"
"250","76.92307692307692","76.92307692307692","820.2307692307693","820.2307692307693","black","no","xpyriment","legacy","legacy","0","201","NA","uniform","NA","NA","NA","1","undefined","1","0","25","25","25","0","25","25","25","NA","0","25","NA","NA","0","25","NA","25","0","25","NA","NA","NA","25","0","0","NA","25","25","25","25","25","26","/","Mon Jun 12 18:32:04 2023","The main experiment item","yes","m21-ab-lexicalDecision.osexp","C:\Users\ekealey\Desktop","no","mono","no","18","no","white","no","yes","1080","legacy","25","25","C:/Users/ekealey/Desktop/subject-201.csv","xpyriment","Lentiform Loewenfeld","3.3.11","0","/","NA","NA","NA","NA","space","/","1118","NA","NA","NA","NA","70063","1118","2","legacy","1024","2","48000","-16","AB_m21","201","odd","CW_S","AWARENESS","1952","182813","180525","173492","72025","NA","NA","NA","NA","NA","181025","NA","NA","NA","180025","NA","179997","1961","183063","NA","NA","NA","181066","1953","1953","NA","182184","182208","179997","181025","181046","morph21_Oliver/Morris","20","21326","26","yes","1920","44"
"300","77.77777777777777","77.77777777777777","827.1851851851852","827.1851851851852","black","no","xpyriment","legacy","legacy","0","205","NA","uniform","NA","NA","NA","1","undefined","1","0","26","26","26","0","26","26","26","NA","0","26","NA","NA","0","26","NA","26","0","26","NA","NA","NA","26","0","0","NA","26","26","26","26","26","27","z","Mon Jun 12 18:32:04 2023","The main experiment item","yes","m21-ab-lexicalDecision.osexp","C:\Users\ekealey\Desktop","no","mono","no","18","no","white","no","yes","1080","legacy","26","26","C:/Users/ekealey/Desktop/subject-201.csv","xpyriment","Lentiform Loewenfeld","3.3.11","0","z","NA","NA","NA","NA","space","z","1008","NA","NA","NA","NA","70063","1008","2","legacy","1024","2","48000","-16","AB_m21","201","odd","NW_S_SIMP","BOLTOES","1952","188247","184563","186741","72025","NA","NA","NA","NA","NA","185063","NA","NA","NA","184062","NA","184036","1961","188547","NA","NA","NA","185104","1953","1953","NA","186112","186137","184036","185063","185084","morph21_Oliver/Morris","21","22334","27","yes","1920","13"
"350","78.57142857142857","78.57142857142857","823.6071428571429","823.6071428571429","black","no","xpyriment","legacy","legacy","0","201","NA","uniform","NA","NA","NA","1","undefined","1","0","27","27","27","0","27","27","27","NA","0","27","NA","NA","0","27","NA","27","0","27","NA","NA","NA","27","0","0","NA","27","27","27","27","27","28","/","Mon Jun 12 18:32:04 2023","The main experiment item","yes","m21-ab-lexicalDecision.osexp","C:\Users\ekealey\Desktop","no","mono","no","18","no","white","no","yes","1080","legacy","27","27","C:/Users/ekealey/Desktop/subject-201.csv","xpyriment","Lentiform Loewenfeld","3.3.11","0","/","NA","NA","NA","NA","space","/","727","NA","NA","NA","NA","70063","727","2","legacy","1024","2","48000","-16","AB_m21","201","odd","CW_S","BOSSY","1952","191996","190101","186741","72025","NA","NA","NA","NA","NA","190601","NA","NA","NA","189601","NA","189568","1961","192346","NA","NA","NA","190641","1953","1953","NA","191369","191393","189568","190601","190621","morph21_Oliver/Morris","22","23061","28","yes","1920","49"
"250","79.3103448275862","79.3103448275862","813.7241379310345","813.7241379310345","black","no","xpyriment","legacy","legacy","0","207","NA","uniform","NA","NA","NA","1","undefined","1","0","28","28","28","0","28","28","28","NA","0","28","NA","NA","0","28","NA","28","0","28","NA","NA","NA","28","0","0","NA","28","28","28","28","28","29","/","Mon Jun 12 18:32:04 2023","The main experiment item","yes","m21-ab-lexicalDecision.osexp","C:\Users\ekealey\Desktop","no","mono","no","18","no","white","no","yes","1080","legacy","28","28","C:/Users/ekealey/Desktop/subject-201.csv","xpyriment","Lentiform Loewenfeld","3.3.11","0","/","NA","NA","NA","NA","space","/","537","NA","NA","NA","NA","70063","537","2","legacy","1024","2","48000","-16","AB_m21","201","odd","FILL_W","COOK","1952","195564","193858","186741","72025","NA","NA","NA","NA","NA","194359","NA","NA","NA","193358","NA","193330","1961","195814","NA","NA","NA","194399","1953","1953","NA","194937","194961","193330","194359","194379","morph21_Oliver/Morris","23","23598","29","yes","1920","38"
"200","80","80","808.0333333333333","808.0333333333333","black","no","xpyriment","legacy","legacy","0","207","NA","uniform","NA","NA","NA","1","undefined","1","0","29","29","29","0","29","29","29","NA","0","29","NA","NA","0","29","NA","29","0","29","NA","NA","NA","29","0","0","NA","29","29","29","29","29","30","/","Mon Jun 12 18:32:04 2023","The main experiment item","yes","m21-ab-lexicalDecision.osexp","C:\Users\ekealey\Desktop","no","mono","no","18","no","white","no","yes","1080","legacy","29","29","C:/Users/ekealey/Desktop/subject-201.csv","xpyriment","Lentiform Loewenfeld","3.3.11","0","/","NA","NA","NA","NA","space","/","643","NA","NA","NA","NA","70063","643","2","legacy","1024","2","48000","-16","AB_m21","201","odd","FILL_W","TAX","1952","200634","197320","199131","72025","NA","NA","NA","NA","NA","197820","NA","NA","NA","196820","NA","196794","1961","200835","NA","NA","NA","197861","1953","1953","NA","198504","198528","196794","197820","197841","morph21_Oliver/Morris","24","24241","30","yes","1920","45"
"400","77.41935483870968","77.41935483870968","820.6774193548387","820.6774193548387","black","no","xpyriment","legacy","legacy","0","204","NA","uniform","NA","NA","NA","0","undefined","0","0","30","30","30","0","30","30","30","NA","0","30","NA","NA","0","30","NA","30","0","30","NA","NA","NA","30","0","0","NA","30","30","30","30","30","31","z","Mon Jun 12 18:32:04 2023","The main experiment item","yes","m21-ab-lexicalDecision.osexp","C:\Users\ekealey\Desktop","no","mono","no","18","no","white","no","yes","1080","legacy","30","30","C:/Users/ekealey/Desktop/subject-201.csv","xpyriment","Lentiform Loewenfeld","3.3.11","0","None","NA","NA","NA","NA","space","None","1200","NA","NA","NA","NA","70063","1200","2","legacy","1024","2","48000","-16","AB_m21","201","odd","NW_L_COMP","FLITENCE","1952","204695","202328","199131","72025","NA","NA","NA","NA","NA","202828","NA","NA","NA","201828","NA","201802","1961","205095","NA","NA","NA","202869","1953","1953","NA","204069","204092","201802","202828","202849","morph21_Oliver/Morris","24","25441","31","yes","1920","3"
"250","78.125","78.125","823.03125","823.03125","black","no","xpyriment","legacy","legacy","0","204","NA","uniform","NA","NA","NA","1","undefined","1","0","31","31","31","0","31","31","31","NA","0","31","NA","NA","0","31","NA","31","0","31","NA","NA","NA","31","0","0","NA","31","31","31","31","31","32","z","Mon Jun 12 18:32:04 2023","The main experiment item","yes","m21-ab-lexicalDecision.osexp","C:\Users\ekealey\Desktop","no","mono","no","18","no","white","no","yes","1080","legacy","31","31","C:/Users/ekealey/Desktop/subject-201.csv","xpyriment","Lentiform Loewenfeld","3.3.11","0","z","NA","NA","NA","NA","space","z","896","NA","NA","NA","NA","70063","896","2","legacy","1024","2","48000","-16","AB_m21","201","odd","NW_L_COMP","BREAKITY","1952","208692","206627","199131","72025","NA","NA","NA","NA","NA","207128","NA","NA","NA","206127","NA","206098","1961","208942","NA","NA","NA","207168","1953","1953","NA","208064","208088","206098","207128","207148","morph21_Oliver/Morris","25","26337","32","yes","1920","23"
"400","78.78787878787878","78.78787878787878","820.939393939394","820.939393939394","black","no","xpyriment","legacy","legacy","0","201","NA","uniform","NA","NA","NA","1","undefined","1","0","32","32","32","0","32","32","32","NA","0","32","NA","NA","0","32","NA","32","0","32","NA","NA","NA","32","0","0","NA","32","32","32","32","32","33","/","Mon Jun 12 18:32:04 2023","The main experiment item","yes","m21-ab-lexicalDecision.osexp","C:\Users\ekealey\Desktop","no","mono","no","18","no","white","no","yes","1080","legacy","32","32","C:/Users/ekealey/Desktop/subject-201.csv","xpyriment","Lentiform Loewenfeld","3.3.11","0","/","NA","NA","NA","NA","space","/","754","NA","NA","NA","NA","70063","754","2","legacy","1024","2","48000","-16","AB_m21","201","odd","CW_S","DIETARY","1952","213852","210426","212349","72025","NA","NA","NA","NA","NA","210926","NA","NA","NA","209925","NA","209899","1961","214252","NA","NA","NA","210966","1953","1953","NA","211721","211745","209899","210926","210946","morph21_Oliver/Morris","26","27091","33","yes","1920","6"
"250","79.41176470588235","79.41176470588235","816.2941176470588","816.2941176470588","black","no","xpyriment","legacy","legacy","0","208","NA","uniform","NA","NA","NA","1","undefined","1","0","33","33","33","0","33","33","33","NA","0","33","NA","NA","0","33","NA","33","0","33","NA","NA","NA","33","0","0","NA","33","33","33","33","33","34","z","Mon Jun 12 18:32:04 2023","The main experiment item","yes","m21-ab-lexicalDecision.osexp","C:\Users\ekealey\Desktop","no","mono","no","18","no","white","no","yes","1080","legacy","33","33","C:/Users/ekealey/Desktop/subject-201.csv","xpyriment","Lentiform Loewenfeld","3.3.11","0","z","NA","NA","NA","NA","space","z","663","NA","NA","NA","NA","70063","663","2","legacy","1024","2","48000","-16","AB_m21","201","odd","FILL_NW","BUWL","1952","217603","215771","212349","72025","NA","NA","NA","NA","NA","216272","NA","NA","NA","215270","NA","215244","1961","217853","NA","NA","NA","216313","1953","1953","NA","216976","217000","215244","216272","216293","morph21_Oliver/Morris","27","27754","34","yes","1920","9"
"400","80","80","815.1428571428571","815.1428571428571","black","no","xpyriment","legacy","legacy","0","208","NA","uniform","NA","NA","NA","1","undefined","1","0","34","34","34","0","34","34","34","NA","0","34","NA","NA","0","34","NA","34","0","34","NA","NA","NA","34","0","0","NA","34","34","34","34","34","35","z","Mon Jun 12 18:32:04 2023","The main experiment item","yes","m21-ab-lexicalDecision.osexp","C:\Users\ekealey\Desktop","no","mono","no","18","no","white","no","yes","1080","legacy","34","34","C:/Users/ekealey/Desktop/subject-201.csv","xpyriment","Lentiform Loewenfeld","3.3.11","0","z","NA","NA","NA","NA","space","z","776","NA","NA","NA","NA","70063","776","2","legacy","1024","2","48000","-16","AB_m21","201","odd","FILL_NW","VELT","1952","221299","219355","212349","72025","NA","NA","NA","NA","NA","219855","NA","NA","NA","218855","NA","218829","1961","221699","NA","NA","NA","219896","1953","1953","NA","220673","220696","218829","219855","219876","morph21_Oliver/Morris","28","28530","35","yes","1920","46"
"200","80.55555555555556","80.55555555555556","824.2777777777778","824.2777777777778","black","no","xpyriment","legacy","legacy","0","206","NA","uniform","NA","NA","NA","1","undefined","1","0","35","35","35","0","35","35","35","NA","0","35","NA","NA","0","35","NA","35","0","35","NA","NA","NA","35","0","0","NA","35","35","35","35","35","36","z","Mon Jun 12 18:32:04 2023","The main experiment item","yes","m21-ab-lexicalDecision.osexp","C:\Users\ekealey\Desktop","no","mono","no","18","no","white","no","yes","1080","legacy","35","35","C:/Users/ekealey/Desktop/subject-201.csv","xpyriment","Lentiform Loewenfeld","3.3.11","0","z","NA","NA","NA","NA","space","z","1144","NA","NA","NA","NA","70063","1144","2","legacy","1024","2","48000","-16","AB_m21","201","odd","NW_L_SIMP","GROWILT","1952","227013","223196","225508","72025","NA","NA","NA","NA","NA","223696","NA","NA","NA","222696","NA","222669","1961","227213","NA","NA","NA","223736","1953","1953","NA","224880","224904","222669","223696","223716","morph21_Oliver/Morris","29","29674","36","yes","1920","20"
"350","78.37837837837837","78.37837837837837","834.4324324324324","834.4324324324324","black","no","xpyriment","legacy","legacy","0","201","NA","uniform","NA","NA","NA","0","undefined","0","0","36","36","36","0","36","36","36","NA","0","36","NA","NA","0","36","NA","36","0","36","NA","NA","NA","36","0","0","NA","36","36","36","36","36","37","/","Mon Jun 12 18:32:04 2023","The main experiment item","yes","m21-ab-lexicalDecision.osexp","C:\Users\ekealey\Desktop","no","mono","no","18","no","white","no","yes","1080","legacy","36","36","C:/Users/ekealey/Desktop/subject-201.csv","xpyriment","Lentiform Loewenfeld","3.3.11","0","None","NA","NA","NA","NA","space","None","1200","NA","NA","NA","NA","70063","1200","2","legacy","1024","2","48000","-16","AB_m21","201","odd","CW_S","NEATLY","1952","231109","228739","225508","72025","NA","NA","NA","NA","NA","229240","NA","NA","NA","228237","NA","228211","1961","231459","NA","NA","NA","229281","1953","1953","NA","230481","230505","228210","229240","229261","morph21_Oliver/Morris","29","30874","37","yes","1920","33"
"250","78.94736842105263","78.94736842105263","833.7105263157895","833.7105263157895","black","no","xpyriment","legacy","legacy","0","208","NA","uniform","NA","NA","NA","1","undefined","1","0","37","37","37","0","37","37","37","NA","0","37","NA","NA","0","37","NA","37","0","37","NA","NA","NA","37","0","0","NA","37","37","37","37","37","38","z","Mon Jun 12 18:32:04 2023","The main experiment item","yes","m21-ab-lexicalDecision.osexp","C:\Users\ekealey\Desktop","no","mono","no","18","no","white","no","yes","1080","legacy","37","37","C:/Users/ekealey/Desktop/subject-201.csv","xpyriment","Lentiform Loewenfeld","3.3.11","0","z","NA","NA","NA","NA","space","z","807","NA","NA","NA","NA","70063","807","2","legacy","1024","2","48000","-16","AB_m21","201","odd","FILL_NW","PLAODS","1952","234982","233005","225508","72025","NA","NA","NA","NA","NA","233505","NA","NA","NA","232504","NA","232480","1961","235232","NA","NA","NA","233545","1953","1953","NA","234353","234377","232480","233505","233525","morph21_Oliver/Morris","30","31681","38","yes","1920","37"
"200","79.48717948717949","79.48717948717949","829.3846153846154","829.3846153846154","black","no","xpyriment","legacy","legacy","0","208","NA","uniform","NA","NA","NA","1","undefined","1","0","38","38","38","0","38","38","38","NA","0","38","NA","NA","0","38","NA","38","0","38","NA","NA","NA","38","0","0","NA","38","38","38","38","38","39","z","Mon Jun 12 18:32:04 2023","The main experiment item","yes","m21-ab-lexicalDecision.osexp","C:\Users\ekealey\Desktop","no","mono","no","18","no","white","no","yes","1080","legacy","38","38","C:/Users/ekealey/Desktop/subject-201.csv","xpyriment","Lentiform Loewenfeld","3.3.11","0","z","NA","NA","NA","NA","space","z","665","NA","NA","NA","NA","70063","665","2","legacy","1024","2","48000","-16","AB_m21","201","odd","FILL_NW","HOITS","1952","240099","236763","238596","72025","NA","NA","NA","NA","NA","237263","NA","NA","NA","236262","NA","236233","1961","240299","NA","NA","NA","237303","1953","1953","NA","237969","237992","236233","237263","237283","morph21_Oliver/Morris","31","32346","39","yes","1920","30"
"250","77.5","77.5","838.65","838.65","black","no","xpyriment","legacy","legacy","0","203","NA","uniform","NA","NA","NA","0","undefined","0","0","39","39","39","0","39","39","39","NA","0","39","NA","NA","0","39","NA","39","0","39","NA","NA","NA","39","0","0","NA","39","39","39","39","39","40","z","Mon Jun 12 18:32:04 2023","The main experiment item","yes","m21-ab-lexicalDecision.osexp","C:\Users\ekealey\Desktop","no","mono","no","18","no","white","no","yes","1080","legacy","39","39","C:/Users/ekealey/Desktop/subject-201.csv","xpyriment","Lentiform Loewenfeld","3.3.11","0","None","NA","NA","NA","NA","space","None","1200","NA","NA","NA","NA","70063","1200","2","legacy","1024","2","48000","-16","AB_m21","201","odd","NW_S_COMP","TREASONIZE","1952","244171","241804","238596","72025","NA","NA","NA","NA","NA","242304","NA","NA","NA","241303","NA","241279","1961","244421","NA","NA","NA","242344","1953","1953","NA","243544","243567","241279","242304","242324","morph21_Oliver/Morris","31","33546","40","yes","1920","14"
"300","78.04878048780488","78.04878048780488","837.9756097560976","837.9756097560976","black","no","xpyriment","legacy","legacy","0","206","NA","uniform","NA","NA","NA","1","undefined","1","0","40","40","40","0","40","40","40","NA","0","40","NA","NA","0","40","NA","40","0","40","NA","NA","NA","40","0","0","NA","40","40","40","40","40","41","z","Mon Jun 12 18:32:04 2023","The main experiment item","yes","m21-ab-lexicalDecision.osexp","C:\Users\ekealey\Desktop","no","mono","no","18","no","white","no","yes","1080","legacy","40","40","C:/Users/ekealey/Desktop/subject-201.csv","xpyriment","Lentiform Loewenfeld","3.3.11","0","z","NA","NA","NA","NA","space","z","811","NA","NA","NA","NA","70063","811","2","legacy","1024","2","48000","-16","AB_m21","201","odd","NW_L_SIMP","PRAYANGE","1952","247899","245919","238596","72025","NA","NA","NA","NA","NA","246419","NA","NA","NA","245419","NA","245393","1961","248199","NA","NA","NA","246461","1953","1953","NA","247273","247296","245393","246419","246440","morph21_Oliver/Morris","32","34357","41","yes","1920","1"
"250","76.19047619047619","76.19047619047619","846.5952380952381","846.5952380952381","black","no","xpyriment","legacy","legacy","0","201","NA","uniform","NA","NA","NA","0","undefined","0","0","41","41","41","0","41","41","41","NA","0","41","NA","NA","0","41","NA","41","0","41","NA","NA","NA","41","0","0","NA","41","41","41","41","41","42","/","Mon Jun 12 18:32:04 2023","The main experiment item","yes","m21-ab-lexicalDecision.osexp","C:\Users\ekealey\Desktop","no","mono","no","18","no","white","no","yes","1080","legacy","41","41","C:/Users/ekealey/Desktop/subject-201.csv","xpyriment","Lentiform Loewenfeld","3.3.11","0","None","NA","NA","NA","NA","space","None","1200","NA","NA","NA","NA","70063","1200","2","legacy","1024","2","48000","-16","AB_m21","201","odd","CW_S","MILDNESS","1952","253570","249698","252064","72025","NA","NA","NA","NA","NA","250198","NA","NA","NA","249197","NA","249173","1961","253820","NA","NA","NA","250238","1953","1953","NA","251438","251461","249173","250198","250218","morph21_Oliver/Morris","32","35557","42","yes","1920","42"
"350","76.74418604651163","76.74418604651163","845.9069767441861","845.9069767441861","black","no","xpyriment","legacy","legacy","0","206","NA","uniform","NA","NA","NA","1","undefined","1","0","42","42","42","0","42","42","42","NA","0","42","NA","NA","0","42","NA","42","0","42","NA","NA","NA","42","0","0","NA","42","42","42","42","42","43","z","Mon Jun 12 18:32:04 2023","The main experiment item","yes","m21-ab-lexicalDecision.osexp","C:\Users\ekealey\Desktop","no","mono","no","18","no","white","no","yes","1080","legacy","42","42","C:/Users/ekealey/Desktop/subject-201.csv","xpyriment","Lentiform Loewenfeld","3.3.11","0","z","NA","NA","NA","NA","space","z","817","NA","NA","NA","NA","70063","817","2","legacy","1024","2","48000","-16","AB_m21","201","odd","NW_L_SIMP","HABITIG","1952","257324","255339","252064","72025","NA","NA","NA","NA","NA","255839","NA","NA","NA","254838","NA","254815","1961","257674","NA","NA","NA","255879","1953","1953","NA","256697","256721","254815","255839","255859","morph21_Oliver/Morris","33","36374","43","yes","1920","7"
"250","77.27272727272727","77.27272727272727","843.5","843.5","black","no","xpyriment","legacy","legacy","0","207","NA","uniform","NA","NA","NA","1","undefined","1","0","43","43","43","0","43","43","43","NA","0","43","NA","NA","0","43","NA","43","0","43","NA","NA","NA","43","0","0","NA","43","43","43","43","43","44","/","Mon Jun 12 18:32:04 2023","The main experiment item","yes","m21-ab-lexicalDecision.osexp","C:\Users\ekealey\Desktop","no","mono","no","18","no","white","no","yes","1080","legacy","43","43","C:/Users/ekealey/Desktop/subject-201.csv","xpyriment","Lentiform Loewenfeld","3.3.11","0","/","NA","NA","NA","NA","space","/","740","NA","NA","NA","NA","70063","740","2","legacy","1024","2","48000","-16","AB_m21","201","odd","FILL_W","FIERCE","1952","261100","259191","252064","72025","NA","NA","NA","NA","NA","259691","NA","NA","NA","258691","NA","258664","1961","261350","NA","NA","NA","259732","1953","1953","NA","260472","260497","258664","259691","259712","morph21_Oliver/Morris","34","37114","44","yes","1920","24"
"400","77.77777777777777","77.77777777777777","841.8","841.8","black","no","xpyriment","legacy","legacy","0","208","NA","uniform","NA","NA","NA","1","undefined","1","0","44","44","44","0","44","44","44","NA","0","44","NA","NA","0","44","NA","44","0","44","NA","NA","NA","44","0","0","NA","44","44","44","44","44","45","z","Mon Jun 12 18:32:04 2023","The main experiment item","yes","m21-ab-lexicalDecision.osexp","C:\Users\ekealey\Desktop","no","mono","no","18","no","white","no","yes","1080","legacy","44","44","C:/Users/ekealey/Desktop/subject-201.csv","xpyriment","Lentiform Loewenfeld","3.3.11","0","z","NA","NA","NA","NA","space","z","767","NA","NA","NA","NA","70063","767","2","legacy","1024","2","48000","-16","AB_m21","201","odd","FILL_NW","BORMS","1952","266293","262852","264789","72025","NA","NA","NA","NA","NA","263353","NA","NA","NA","262351","NA","262325","1961","266693","NA","NA","NA","263393","1953","1953","NA","264161","264186","262325","263353","263373","morph21_Oliver/Morris","35","37881","45","yes","1920","50"
"300","78.26086956521739","78.26086956521739","840","840","black","no","xpyriment","legacy","legacy","0","206","NA","uniform","NA","NA","NA","1","undefined","1","0","45","45","45","0","45","45","45","NA","0","45","NA","NA","0","45","NA","45","0","45","NA","NA","NA","45","0","0","NA","45","45","45","45","45","46","z","Mon Jun 12 18:32:04 2023","The main experiment item","yes","m21-ab-lexicalDecision.osexp","C:\Users\ekealey\Desktop","no","mono","no","18","no","white","no","yes","1080","legacy","45","45","C:/Users/ekealey/Desktop/subject-201.csv","xpyriment","Lentiform Loewenfeld","3.3.11","0","z","NA","NA","NA","NA","space","z","759","NA","NA","NA","NA","70063","759","2","legacy","1024","2","48000","-16","AB_m21","201","odd","NW_L_SIMP","BANDADY","1952","270118","268189","264789","72025","NA","NA","NA","NA","NA","268689","NA","NA","NA","267688","NA","267663","1961","270418","NA","NA","NA","268729","1953","1953","NA","269489","269514","267663","268689","268709","morph21_Oliver/Morris","36","38640","46","yes","1920","3"
"400","78.72340425531915","78.72340425531915","841.9787234042553","841.9787234042553","black","no","xpyriment","legacy","legacy","0","204","NA","uniform","NA","NA","NA","1","undefined","1","0","46","46","46","0","46","46","46","NA","0","46","NA","NA","0","46","NA","46","0","46","NA","NA","NA","46","0","0","NA","46","46","46","46","46","47","z","Mon Jun 12 18:32:04 2023","The main experiment item","yes","m21-ab-lexicalDecision.osexp","C:\Users\ekealey\Desktop","no","mono","no","18","no","white","no","yes","1080","legacy","46","46","C:/Users/ekealey/Desktop/subject-201.csv","xpyriment","Lentiform Loewenfeld","3.3.11","0","z","NA","NA","NA","NA","space","z","933","NA","NA","NA","NA","70063","933","2","legacy","1024","2","48000","-16","AB_m21","201","odd","NW_L_COMP","RIPENCE","1952","274020","271917","264789","72025","NA","NA","NA","NA","NA","272419","NA","NA","NA","271417","NA","271390","1961","274420","NA","NA","NA","272459","1953","1953","NA","273392","273417","271390","272419","272439","morph21_Oliver/Morris","37","39573","47","yes","1920","4"
"200","79.16666666666667","79.16666666666667","838.7708333333334","838.7708333333334","black","no","xpyriment","legacy","legacy","0","207","NA","uniform","NA","NA","NA","1","undefined","1","0","47","47","47","0","47","47","47","NA","0","47","NA","NA","0","47","NA","47","0","47","NA","NA","NA","47","0","0","NA","47","47","47","47","47","48","/","Mon Jun 12 18:32:04 2023","The main experiment item","yes","m21-ab-lexicalDecision.osexp","C:\Users\ekealey\Desktop","no","mono","no","18","no","white","no","yes","1080","legacy","47","47","C:/Users/ekealey/Desktop/subject-201.csv","xpyriment","Lentiform Loewenfeld","3.3.11","0","/","NA","NA","NA","NA","space","/","688","NA","NA","NA","NA","70063","688","2","legacy","1024","2","48000","-16","AB_m21","201","odd","FILL_W","BRASS","1952","279287","275923","277784","72025","NA","NA","NA","NA","NA","276423","NA","NA","NA","275423","NA","275397","1961","279487","NA","NA","NA","276464","1953","1953","NA","277153","277179","275397","276423","276444","morph21_Oliver/Morris","38","40261","48","yes","1920","10"
"300","79.59183673469387","79.59183673469387","837.3265306122449","837.3265306122449","black","no","xpyriment","legacy","legacy","0","208","NA","uniform","NA","NA","NA","1","undefined","1","0","48","48","48","0","48","48","48","NA","0","48","NA","NA","0","48","NA","48","0","48","NA","NA","NA","48","0","0","NA","48","48","48","48","48","49","z","Mon Jun 12 18:32:04 2023","The main experiment item","yes","m21-ab-lexicalDecision.osexp","C:\Users\ekealey\Desktop","no","mono","no","18","no","white","no","yes","1080","legacy","48","48","C:/Users/ekealey/Desktop/subject-201.csv","xpyriment","Lentiform Loewenfeld","3.3.11","0","z","NA","NA","NA","NA","space","z","768","NA","NA","NA","NA","70063","768","2","legacy","1024","2","48000","-16","AB_m21","201","odd","FILL_NW","DULKS","1952","282923","280986","277784","72025","NA","NA","NA","NA","NA","281488","NA","NA","NA","280486","NA","280460","1961","283224","NA","NA","NA","281528","1953","1953","NA","282296","282320","280460","281487","281508","morph21_Oliver/Morris","39","41029","49","yes","1920","18"
"350","80","80","843.3","843.3","black","no","xpyriment","legacy","legacy","0","204","NA","uniform","NA","NA","NA","1","undefined","1","0","49","49","49","0","49","49","49","NA","0","49","NA","NA","0","49","NA","49","0","49","NA","NA","NA","49","0","0","NA","49","49","49","49","49","50","z","Mon Jun 12 18:32:04 2023","The main experiment item","yes","m21-ab-lexicalDecision.osexp","C:\Users\ekealey\Desktop","no","mono","no","18","no","white","no","yes","1080","legacy","49","49","C:/Users/ekealey/Desktop/subject-201.csv","xpyriment","Lentiform Loewenfeld","3.3.11","0","z","NA","NA","NA","NA","space","z","1136","NA","NA","NA","NA","70063","1136","2","legacy","1024","2","48000","-16","AB_m21","201","odd","NW_L_COMP","AGREELY","1952","287036","284731","277784","72025","NA","NA","NA","NA","NA","285231","NA","NA","NA","284231","NA","284204","1961","287387","NA","NA","NA","285272","1953","1953","NA","286409","286433","284204","285231","285252","morph21_Oliver/Morris","40","42165","50","yes","1920","24"
"250","80.3921568627451","80.3921568627451","843.2941176470588","843.2941176470588","black","no","xpyriment","legacy","legacy","0","207","NA","uniform","NA","NA","NA","1","undefined","1","0","50","50","50","0","50","50","50","NA","0","50","NA","NA","0","50","NA","50","0","50","NA","NA","NA","50","0","0","NA","50","50","50","50","50","51","/","Mon Jun 12 18:32:04 2023","The main experiment item","yes","m21-ab-lexicalDecision.osexp","C:\Users\ekealey\Desktop","no","mono","no","18","no","white","no","yes","1080","legacy","50","50","C:/Users/ekealey/Desktop/subject-201.csv","xpyriment","Lentiform Loewenfeld","3.3.11","0","/","NA","NA","NA","NA","space","/","843","NA","NA","NA","NA","70063","843","2","legacy","1024","2","48000","-16","AB_m21","201","odd","FILL_W","WEAVE","1952","292403","288888","290899","72025","NA","NA","NA","NA","NA","289388","NA","NA","NA","288388","NA","288361","1961","292653","NA","NA","NA","289429","1953","1953","NA","290272","290296","288361","289388","289409","morph21_Oliver/Morris","41","43008","51","yes","1920","12"
"200","80.76923076923077","80.76923076923077","840.5384615384615","840.5384615384615","black","no","xpyriment","legacy","legacy","0","207","NA","uniform","NA","NA","NA","1","undefined","1","0","51","51","51","0","51","51","51","NA","0","51","NA","NA","0","51","NA","51","0","51","NA","NA","NA","51","0","0","NA","51","51","51","51","51","52","/","Mon Jun 12 18:32:04 2023","The main experiment item","yes","m21-ab-lexicalDecision.osexp","C:\Users\ekealey\Desktop","no","mono","no","18","no","white","no","yes","1080","legacy","51","51","C:/Users/ekealey/Desktop/subject-201.csv","xpyriment","Lentiform Loewenfeld","3.3.11","0","/","NA","NA","NA","NA","space","/","700","NA","NA","NA","NA","70063","700","2","legacy","1024","2","48000","-16","AB_m21","201","odd","FILL_W","OLD","1952","296051","294182","290899","72025","NA","NA","NA","NA","NA","294682","NA","NA","NA","293681","NA","293652","1961","296251","NA","NA","NA","294723","1953","1953","NA","295424","295448","293652","294682","294703","morph21_Oliver/Morris","42","43708","52","yes","1920","44"
"350","79.24528301886792","79.24528301886792","847.3207547169811","847.3207547169811","black","no","xpyriment","legacy","legacy","0","201","NA","uniform","NA","NA","NA","0","undefined","0","0","52","52","52","0","52","52","52","NA","0","52","NA","NA","0","52","NA","52","0","52","NA","NA","NA","52","0","0","NA","52","52","52","52","52","53","/","Mon Jun 12 18:32:04 2023","The main experiment item","yes","m21-ab-lexicalDecision.osexp","C:\Users\ekealey\Desktop","no","mono","no","18","no","white","no","yes","1080","legacy","52","52","C:/Users/ekealey/Desktop/subject-201.csv","xpyriment","Lentiform Loewenfeld","3.3.11","0","None","NA","NA","NA","NA","space","None","1200","NA","NA","NA","NA","70063","1200","2","legacy","1024","2","48000","-16","AB_m21","201","odd","CW_S","BEARDED","1952","300120","297752","290899","72025","NA","NA","NA","NA","NA","298252","NA","NA","NA","297252","NA","297225","1961","300470","NA","NA","NA","298293","1953","1953","NA","299493","299517","297225","298252","298273","morph21_Oliver/Morris","42","44908","53","yes","1920","8"
"300","77.77777777777777","77.77777777777777","853.8518518518518","853.8518518518518","black","no","xpyriment","legacy","legacy","0","202","NA","uniform","NA","NA","NA","0","undefined","0","0","53","53","53","0","53","53","53","NA","0","53","NA","NA","0","53","NA","53","0","53","NA","NA","NA","53","0","0","NA","53","53","53","53","53","54","/","Mon Jun 12 18:32:04 2023","The main experiment item","yes","m21-ab-lexicalDecision.osexp","C:\Users\ekealey\Desktop","no","mono","no","18","no","white","no","yes","1080","legacy","53","53","C:/Users/ekealey/Desktop/subject-201.csv","xpyriment","Lentiform Loewenfeld","3.3.11","0","None","NA","NA","NA","NA","space","None","1200","NA","NA","NA","NA","70063","1200","2","legacy","1024","2","48000","-16","AB_m21","201","odd","CW_L","DAMPISH","1952","305837","301964","304332","72025","NA","NA","NA","NA","NA","302464","NA","NA","NA","301464","NA","301436","1961","306137","NA","NA","NA","302505","1953","1953","NA","303705","303728","301436","302464","302485","morph21_Oliver/Morris","42","46108","54","yes","1920","28"
"400","76.36363636363636","76.36363636363636","860.1454545454545","860.1454545454545","black","no","xpyriment","legacy","legacy","0","207","NA","uniform","NA","NA","NA","0","undefined","0","0","54","54","54","0","54","54","54","NA","0","54","NA","NA","0","54","NA","54","0","54","NA","NA","NA","54","0","0","NA","54","54","54","54","54","55","/","Mon Jun 12 18:32:04 2023","The main experiment item","yes","m21-ab-lexicalDecision.osexp","C:\Users\ekealey\Desktop","no","mono","no","18","no","white","no","yes","1080","legacy","54","54","C:/Users/ekealey/Desktop/subject-201.csv","xpyriment","Lentiform Loewenfeld","3.3.11","0","None","NA","NA","NA","NA","space","None","1200","NA","NA","NA","NA","70063","1200","2","legacy","1024","2","48000","-16","AB_m21","201","odd","FILL_W","STEEP","1952","310016","307646","304332","72025","NA","NA","NA","NA","NA","308147","NA","NA","NA","307143","NA","307120","1961","310416","NA","NA","NA","308188","1953","1953","NA","309388","309413","307120","308147","308168","morph21_Oliver/Morris","42","47308","55","yes","1920","16"
"400","76.78571428571429","76.78571428571429","856.6964285714286","856.6964285714286","black","no","xpyriment","legacy","legacy","0","202","NA","uniform","NA","NA","NA","1","undefined","1","0","55","55","55","0","55","55","55","NA","0","55","NA","NA","0","55","NA","55","0","55","NA","NA","NA","55","0","0","NA","55","55","55","55","55","56","/","Mon Jun 12 18:32:04 2023","The main experiment item","yes","m21-ab-lexicalDecision.osexp","C:\Users\ekealey\Desktop","no","mono","no","18","no","white","no","yes","1080","legacy","55","55","C:/Users/ekealey/Desktop/subject-201.csv","xpyriment","Lentiform Loewenfeld","3.3.11","0","/","NA","NA","NA","NA","space","/","667","NA","NA","NA","NA","70063","667","2","legacy","1024","2","48000","-16","AB_m21","201","odd","CW_L","STYLISH","1952","313755","311920","304332","72025","NA","NA","NA","NA","NA","312420","NA","NA","NA","311420","NA","311394","1961","314155","NA","NA","NA","312461","1953","1953","NA","313128","313152","311394","312420","312441","morph21_Oliver/Morris","43","47975","56","yes","1920","29"
"250","77.19298245614036","77.19298245614036","853.3157894736842","853.3157894736842","black","no","xpyriment","legacy","legacy","0","201","NA","uniform","NA","NA","NA","1","undefined","1","0","56","56","56","0","56","56","56","NA","0","56","NA","NA","0","56","NA","56","0","56","NA","NA","NA","56","0","0","NA","56","56","56","56","56","57","/","Mon Jun 12 18:32:04 2023","The main experiment item","yes","m21-ab-lexicalDecision.osexp","C:\Users\ekealey\Desktop","no","mono","no","18","no","white","no","yes","1080","legacy","56","56","C:/Users/ekealey/Desktop/subject-201.csv","xpyriment","Lentiform Loewenfeld","3.3.11","0","/","NA","NA","NA","NA","space","/","664","NA","NA","NA","NA","70063","664","2","legacy","1024","2","48000","-16","AB_m21","201","odd","CW_S","MOSSY","1952","318994","315660","317491","72025","NA","NA","NA","NA","NA","316160","NA","NA","NA","315159","NA","315132","1961","319244","NA","NA","NA","316200","1953","1953","NA","316864","316888","315132","316160","316180","morph21_Oliver/Morris","44","48639","57","yes","1920","47"
"400","77.58620689655173","77.58620689655173","855.3965517241379","855.3965517241379","black","no","xpyriment","legacy","legacy","0","201","NA","uniform","NA","NA","NA","1","undefined","1","0","57","57","57","0","57","57","57","NA","0","57","NA","NA","0","57","NA","57","0","57","NA","NA","NA","57","0","0","NA","57","57","57","57","57","58","/","Mon Jun 12 18:32:04 2023","The main experiment item","yes","m21-ab-lexicalDecision.osexp","C:\Users\ekealey\Desktop","no","mono","no","18","no","white","no","yes","1080","legacy","57","57","C:/Users/ekealey/Desktop/subject-201.csv","xpyriment","Lentiform Loewenfeld","3.3.11","0","/","NA","NA","NA","NA","space","/","974","NA","NA","NA","NA","70063","974","2","legacy","1024","2","48000","-16","AB_m21","201","odd","CW_S","EFFORTLESS","1952","322909","320766","317491","72025","NA","NA","NA","NA","NA","321266","NA","NA","NA","320266","NA","320242","1961","323309","NA","NA","NA","321306","1953","1953","NA","322281","322305","320242","321266","321286","morph21_Oliver/Morris","45","49613","58","yes","1920","30"
"250","77.96610169491525","77.96610169491525","850.6101694915254","850.6101694915254","black","no","xpyriment","legacy","legacy","0","207","NA","uniform","NA","NA","NA","1","undefined","1","0","58","58","58","0","58","58","58","NA","0","58","NA","NA","0","58","NA","58","0","58","NA","NA","NA","58","0","0","NA","58","58","58","58","58","59","/","Mon Jun 12 18:32:04 2023","The main experiment item","yes","m21-ab-lexicalDecision.osexp","C:\Users\ekealey\Desktop","no","mono","no","18","no","white","no","yes","1080","legacy","58","58","C:/Users/ekealey/Desktop/subject-201.csv","xpyriment","Lentiform Loewenfeld","3.3.11","0","/","NA","NA","NA","NA","space","/","573","NA","NA","NA","NA","70063","573","2","legacy","1024","2","48000","-16","AB_m21","201","odd","FILL_W","SOFT","1952","326549","324806","317491","72025","NA","NA","NA","NA","NA","325306","NA","NA","NA","324305","NA","324282","1961","326799","NA","NA","NA","325347","1953","1953","NA","325921","325945","324282","325306","325327","morph21_Oliver/Morris","46","50186","59","yes","1920","43"
"200","78.33333333333333","78.33333333333333","851.75","851.75","black","no","xpyriment","legacy","legacy","0","203","NA","uniform","NA","NA","NA","1","undefined","1","0","59","59","59","0","59","59","59","NA","0","59","NA","NA","0","59","NA","59","0","59","NA","NA","NA","59","0","0","NA","59","59","59","59","59","60","z","Mon Jun 12 18:32:04 2023","The main experiment item","yes","m21-ab-lexicalDecision.osexp","C:\Users\ekealey\Desktop","no","mono","no","18","no","white","no","yes","1080","legacy","59","59","C:/Users/ekealey/Desktop/subject-201.csv","xpyriment","Lentiform Loewenfeld","3.3.11","0","z","NA","NA","NA","NA","space","z","919","NA","NA","NA","NA","70063","919","2","legacy","1024","2","48000","-16","AB_m21","201","odd","NW_S_COMP","ADOPTILP","1952","331894","328301","330388","72025","NA","NA","NA","NA","NA","328801","NA","NA","NA","327801","NA","327777","1961","332094","NA","NA","NA","328841","1953","1953","NA","329761","329785","327777","328801","328821","morph21_Oliver/Morris","47","51105","60","yes","1920","19"
"250","78.68852459016394","78.68852459016394","848.7213114754098","848.7213114754098","black","no","xpyriment","legacy","legacy","0","201","NA","uniform","NA","NA","NA","1","undefined","1","0","60","60","60","0","60","60","60","NA","0","60","NA","NA","0","60","NA","60","0","60","NA","NA","NA","60","0","0","NA","60","60","60","60","60","61","/","Mon Jun 12 18:32:04 2023","The main experiment item","yes","m21-ab-lexicalDecision.osexp","C:\Users\ekealey\Desktop","no","mono","no","18","no","white","no","yes","1080","legacy","60","60","C:/Users/ekealey/Desktop/subject-201.csv","xpyriment","Lentiform Loewenfeld","3.3.11","0","/","NA","NA","NA","NA","space","/","667","NA","NA","NA","NA","70063","667","2","legacy","1024","2","48000","-16","AB_m21","201","odd","CW_S","SEEKER","1952","335445","333607","330388","72025","NA","NA","NA","NA","NA","334109","NA","NA","NA","333105","NA","333080","1961","335695","NA","NA","NA","334149","1953","1953","NA","334817","334841","333080","334108","334129","morph21_Oliver/Morris","48","51772","61","yes","1920","16"
"300","77.41935483870968","77.41935483870968","851.3870967741935","851.3870967741935","black","no","xpyriment","legacy","legacy","0","202","NA","uniform","NA","NA","NA","0","undefined","0","0","61","61","61","0","61","61","61","NA","0","61","NA","NA","0","61","NA","61","0","61","NA","NA","NA","61","0","0","NA","61","61","61","61","61","62","/","Mon Jun 12 18:32:04 2023","The main experiment item","yes","m21-ab-lexicalDecision.osexp","C:\Users\ekealey\Desktop","no","mono","no","18","no","white","no","yes","1080","legacy","61","61","C:/Users/ekealey/Desktop/subject-201.csv","xpyriment","Lentiform Loewenfeld","3.3.11","0","z","NA","NA","NA","NA","space","z","1014","NA","NA","NA","NA","70063","1014","2","legacy","1024","2","48000","-16","AB_m21","201","odd","CW_L","WEEDY","1952","339380","337198","330388","72025","NA","NA","NA","NA","NA","337698","NA","NA","NA","336698","NA","336674","1961","339681","NA","NA","NA","337738","1953","1953","NA","338753","338776","336674","337698","337718","morph21_Oliver/Morris","48","52786","62","yes","1920","48"
"250","77.77777777777777","77.77777777777777","847.2857142857143","847.2857142857143","black","no","xpyriment","legacy","legacy","0","202","NA","uniform","NA","NA","NA","1","undefined","1","0","62","62","62","0","62","62","62","NA","0","62","NA","NA","0","62","NA","62","0","62","NA","NA","NA","62","0","0","NA","62","62","62","62","62","63","/","Mon Jun 12 18:32:04 2023","The main experiment item","yes","m21-ab-lexicalDecision.osexp","C:\Users\ekealey\Desktop","no","mono","no","18","no","white","no","yes","1080","legacy","62","62","C:/Users/ekealey/Desktop/subject-201.csv","xpyriment","Lentiform Loewenfeld","3.3.11","0","/","NA","NA","NA","NA","space","/","593","NA","NA","NA","NA","70063","593","2","legacy","1024","2","48000","-16","AB_m21","201","odd","CW_L","FLEXIBLE","1952","344454","341186","342951","72025","NA","NA","NA","NA","NA","341687","NA","NA","NA","340684","NA","340659","1961","344704","NA","NA","NA","341727","1953","1953","NA","342321","342346","340659","341687","341707","morph21_Oliver/Morris","49","53379","63","yes","1920","22"
"250","78.125","78.125","850.453125","850.453125","black","no","xpyriment","legacy","legacy","0","206","NA","uniform","NA","NA","NA","1","undefined","1","0","63","63","63","0","63","63","63","NA","0","63","NA","NA","0","63","NA","63","0","63","NA","NA","NA","63","0","0","NA","63","63","63","63","63","64","z","Mon Jun 12 18:32:04 2023","The main experiment item","yes","m21-ab-lexicalDecision.osexp","C:\Users\ekealey\Desktop","no","mono","no","18","no","white","no","yes","1080","legacy","63","63","C:/Users/ekealey/Desktop/subject-201.csv","xpyriment","Lentiform Loewenfeld","3.3.11","0","z","NA","NA","NA","NA","space","z","1050","NA","NA","NA","NA","70063","1050","2","legacy","1024","2","48000","-16","AB_m21","201","odd","NW_L_SIMP","BEARILT","1952","348419","346201","342951","72025","NA","NA","NA","NA","NA","346701","NA","NA","NA","345700","NA","345676","1961","348670","NA","NA","NA","346742","1953","1953","NA","347792","347816","345676","346701","346722","morph21_Oliver/Morris","50","54429","64","yes","1920","25"
"200","78.46153846153847","78.46153846153847","848.2307692307693","848.2307692307693","black","no","xpyriment","legacy","legacy","0","201","NA","uniform","NA","NA","NA","1","undefined","1","0","64","64","64","0","64","64","64","NA","0","64","NA","NA","0","64","NA","64","0","64","NA","NA","NA","64","0","0","NA","64","64","64","64","64","65","/","Mon Jun 12 18:32:04 2023","The main experiment item","yes","m21-ab-lexicalDecision.osexp","C:\Users\ekealey\Desktop","no","mono","no","18","no","white","no","yes","1080","legacy","64","64","C:/Users/ekealey/Desktop/subject-201.csv","xpyriment","Lentiform Loewenfeld","3.3.11","0","/","NA","NA","NA","NA","space","/","706","NA","NA","NA","NA","70063","706","2","legacy","1024","2","48000","-16","AB_m21","201","odd","CW_S","LOCALLY","1952","352061","350185","342951","72025","NA","NA","NA","NA","NA","350686","NA","NA","NA","349685","NA","349657","1961","352261","NA","NA","NA","350726","1953","1953","NA","351433","351458","349657","350686","350706","morph21_Oliver/Morris","51","55135","65","yes","1920","37"
"250","78.78787878787878","78.78787878787878","849.4090909090909","849.4090909090909","black","no","xpyriment","legacy","legacy","0","204","NA","uniform","NA","NA","NA","1","undefined","1","0","65","65","65","0","65","65","65","NA","0","65","NA","NA","0","65","NA","65","0","65","NA","NA","NA","65","0","0","NA","65","65","65","65","65","66","z","Mon Jun 12 18:32:04 2023","The main experiment item","yes","m21-ab-lexicalDecision.osexp","C:\Users\ekealey\Desktop","no","mono","no","18","no","white","no","yes","1080","legacy","65","65","C:/Users/ekealey/Desktop/subject-201.csv","xpyriment","Lentiform Loewenfeld","3.3.11","0","z","NA","NA","NA","NA","space","z","926","NA","NA","NA","NA","70063","926","2","legacy","1024","2","48000","-16","AB_m21","201","odd","NW_L_COMP","MUDLY","1952","357365","353766","355861","72025","NA","NA","NA","NA","NA","354266","NA","NA","NA","353265","NA","353241","1961","357616","NA","NA","NA","354306","1953","1953","NA","355233","355257","353241","354266","354286","morph21_Oliver/Morris","52","56061","66","yes","1920","12"
"350","79.1044776119403","79.1044776119403","853.1641791044776","853.1641791044776","black","no","xpyriment","legacy","legacy","0","202","NA","uniform","NA","NA","NA","1","undefined","1","0","66","66","66","0","66","66","66","NA","0","66","NA","NA","0","66","NA","66","0","66","NA","NA","NA","66","0","0","NA","66","66","66","66","66","67","/","Mon Jun 12 18:32:04 2023","The main experiment item","yes","m21-ab-lexicalDecision.osexp","C:\Users\ekealey\Desktop","no","mono","no","18","no","white","no","yes","1080","legacy","66","66","C:/Users/ekealey/Desktop/subject-201.csv","xpyriment","Lentiform Loewenfeld","3.3.11","0","/","NA","NA","NA","NA","space","/","1101","NA","NA","NA","NA","70063","1101","2","legacy","1024","2","48000","-16","AB_m21","201","odd","CW_L","BOMBER","1952","361404","359135","355861","72025","NA","NA","NA","NA","NA","359635","NA","NA","NA","358635","NA","358604","1961","361754","NA","NA","NA","359675","1953","1953","NA","360777","360801","358604","359635","359655","morph21_Oliver/Morris","53","57162","67","yes","1920","7"
"200","79.41176470588235","79.41176470588235","851.0882352941177","851.0882352941177","black","no","xpyriment","legacy","legacy","0","208","NA","uniform","NA","NA","NA","1","undefined","1","0","67","67","67","0","67","67","67","NA","0","67","NA","NA","0","67","NA","67","0","67","NA","NA","NA","67","0","0","NA","67","67","67","67","67","68","z","Mon Jun 12 18:32:04 2023","The main experiment item","yes","m21-ab-lexicalDecision.osexp","C:\Users\ekealey\Desktop","no","mono","no","18","no","white","no","yes","1080","legacy","67","67","C:/Users/ekealey/Desktop/subject-201.csv","xpyriment","Lentiform Loewenfeld","3.3.11","0","z","NA","NA","NA","NA","space","z","712","NA","NA","NA","NA","70063","712","2","legacy","1024","2","48000","-16","AB_m21","201","odd","FILL_NW","FROT","1952","365141","363259","355861","72025","NA","NA","NA","NA","NA","363759","NA","NA","NA","362759","NA","362728","1961","365341","NA","NA","NA","363800","1953","1953","NA","364512","364537","362728","363759","363780","morph21_Oliver/Morris","54","57874","68","yes","1920","22"
"300","78.26086956521739","78.26086956521739","856.1449275362319","856.1449275362319","black","no","xpyriment","legacy","legacy","0","202","NA","uniform","NA","NA","NA","0","undefined","0","0","68","68","68","0","68","68","68","NA","0","68","NA","NA","0","68","NA","68","0","68","NA","NA","NA","68","0","0","NA","68","68","68","68","68","69","/","Mon Jun 12 18:32:04 2023","The main experiment item","yes","m21-ab-lexicalDecision.osexp","C:\Users\ekealey\Desktop","no","mono","no","18","no","white","no","yes","1080","legacy","68","68","C:/Users/ekealey/Desktop/subject-201.csv","xpyriment","Lentiform Loewenfeld","3.3.11","0","None","NA","NA","NA","NA","space","None","1200","NA","NA","NA","NA","70063","1200","2","legacy","1024","2","48000","-16","AB_m21","201","odd","CW_L","KNOCKER","1952","370730","366859","369225","72025","NA","NA","NA","NA","NA","367359","NA","NA","NA","366359","NA","366330","1961","371030","NA","NA","NA","367399","1953","1953","NA","368599","368622","366330","367359","367379","morph21_Oliver/Morris","54","59074","69","yes","1920","4"
"400","78.57142857142857","78.57142857142857","852.0142857142857","852.0142857142857","black","no","xpyriment","legacy","legacy","0","201","NA","uniform","NA","NA","NA","1","undefined","1","0","69","69","69","0","69","69","69","NA","0","69","NA","NA","0","69","NA","69","0","69","NA","NA","NA","69","0","0","NA","69","69","69","69","69","70","/","Mon Jun 12 18:32:04 2023","The main experiment item","yes","m21-ab-lexicalDecision.osexp","C:\Users\ekealey\Desktop","no","mono","no","18","no","white","no","yes","1080","legacy","69","69","C:/Users/ekealey/Desktop/subject-201.csv","xpyriment","Lentiform Loewenfeld","3.3.11","0","/","NA","NA","NA","NA","space","/","567","NA","NA","NA","NA","70063","567","2","legacy","1024","2","48000","-16","AB_m21","201","odd","CW_S","DESIGN","1952","374279","372540","369225","72025","NA","NA","NA","NA","NA","373040","NA","NA","NA","372038","NA","372015","1961","374679","NA","NA","NA","373081","1953","1953","NA","373649","373674","372015","373040","373061","morph21_Oliver/Morris","55","59641","70","yes","1920","19"
"350","78.87323943661971","78.87323943661971","848.8450704225352","848.8450704225352","black","no","xpyriment","legacy","legacy","0","202","NA","uniform","NA","NA","NA","1","undefined","1","0","70","70","70","0","70","70","70","NA","0","70","NA","NA","0","70","NA","70","0","70","NA","NA","NA","70","0","0","NA","70","70","70","70","70","71","/","Mon Jun 12 18:32:04 2023","The main experiment item","yes","m21-ab-lexicalDecision.osexp","C:\Users\ekealey\Desktop","no","mono","no","18","no","white","no","yes","1080","legacy","70","70","C:/Users/ekealey/Desktop/subject-201.csv","xpyriment","Lentiform Loewenfeld","3.3.11","0","/","NA","NA","NA","NA","space","/","627","NA","NA","NA","NA","70063","627","2","legacy","1024","2","48000","-16","AB_m21","201","odd","CW_L","EDITOR","1952","377982","376184","369225","72025","NA","NA","NA","NA","NA","376684","NA","NA","NA","375684","NA","375658","1961","378332","NA","NA","NA","376725","1953","1953","NA","377353","377378","375658","376684","376705","morph21_Oliver/Morris","56","60268","71","yes","1920","45"
"250","77.77777777777777","77.77777777777777","853.7222222222222","853.7222222222222","black","no","xpyriment","legacy","legacy","0","207","NA","uniform","NA","NA","NA","0","undefined","0","0","71","71","71","0","71","71","71","NA","0","71","NA","NA","0","71","NA","71","0","71","NA","NA","NA","71","0","0","NA","71","71","71","71","71","72","/","Mon Jun 12 18:32:04 2023","The main experiment item","yes","m21-ab-lexicalDecision.osexp","C:\Users\ekealey\Desktop","no","mono","no","18","no","white","no","yes","1080","legacy","71","71","C:/Users/ekealey/Desktop/subject-201.csv","xpyriment","Lentiform Loewenfeld","3.3.11","0","None","NA","NA","NA","NA","space","None","1200","NA","NA","NA","NA","70063","1200","2","legacy","1024","2","48000","-16","AB_m21","201","odd","FILL_W","PACK","1952","383728","379856","382224","72025","NA","NA","NA","NA","NA","380356","NA","NA","NA","379356","NA","379328","1961","383978","NA","NA","NA","380397","1953","1953","NA","381597","381621","379328","380356","380376","morph21_Oliver/Morris","56","61468","72","yes","1920","41"
"200","78.08219178082192","78.08219178082192","858.2054794520548","858.2054794520548","black","no","xpyriment","legacy","legacy","0","207","NA","uniform","NA","NA","NA","1","undefined","1","0","72","72","72","0","72","72","72","NA","0","72","NA","NA","0","72","NA","72","0","72","NA","NA","NA","72","0","0","NA","72","72","72","72","72","73","/","Mon Jun 12 18:32:04 2023","The main experiment item","yes","m21-ab-lexicalDecision.osexp","C:\Users\ekealey\Desktop","no","mono","no","18","no","white","no","yes","1080","legacy","72","72","C:/Users/ekealey/Desktop/subject-201.csv","xpyriment","Lentiform Loewenfeld","3.3.11","0","/","NA","NA","NA","NA","space","/","1181","NA","NA","NA","NA","70063","1181","2","legacy","1024","2","48000","-16","AB_m21","201","odd","FILL_W","FLESH","1952","387846","385494","382224","72025","NA","NA","NA","NA","NA","385994","NA","NA","NA","384994","NA","384967","1961","388046","NA","NA","NA","386035","1953","1953","NA","387216","387242","384967","385994","386015","morph21_Oliver/Morris","57","62649","73","yes","1920","32"
"400","78.37837837837837","78.37837837837837","861.5","861.5","black","no","xpyriment","legacy","legacy","0","205","NA","uniform","NA","NA","NA","1","undefined","1","0","73","73","73","0","73","73","73","NA","0","73","NA","NA","0","73","NA","73","0","73","NA","NA","NA","73","0","0","NA","73","73","73","73","73","74","z","Mon Jun 12 18:32:04 2023","The main experiment item","yes","m21-ab-lexicalDecision.osexp","C:\Users\ekealey\Desktop","no","mono","no","18","no","white","no","yes","1080","legacy","73","73","C:/Users/ekealey/Desktop/subject-201.csv","xpyriment","Lentiform Loewenfeld","3.3.11","0","z","NA","NA","NA","NA","space","z","1102","NA","NA","NA","NA","70063","1102","2","legacy","1024","2","48000","-16","AB_m21","201","odd","NW_S_SIMP","ADVERTISELA","1952","391827","389556","382224","72025","NA","NA","NA","NA","NA","390057","NA","NA","NA","389056","NA","389030","1961","392227","NA","NA","NA","390098","1953","1953","NA","391201","391224","389030","390057","390078","morph21_Oliver/Morris","58","63751","74","yes","1920","25"
"200","78.66666666666667","78.66666666666667","859.68","859.68","black","no","xpyriment","legacy","legacy","0","207","NA","uniform","NA","NA","NA","undefined","undefined","1","0","74","74","74","0","74","74","74","NA","0","74","NA","NA","0","74","NA","74","0","74","NA","NA","NA","74","0","0","NA","74","74","74","74","74","75","/","Mon Jun 12 18:32:04 2023","The main experiment item","yes","m21-ab-lexicalDecision.osexp","C:\Users\ekealey\Desktop","no","mono","no","18","no","white","no","yes","1080","legacy","74","74","C:/Users/ekealey/Desktop/subject-201.csv","xpyriment","Lentiform Loewenfeld","3.3.11","0","space","space","NA","NA","NA","space","/","8249","8249","NA","NA","NA","70063","725","2","legacy","1024","2","48000","-16","AB_m21","201","odd","FILL_W","GOLF","1952","397130","393734","395627","72025","397335","NA","NA","NA","NA","394234","NA","NA","NA","393233","NA","393210","1961","405584","NA","NA","NA","394275","1953","1953","NA","395001","395024","393210","394234","394255","morph21_Oliver/Morris","59","64476","75","yes","1920","28"
"250","77.63157894736842","77.63157894736842","864.1578947368421","864.1578947368421","black","no","xpyriment","legacy","legacy","0","202","NA","uniform","NA","NA","NA","0","undefined","0","0","75","75","75","0","75","75","75","NA","0","75","NA","NA","0","75","NA","75","0","75","NA","NA","NA","75","0","0","NA","75","75","75","75","75","76","/","Mon Jun 12 18:32:04 2023","The main experiment item","yes","m21-ab-lexicalDecision.osexp","C:\Users\ekealey\Desktop","no","mono","no","18","no","white","no","yes","1080","legacy","75","75","C:/Users/ekealey/Desktop/subject-201.csv","xpyriment","Lentiform Loewenfeld","3.3.11","0","None","space","NA","NA","NA","space","None","1200","8249","NA","NA","NA","70063","1200","2","legacy","1024","2","48000","-16","AB_m21","201","odd","CW_L","LAUGHING","1952","409471","407101","395627","72025","397335","NA","NA","NA","NA","407601","NA","NA","NA","406601","NA","406575","1961","409721","NA","NA","NA","407642","1953","1953","NA","408842","408867","406575","407601","407622","morph21_Oliver/Morris","59","65676","76","yes","1920","27"
"400","77.92207792207792","77.92207792207792","861.7532467532468","861.7532467532468","black","no","xpyriment","legacy","legacy","0","202","NA","uniform","NA","NA","NA","1","undefined","1","0","76","76","76","0","76","76","76","NA","0","76","NA","NA","0","76","NA","76","0","76","NA","NA","NA","76","0","0","NA","76","76","76","76","76","77","/","Mon Jun 12 18:32:04 2023","The main experiment item","yes","m21-ab-lexicalDecision.osexp","C:\Users\ekealey\Desktop","no","mono","no","18","no","white","no","yes","1080","legacy","76","76","C:/Users/ekealey/Desktop/subject-201.csv","xpyriment","Lentiform Loewenfeld","3.3.11","0","/","space","NA","NA","NA","space","/","679","8249","NA","NA","NA","70063","679","2","legacy","1024","2","48000","-16","AB_m21","201","odd","CW_L","SPELLER","1952","413060","411211","395627","72025","397335","NA","NA","NA","NA","411713","NA","NA","NA","410710","NA","410687","1961","413460","NA","NA","NA","411753","1953","1953","NA","412432","412457","410687","411713","411733","morph21_Oliver/Morris","60","66355","77","yes","1920","3"
"350","78.2051282051282","78.2051282051282","860.025641025641","860.025641025641","black","no","xpyriment","legacy","legacy","0","203","NA","uniform","NA","NA","NA","1","undefined","1","0","77","77","77","0","77","77","77","NA","0","77","NA","NA","0","77","NA","77","0","77","NA","NA","NA","77","0","0","NA","77","77","77","77","77","78","z","Mon Jun 12 18:32:04 2023","The main experiment item","yes","m21-ab-lexicalDecision.osexp","C:\Users\ekealey\Desktop","no","mono","no","18","no","white","no","yes","1080","legacy","77","77","C:/Users/ekealey/Desktop/subject-201.csv","xpyriment","Lentiform Loewenfeld","3.3.11","0","z","space","NA","NA","NA","space","z","727","8249","NA","NA","NA","70063","727","2","legacy","1024","2","48000","-16","AB_m21","201","odd","NW_S_COMP","WELDIC","1952","418363","414965","416860","72025","397335","NA","NA","NA","NA","415465","NA","NA","NA","414465","NA","414438","1961","418713","NA","NA","NA","415505","1953","1953","NA","416233","416257","414438","415465","415485","morph21_Oliver/Morris","61","67082","78","yes","1920","21"
"250","78.48101265822785","78.48101265822785","857.7848101265823","857.7848101265823","black","no","xpyriment","legacy","legacy","0","202","NA","uniform","NA","NA","NA","1","undefined","1","0","78","78","78","0","78","78","78","NA","0","78","NA","NA","0","78","NA","78","0","78","NA","NA","NA","78","0","0","NA","78","78","78","78","78","79","/","Mon Jun 12 18:32:04 2023","The main experiment item","yes","m21-ab-lexicalDecision.osexp","C:\Users\ekealey\Desktop","no","mono","no","18","no","white","no","yes","1080","legacy","78","78","C:/Users/ekealey/Desktop/subject-201.csv","xpyriment","Lentiform Loewenfeld","3.3.11","0","/","space","NA","NA","NA","space","/","683","8249","NA","NA","NA","70063","683","2","legacy","1024","2","48000","-16","AB_m21","201","odd","CW_L","DEAFNESS","1952","422068","420215","416860","72025","397335","NA","NA","NA","NA","420716","NA","NA","NA","419714","NA","419689","1961","422318","NA","NA","NA","420757","1953","1953","NA","421441","421465","419689","420716","420737","morph21_Oliver/Morris","62","67765","79","yes","1920","39"
"400","78.75","78.75","860.95","860.95","black","no","xpyriment","legacy","legacy","0","207","NA","uniform","NA","NA","NA","1","undefined","1","0","79","79","79","0","79","79","79","NA","0","79","NA","NA","0","79","NA","79","0","79","NA","NA","NA","79","0","0","NA","79","79","79","79","79","80","/","Mon Jun 12 18:32:04 2023","The main experiment item","yes","m21-ab-lexicalDecision.osexp","C:\Users\ekealey\Desktop","no","mono","no","18","no","white","no","yes","1080","legacy","79","79","C:/Users/ekealey/Desktop/subject-201.csv","xpyriment","Lentiform Loewenfeld","3.3.11","0","/","space","NA","NA","NA","space","/","1111","8249","NA","NA","NA","70063","1111","2","legacy","1024","2","48000","-16","AB_m21","201","odd","FILL_W","LITHE","1952","426099","423820","416860","72025","397335","NA","NA","NA","NA","424320","NA","NA","NA","423320","NA","423291","1961","426499","NA","NA","NA","424361","1953","1953","NA","425473","425496","423291","424320","424341","morph21_Oliver/Morris","63","68876","80","yes","1920","23"
"350","79.01234567901234","79.01234567901234","857.9753086419753","857.9753086419753","black","no","xpyriment","legacy","legacy","0","207","NA","uniform","NA","NA","NA","1","undefined","1","0","80","80","80","0","80","80","80","NA","0","80","NA","NA","0","80","NA","80","0","80","NA","NA","NA","80","0","0","NA","80","80","80","80","80","81","/","Mon Jun 12 18:32:04 2023","The main experiment item","yes","m21-ab-lexicalDecision.osexp","C:\Users\ekealey\Desktop","no","mono","no","18","no","white","no","yes","1080","legacy","80","80","C:/Users/ekealey/Desktop/subject-201.csv","xpyriment","Lentiform Loewenfeld","3.3.11","0","/","space","NA","NA","NA","space","/","620","8249","NA","NA","NA","70063","620","2","legacy","1024","2","48000","-16","AB_m21","201","odd","FILL_W","LIFT","1952","431286","427991","429782","72025","397335","NA","NA","NA","NA","428491","NA","NA","NA","427491","NA","427465","1961","431636","NA","NA","NA","428532","1953","1953","NA","429153","429177","427465","428491","428512","morph21_Oliver/Morris","64","69496","81","yes","1920","39"
"300","79.26829268292683","79.26829268292683","854.2682926829268","854.2682926829268","black","no","xpyriment","legacy","legacy","0","207","NA","uniform","NA","NA","NA","1","undefined","1","0","81","81","81","0","81","81","81","NA","0","81","NA","NA","0","81","NA","81","0","81","NA","NA","NA","81","0","0","NA","81","81","81","81","81","82","/","Mon Jun 12 18:32:04 2023","The main experiment item","yes","m21-ab-lexicalDecision.osexp","C:\Users\ekealey\Desktop","no","mono","no","18","no","white","no","yes","1080","legacy","81","81","C:/Users/ekealey/Desktop/subject-201.csv","xpyriment","Lentiform Loewenfeld","3.3.11","0","/","space","NA","NA","NA","space","/","554","8249","NA","NA","NA","70063","554","2","legacy","1024","2","48000","-16","AB_m21","201","odd","FILL_W","BOX","1952","434877","433151","429782","72025","397335","NA","NA","NA","NA","433653","NA","NA","NA","432648","NA","432621","1961","435177","NA","NA","NA","433694","1953","1953","NA","434248","434272","432620","433653","433674","morph21_Oliver/Morris","65","70050","82","yes","1920","42"
"400","79.51807228915662","79.51807228915662","850.9156626506024","850.9156626506024","black","no","xpyriment","legacy","legacy","0","201","NA","uniform","NA","NA","NA","1","undefined","1","0","82","82","82","0","82","82","82","NA","0","82","NA","NA","0","82","NA","82","0","82","NA","NA","NA","82","0","0","NA","82","82","82","82","82","83","/","Mon Jun 12 18:32:04 2023","The main experiment item","yes","m21-ab-lexicalDecision.osexp","C:\Users\ekealey\Desktop","no","mono","no","18","no","white","no","yes","1080","legacy","82","82","C:/Users/ekealey/Desktop/subject-201.csv","xpyriment","Lentiform Loewenfeld","3.3.11","0","/","space","NA","NA","NA","space","/","576","8249","NA","NA","NA","70063","576","2","legacy","1024","2","48000","-16","AB_m21","201","odd","CW_S","ALLOWANCE","1952","438437","436690","429782","72025","397335","NA","NA","NA","NA","437191","NA","NA","NA","436190","NA","436160","1961","438837","NA","NA","NA","437232","1953","1953","NA","437809","437833","436160","437191","437212","morph21_Oliver/Morris","66","70626","83","yes","1920","5"
"300","79.76190476190476","79.76190476190476","849.9047619047619","849.9047619047619","black","no","xpyriment","legacy","legacy","0","202","NA","uniform","NA","NA","NA","1","undefined","1","0","83","83","83","0","83","83","83","NA","0","83","NA","NA","0","83","NA","83","0","83","NA","NA","NA","83","0","0","NA","83","83","83","83","83","84","/","Mon Jun 12 18:32:04 2023","The main experiment item","yes","m21-ab-lexicalDecision.osexp","C:\Users\ekealey\Desktop","no","mono","no","18","no","white","no","yes","1080","legacy","83","83","C:/Users/ekealey/Desktop/subject-201.csv","xpyriment","Lentiform Loewenfeld","3.3.11","0","/","space","NA","NA","NA","space","/","766","8249","NA","NA","NA","70063","766","2","legacy","1024","2","48000","-16","AB_m21","201","odd","CW_L","DOUBTFUL","1952","443772","440334","442268","72025","397335","NA","NA","NA","NA","440833","NA","NA","NA","439834","NA","439811","1961","444072","NA","NA","NA","440874","1953","1953","NA","441640","441664","439811","440833","440854","morph21_Oliver/Morris","67","71392","84","yes","1920","21"
"400","80","80","849.0117647058823","849.0117647058823","black","no","xpyriment","legacy","legacy","0","206","NA","uniform","NA","NA","NA","1","undefined","1","0","84","84","84","0","84","84","84","NA","0","84","NA","NA","0","84","NA","84","0","84","NA","NA","NA","84","0","0","NA","84","84","84","84","84","85","z","Mon Jun 12 18:32:04 2023","The main experiment item","yes","m21-ab-lexicalDecision.osexp","C:\Users\ekealey\Desktop","no","mono","no","18","no","white","no","yes","1080","legacy","84","84","C:/Users/ekealey/Desktop/subject-201.csv","xpyriment","Lentiform Loewenfeld","3.3.11","0","z","space","NA","NA","NA","space","z","774","8249","NA","NA","NA","70063","774","2","legacy","1024","2","48000","-16","AB_m21","201","odd","NW_L_SIMP","VALIDEL","1952","447508","445565","442268","72025","397335","NA","NA","NA","NA","446065","NA","NA","NA","445065","NA","445038","1961","447908","NA","NA","NA","446106","1953","1953","NA","446881","446905","445038","446065","446086","morph21_Oliver/Morris","68","72166","85","yes","1920","23"
"300","80.23255813953489","80.23255813953489","850.046511627907","850.046511627907","black","no","xpyriment","legacy","legacy","0","205","NA","uniform","NA","NA","NA","1","undefined","1","0","85","85","85","0","85","85","85","NA","0","85","NA","NA","0","85","NA","85","0","85","NA","NA","NA","85","0","0","NA","85","85","85","85","85","86","z","Mon Jun 12 18:32:04 2023","The main experiment item","yes","m21-ab-lexicalDecision.osexp","C:\Users\ekealey\Desktop","no","mono","no","18","no","white","no","yes","1080","legacy","85","85","C:/Users/ekealey/Desktop/subject-201.csv","xpyriment","Lentiform Loewenfeld","3.3.11","0","z","space","NA","NA","NA","space","z","938","8249","NA","NA","NA","70063","938","2","legacy","1024","2","48000","-16","AB_m21","201","odd","NW_S_SIMP","WINKIDY","1952","451508","449402","442268","72025","397335","NA","NA","NA","NA","449902","NA","NA","NA","448901","NA","448875","1961","451808","NA","NA","NA","449942","1953","1953","NA","450881","450904","448875","449902","449922","morph21_Oliver/Morris","69","73104","86","yes","1920","21"
"400","80.45977011494253","80.45977011494253","848.2988505747127","848.2988505747127","black","no","xpyriment","legacy","legacy","0","208","NA","uniform","NA","NA","NA","1","undefined","1","0","86","86","86","0","86","86","86","NA","0","86","NA","NA","0","86","NA","86","0","86","NA","NA","NA","86","0","0","NA","86","86","86","86","86","87","z","Mon Jun 12 18:32:04 2023","The main experiment item","yes","m21-ab-lexicalDecision.osexp","C:\Users\ekealey\Desktop","no","mono","no","18","no","white","no","yes","1080","legacy","86","86","C:/Users/ekealey/Desktop/subject-201.csv","xpyriment","Lentiform Loewenfeld","3.3.11","0","z","space","NA","NA","NA","space","z","698","8249","NA","NA","NA","70063","698","2","legacy","1024","2","48000","-16","AB_m21","201","odd","FILL_NW","HEND","1952","456677","453305","455172","72025","397335","NA","NA","NA","NA","453806","NA","NA","NA","452804","NA","452782","1961","457077","NA","NA","NA","453846","1953","1953","NA","454544","454568","452782","453806","453826","morph21_Oliver/Morris","70","73802","87","yes","1920","28"
"400","80.68181818181819","80.68181818181819","849.8863636363636","849.8863636363636","black","no","xpyriment","legacy","legacy","0","208","NA","uniform","NA","NA","NA","1","undefined","1","0","87","87","87","0","87","87","87","NA","0","87","NA","NA","0","87","NA","87","0","87","NA","NA","NA","87","0","0","NA","87","87","87","87","87","88","z","Mon Jun 12 18:32:04 2023","The main experiment item","yes","m21-ab-lexicalDecision.osexp","C:\Users\ekealey\Desktop","no","mono","no","18","no","white","no","yes","1080","legacy","87","87","C:/Users/ekealey/Desktop/subject-201.csv","xpyriment","Lentiform Loewenfeld","3.3.11","0","z","space","NA","NA","NA","space","z","988","8249","NA","NA","NA","70063","988","2","legacy","1024","2","48000","-16","AB_m21","201","odd","FILL_NW","FROES","1952","460733","458574","455172","72025","397335","NA","NA","NA","NA","459076","NA","NA","NA","458072","NA","458049","1961","461133","NA","NA","NA","459116","1953","1953","NA","460105","460129","458049","459076","459096","morph21_Oliver/Morris","71","74790","88","yes","1920","21"
"350","80.89887640449439","80.89887640449439","852.9775280898876","852.9775280898876","black","no","xpyriment","legacy","legacy","0","203","NA","uniform","NA","NA","NA","1","undefined","1","0","88","88","88","0","88","88","88","NA","0","88","NA","NA","0","88","NA","88","0","88","NA","NA","NA","88","0","0","NA","88","88","88","88","88","89","z","Mon Jun 12 18:32:04 2023","The main experiment item","yes","m21-ab-lexicalDecision.osexp","C:\Users\ekealey\Desktop","no","mono","no","18","no","white","no","yes","1080","legacy","88","88","C:/Users/ekealey/Desktop/subject-201.csv","xpyriment","Lentiform Loewenfeld","3.3.11","0","z","space","NA","NA","NA","space","z","1125","8249","NA","NA","NA","70063","1125","2","legacy","1024","2","48000","-16","AB_m21","201","odd","NW_S_COMP","HEIGHTENCE","1952","464926","462632","455172","72025","397335","NA","NA","NA","NA","463132","NA","NA","NA","462131","NA","462104","1961","465276","NA","NA","NA","463172","1953","1953","NA","464297","464321","462103","463132","463152","morph21_Oliver/Morris","72","75915","89","yes","1920","18"
"300","81.11111111111111","81.11111111111111","855.1111111111111","855.1111111111111","black","no","xpyriment","legacy","legacy","0","201","NA","uniform","NA","NA","NA","1","undefined","1","0","89","89","89","0","89","89","89","NA","0","89","NA","NA","0","89","NA","89","0","89","NA","NA","NA","89","0","0","NA","89","89","89","89","89","90","/","Mon Jun 12 18:32:04 2023","The main experiment item","yes","m21-ab-lexicalDecision.osexp","C:\Users\ekealey\Desktop","no","mono","no","18","no","white","no","yes","1080","legacy","89","89","C:/Users/ekealey/Desktop/subject-201.csv","xpyriment","Lentiform Loewenfeld","3.3.11","0","/","space","NA","NA","NA","space","/","1045","8249","NA","NA","NA","70063","1045","2","legacy","1024","2","48000","-16","AB_m21","201","odd","CW_S","DESTROYER","1952","470509","466791","469003","72025","397335","NA","NA","NA","NA","467291","NA","NA","NA","466289","NA","466263","1961","470809","NA","NA","NA","467331","1953","1953","NA","468377","468400","466263","467291","467311","morph21_Oliver/Morris","73","76960","90","yes","1920","14"
"400","81.31868131868131","81.31868131868131","852.7582417582418","852.7582417582418","black","no","xpyriment","legacy","legacy","0","207","NA","uniform","NA","NA","NA","1","undefined","1","0","90","90","90","0","90","90","90","NA","0","90","NA","NA","0","90","NA","90","0","90","NA","NA","NA","90","0","0","NA","90","90","90","90","90","91","/","Mon Jun 12 18:32:04 2023","The main experiment item","yes","m21-ab-lexicalDecision.osexp","C:\Users\ekealey\Desktop","no","mono","no","18","no","white","no","yes","1080","legacy","90","90","C:/Users/ekealey/Desktop/subject-201.csv","xpyriment","Lentiform Loewenfeld","3.3.11","0","/","space","NA","NA","NA","space","/","641","8249","NA","NA","NA","70063","641","2","legacy","1024","2","48000","-16","AB_m21","201","odd","FILL_W","DRUNK","1952","474142","472331","469003","72025","397335","NA","NA","NA","NA","472831","NA","NA","NA","471830","NA","471802","1961","474543","NA","NA","NA","472872","1953","1953","NA","473513","473538","471802","472831","472852","morph21_Oliver/Morris","74","77601","91","yes","1920","19"
"350","80.43478260869566","80.43478260869566","852.9347826086956","852.9347826086956","black","no","xpyriment","legacy","legacy","0","202","NA","uniform","NA","NA","NA","0","undefined","0","0","91","91","91","0","91","91","91","NA","0","91","NA","NA","0","91","NA","91","0","91","NA","NA","NA","91","0","0","NA","91","91","91","91","91","92","/","Mon Jun 12 18:32:04 2023","The main experiment item","yes","m21-ab-lexicalDecision.osexp","C:\Users\ekealey\Desktop","no","mono","no","18","no","white","no","yes","1080","legacy","91","91","C:/Users/ekealey/Desktop/subject-201.csv","xpyriment","Lentiform Loewenfeld","3.3.11","0","z","space","NA","NA","NA","space","z","869","8249","NA","NA","NA","70063","869","2","legacy","1024","2","48000","-16","AB_m21","201","odd","CW_L","GUILELESS","1952","478093","476054","469003","72025","397335","NA","NA","NA","NA","476555","NA","NA","NA","475553","NA","475527","1961","478443","NA","NA","NA","476595","1953","1953","NA","477465","477490","475527","476555","476575","morph21_Oliver/Morris","74","78470","92","yes","1920","31"
"350","80.64516129032258","80.64516129032258","850.8817204301075","850.8817204301075","black","no","xpyriment","legacy","legacy","0","207","NA","uniform","NA","NA","NA","1","undefined","1","0","92","92","92","0","92","92","92","NA","0","92","NA","NA","0","92","NA","92","0","92","NA","NA","NA","92","0","0","NA","92","92","92","92","92","93","/","Mon Jun 12 18:32:04 2023","The main experiment item","yes","m21-ab-lexicalDecision.osexp","C:\Users\ekealey\Desktop","no","mono","no","18","no","white","no","yes","1080","legacy","92","92","C:/Users/ekealey/Desktop/subject-201.csv","xpyriment","Lentiform Loewenfeld","3.3.11","0","/","space","NA","NA","NA","space","/","662","8249","NA","NA","NA","70063","662","2","legacy","1024","2","48000","-16","AB_m21","201","odd","FILL_W","FOLLOW","1952","483284","479948","481781","72025","397335","NA","NA","NA","NA","480450","NA","NA","NA","479448","NA","479423","1961","483634","NA","NA","NA","480490","1953","1953","NA","481153","481177","479423","480450","480470","morph21_Oliver/Morris","75","79132","93","yes","1920","17"
