"ITI","_prepare","acc","accuracy","average_response_time","avg_rt","background","bidi","canvas_backend","clock_backend","color_backend","compensation","cond_trig","condtrigtime","coordinates","coroutines_cycles","coroutines_duration","coroutines_mean_cycle_duration","correct","correct_instructions_1","correct_new_keyboard_response_1","count_AB_m21","count_ITI","count_blank_screen","count_blink_screen","count_block1","count_break1","count_break2","count_break3_1","count_canvas","count_close_port","count_cond_trigger","count_correct_trigger","count_def_chain","count_end_screen","count_fixation_1","count_getting_started","count_inc_counter","count_instructions_1","count_logger","count_logscript","count_new_inline_script","count_new_inline_script_2","count_new_keyboard_response_1","count_open_port","count_reset_counter_prep","count_reset_counter_run","count_reset_counter_run_1","count_response_trigger_trial","count_responsescreen","count_sequence","count_target_present","count_word_trigger","counter","cresp","datetime","description","disable_garbage_collection","experiment_file","experiment_path","font_bold","font_family","font_italic","font_size","font_underline","foreground","form_clicks","fullscreen","height","keyboard_backend","live_row","live_row_block1","logfile","mouse_backend","opensesame_codename","opensesame_version","repeat_cycle","response","response_break1","response_break2","response_break3_1","response_end_screen","response_instructions_1","response_new_keyboard_response_1","response_time","response_time_break1","response_time_break2","response_time_break3_1","response_time_end_screen","response_time_instructions_1","response_time_new_keyboard_response_1","round_decimals","sampler_backend","sound_buf_size","sound_channels","sound_freq","sound_sample_size","start","subject_nr","subject_parity","targ_type","target","time_AB_m21","time_ITI","time_blank_screen","time_blink_screen","time_block1","time_break1","time_break2","time_break3_1","time_canvas","time_close_port","time_cond_trigger","time_correct_trigger","time_def_chain","time_end_screen","time_fixation_1","time_getting_started","time_inc_counter","time_instructions_1","time_logger","time_logscript","time_new_inline_script","time_new_inline_script_2","time_new_keyboard_response_1","time_open_port","time_reset_counter_prep","time_reset_counter_run","time_reset_counter_run_1","time_response_trigger_trial","time_responsescreen","time_sequence","time_target_present","time_word_trigger","title","total_correct","total_response_time","total_responses","uniform_coordinates","width","word_trig"
"300","","0","0","1200","1200","black","no","xpyriment","legacy","legacy","0","202","NA","uniform","NA","NA","NA","0","undefined","0","0","0","0","0","0","0","0","0","NA","0","0","NA","NA","0","0","NA","0","0","0","NA","NA","NA","0","0","0","NA","NA","0","0","0","0","0","1","/","Thu Jul  6 16:35:14 2023","Executes Python code","yes","m21-ba-lexicalDecision.osexp","C:\Users\cramosma\Desktop\m21_vsl-main (1)\m21_vsl-main","no","mono","no","18","no","white","no","yes","1080","legacy","0","0","C:/Users/cramosma/Desktop/m21_vsl-main (1)/m21_vsl-main/subject-216.csv","xpyriment","Lentiform Loewenfeld","3.3.11","0","None","NA","NA","NA","NA","space","None","1200","NA","NA","NA","NA","22110","1200","2","legacy","1024","2","48000","-16","AB_m21","216","even","CW_L","HEATER","2241","29004","26632","NA","24527","NA","NA","NA","NA","NA","27133","NA","NA","NA","26121","NA","26010","2415","29304","NA","NA","NA","27177","2241","2404","NA","NA","28377","28401","26007","27133","27157","morph21_Oliver/Morris","0","1200","1","yes","1920","16"
"300","","0","0","1200","1200","black","no","xpyriment","legacy","legacy","0","205","NA","uniform","NA","NA","NA","0","undefined","0","0","1","1","1","0","1","1","1","NA","0","1","NA","NA","0","1","NA","1","0","1","NA","NA","NA","1","0","0","NA","NA","1","1","1","1","1","2","z","Thu Jul  6 16:35:14 2023","Executes Python code","yes","m21-ba-lexicalDecision.osexp","C:\Users\cramosma\Desktop\m21_vsl-main (1)\m21_vsl-main","no","mono","no","18","no","white","no","yes","1080","legacy","1","1","C:/Users/cramosma/Desktop/m21_vsl-main (1)/m21_vsl-main/subject-216.csv","xpyriment","Lentiform Loewenfeld","3.3.11","0","None","NA","NA","NA","NA","space","None","1200","NA","NA","NA","NA","22110","1200","2","legacy","1024","2","48000","-16","AB_m21","216","even","NW_S_SIMP","SOCKETER","2241","33464","31090","NA","24527","NA","NA","NA","NA","NA","31592","NA","NA","NA","30589","NA","30559","2415","33764","NA","NA","NA","31635","2241","2404","NA","NA","32835","32859","30559","31592","31613","morph21_Oliver/Morris","0","2400","2","yes","1920","1"
"400","","33.333333333333336","33.333333333333336","1072.3333333333333","1072.3333333333333","black","no","xpyriment","legacy","legacy","0","204","NA","uniform","NA","NA","NA","1","undefined","1","0","2","2","2","0","2","2","2","NA","0","2","NA","NA","0","2","NA","2","0","2","NA","NA","NA","2","0","0","NA","NA","2","2","2","2","2","3","z","Thu Jul  6 16:35:14 2023","Executes Python code","yes","m21-ba-lexicalDecision.osexp","C:\Users\cramosma\Desktop\m21_vsl-main (1)\m21_vsl-main","no","mono","no","18","no","white","no","yes","1080","legacy","2","2","C:/Users/cramosma/Desktop/m21_vsl-main (1)/m21_vsl-main/subject-216.csv","xpyriment","Lentiform Loewenfeld","3.3.11","0","z","NA","NA","NA","NA","space","z","817","NA","NA","NA","NA","22110","817","2","legacy","1024","2","48000","-16","AB_m21","216","even","NW_L_COMP","RIPENGE","2241","38825","35332","37320","24527","NA","NA","NA","NA","NA","35833","NA","NA","NA","34829","NA","34803","2415","39225","NA","NA","NA","35875","2241","2404","NA","NA","36693","36717","34801","35833","35855","morph21_Oliver/Morris","1","3217","3","yes","1920","4"
"400","","50","50","946","946","black","no","xpyriment","legacy","legacy","0","201","NA","uniform","NA","NA","NA","1","undefined","1","0","3","3","3","0","3","3","3","NA","0","3","NA","NA","0","3","NA","3","0","3","NA","NA","NA","3","0","0","NA","NA","3","3","3","3","3","4","/","Thu Jul  6 16:35:14 2023","Executes Python code","yes","m21-ba-lexicalDecision.osexp","C:\Users\cramosma\Desktop\m21_vsl-main (1)\m21_vsl-main","no","mono","no","18","no","white","no","yes","1080","legacy","3","3","C:/Users/cramosma/Desktop/m21_vsl-main (1)/m21_vsl-main/subject-216.csv","xpyriment","Lentiform Loewenfeld","3.3.11","0","/","NA","NA","NA","NA","space","/","567","NA","NA","NA","NA","22110","567","2","legacy","1024","2","48000","-16","AB_m21","216","even","CW_S","WIDOWED","2241","42504","40768","37320","24527","NA","NA","NA","NA","NA","41268","NA","NA","NA","40268","NA","40242","2415","42904","NA","NA","NA","41309","2241","2404","NA","NA","41877","41901","40242","41268","41289","morph21_Oliver/Morris","2","3784","4","yes","1920","7"
"350","","60","60","956.8","956.8","black","no","xpyriment","legacy","legacy","0","201","NA","uniform","NA","NA","NA","1","undefined","1","0","4","4","4","0","4","4","4","NA","0","4","NA","NA","0","4","NA","4","0","4","NA","NA","NA","4","0","0","NA","NA","4","4","4","4","4","5","/","Thu Jul  6 16:35:14 2023","Executes Python code","yes","m21-ba-lexicalDecision.osexp","C:\Users\cramosma\Desktop\m21_vsl-main (1)\m21_vsl-main","no","mono","no","18","no","white","no","yes","1080","legacy","4","4","C:/Users/cramosma/Desktop/m21_vsl-main (1)/m21_vsl-main/subject-216.csv","xpyriment","Lentiform Loewenfeld","3.3.11","0","/","NA","NA","NA","NA","space","/","1000","NA","NA","NA","NA","22110","1000","2","legacy","1024","2","48000","-16","AB_m21","216","even","CW_S","AMAZEMENT","2241","46593","44423","37320","24527","NA","NA","NA","NA","NA","44923","NA","NA","NA","43922","NA","43898","2415","46943","NA","NA","NA","44964","2241","2404","NA","NA","45965","45988","43898","44923","44944","morph21_Oliver/Morris","3","4784","5","yes","1920","39"
"250","","50","50","997.3333333333334","997.3333333333334","black","no","xpyriment","legacy","legacy","0","202","NA","uniform","NA","NA","NA","0","undefined","0","0","5","5","5","0","5","5","5","NA","0","5","NA","NA","0","5","NA","5","0","5","NA","NA","NA","5","0","0","NA","NA","5","5","5","5","5","6","/","Thu Jul  6 16:35:14 2023","Executes Python code","yes","m21-ba-lexicalDecision.osexp","C:\Users\cramosma\Desktop\m21_vsl-main (1)\m21_vsl-main","no","mono","no","18","no","white","no","yes","1080","legacy","5","5","C:/Users/cramosma/Desktop/m21_vsl-main (1)/m21_vsl-main/subject-216.csv","xpyriment","Lentiform Loewenfeld","3.3.11","0","None","NA","NA","NA","NA","space","None","1200","NA","NA","NA","NA","22110","1200","2","legacy","1024","2","48000","-16","AB_m21","216","even","CW_L","EXCITEMENT","2241","52347","48476","50842","24527","NA","NA","NA","NA","NA","48976","NA","NA","NA","47976","NA","47947","2415","52597","NA","NA","NA","49016","2241","2404","NA","NA","50216","50239","47947","48976","48996","morph21_Oliver/Morris","3","5984","6","yes","1920","38"
"250","","57.142857142857146","57.142857142857146","994.5714285714286","994.5714285714286","black","no","xpyriment","legacy","legacy","0","207","NA","uniform","NA","NA","NA","1","undefined","1","0","6","6","6","0","6","6","6","NA","0","6","NA","NA","0","6","NA","6","0","6","NA","NA","NA","6","0","0","NA","NA","6","6","6","6","6","7","/","Thu Jul  6 16:35:14 2023","Executes Python code","yes","m21-ba-lexicalDecision.osexp","C:\Users\cramosma\Desktop\m21_vsl-main (1)\m21_vsl-main","no","mono","no","18","no","white","no","yes","1080","legacy","6","6","C:/Users/cramosma/Desktop/m21_vsl-main (1)/m21_vsl-main/subject-216.csv","xpyriment","Lentiform Loewenfeld","3.3.11","0","/","NA","NA","NA","NA","space","/","978","NA","NA","NA","NA","22110","978","2","legacy","1024","2","48000","-16","AB_m21","216","even","FILL_W","SPLICE","2241","56300","54150","50842","24527","NA","NA","NA","NA","NA","54651","NA","NA","NA","53650","NA","53622","2415","56550","NA","NA","NA","54691","2241","2404","NA","NA","55669","55695","53622","54651","54671","morph21_Oliver/Morris","4","6962","7","yes","1920","22"
"350","","62.5","62.5","957.125","957.125","black","no","xpyriment","legacy","legacy","0","207","NA","uniform","NA","NA","NA","1","undefined","1","0","7","7","7","0","7","7","7","NA","0","7","NA","NA","0","7","NA","7","0","7","NA","NA","NA","7","0","0","NA","NA","7","7","7","7","7","8","/","Thu Jul  6 16:35:14 2023","Executes Python code","yes","m21-ba-lexicalDecision.osexp","C:\Users\cramosma\Desktop\m21_vsl-main (1)\m21_vsl-main","no","mono","no","18","no","white","no","yes","1080","legacy","7","7","C:/Users/cramosma/Desktop/m21_vsl-main (1)/m21_vsl-main/subject-216.csv","xpyriment","Lentiform Loewenfeld","3.3.11","0","/","NA","NA","NA","NA","space","/","695","NA","NA","NA","NA","22110","695","2","legacy","1024","2","48000","-16","AB_m21","216","even","FILL_W","LEAK","2241","59930","58064","50842","24527","NA","NA","NA","NA","NA","58565","NA","NA","NA","57562","NA","57538","2415","60280","NA","NA","NA","58606","2241","2404","NA","NA","59301","59325","57538","58565","58586","morph21_Oliver/Morris","5","7657","8","yes","1920","9"
"400","","55.55555555555556","55.55555555555556","984.1111111111111","984.1111111111111","black","no","xpyriment","legacy","legacy","0","206","NA","uniform","NA","NA","NA","0","undefined","0","0","8","8","8","0","8","8","8","NA","0","8","NA","NA","0","8","NA","8","0","8","NA","NA","NA","8","0","0","NA","NA","8","8","8","8","8","9","z","Thu Jul  6 16:35:14 2023","Executes Python code","yes","m21-ba-lexicalDecision.osexp","C:\Users\cramosma\Desktop\m21_vsl-main (1)\m21_vsl-main","no","mono","no","18","no","white","no","yes","1080","legacy","8","8","C:/Users/cramosma/Desktop/m21_vsl-main (1)/m21_vsl-main/subject-216.csv","xpyriment","Lentiform Loewenfeld","3.3.11","0","None","NA","NA","NA","NA","space","None","1200","NA","NA","NA","NA","22110","1200","2","legacy","1024","2","48000","-16","AB_m21","216","even","NW_L_SIMP","CLASSOUS","2241","65684","61814","64180","24527","NA","NA","NA","NA","NA","62314","NA","NA","NA","61313","NA","61281","2415","66084","NA","NA","NA","62354","2241","2404","NA","NA","63554","63577","61281","62314","62334","morph21_Oliver/Morris","5","8857","9","yes","1920","18"
"350","","60","60","1003.9","1003.9","black","no","xpyriment","legacy","legacy","0","204","NA","uniform","NA","NA","NA","1","undefined","1","0","9","9","9","0","9","9","9","NA","0","9","NA","NA","0","9","NA","9","0","9","NA","NA","NA","9","0","0","NA","NA","9","9","9","9","9","10","z","Thu Jul  6 16:35:14 2023","Executes Python code","yes","m21-ba-lexicalDecision.osexp","C:\Users\cramosma\Desktop\m21_vsl-main (1)\m21_vsl-main","no","mono","no","18","no","white","no","yes","1080","legacy","9","9","C:/Users/cramosma/Desktop/m21_vsl-main (1)/m21_vsl-main/subject-216.csv","xpyriment","Lentiform Loewenfeld","3.3.11","0","z","NA","NA","NA","NA","space","z","1182","NA","NA","NA","NA","22110","1182","2","legacy","1024","2","48000","-16","AB_m21","216","even","NW_L_COMP","MOUTHIME","2241","69975","67624","64180","24527","NA","NA","NA","NA","NA","68126","NA","NA","NA","67122","NA","67097","2415","70326","NA","NA","NA","68166","2241","2404","NA","NA","69348","69372","67097","68125","68146","morph21_Oliver/Morris","6","10039","10","yes","1920","11"
"400","","63.63636363636363","63.63636363636363","984.7272727272727","984.7272727272727","black","no","xpyriment","legacy","legacy","0","201","NA","uniform","NA","NA","NA","1","undefined","1","0","10","10","10","0","10","10","10","NA","0","10","NA","NA","0","10","NA","10","0","10","NA","NA","NA","10","0","0","NA","NA","10","10","10","10","10","11","/","Thu Jul  6 16:35:14 2023","Executes Python code","yes","m21-ba-lexicalDecision.osexp","C:\Users\cramosma\Desktop\m21_vsl-main (1)\m21_vsl-main","no","mono","no","18","no","white","no","yes","1080","legacy","10","10","C:/Users/cramosma/Desktop/m21_vsl-main (1)/m21_vsl-main/subject-216.csv","xpyriment","Lentiform Loewenfeld","3.3.11","0","/","NA","NA","NA","NA","space","/","793","NA","NA","NA","NA","22110","793","2","legacy","1024","2","48000","-16","AB_m21","216","even","CW_S","AVOIDABLE","2241","73808","71848","64180","24527","NA","NA","NA","NA","NA","72348","NA","NA","NA","71347","NA","71318","2415","74208","NA","NA","NA","72388","2241","2404","NA","NA","73181","73205","71318","72348","72368","morph21_Oliver/Morris","7","10832","11","yes","1920","2"
"400","","66.66666666666667","66.66666666666667","990.4166666666666","990.4166666666666","black","no","xpyriment","legacy","legacy","0","206","NA","uniform","NA","NA","NA","1","undefined","1","0","11","11","11","0","11","11","11","NA","0","11","NA","NA","0","11","NA","11","0","11","NA","NA","NA","11","0","0","NA","NA","11","11","11","11","11","12","z","Thu Jul  6 16:35:14 2023","Executes Python code","yes","m21-ba-lexicalDecision.osexp","C:\Users\cramosma\Desktop\m21_vsl-main (1)\m21_vsl-main","no","mono","no","18","no","white","no","yes","1080","legacy","11","11","C:/Users/cramosma/Desktop/m21_vsl-main (1)/m21_vsl-main/subject-216.csv","xpyriment","Lentiform Loewenfeld","3.3.11","0","z","NA","NA","NA","NA","space","z","1053","NA","NA","NA","NA","22110","1053","2","legacy","1024","2","48000","-16","AB_m21","216","even","NW_L_SIMP","VALIDER","2241","79539","75811","78034","24527","NA","NA","NA","NA","NA","76311","NA","NA","NA","75311","NA","75281","2415","79939","NA","NA","NA","76352","2241","2404","NA","NA","77405","77429","75281","76311","76332","morph21_Oliver/Morris","8","11885","12","yes","1920","23"
"350","","69.23076923076923","69.23076923076923","983.3846153846154","983.3846153846154","black","no","xpyriment","legacy","legacy","0","201","NA","uniform","NA","NA","NA","1","undefined","1","0","12","12","12","0","12","12","12","NA","0","12","NA","NA","0","12","NA","12","0","12","NA","NA","NA","12","0","0","NA","NA","12","12","12","12","12","13","/","Thu Jul  6 16:35:14 2023","Executes Python code","yes","m21-ba-lexicalDecision.osexp","C:\Users\cramosma\Desktop\m21_vsl-main (1)\m21_vsl-main","no","mono","no","18","no","white","no","yes","1080","legacy","12","12","C:/Users/cramosma/Desktop/m21_vsl-main (1)/m21_vsl-main/subject-216.csv","xpyriment","Lentiform Loewenfeld","3.3.11","0","/","NA","NA","NA","NA","space","/","899","NA","NA","NA","NA","22110","899","2","legacy","1024","2","48000","-16","AB_m21","216","even","CW_S","NEATLY","2241","83543","81477","78034","24527","NA","NA","NA","NA","NA","81977","NA","NA","NA","80977","NA","80950","2415","83893","NA","NA","NA","82017","2241","2404","NA","NA","82917","82940","80950","81977","81997","morph21_Oliver/Morris","9","12784","13","yes","1920","33"
"350","","64.28571428571429","64.28571428571429","998.8571428571429","998.8571428571429","black","no","xpyriment","legacy","legacy","0","201","NA","uniform","NA","NA","NA","0","undefined","0","0","13","13","13","0","13","13","13","NA","0","13","NA","NA","0","13","NA","13","0","13","NA","NA","NA","13","0","0","NA","NA","13","13","13","13","13","14","/","Thu Jul  6 16:35:14 2023","Executes Python code","yes","m21-ba-lexicalDecision.osexp","C:\Users\cramosma\Desktop\m21_vsl-main (1)\m21_vsl-main","no","mono","no","18","no","white","no","yes","1080","legacy","13","13","C:/Users/cramosma/Desktop/m21_vsl-main (1)/m21_vsl-main/subject-216.csv","xpyriment","Lentiform Loewenfeld","3.3.11","0","None","NA","NA","NA","NA","space","None","1200","NA","NA","NA","NA","22110","1200","2","legacy","1024","2","48000","-16","AB_m21","216","even","CW_S","STRANGENESS","2241","87791","85421","78034","24527","NA","NA","NA","NA","NA","85921","NA","NA","NA","84920","NA","84895","2415","88141","NA","NA","NA","85962","2241","2404","NA","NA","87162","87186","84895","85921","85942","morph21_Oliver/Morris","9","13984","14","yes","1920","46"
"400","","66.66666666666667","66.66666666666667","992.4666666666667","992.4666666666667","black","no","xpyriment","legacy","legacy","0","205","NA","uniform","NA","NA","NA","1","undefined","1","0","14","14","14","0","14","14","14","NA","0","14","NA","NA","0","14","NA","14","0","14","NA","NA","NA","14","0","0","NA","NA","14","14","14","14","14","15","z","Thu Jul  6 16:35:14 2023","Executes Python code","yes","m21-ba-lexicalDecision.osexp","C:\Users\cramosma\Desktop\m21_vsl-main (1)\m21_vsl-main","no","mono","no","18","no","white","no","yes","1080","legacy","14","14","C:/Users/cramosma/Desktop/m21_vsl-main (1)/m21_vsl-main/subject-216.csv","xpyriment","Lentiform Loewenfeld","3.3.11","0","z","NA","NA","NA","NA","space","z","903","NA","NA","NA","NA","22110","903","2","legacy","1024","2","48000","-16","AB_m21","216","even","NW_S_SIMP","AIDIC","2241","93256","89682","91752","24527","NA","NA","NA","NA","NA","90182","NA","NA","NA","89182","NA","89152","2415","93656","NA","NA","NA","90222","2241","2404","NA","NA","91125","91149","89152","90182","90202","morph21_Oliver/Morris","10","14887","15","yes","1920","4"
"200","","68.75","68.75","971.5","971.5","black","no","xpyriment","legacy","legacy","0","207","NA","uniform","NA","NA","NA","1","undefined","1","0","15","15","15","0","15","15","15","NA","0","15","NA","NA","0","15","NA","15","0","15","NA","NA","NA","15","0","0","NA","NA","15","15","15","15","15","16","/","Thu Jul  6 16:35:14 2023","Executes Python code","yes","m21-ba-lexicalDecision.osexp","C:\Users\cramosma\Desktop\m21_vsl-main (1)\m21_vsl-main","no","mono","no","18","no","white","no","yes","1080","legacy","15","15","C:/Users/cramosma/Desktop/m21_vsl-main (1)/m21_vsl-main/subject-216.csv","xpyriment","Lentiform Loewenfeld","3.3.11","0","/","NA","NA","NA","NA","space","/","657","NA","NA","NA","NA","22110","657","2","legacy","1024","2","48000","-16","AB_m21","216","even","FILL_W","OLD","2241","97028","95199","91752","24527","NA","NA","NA","NA","NA","95699","NA","NA","NA","94697","NA","94673","2415","97228","NA","NA","NA","95740","2241","2404","NA","NA","96397","96423","94673","95699","95720","morph21_Oliver/Morris","11","15544","16","yes","1920","44"
"300","","64.70588235294117","64.70588235294117","984.9411764705883","984.9411764705883","black","no","xpyriment","legacy","legacy","0","204","NA","uniform","NA","NA","NA","0","undefined","0","0","16","16","16","0","16","16","16","NA","0","16","NA","NA","0","16","NA","16","0","16","NA","NA","NA","16","0","0","NA","NA","16","16","16","16","16","17","z","Thu Jul  6 16:35:14 2023","Executes Python code","yes","m21-ba-lexicalDecision.osexp","C:\Users\cramosma\Desktop\m21_vsl-main (1)\m21_vsl-main","no","mono","no","18","no","white","no","yes","1080","legacy","16","16","C:/Users/cramosma/Desktop/m21_vsl-main (1)/m21_vsl-main/subject-216.csv","xpyriment","Lentiform Loewenfeld","3.3.11","0","None","NA","NA","NA","NA","space","None","1200","NA","NA","NA","NA","22110","1200","2","legacy","1024","2","48000","-16","AB_m21","216","even","NW_L_COMP","ILLILT","2241","101125","98757","91752","24527","NA","NA","NA","NA","NA","99257","NA","NA","NA","98257","NA","98223","2415","101426","NA","NA","NA","99297","2241","2404","NA","NA","100497","100521","98223","99257","99277","morph21_Oliver/Morris","11","16744","17","yes","1920","9"
"200","","66.66666666666667","66.66666666666667","990.1111111111111","990.1111111111111","black","no","xpyriment","legacy","legacy","0","207","NA","uniform","NA","NA","NA","1","undefined","1","0","17","17","17","0","17","17","17","NA","0","17","NA","NA","0","17","NA","17","0","17","NA","NA","NA","17","0","0","NA","NA","17","17","17","17","17","18","/","Thu Jul  6 16:35:14 2023","Executes Python code","yes","m21-ba-lexicalDecision.osexp","C:\Users\cramosma\Desktop\m21_vsl-main (1)\m21_vsl-main","no","mono","no","18","no","white","no","yes","1080","legacy","17","17","C:/Users/cramosma/Desktop/m21_vsl-main (1)/m21_vsl-main/subject-216.csv","xpyriment","Lentiform Loewenfeld","3.3.11","0","/","NA","NA","NA","NA","space","/","1078","NA","NA","NA","NA","22110","1078","2","legacy","1024","2","48000","-16","AB_m21","216","even","FILL_W","FLESH","2241","106704","102953","105200","24527","NA","NA","NA","NA","NA","103454","NA","NA","NA","102452","NA","102423","2415","106904","NA","NA","NA","103494","2241","2404","NA","NA","104573","104597","102423","103454","103474","morph21_Oliver/Morris","12","17822","18","yes","1920","32"
"250","","63.1578947368421","63.1578947368421","1001.1578947368421","1001.1578947368421","black","no","xpyriment","legacy","legacy","0","206","NA","uniform","NA","NA","NA","0","undefined","0","0","18","18","18","0","18","18","18","NA","0","18","NA","NA","0","18","NA","18","0","18","NA","NA","NA","18","0","0","NA","NA","18","18","18","18","18","19","z","Thu Jul  6 16:35:14 2023","Executes Python code","yes","m21-ba-lexicalDecision.osexp","C:\Users\cramosma\Desktop\m21_vsl-main (1)\m21_vsl-main","no","mono","no","18","no","white","no","yes","1080","legacy","18","18","C:/Users/cramosma/Desktop/m21_vsl-main (1)/m21_vsl-main/subject-216.csv","xpyriment","Lentiform Loewenfeld","3.3.11","0","None","NA","NA","NA","NA","space","None","1200","NA","NA","NA","NA","22110","1200","2","legacy","1024","2","48000","-16","AB_m21","216","even","NW_L_SIMP","BEARIST","2241","110822","108452","105200","24527","NA","NA","NA","NA","NA","108953","NA","NA","NA","107952","NA","107924","2415","111072","NA","NA","NA","108994","2241","2404","NA","NA","110194","110218","107924","108953","108974","morph21_Oliver/Morris","12","19022","19","yes","1920","25"
"250","","60","60","1011.1","1011.1","black","no","xpyriment","legacy","legacy","0","203","NA","uniform","NA","NA","NA","0","undefined","0","0","19","19","19","0","19","19","19","NA","0","19","NA","NA","0","19","NA","19","0","19","NA","NA","NA","19","0","0","NA","NA","19","19","19","19","19","20","z","Thu Jul  6 16:35:14 2023","Executes Python code","yes","m21-ba-lexicalDecision.osexp","C:\Users\cramosma\Desktop\m21_vsl-main (1)\m21_vsl-main","no","mono","no","18","no","white","no","yes","1080","legacy","19","19","C:/Users/cramosma/Desktop/m21_vsl-main (1)/m21_vsl-main/subject-216.csv","xpyriment","Lentiform Loewenfeld","3.3.11","0","None","NA","NA","NA","NA","space","None","1200","NA","NA","NA","NA","22110","1200","2","legacy","1024","2","48000","-16","AB_m21","216","even","NW_S_COMP","BEEREL","2241","114967","112595","105200","24527","NA","NA","NA","NA","NA","113097","NA","NA","NA","112093","NA","112069","2415","115217","NA","NA","NA","113138","2241","2404","NA","NA","114338","114363","112069","113097","113117","morph21_Oliver/Morris","12","20222","20","yes","1920","5"
"250","","61.904761904761905","61.904761904761905","991.4285714285714","991.4285714285714","black","no","xpyriment","legacy","legacy","0","207","NA","uniform","NA","NA","NA","1","undefined","1","0","20","20","20","0","20","20","20","NA","0","20","NA","NA","0","20","NA","20","0","20","NA","NA","NA","20","0","0","NA","NA","20","20","20","20","20","21","/","Thu Jul  6 16:35:14 2023","Executes Python code","yes","m21-ba-lexicalDecision.osexp","C:\Users\cramosma\Desktop\m21_vsl-main (1)\m21_vsl-main","no","mono","no","18","no","white","no","yes","1080","legacy","20","20","C:/Users/cramosma/Desktop/m21_vsl-main (1)/m21_vsl-main/subject-216.csv","xpyriment","Lentiform Loewenfeld","3.3.11","0","/","NA","NA","NA","NA","space","/","598","NA","NA","NA","NA","22110","598","2","legacy","1024","2","48000","-16","AB_m21","216","even","FILL_W","COOK","2241","120039","116770","118536","24527","NA","NA","NA","NA","NA","117271","NA","NA","NA","116269","NA","116241","2415","120289","NA","NA","NA","117311","2241","2404","NA","NA","117909","117933","116241","117271","117291","morph21_Oliver/Morris","13","20820","21","yes","1920","38"
"400","","59.09090909090909","59.09090909090909","1000.9090909090909","1000.9090909090909","black","no","xpyriment","legacy","legacy","0","207","NA","uniform","NA","NA","NA","0","undefined","0","0","21","21","21","0","21","21","21","NA","0","21","NA","NA","0","21","NA","21","0","21","NA","NA","NA","21","0","0","NA","NA","21","21","21","21","21","22","/","Thu Jul  6 16:35:14 2023","Executes Python code","yes","m21-ba-lexicalDecision.osexp","C:\Users\cramosma\Desktop\m21_vsl-main (1)\m21_vsl-main","no","mono","no","18","no","white","no","yes","1080","legacy","21","21","C:/Users/cramosma/Desktop/m21_vsl-main (1)/m21_vsl-main/subject-216.csv","xpyriment","Lentiform Loewenfeld","3.3.11","0","None","NA","NA","NA","NA","space","None","1200","NA","NA","NA","NA","22110","1200","2","legacy","1024","2","48000","-16","AB_m21","216","even","FILL_W","STEEP","2241","124195","121823","118536","24527","NA","NA","NA","NA","NA","122326","NA","NA","NA","121322","NA","121298","2415","124596","NA","NA","NA","122367","2241","2404","NA","NA","123567","123591","121298","122326","122347","morph21_Oliver/Morris","13","22020","22","yes","1920","16"
"400","","60.869565217391305","60.869565217391305","994.8695652173913","994.8695652173913","black","no","xpyriment","legacy","legacy","0","202","NA","uniform","NA","NA","NA","1","undefined","1","0","22","22","22","0","22","22","22","NA","0","22","NA","NA","0","22","NA","22","0","22","NA","NA","NA","22","0","0","NA","NA","22","22","22","22","22","23","/","Thu Jul  6 16:35:14 2023","Executes Python code","yes","m21-ba-lexicalDecision.osexp","C:\Users\cramosma\Desktop\m21_vsl-main (1)\m21_vsl-main","no","mono","no","18","no","white","no","yes","1080","legacy","22","22","C:/Users/cramosma/Desktop/m21_vsl-main (1)/m21_vsl-main/subject-216.csv","xpyriment","Lentiform Loewenfeld","3.3.11","0","/","NA","NA","NA","NA","space","/","862","NA","NA","NA","NA","22110","862","2","legacy","1024","2","48000","-16","AB_m21","216","even","CW_L","SHAPELY","2241","128159","126128","118536","24527","NA","NA","NA","NA","NA","126630","NA","NA","NA","125627","NA","125604","2415","128559","NA","NA","NA","126670","2241","2404","NA","NA","127533","127556","125604","126629","126650","morph21_Oliver/Morris","14","22882","23","yes","1920","35"
"300","","58.333333333333336","58.333333333333336","1003.4166666666666","1003.4166666666666","black","no","xpyriment","legacy","legacy","0","207","NA","uniform","NA","NA","NA","0","undefined","0","0","23","23","23","0","23","23","23","NA","0","23","NA","NA","0","23","NA","23","0","23","NA","NA","NA","23","0","0","NA","NA","23","23","23","23","23","24","/","Thu Jul  6 16:35:14 2023","Executes Python code","yes","m21-ba-lexicalDecision.osexp","C:\Users\cramosma\Desktop\m21_vsl-main (1)\m21_vsl-main","no","mono","no","18","no","white","no","yes","1080","legacy","23","23","C:/Users/cramosma/Desktop/m21_vsl-main (1)/m21_vsl-main/subject-216.csv","xpyriment","Lentiform Loewenfeld","3.3.11","0","None","NA","NA","NA","NA","space","None","1200","NA","NA","NA","NA","22110","1200","2","legacy","1024","2","48000","-16","AB_m21","216","even","FILL_W","MOURN","2241","133955","130083","132450","24527","NA","NA","NA","NA","NA","130583","NA","NA","NA","129582","NA","129557","2415","134255","NA","NA","NA","130623","2241","2404","NA","NA","131823","131846","129557","130583","130603","morph21_Oliver/Morris","14","24082","24","yes","1920","26"
"200","","60","60","996.68","996.68","black","no","xpyriment","legacy","legacy","0","203","NA","uniform","NA","NA","NA","1","undefined","1","0","24","24","24","0","24","24","24","NA","0","24","NA","NA","0","24","NA","24","0","24","NA","NA","NA","24","0","0","NA","NA","24","24","24","24","24","25","z","Thu Jul  6 16:35:14 2023","Executes Python code","yes","m21-ba-lexicalDecision.osexp","C:\Users\cramosma\Desktop\m21_vsl-main (1)\m21_vsl-main","no","mono","no","18","no","white","no","yes","1080","legacy","24","24","C:/Users/cramosma/Desktop/m21_vsl-main (1)/m21_vsl-main/subject-216.csv","xpyriment","Lentiform Loewenfeld","3.3.11","0","z","NA","NA","NA","NA","space","z","835","NA","NA","NA","NA","22110","835","2","legacy","1024","2","48000","-16","AB_m21","216","even","NW_S_COMP","ANTILM","2241","137888","135886","132450","24527","NA","NA","NA","NA","NA","136386","NA","NA","NA","135385","NA","135360","2415","138088","NA","NA","NA","136426","2241","2404","NA","NA","137261","137285","135360","136386","136406","morph21_Oliver/Morris","15","24917","25","yes","1920","8"
"300","","61.53846153846154","61.53846153846154","981.6153846153846","981.6153846153846","black","no","xpyriment","legacy","legacy","0","207","NA","uniform","NA","NA","NA","1","undefined","1","0","25","25","25","0","25","25","25","NA","0","25","NA","NA","0","25","NA","25","0","25","NA","NA","NA","25","0","0","NA","NA","25","25","25","25","25","26","/","Thu Jul  6 16:35:14 2023","Executes Python code","yes","m21-ba-lexicalDecision.osexp","C:\Users\cramosma\Desktop\m21_vsl-main (1)\m21_vsl-main","no","mono","no","18","no","white","no","yes","1080","legacy","25","25","C:/Users/cramosma/Desktop/m21_vsl-main (1)/m21_vsl-main/subject-216.csv","xpyriment","Lentiform Loewenfeld","3.3.11","0","/","NA","NA","NA","NA","space","/","605","NA","NA","NA","NA","22110","605","2","legacy","1024","2","48000","-16","AB_m21","216","even","FILL_W","BAKE","2241","141394","139619","132450","24527","NA","NA","NA","NA","NA","140119","NA","NA","NA","139118","NA","139094","2415","141694","NA","NA","NA","140160","2241","2404","NA","NA","140765","140790","139094","140119","140140","morph21_Oliver/Morris","16","25522","26","yes","1920","29"
"250","","62.96296296296296","62.96296296296296","974.6666666666666","974.6666666666666","black","no","xpyriment","legacy","legacy","0","208","NA","uniform","NA","NA","NA","1","undefined","1","0","26","26","26","0","26","26","26","NA","0","26","NA","NA","0","26","NA","26","0","26","NA","NA","NA","26","0","0","NA","NA","26","26","26","26","26","27","z","Thu Jul  6 16:35:14 2023","Executes Python code","yes","m21-ba-lexicalDecision.osexp","C:\Users\cramosma\Desktop\m21_vsl-main (1)\m21_vsl-main","no","mono","no","18","no","white","no","yes","1080","legacy","26","26","C:/Users/cramosma/Desktop/m21_vsl-main (1)/m21_vsl-main/subject-216.csv","xpyriment","Lentiform Loewenfeld","3.3.11","0","z","NA","NA","NA","NA","space","z","794","NA","NA","NA","NA","22110","794","2","legacy","1024","2","48000","-16","AB_m21","216","even","FILL_NW","PHEEKS","2241","146679","143215","145175","24527","NA","NA","NA","NA","NA","143715","NA","NA","NA","142715","NA","142685","2415","146929","NA","NA","NA","143755","2241","2404","NA","NA","144549","144572","142685","143715","143735","morph21_Oliver/Morris","17","26316","27","yes","1920","35"
"400","","60.714285714285715","60.714285714285715","982.7142857142857","982.7142857142857","black","no","xpyriment","legacy","legacy","0","206","NA","uniform","NA","NA","NA","0","undefined","0","0","27","27","27","0","27","27","27","NA","0","27","NA","NA","0","27","NA","27","0","27","NA","NA","NA","27","0","0","NA","NA","27","27","27","27","27","28","z","Thu Jul  6 16:35:14 2023","Executes Python code","yes","m21-ba-lexicalDecision.osexp","C:\Users\cramosma\Desktop\m21_vsl-main (1)\m21_vsl-main","no","mono","no","18","no","white","no","yes","1080","legacy","27","27","C:/Users/cramosma/Desktop/m21_vsl-main (1)/m21_vsl-main/subject-216.csv","xpyriment","Lentiform Loewenfeld","3.3.11","0","None","NA","NA","NA","NA","space","None","1200","NA","NA","NA","NA","22110","1200","2","legacy","1024","2","48000","-16","AB_m21","216","even","NW_L_SIMP","BOGARY","2241","150821","148454","145175","24527","NA","NA","NA","NA","NA","148955","NA","NA","NA","147953","NA","147924","2415","151221","NA","NA","NA","148995","2241","2404","NA","NA","150195","150218","147924","148954","148975","morph21_Oliver/Morris","17","27516","28","yes","1920","2"
"400","","62.06896551724138","62.06896551724138","978.8620689655172","978.8620689655172","black","no","xpyriment","legacy","legacy","0","201","NA","uniform","NA","NA","NA","1","undefined","1","0","28","28","28","0","28","28","28","NA","0","28","NA","NA","0","28","NA","28","0","28","NA","NA","NA","28","0","0","NA","NA","28","28","28","28","28","29","/","Thu Jul  6 16:35:14 2023","Executes Python code","yes","m21-ba-lexicalDecision.osexp","C:\Users\cramosma\Desktop\m21_vsl-main (1)\m21_vsl-main","no","mono","no","18","no","white","no","yes","1080","legacy","28","28","C:/Users/cramosma/Desktop/m21_vsl-main (1)/m21_vsl-main/subject-216.csv","xpyriment","Lentiform Loewenfeld","3.3.11","0","/","NA","NA","NA","NA","space","/","871","NA","NA","NA","NA","22110","871","2","legacy","1024","2","48000","-16","AB_m21","216","even","CW_S","DIETARY","2241","154817","152777","145175","24527","NA","NA","NA","NA","NA","153277","NA","NA","NA","152276","NA","152249","2415","155217","NA","NA","NA","153317","2241","2404","NA","NA","154189","154213","152249","153277","153297","morph21_Oliver/Morris","18","28387","29","yes","1920","6"
"200","","63.333333333333336","63.333333333333336","973.8","973.8","black","no","xpyriment","legacy","legacy","0","208","NA","uniform","NA","NA","NA","1","undefined","1","0","29","29","29","0","29","29","29","NA","0","29","NA","NA","0","29","NA","29","0","29","NA","NA","NA","29","0","0","NA","NA","29","29","29","29","29","30","z","Thu Jul  6 16:35:14 2023","Executes Python code","yes","m21-ba-lexicalDecision.osexp","C:\Users\cramosma\Desktop\m21_vsl-main (1)\m21_vsl-main","no","mono","no","18","no","white","no","yes","1080","legacy","29","29","C:/Users/cramosma/Desktop/m21_vsl-main (1)/m21_vsl-main/subject-216.csv","xpyriment","Lentiform Loewenfeld","3.3.11","0","z","NA","NA","NA","NA","space","z","827","NA","NA","NA","NA","22110","827","2","legacy","1024","2","48000","-16","AB_m21","216","even","FILL_NW","FROT","2241","160250","156750","158745","24527","NA","NA","NA","NA","NA","157250","NA","NA","NA","156250","NA","156219","2415","160450","NA","NA","NA","157290","2241","2404","NA","NA","158117","158141","156219","157250","157270","morph21_Oliver/Morris","19","29214","30","yes","1920","22"
"250","","61.29032258064516","61.29032258064516","981.0967741935484","981.0967741935484","black","no","xpyriment","legacy","legacy","0","206","NA","uniform","NA","NA","NA","0","undefined","0","0","30","30","30","0","30","30","30","NA","0","30","NA","NA","0","30","NA","30","0","30","NA","NA","NA","30","0","0","NA","NA","30","30","30","30","30","31","z","Thu Jul  6 16:35:14 2023","Executes Python code","yes","m21-ba-lexicalDecision.osexp","C:\Users\cramosma\Desktop\m21_vsl-main (1)\m21_vsl-main","no","mono","no","18","no","white","no","yes","1080","legacy","30","30","C:/Users/cramosma/Desktop/m21_vsl-main (1)/m21_vsl-main/subject-216.csv","xpyriment","Lentiform Loewenfeld","3.3.11","0","None","NA","NA","NA","NA","space","None","1200","NA","NA","NA","NA","22110","1200","2","legacy","1024","2","48000","-16","AB_m21","216","even","NW_L_SIMP"," DRESSORY","2241","164374","162006","158745","24527","NA","NA","NA","NA","NA","162507","NA","NA","NA","161506","NA","161478","2415","164624","NA","NA","NA","162547","2241","2404","NA","NA","163747","163770","161478","162507","162527","morph21_Oliver/Morris","19","30414","31","yes","1920","21"
"200","","62.5","62.5","980.375","980.375","black","no","xpyriment","legacy","legacy","0","208","NA","uniform","NA","NA","NA","1","undefined","1","0","31","31","31","0","31","31","31","NA","0","31","NA","NA","0","31","NA","31","0","31","NA","NA","NA","31","0","0","NA","NA","31","31","31","31","31","32","z","Thu Jul  6 16:35:14 2023","Executes Python code","yes","m21-ba-lexicalDecision.osexp","C:\Users\cramosma\Desktop\m21_vsl-main (1)\m21_vsl-main","no","mono","no","18","no","white","no","yes","1080","legacy","31","31","C:/Users/cramosma/Desktop/m21_vsl-main (1)/m21_vsl-main/subject-216.csv","xpyriment","Lentiform Loewenfeld","3.3.11","0","z","NA","NA","NA","NA","space","z","958","NA","NA","NA","NA","22110","958","2","legacy","1024","2","48000","-16","AB_m21","216","even","FILL_NW","TUEER","2241","168337","166209","158745","24527","NA","NA","NA","NA","NA","166709","NA","NA","NA","165707","NA","165680","2415","168537","NA","NA","NA","166750","2241","2404","NA","NA","167709","167734","165679","166709","166730","morph21_Oliver/Morris","20","31372","32","yes","1920","44"
"250","","60.60606060606061","60.60606060606061","987.030303030303","987.030303030303","black","no","xpyriment","legacy","legacy","0","204","NA","uniform","NA","NA","NA","0","undefined","0","0","32","32","32","0","32","32","32","NA","0","32","NA","NA","0","32","NA","32","0","32","NA","NA","NA","32","0","0","NA","NA","32","32","32","32","32","33","z","Thu Jul  6 16:35:14 2023","Executes Python code","yes","m21-ba-lexicalDecision.osexp","C:\Users\cramosma\Desktop\m21_vsl-main (1)\m21_vsl-main","no","mono","no","18","no","white","no","yes","1080","legacy","32","32","C:/Users/cramosma/Desktop/m21_vsl-main (1)/m21_vsl-main/subject-216.csv","xpyriment","Lentiform Loewenfeld","3.3.11","0","None","NA","NA","NA","NA","space","None","1200","NA","NA","NA","NA","22110","1200","2","legacy","1024","2","48000","-16","AB_m21","216","even","NW_L_COMP","TRIPADY","2241","173940","170066","172434","24527","NA","NA","NA","NA","NA","170566","NA","NA","NA","169565","NA","169538","2415","174190","NA","NA","NA","170607","2241","2404","NA","NA","171807","171831","169538","170566","170587","morph21_Oliver/Morris","20","32572","33","yes","1920","2"
"400","","61.76470588235294","61.76470588235294","984.9411764705883","984.9411764705883","black","no","xpyriment","legacy","legacy","0","203","NA","uniform","NA","NA","NA","1","undefined","1","0","33","33","33","0","33","33","33","NA","0","33","NA","NA","0","33","NA","33","0","33","NA","NA","NA","33","0","0","NA","NA","33","33","33","33","33","34","z","Thu Jul  6 16:35:14 2023","Executes Python code","yes","m21-ba-lexicalDecision.osexp","C:\Users\cramosma\Desktop\m21_vsl-main (1)\m21_vsl-main","no","mono","no","18","no","white","no","yes","1080","legacy","33","33","C:/Users/cramosma/Desktop/m21_vsl-main (1)/m21_vsl-main/subject-216.csv","xpyriment","Lentiform Loewenfeld","3.3.11","0","z","NA","NA","NA","NA","space","z","916","NA","NA","NA","NA","22110","916","2","legacy","1024","2","48000","-16","AB_m21","216","even","NW_S_COMP","ARIDILM","2241","177828","175741","172434","24527","NA","NA","NA","NA","NA","176241","NA","NA","NA","175240","NA","175213","2415","178228","NA","NA","NA","176281","2241","2404","NA","NA","177197","177223","175213","176241","176261","morph21_Oliver/Morris","21","33488","34","yes","1920","9"
"400","","60","60","991.0857142857143","991.0857142857143","black","no","xpyriment","legacy","legacy","0","208","NA","uniform","NA","NA","NA","0","undefined","0","0","34","34","34","0","34","34","34","NA","0","34","NA","NA","0","34","NA","34","0","34","NA","NA","NA","34","0","0","NA","NA","34","34","34","34","34","35","z","Thu Jul  6 16:35:14 2023","Executes Python code","yes","m21-ba-lexicalDecision.osexp","C:\Users\cramosma\Desktop\m21_vsl-main (1)\m21_vsl-main","no","mono","no","18","no","white","no","yes","1080","legacy","34","34","C:/Users/cramosma/Desktop/m21_vsl-main (1)/m21_vsl-main/subject-216.csv","xpyriment","Lentiform Loewenfeld","3.3.11","0","None","NA","NA","NA","NA","space","None","1200","NA","NA","NA","NA","22110","1200","2","legacy","1024","2","48000","-16","AB_m21","216","even","FILL_NW","BALFS","2241","182116","179749","172434","24527","NA","NA","NA","NA","NA","180249","NA","NA","NA","179249","NA","179223","2415","182516","NA","NA","NA","180289","2241","2404","NA","NA","181489","181513","179223","180249","180269","morph21_Oliver/Morris","21","34688","35","yes","1920","2"
"250","","61.111111111111114","61.111111111111114","988.3611111111111","988.3611111111111","black","no","xpyriment","legacy","legacy","0","208","NA","uniform","NA","NA","NA","1","undefined","1","0","35","35","35","0","35","35","35","NA","0","35","NA","NA","0","35","NA","35","0","35","NA","NA","NA","35","0","0","NA","NA","35","35","35","35","35","36","z","Thu Jul  6 16:35:14 2023","Executes Python code","yes","m21-ba-lexicalDecision.osexp","C:\Users\cramosma\Desktop\m21_vsl-main (1)\m21_vsl-main","no","mono","no","18","no","white","no","yes","1080","legacy","35","35","C:/Users/cramosma/Desktop/m21_vsl-main (1)/m21_vsl-main/subject-216.csv","xpyriment","Lentiform Loewenfeld","3.3.11","0","z","NA","NA","NA","NA","space","z","893","NA","NA","NA","NA","22110","893","2","legacy","1024","2","48000","-16","AB_m21","216","even","FILL_NW","LOLDS","2241","187670","184098","186162","24527","NA","NA","NA","NA","NA","184598","NA","NA","NA","183596","NA","183570","2415","187921","NA","NA","NA","184639","2241","2404","NA","NA","185533","185557","183570","184598","184619","morph21_Oliver/Morris","22","35581","36","yes","1920","34"
"200","","59.45945945945946","59.45945945945946","994.081081081081","994.081081081081","black","no","xpyriment","legacy","legacy","0","201","NA","uniform","NA","NA","NA","0","undefined","0","0","36","36","36","0","36","36","36","NA","0","36","NA","NA","0","36","NA","36","0","36","NA","NA","NA","36","0","0","NA","NA","36","36","36","36","36","37","/","Thu Jul  6 16:35:14 2023","Executes Python code","yes","m21-ba-lexicalDecision.osexp","C:\Users\cramosma\Desktop\m21_vsl-main (1)\m21_vsl-main","no","mono","no","18","no","white","no","yes","1080","legacy","36","36","C:/Users/cramosma/Desktop/m21_vsl-main (1)/m21_vsl-main/subject-216.csv","xpyriment","Lentiform Loewenfeld","3.3.11","0","None","NA","NA","NA","NA","space","None","1200","NA","NA","NA","NA","22110","1200","2","legacy","1024","2","48000","-16","AB_m21","216","even","CW_S","CAMPAIGNER","2241","191833","189464","186162","24527","NA","NA","NA","NA","NA","189964","NA","NA","NA","188964","NA","188938","2415","192033","NA","NA","NA","190005","2241","2404","NA","NA","191205","191230","188938","189964","189985","morph21_Oliver/Morris","22","36781","37","yes","1920","15"
"400","","57.89473684210526","57.89473684210526","999.5","999.5","black","no","xpyriment","legacy","legacy","0","203","NA","uniform","NA","NA","NA","0","undefined","0","0","37","37","37","0","37","37","37","NA","0","37","NA","NA","0","37","NA","37","0","37","NA","NA","NA","37","0","0","NA","NA","37","37","37","37","37","38","z","Thu Jul  6 16:35:14 2023","Executes Python code","yes","m21-ba-lexicalDecision.osexp","C:\Users\cramosma\Desktop\m21_vsl-main (1)\m21_vsl-main","no","mono","no","18","no","white","no","yes","1080","legacy","37","37","C:/Users/cramosma/Desktop/m21_vsl-main (1)/m21_vsl-main/subject-216.csv","xpyriment","Lentiform Loewenfeld","3.3.11","0","None","NA","NA","NA","NA","space","None","1200","NA","NA","NA","NA","22110","1200","2","legacy","1024","2","48000","-16","AB_m21","216","even","NW_S_COMP","TRUENELS","2241","195951","193585","186162","24527","NA","NA","NA","NA","NA","194085","NA","NA","NA","193085","NA","193061","2415","196351","NA","NA","NA","194125","2241","2404","NA","NA","195325","195348","193061","194085","194105","morph21_Oliver/Morris","22","37981","38","yes","1920","15"
"400","","56.41025641025641","56.41025641025641","1003.7948717948718","1003.7948717948718","black","no","xpyriment","legacy","legacy","0","206","NA","uniform","NA","NA","NA","0","undefined","0","0","38","38","38","0","38","38","38","NA","0","38","NA","NA","0","38","NA","38","0","38","NA","NA","NA","38","0","0","NA","NA","38","38","38","38","38","39","z","Thu Jul  6 16:35:14 2023","Executes Python code","yes","m21-ba-lexicalDecision.osexp","C:\Users\cramosma\Desktop\m21_vsl-main (1)\m21_vsl-main","no","mono","no","18","no","white","no","yes","1080","legacy","38","38","C:/Users/cramosma/Desktop/m21_vsl-main (1)/m21_vsl-main/subject-216.csv","xpyriment","Lentiform Loewenfeld","3.3.11","0","/","NA","NA","NA","NA","space","/","1167","NA","NA","NA","NA","22110","1167","2","legacy","1024","2","48000","-16","AB_m21","216","even","NW_L_SIMP","BLOODER","2241","201720","197881","200215","24527","NA","NA","NA","NA","NA","198381","NA","NA","NA","197379","NA","197352","2415","202120","NA","NA","NA","198421","2241","2404","NA","NA","199589","199612","197351","198381","198401","morph21_Oliver/Morris","22","39148","39","yes","1920","24"
"300","","57.5","57.5","1007.275","1007.275","black","no","xpyriment","legacy","legacy","0","203","NA","uniform","NA","NA","NA","1","undefined","1","0","39","39","39","0","39","39","39","NA","0","39","NA","NA","0","39","NA","39","0","39","NA","NA","NA","39","0","0","NA","NA","39","39","39","39","39","40","z","Thu Jul  6 16:35:14 2023","Executes Python code","yes","m21-ba-lexicalDecision.osexp","C:\Users\cramosma\Desktop\m21_vsl-main (1)\m21_vsl-main","no","mono","no","18","no","white","no","yes","1080","legacy","39","39","C:/Users/cramosma/Desktop/m21_vsl-main (1)/m21_vsl-main/subject-216.csv","xpyriment","Lentiform Loewenfeld","3.3.11","0","z","NA","NA","NA","NA","space","z","1143","NA","NA","NA","NA","22110","1143","2","legacy","1024","2","48000","-16","AB_m21","216","even","NW_S_COMP","CURTIDY","2241","205975","203663","200215","24527","NA","NA","NA","NA","NA","204164","NA","NA","NA","203161","NA","203135","2415","206275","NA","NA","NA","204205","2241","2404","NA","NA","205349","205372","203135","204164","204185","morph21_Oliver/Morris","23","40291","40","yes","1920","11"
"350","","56.09756097560975","56.09756097560975","1011.9756097560976","1011.9756097560976","black","no","xpyriment","legacy","legacy","0","202","NA","uniform","NA","NA","NA","0","undefined","0","0","40","40","40","0","40","40","40","NA","0","40","NA","NA","0","40","NA","40","0","40","NA","NA","NA","40","0","0","NA","NA","40","40","40","40","40","41","/","Thu Jul  6 16:35:14 2023","Executes Python code","yes","m21-ba-lexicalDecision.osexp","C:\Users\cramosma\Desktop\m21_vsl-main (1)\m21_vsl-main","no","mono","no","18","no","white","no","yes","1080","legacy","40","40","C:/Users/cramosma/Desktop/m21_vsl-main (1)/m21_vsl-main/subject-216.csv","xpyriment","Lentiform Loewenfeld","3.3.11","0","None","NA","NA","NA","NA","space","None","1200","NA","NA","NA","NA","22110","1200","2","legacy","1024","2","48000","-16","AB_m21","216","even","CW_L","GUILELESS","2241","210165","207795","200215","24527","NA","NA","NA","NA","NA","208296","NA","NA","NA","207293","NA","207268","2415","210515","NA","NA","NA","208336","2241","2404","NA","NA","209536","209562","207268","208296","208316","morph21_Oliver/Morris","23","41491","41","yes","1920","31"
"250","","57.142857142857146","57.142857142857146","1007.6904761904761","1007.6904761904761","black","no","xpyriment","legacy","legacy","0","201","NA","uniform","NA","NA","NA","1","undefined","1","0","41","41","41","0","41","41","41","NA","0","41","NA","NA","0","41","NA","41","0","41","NA","NA","NA","41","0","0","NA","NA","41","41","41","41","41","42","/","Thu Jul  6 16:35:14 2023","Executes Python code","yes","m21-ba-lexicalDecision.osexp","C:\Users\cramosma\Desktop\m21_vsl-main (1)\m21_vsl-main","no","mono","no","18","no","white","no","yes","1080","legacy","41","41","C:/Users/cramosma/Desktop/m21_vsl-main (1)/m21_vsl-main/subject-216.csv","xpyriment","Lentiform Loewenfeld","3.3.11","0","/","NA","NA","NA","NA","space","/","832","NA","NA","NA","NA","22110","832","2","legacy","1024","2","48000","-16","AB_m21","216","even","CW_S","COSTLY","2241","215553","212049","214048","24527","NA","NA","NA","NA","NA","212549","NA","NA","NA","211548","NA","211519","2415","215803","NA","NA","NA","212589","2241","2404","NA","NA","213422","213445","211519","212549","212569","morph21_Oliver/Morris","24","42323","42","yes","1920","36"
"300","","58.13953488372093","58.13953488372093","1003.4186046511628","1003.4186046511628","black","no","xpyriment","legacy","legacy","0","204","NA","uniform","NA","NA","NA","1","undefined","1","0","42","42","42","0","42","42","42","NA","0","42","NA","NA","0","42","NA","42","0","42","NA","NA","NA","42","0","0","NA","NA","42","42","42","42","42","43","z","Thu Jul  6 16:35:14 2023","Executes Python code","yes","m21-ba-lexicalDecision.osexp","C:\Users\cramosma\Desktop\m21_vsl-main (1)\m21_vsl-main","no","mono","no","18","no","white","no","yes","1080","legacy","42","42","C:/Users/cramosma/Desktop/m21_vsl-main (1)/m21_vsl-main/subject-216.csv","xpyriment","Lentiform Loewenfeld","3.3.11","0","z","NA","NA","NA","NA","space","z","824","NA","NA","NA","NA","22110","824","2","legacy","1024","2","48000","-16","AB_m21","216","even","NW_L_COMP","SHEETEL","2241","219329","217334","214048","24527","NA","NA","NA","NA","NA","217835","NA","NA","NA","216833","NA","216808","2415","219629","NA","NA","NA","217876","2241","2404","NA","NA","218701","218724","216808","217835","217856","morph21_Oliver/Morris","25","43147","43","yes","1920","5"
"400","","56.81818181818182","56.81818181818182","1007.8863636363636","1007.8863636363636","black","no","xpyriment","legacy","legacy","0","206","NA","uniform","NA","NA","NA","0","undefined","0","0","43","43","43","0","43","43","43","NA","0","43","NA","NA","0","43","NA","43","0","43","NA","NA","NA","43","0","0","NA","NA","43","43","43","43","43","44","z","Thu Jul  6 16:35:14 2023","Executes Python code","yes","m21-ba-lexicalDecision.osexp","C:\Users\cramosma\Desktop\m21_vsl-main (1)\m21_vsl-main","no","mono","no","18","no","white","no","yes","1080","legacy","43","43","C:/Users/cramosma/Desktop/m21_vsl-main (1)/m21_vsl-main/subject-216.csv","xpyriment","Lentiform Loewenfeld","3.3.11","0","None","NA","NA","NA","NA","space","None","1200","NA","NA","NA","NA","22110","1200","2","legacy","1024","2","48000","-16","AB_m21","216","even","NW_L_SIMP","POORITY","2241","223533","221161","214048","24527","NA","NA","NA","NA","NA","221663","NA","NA","NA","220658","NA","220635","2415","223933","NA","NA","NA","221703","2241","2404","NA","NA","222903","222928","220635","221663","221683","morph21_Oliver/Morris","25","44347","44","yes","1920","13"
"300","","57.77777777777778","57.77777777777778","999.3333333333334","999.3333333333334","black","no","xpyriment","legacy","legacy","0","201","NA","uniform","NA","NA","NA","1","undefined","1","0","44","44","44","0","44","44","44","NA","0","44","NA","NA","0","44","NA","44","0","44","NA","NA","NA","44","0","0","NA","NA","44","44","44","44","44","45","/","Thu Jul  6 16:35:14 2023","Executes Python code","yes","m21-ba-lexicalDecision.osexp","C:\Users\cramosma\Desktop\m21_vsl-main (1)\m21_vsl-main","no","mono","no","18","no","white","no","yes","1080","legacy","44","44","C:/Users/cramosma/Desktop/m21_vsl-main (1)/m21_vsl-main/subject-216.csv","xpyriment","Lentiform Loewenfeld","3.3.11","0","/","NA","NA","NA","NA","space","/","623","NA","NA","NA","NA","22110","623","2","legacy","1024","2","48000","-16","AB_m21","216","even","CW_S","RISKY","2241","228772","225473","227268","24527","NA","NA","NA","NA","NA","225973","NA","NA","NA","224972","NA","224946","2415","229072","NA","NA","NA","226014","2241","2404","NA","NA","226637","226663","224946","225973","225994","morph21_Oliver/Morris","26","44970","45","yes","1920","50"
"200","","56.52173913043478","56.52173913043478","995.9347826086956","995.9347826086956","black","no","xpyriment","legacy","legacy","0","206","NA","uniform","NA","NA","NA","0","undefined","0","0","45","45","45","0","45","45","45","NA","0","45","NA","NA","0","45","NA","45","0","45","NA","NA","NA","45","0","0","NA","NA","45","45","45","45","45","46","z","Thu Jul  6 16:35:14 2023","Executes Python code","yes","m21-ba-lexicalDecision.osexp","C:\Users\cramosma\Desktop\m21_vsl-main (1)\m21_vsl-main","no","mono","no","18","no","white","no","yes","1080","legacy","45","45","C:/Users/cramosma/Desktop/m21_vsl-main (1)/m21_vsl-main/subject-216.csv","xpyriment","Lentiform Loewenfeld","3.3.11","0","/","NA","NA","NA","NA","space","/","843","NA","NA","NA","NA","22110","843","2","legacy","1024","2","48000","-16","AB_m21","216","even","NW_L_SIMP","GROWIST","2241","232616","230604","227268","24527","NA","NA","NA","NA","NA","231105","NA","NA","NA","230102","NA","230074","2415","232816","NA","NA","NA","231146","2241","2404","NA","NA","231989","232013","230074","231105","231126","morph21_Oliver/Morris","26","45813","46","yes","1920","20"
"300","","57.4468085106383","57.4468085106383","989.2978723404256","989.2978723404256","black","no","xpyriment","legacy","legacy","0","207","NA","uniform","NA","NA","NA","1","undefined","1","0","46","46","46","0","46","46","46","NA","0","46","NA","NA","0","46","NA","46","0","46","NA","NA","NA","46","0","0","NA","NA","46","46","46","46","46","47","/","Thu Jul  6 16:35:14 2023","Executes Python code","yes","m21-ba-lexicalDecision.osexp","C:\Users\cramosma\Desktop\m21_vsl-main (1)\m21_vsl-main","no","mono","no","18","no","white","no","yes","1080","legacy","46","46","C:/Users/cramosma/Desktop/m21_vsl-main (1)/m21_vsl-main/subject-216.csv","xpyriment","Lentiform Loewenfeld","3.3.11","0","/","NA","NA","NA","NA","space","/","684","NA","NA","NA","NA","22110","684","2","legacy","1024","2","48000","-16","AB_m21","216","even","FILL_W","BLUNT","2241","236184","234331","227268","24527","NA","NA","NA","NA","NA","234833","NA","NA","NA","233829","NA","233803","2415","236484","NA","NA","NA","234873","2241","2404","NA","NA","235558","235581","233803","234833","234853","morph21_Oliver/Morris","27","46497","47","yes","1920","4"
"400","","58.333333333333336","58.333333333333336","985.5","985.5","black","no","xpyriment","legacy","legacy","0","202","NA","uniform","NA","NA","NA","1","undefined","1","0","47","47","47","0","47","47","47","NA","0","47","NA","NA","0","47","NA","47","0","47","NA","NA","NA","47","0","0","NA","NA","47","47","47","47","47","48","/","Thu Jul  6 16:35:14 2023","Executes Python code","yes","m21-ba-lexicalDecision.osexp","C:\Users\cramosma\Desktop\m21_vsl-main (1)\m21_vsl-main","no","mono","no","18","no","white","no","yes","1080","legacy","47","47","C:/Users/cramosma/Desktop/m21_vsl-main (1)/m21_vsl-main/subject-216.csv","xpyriment","Lentiform Loewenfeld","3.3.11","0","/","NA","NA","NA","NA","space","/","807","NA","NA","NA","NA","22110","807","2","legacy","1024","2","48000","-16","AB_m21","216","even","CW_L","BLINDNESS","2241","241481","238000","239977","24527","NA","NA","NA","NA","NA","238500","NA","NA","NA","237500","NA","237475","2415","241881","NA","NA","NA","238541","2241","2404","NA","NA","239349","239373","237475","238500","238521","morph21_Oliver/Morris","28","47304","48","yes","1920","40"
"350","","59.183673469387756","59.183673469387756","983.5918367346939","983.5918367346939","black","no","xpyriment","legacy","legacy","0","206","NA","uniform","NA","NA","NA","1","undefined","1","0","48","48","48","0","48","48","48","NA","0","48","NA","NA","0","48","NA","48","0","48","NA","NA","NA","48","0","0","NA","NA","48","48","48","48","48","49","z","Thu Jul  6 16:35:14 2023","Executes Python code","yes","m21-ba-lexicalDecision.osexp","C:\Users\cramosma\Desktop\m21_vsl-main (1)\m21_vsl-main","no","mono","no","18","no","white","no","yes","1080","legacy","48","48","C:/Users/cramosma/Desktop/m21_vsl-main (1)/m21_vsl-main/subject-216.csv","xpyriment","Lentiform Loewenfeld","3.3.11","0","z","NA","NA","NA","NA","space","z","892","NA","NA","NA","NA","22110","892","2","legacy","1024","2","48000","-16","AB_m21","216","even","NW_L_SIMP","CRITICANCE","2241","245490","243427","239977","24527","NA","NA","NA","NA","NA","243928","NA","NA","NA","242924","NA","242899","2415","245841","NA","NA","NA","243969","2241","2404","NA","NA","244861","244885","242899","243928","243949","morph21_Oliver/Morris","29","48196","49","yes","1920","22"
"200","","58","58","983.36","983.36","black","no","xpyriment","legacy","legacy","0","208","NA","uniform","NA","NA","NA","0","undefined","0","0","49","49","49","0","49","49","49","NA","0","49","NA","NA","0","49","NA","49","0","49","NA","NA","NA","49","0","0","NA","NA","49","49","49","49","49","50","z","Thu Jul  6 16:35:14 2023","Executes Python code","yes","m21-ba-lexicalDecision.osexp","C:\Users\cramosma\Desktop\m21_vsl-main (1)\m21_vsl-main","no","mono","no","18","no","white","no","yes","1080","legacy","49","49","C:/Users/cramosma/Desktop/m21_vsl-main (1)/m21_vsl-main/subject-216.csv","xpyriment","Lentiform Loewenfeld","3.3.11","0","/","NA","NA","NA","NA","space","/","972","NA","NA","NA","NA","22110","972","2","legacy","1024","2","48000","-16","AB_m21","216","even","FILL_NW","FALONS","2241","249496","247355","239977","24527","NA","NA","NA","NA","NA","247857","NA","NA","NA","246854","NA","246831","2415","249696","NA","NA","NA","247897","2241","2404","NA","NA","248869","248893","246831","247857","247877","morph21_Oliver/Morris","29","49168","50","yes","1920","19"
"200","","56.86274509803921","56.86274509803921","987.6078431372549","987.6078431372549","black","no","xpyriment","legacy","legacy","0","201","NA","uniform","NA","NA","NA","0","undefined","0","0","50","50","50","0","50","50","50","NA","0","50","NA","NA","0","50","NA","50","0","50","NA","NA","NA","50","0","0","NA","NA","50","50","50","50","50","51","/","Thu Jul  6 16:35:14 2023","Executes Python code","yes","m21-ba-lexicalDecision.osexp","C:\Users\cramosma\Desktop\m21_vsl-main (1)\m21_vsl-main","no","mono","no","18","no","white","no","yes","1080","legacy","50","50","C:/Users/cramosma/Desktop/m21_vsl-main (1)/m21_vsl-main/subject-216.csv","xpyriment","Lentiform Loewenfeld","3.3.11","0","None","NA","NA","NA","NA","space","None","1200","NA","NA","NA","NA","22110","1200","2","legacy","1024","2","48000","-16","AB_m21","216","even","CW_S","LOCALLY","2241","255098","251224","253592","24527","NA","NA","NA","NA","NA","251724","NA","NA","NA","250724","NA","250699","2415","255298","NA","NA","NA","251765","2241","2404","NA","NA","252965","252988","250699","251724","251745","morph21_Oliver/Morris","29","50368","51","yes","1920","37"
"250","","57.69230769230769","57.69230769230769","985.0576923076923","985.0576923076923","black","no","xpyriment","legacy","legacy","0","204","NA","uniform","NA","NA","NA","1","undefined","1","0","51","51","51","0","51","51","51","NA","0","51","NA","NA","0","51","NA","51","0","51","NA","NA","NA","51","0","0","NA","NA","51","51","51","51","51","52","z","Thu Jul  6 16:35:14 2023","Executes Python code","yes","m21-ba-lexicalDecision.osexp","C:\Users\cramosma\Desktop\m21_vsl-main (1)\m21_vsl-main","no","mono","no","18","no","white","no","yes","1080","legacy","51","51","C:/Users/cramosma/Desktop/m21_vsl-main (1)/m21_vsl-main/subject-216.csv","xpyriment","Lentiform Loewenfeld","3.3.11","0","z","NA","NA","NA","NA","space","z","855","NA","NA","NA","NA","22110","855","2","legacy","1024","2","48000","-16","AB_m21","216","even","NW_L_COMP","FREENELS","2241","258872","256850","253592","24527","NA","NA","NA","NA","NA","257350","NA","NA","NA","256349","NA","256321","2415","259122","NA","NA","NA","257390","2241","2404","NA","NA","258246","258269","256321","257350","257370","morph21_Oliver/Morris","30","51223","52","yes","1920","15"
"300","","58.490566037735846","58.490566037735846","986.1698113207547","986.1698113207547","black","no","xpyriment","legacy","legacy","0","202","NA","uniform","NA","NA","NA","1","undefined","1","0","52","52","52","0","52","52","52","NA","0","52","NA","NA","0","52","NA","52","0","52","NA","NA","NA","52","0","0","NA","NA","52","52","52","52","52","53","/","Thu Jul  6 16:35:14 2023","Executes Python code","yes","m21-ba-lexicalDecision.osexp","C:\Users\cramosma\Desktop\m21_vsl-main (1)\m21_vsl-main","no","mono","no","18","no","white","no","yes","1080","legacy","52","52","C:/Users/cramosma/Desktop/m21_vsl-main (1)/m21_vsl-main/subject-216.csv","xpyriment","Lentiform Loewenfeld","3.3.11","0","/","NA","NA","NA","NA","space","/","1044","NA","NA","NA","NA","22110","1044","2","legacy","1024","2","48000","-16","AB_m21","216","even","CW_L","DAMPISH","2241","262865","260651","253592","24527","NA","NA","NA","NA","NA","261151","NA","NA","NA","260151","NA","260125","2415","263165","NA","NA","NA","261192","2241","2404","NA","NA","262237","262262","260125","261151","261172","morph21_Oliver/Morris","31","52267","53","yes","1920","28"
"200","","59.25925925925926","59.25925925925926","981.5370370370371","981.5370370370371","black","no","xpyriment","legacy","legacy","0","202","NA","uniform","NA","NA","NA","1","undefined","1","0","53","53","53","0","53","53","53","NA","0","53","NA","NA","0","53","NA","53","0","53","NA","NA","NA","53","0","0","NA","NA","53","53","53","53","53","54","/","Thu Jul  6 16:35:14 2023","Executes Python code","yes","m21-ba-lexicalDecision.osexp","C:\Users\cramosma\Desktop\m21_vsl-main (1)\m21_vsl-main","no","mono","no","18","no","white","no","yes","1080","legacy","53","53","C:/Users/cramosma/Desktop/m21_vsl-main (1)/m21_vsl-main/subject-216.csv","xpyriment","Lentiform Loewenfeld","3.3.11","0","/","NA","NA","NA","NA","space","/","736","NA","NA","NA","NA","22110","736","2","legacy","1024","2","48000","-16","AB_m21","216","even","CW_L","SHAMEFUL","2241","268097","264687","266594","24527","NA","NA","NA","NA","NA","265189","NA","NA","NA","264187","NA","264162","2415","268297","NA","NA","NA","265229","2241","2404","NA","NA","265965","265990","264162","265188","265209","morph21_Oliver/Morris","32","53003","54","yes","1920","19"
"400","","60","60","977.6909090909091","977.6909090909091","black","no","xpyriment","legacy","legacy","0","201","NA","uniform","NA","NA","NA","1","undefined","1","0","54","54","54","0","54","54","54","NA","0","54","NA","NA","0","54","NA","54","0","54","NA","NA","NA","54","0","0","NA","NA","54","54","54","54","54","55","/","Thu Jul  6 16:35:14 2023","Executes Python code","yes","m21-ba-lexicalDecision.osexp","C:\Users\cramosma\Desktop\m21_vsl-main (1)\m21_vsl-main","no","mono","no","18","no","white","no","yes","1080","legacy","54","54","C:/Users/cramosma/Desktop/m21_vsl-main (1)/m21_vsl-main/subject-216.csv","xpyriment","Lentiform Loewenfeld","3.3.11","0","/","NA","NA","NA","NA","space","/","770","NA","NA","NA","NA","22110","770","2","legacy","1024","2","48000","-16","AB_m21","216","even","CW_S","ALLOWANCE","2241","271763","269823","266594","24527","NA","NA","NA","NA","NA","270323","NA","NA","NA","269322","NA","269292","2415","272163","NA","NA","NA","270363","2241","2404","NA","NA","271133","271157","269292","270323","270343","morph21_Oliver/Morris","33","53773","55","yes","1920","5"
"300","","60.714285714285715","60.714285714285715","977.5178571428571","977.5178571428571","black","no","xpyriment","legacy","legacy","0","204","NA","uniform","NA","NA","NA","1","undefined","1","0","55","55","55","0","55","55","55","NA","0","55","NA","NA","0","55","NA","55","0","55","NA","NA","NA","55","0","0","NA","NA","55","55","55","55","55","56","z","Thu Jul  6 16:35:14 2023","Executes Python code","yes","m21-ba-lexicalDecision.osexp","C:\Users\cramosma\Desktop\m21_vsl-main (1)\m21_vsl-main","no","mono","no","18","no","white","no","yes","1080","legacy","55","55","C:/Users/cramosma/Desktop/m21_vsl-main (1)/m21_vsl-main/subject-216.csv","xpyriment","Lentiform Loewenfeld","3.3.11","0","z","NA","NA","NA","NA","space","z","968","NA","NA","NA","NA","22110","968","2","legacy","1024","2","48000","-16","AB_m21","216","even","NW_L_COMP","EMPLOYNELS","2241","275825","273687","266594","24527","NA","NA","NA","NA","NA","274187","NA","NA","NA","273187","NA","273157","2415","276126","NA","NA","NA","274228","2241","2404","NA","NA","275197","275221","273157","274187","274208","morph21_Oliver/Morris","34","54741","56","yes","1920","21"
"300","","61.40350877192982","61.40350877192982","977.578947368421","977.578947368421","black","no","xpyriment","legacy","legacy","0","208","NA","uniform","NA","NA","NA","1","undefined","1","0","56","56","56","0","56","56","56","NA","0","56","NA","NA","0","56","NA","56","0","56","NA","NA","NA","56","0","0","NA","NA","56","56","56","56","56","57","z","Thu Jul  6 16:35:14 2023","Executes Python code","yes","m21-ba-lexicalDecision.osexp","C:\Users\cramosma\Desktop\m21_vsl-main (1)\m21_vsl-main","no","mono","no","18","no","white","no","yes","1080","legacy","56","56","C:/Users/cramosma/Desktop/m21_vsl-main (1)/m21_vsl-main/subject-216.csv","xpyriment","Lentiform Loewenfeld","3.3.11","0","z","NA","NA","NA","NA","space","z","981","NA","NA","NA","NA","22110","981","2","legacy","1024","2","48000","-16","AB_m21","216","even","FILL_NW","BAFED","2241","281314","277658","279809","24527","NA","NA","NA","NA","NA","278160","NA","NA","NA","277157","NA","277131","2415","281614","NA","NA","NA","278200","2241","2404","NA","NA","279182","279205","277131","278160","278180","morph21_Oliver/Morris","35","55722","57","yes","1920","1"
"250","","62.06896551724138","62.06896551724138","980.051724137931","980.051724137931","black","no","xpyriment","legacy","legacy","0","205","NA","uniform","NA","NA","NA","1","undefined","1","0","57","57","57","0","57","57","57","NA","0","57","NA","NA","0","57","NA","57","0","57","NA","NA","NA","57","0","0","NA","NA","57","57","57","57","57","58","z","Thu Jul  6 16:35:14 2023","Executes Python code","yes","m21-ba-lexicalDecision.osexp","C:\Users\cramosma\Desktop\m21_vsl-main (1)\m21_vsl-main","no","mono","no","18","no","white","no","yes","1080","legacy","57","57","C:/Users/cramosma/Desktop/m21_vsl-main (1)/m21_vsl-main/subject-216.csv","xpyriment","Lentiform Loewenfeld","3.3.11","0","z","NA","NA","NA","NA","space","z","1121","NA","NA","NA","NA","22110","1121","2","legacy","1024","2","48000","-16","AB_m21","216","even","NW_S_SIMP","DIGORY","2241","285449","283159","279809","24527","NA","NA","NA","NA","NA","283660","NA","NA","NA","282658","NA","282635","2415","285699","NA","NA","NA","283700","2241","2404","NA","NA","284822","284845","282635","283659","283680","morph21_Oliver/Morris","36","56843","58","yes","1920","11"
"250","","61.016949152542374","61.016949152542374","983.7796610169491","983.7796610169491","black","no","xpyriment","legacy","legacy","0","206","NA","uniform","NA","NA","NA","0","undefined","0","0","58","58","58","0","58","58","58","NA","0","58","NA","NA","0","58","NA","58","0","58","NA","NA","NA","58","0","0","NA","NA","58","58","58","58","58","59","z","Thu Jul  6 16:35:14 2023","Executes Python code","yes","m21-ba-lexicalDecision.osexp","C:\Users\cramosma\Desktop\m21_vsl-main (1)\m21_vsl-main","no","mono","no","18","no","white","no","yes","1080","legacy","58","58","C:/Users/cramosma/Desktop/m21_vsl-main (1)/m21_vsl-main/subject-216.csv","xpyriment","Lentiform Loewenfeld","3.3.11","0","None","NA","NA","NA","NA","space","None","1200","NA","NA","NA","NA","22110","1200","2","legacy","1024","2","48000","-16","AB_m21","216","even","NW_L_SIMP","SHOOTMENT","2241","289614","287247","279809","24527","NA","NA","NA","NA","NA","287747","NA","NA","NA","286747","NA","286717","2415","289864","NA","NA","NA","287788","2241","2404","NA","NA","288988","289011","286717","287747","287768","morph21_Oliver/Morris","36","58043","59","yes","1920","16"
"350","","60","60","987.3833333333333","987.3833333333333","black","no","xpyriment","legacy","legacy","0","206","NA","uniform","NA","NA","NA","0","undefined","0","0","59","59","59","0","59","59","59","NA","0","59","NA","NA","0","59","NA","59","0","59","NA","NA","NA","59","0","0","NA","NA","59","59","59","59","59","60","z","Thu Jul  6 16:35:14 2023","Executes Python code","yes","m21-ba-lexicalDecision.osexp","C:\Users\cramosma\Desktop\m21_vsl-main (1)\m21_vsl-main","no","mono","no","18","no","white","no","yes","1080","legacy","59","59","C:/Users/cramosma/Desktop/m21_vsl-main (1)/m21_vsl-main/subject-216.csv","xpyriment","Lentiform Loewenfeld","3.3.11","0","None","NA","NA","NA","NA","space","None","1200","NA","NA","NA","NA","22110","1200","2","legacy","1024","2","48000","-16","AB_m21","216","even","NW_L_SIMP","PICKENCE","2241","295259","291387","293753","24527","NA","NA","NA","NA","NA","291887","NA","NA","NA","290887","NA","290857","2415","295609","NA","NA","NA","291927","2241","2404","NA","NA","293127","293150","290857","291887","291907","morph21_Oliver/Morris","36","59243","60","yes","1920","5"
"350","","60.65573770491803","60.65573770491803","983.2622950819672","983.2622950819672","black","no","xpyriment","legacy","legacy","0","208","NA","uniform","NA","NA","NA","1","undefined","1","0","60","60","60","0","60","60","60","NA","0","60","NA","NA","0","60","NA","60","0","60","NA","NA","NA","60","0","0","NA","NA","60","60","60","60","60","61","z","Thu Jul  6 16:35:14 2023","Executes Python code","yes","m21-ba-lexicalDecision.osexp","C:\Users\cramosma\Desktop\m21_vsl-main (1)\m21_vsl-main","no","mono","no","18","no","white","no","yes","1080","legacy","60","60","C:/Users/cramosma/Desktop/m21_vsl-main (1)/m21_vsl-main/subject-216.csv","xpyriment","Lentiform Loewenfeld","3.3.11","0","z","NA","NA","NA","NA","space","z","736","NA","NA","NA","NA","22110","736","2","legacy","1024","2","48000","-16","AB_m21","216","even","FILL_NW","HEAS","2241","299048","297143","293753","24527","NA","NA","NA","NA","NA","297643","NA","NA","NA","296643","NA","296614","2415","299398","NA","NA","NA","297684","2241","2404","NA","NA","298421","298445","296614","297643","297664","morph21_Oliver/Morris","37","59979","61","yes","1920","26"
"400","","59.67741935483871","59.67741935483871","986.758064516129","986.758064516129","black","no","xpyriment","legacy","legacy","0","202","NA","uniform","NA","NA","NA","0","undefined","0","0","61","61","61","0","61","61","61","NA","0","61","NA","NA","0","61","NA","61","0","61","NA","NA","NA","61","0","0","NA","NA","61","61","61","61","61","62","/","Thu Jul  6 16:35:14 2023","Executes Python code","yes","m21-ba-lexicalDecision.osexp","C:\Users\cramosma\Desktop\m21_vsl-main (1)\m21_vsl-main","no","mono","no","18","no","white","no","yes","1080","legacy","61","61","C:/Users/cramosma/Desktop/m21_vsl-main (1)/m21_vsl-main/subject-216.csv","xpyriment","Lentiform Loewenfeld","3.3.11","0","None","NA","NA","NA","NA","space","None","1200","NA","NA","NA","NA","22110","1200","2","legacy","1024","2","48000","-16","AB_m21","216","even","CW_L","FAITHFUL","2241","303286","300919","293753","24527","NA","NA","NA","NA","NA","301419","NA","NA","NA","300419","NA","300394","2415","303686","NA","NA","NA","301460","2241","2404","NA","NA","302660","302683","300394","301419","301440","morph21_Oliver/Morris","37","61179","62","yes","1920","20"
"400","","60.317460317460316","60.317460317460316","982.6825396825396","982.6825396825396","black","no","xpyriment","legacy","legacy","0","201","NA","uniform","NA","NA","NA","1","undefined","1","0","62","62","62","0","62","62","62","NA","0","62","NA","NA","0","62","NA","62","0","62","NA","NA","NA","62","0","0","NA","NA","62","62","62","62","62","63","/","Thu Jul  6 16:35:14 2023","Executes Python code","yes","m21-ba-lexicalDecision.osexp","C:\Users\cramosma\Desktop\m21_vsl-main (1)\m21_vsl-main","no","mono","no","18","no","white","no","yes","1080","legacy","62","62","C:/Users/cramosma/Desktop/m21_vsl-main (1)/m21_vsl-main/subject-216.csv","xpyriment","Lentiform Loewenfeld","3.3.11","0","/","NA","NA","NA","NA","space","/","730","NA","NA","NA","NA","22110","730","2","legacy","1024","2","48000","-16","AB_m21","216","even","CW_S","DESIGN","2241","308623","305222","307120","24527","NA","NA","NA","NA","NA","305722","NA","NA","NA","304722","NA","304693","2415","309023","NA","NA","NA","305762","2241","2404","NA","NA","306493","306517","304693","305722","305742","morph21_Oliver/Morris","38","61909","63","yes","1920","19"
"350","","60.9375","60.9375","983.765625","983.765625","black","no","xpyriment","legacy","legacy","0","204","NA","uniform","NA","NA","NA","1","undefined","1","0","63","63","63","0","63","63","63","NA","0","63","NA","NA","0","63","NA","63","0","63","NA","NA","NA","63","0","0","NA","NA","63","63","63","63","63","64","z","Thu Jul  6 16:35:14 2023","Executes Python code","yes","m21-ba-lexicalDecision.osexp","C:\Users\cramosma\Desktop\m21_vsl-main (1)\m21_vsl-main","no","mono","no","18","no","white","no","yes","1080","legacy","63","63","C:/Users/cramosma/Desktop/m21_vsl-main (1)/m21_vsl-main/subject-216.csv","xpyriment","Lentiform Loewenfeld","3.3.11","0","z","NA","NA","NA","NA","space","z","1052","NA","NA","NA","NA","22110","1052","2","legacy","1024","2","48000","-16","AB_m21","216","even","NW_L_COMP","INKILM","2241","312769","310548","307120","24527","NA","NA","NA","NA","NA","311048","NA","NA","NA","310048","NA","310020","2415","313119","NA","NA","NA","311088","2241","2404","NA","NA","312141","312165","310019","311048","311068","morph21_Oliver/Morris","39","62961","64","yes","1920","8"
"350","","60","60","987.0923076923077","987.0923076923077","black","no","xpyriment","legacy","legacy","0","202","NA","uniform","NA","NA","NA","0","undefined","0","0","64","64","64","0","64","64","64","NA","0","64","NA","NA","0","64","NA","64","0","64","NA","NA","NA","64","0","0","NA","NA","64","64","64","64","64","65","/","Thu Jul  6 16:35:14 2023","Executes Python code","yes","m21-ba-lexicalDecision.osexp","C:\Users\cramosma\Desktop\m21_vsl-main (1)\m21_vsl-main","no","mono","no","18","no","white","no","yes","1080","legacy","64","64","C:/Users/cramosma/Desktop/m21_vsl-main (1)/m21_vsl-main/subject-216.csv","xpyriment","Lentiform Loewenfeld","3.3.11","0","None","NA","NA","NA","NA","space","None","1200","NA","NA","NA","NA","22110","1200","2","legacy","1024","2","48000","-16","AB_m21","216","even","CW_L","PUNCHER","2241","317032","314662","307120","24527","NA","NA","NA","NA","NA","315163","NA","NA","NA","314162","NA","314135","2415","317382","NA","NA","NA","315204","2241","2404","NA","NA","316404","316429","314135","315163","315184","morph21_Oliver/Morris","39","64161","65","yes","1920","1"
"350","","60.60606060606061","60.60606060606061","985.7727272727273","985.7727272727273","black","no","xpyriment","legacy","legacy","0","205","NA","uniform","NA","NA","NA","1","undefined","1","0","65","65","65","0","65","65","65","NA","0","65","NA","NA","0","65","NA","65","0","65","NA","NA","NA","65","0","0","NA","NA","65","65","65","65","65","66","z","Thu Jul  6 16:35:14 2023","Executes Python code","yes","m21-ba-lexicalDecision.osexp","C:\Users\cramosma\Desktop\m21_vsl-main (1)\m21_vsl-main","no","mono","no","18","no","white","no","yes","1080","legacy","65","65","C:/Users/cramosma/Desktop/m21_vsl-main (1)/m21_vsl-main/subject-216.csv","xpyriment","Lentiform Loewenfeld","3.3.11","0","z","NA","NA","NA","NA","space","z","900","NA","NA","NA","NA","22110","900","2","legacy","1024","2","48000","-16","AB_m21","216","even","NW_S_SIMP","ACREMENT","2241","322520","318946","321016","24527","NA","NA","NA","NA","NA","319447","NA","NA","NA","318445","NA","318417","2415","322870","NA","NA","NA","319488","2241","2404","NA","NA","320389","320413","318417","319447","319468","morph21_Oliver/Morris","40","65061","66","yes","1920","16"
"400","","61.19402985074627","61.19402985074627","982.1641791044776","982.1641791044776","black","no","xpyriment","legacy","legacy","0","203","NA","uniform","NA","NA","NA","1","undefined","1","0","66","66","66","0","66","66","66","NA","0","66","NA","NA","0","66","NA","66","0","66","NA","NA","NA","66","0","0","NA","NA","66","66","66","66","66","67","z","Thu Jul  6 16:35:14 2023","Executes Python code","yes","m21-ba-lexicalDecision.osexp","C:\Users\cramosma\Desktop\m21_vsl-main (1)\m21_vsl-main","no","mono","no","18","no","white","no","yes","1080","legacy","66","66","C:/Users/cramosma/Desktop/m21_vsl-main (1)/m21_vsl-main/subject-216.csv","xpyriment","Lentiform Loewenfeld","3.3.11","0","z","NA","NA","NA","NA","space","z","744","NA","NA","NA","NA","22110","744","2","legacy","1024","2","48000","-16","AB_m21","216","even","NW_S_COMP","ALTARIG","2241","326320","324408","321016","24527","NA","NA","NA","NA","NA","324908","NA","NA","NA","323908","NA","323879","2415","326720","NA","NA","NA","324949","2241","2404","NA","NA","325693","325717","323879","324908","324929","morph21_Oliver/Morris","41","65805","67","yes","1920","7"
"350","","61.76470588235294","61.76470588235294","981.1617647058823","981.1617647058823","black","no","xpyriment","legacy","legacy","0","202","NA","uniform","NA","NA","NA","1","undefined","1","0","67","67","67","0","67","67","67","NA","0","67","NA","NA","0","67","NA","67","0","67","NA","NA","NA","67","0","0","NA","NA","67","67","67","67","67","68","/","Thu Jul  6 16:35:14 2023","Executes Python code","yes","m21-ba-lexicalDecision.osexp","C:\Users\cramosma\Desktop\m21_vsl-main (1)\m21_vsl-main","no","mono","no","18","no","white","no","yes","1080","legacy","67","67","C:/Users/cramosma/Desktop/m21_vsl-main (1)/m21_vsl-main/subject-216.csv","xpyriment","Lentiform Loewenfeld","3.3.11","0","/","NA","NA","NA","NA","space","/","914","NA","NA","NA","NA","22110","914","2","legacy","1024","2","48000","-16","AB_m21","216","even","CW_L","PARKING","2241","330344","328261","321016","24527","NA","NA","NA","NA","NA","328762","NA","NA","NA","327759","NA","327736","2415","330694","NA","NA","NA","328803","2241","2404","NA","NA","329717","329742","327736","328762","328783","morph21_Oliver/Morris","42","66719","68","yes","1920","25"
"400","","62.31884057971015","62.31884057971015","980.8115942028985","980.8115942028985","black","no","xpyriment","legacy","legacy","0","204","NA","uniform","NA","NA","NA","1","undefined","1","0","68","68","68","0","68","68","68","NA","0","68","NA","NA","0","68","NA","68","0","68","NA","NA","NA","68","0","0","NA","NA","68","68","68","68","68","69","z","Thu Jul  6 16:35:14 2023","Executes Python code","yes","m21-ba-lexicalDecision.osexp","C:\Users\cramosma\Desktop\m21_vsl-main (1)\m21_vsl-main","no","mono","no","18","no","white","no","yes","1080","legacy","68","68","C:/Users/cramosma/Desktop/m21_vsl-main (1)/m21_vsl-main/subject-216.csv","xpyriment","Lentiform Loewenfeld","3.3.11","0","z","NA","NA","NA","NA","space","z","957","NA","NA","NA","NA","22110","957","2","legacy","1024","2","48000","-16","AB_m21","216","even","NW_L_COMP","FLITENGE","2241","335851","332219","334345","24527","NA","NA","NA","NA","NA","332719","NA","NA","NA","331719","NA","331691","2415","336251","NA","NA","NA","332760","2241","2404","NA","NA","333718","333742","331691","332719","332740","morph21_Oliver/Morris","43","67676","69","yes","1920","3"
"200","","62.857142857142854","62.857142857142854","977.7428571428571","977.7428571428571","black","no","xpyriment","legacy","legacy","0","203","NA","uniform","NA","NA","NA","1","undefined","1","0","69","69","69","0","69","69","69","NA","0","69","NA","NA","0","69","NA","69","0","69","NA","NA","NA","69","0","0","NA","NA","69","69","69","69","69","70","z","Thu Jul  6 16:35:14 2023","Executes Python code","yes","m21-ba-lexicalDecision.osexp","C:\Users\cramosma\Desktop\m21_vsl-main (1)\m21_vsl-main","no","mono","no","18","no","white","no","yes","1080","legacy","69","69","C:/Users/cramosma/Desktop/m21_vsl-main (1)/m21_vsl-main/subject-216.csv","xpyriment","Lentiform Loewenfeld","3.3.11","0","z","NA","NA","NA","NA","space","z","766","NA","NA","NA","NA","22110","766","2","legacy","1024","2","48000","-16","AB_m21","216","even","NW_S_COMP","FANFIL","2241","339721","337786","334345","24527","NA","NA","NA","NA","NA","338286","NA","NA","NA","337286","NA","337261","2415","339921","NA","NA","NA","338327","2241","2404","NA","NA","339094","339118","337261","338286","338307","morph21_Oliver/Morris","44","68442","70","yes","1920","6"
"200","","63.38028169014085","63.38028169014085","975.7323943661971","975.7323943661971","black","no","xpyriment","legacy","legacy","0","202","NA","uniform","NA","NA","NA","1","undefined","1","0","70","70","70","0","70","70","70","NA","0","70","NA","NA","0","70","NA","70","0","70","NA","NA","NA","70","0","0","NA","NA","70","70","70","70","70","71","/","Thu Jul  6 16:35:14 2023","Executes Python code","yes","m21-ba-lexicalDecision.osexp","C:\Users\cramosma\Desktop\m21_vsl-main (1)\m21_vsl-main","no","mono","no","18","no","white","no","yes","1080","legacy","70","70","C:/Users/cramosma/Desktop/m21_vsl-main (1)/m21_vsl-main/subject-216.csv","xpyriment","Lentiform Loewenfeld","3.3.11","0","/","NA","NA","NA","NA","space","/","835","NA","NA","NA","NA","22110","835","2","legacy","1024","2","48000","-16","AB_m21","216","even","CW_L","BONELESS","2241","343434","341428","334345","24527","NA","NA","NA","NA","NA","341930","NA","NA","NA","340927","NA","340903","2415","343634","NA","NA","NA","341970","2241","2404","NA","NA","342806","342830","340903","341930","341950","morph21_Oliver/Morris","45","69277","71","yes","1920","34"
"300","","63.888888888888886","63.888888888888886","972.4861111111111","972.4861111111111","black","no","xpyriment","legacy","legacy","0","204","NA","uniform","NA","NA","NA","1","undefined","1","0","71","71","71","0","71","71","71","NA","0","71","NA","NA","0","71","NA","71","0","71","NA","NA","NA","71","0","0","NA","NA","71","71","71","71","71","72","z","Thu Jul  6 16:35:14 2023","Executes Python code","yes","m21-ba-lexicalDecision.osexp","C:\Users\cramosma\Desktop\m21_vsl-main (1)\m21_vsl-main","no","mono","no","18","no","white","no","yes","1080","legacy","71","71","C:/Users/cramosma/Desktop/m21_vsl-main (1)/m21_vsl-main/subject-216.csv","xpyriment","Lentiform Loewenfeld","3.3.11","0","z","NA","NA","NA","NA","space","z","742","NA","NA","NA","NA","22110","742","2","legacy","1024","2","48000","-16","AB_m21","216","even","NW_L_COMP","FELLOWOES","2241","348575","345162","347073","24527","NA","NA","NA","NA","NA","345663","NA","NA","NA","344661","NA","344635","2415","348875","NA","NA","NA","345703","2241","2404","NA","NA","346445","346470","344635","345663","345683","morph21_Oliver/Morris","46","70019","72","yes","1920","17"
"400","","64.38356164383562","64.38356164383562","968.5342465753424","968.5342465753424","black","no","xpyriment","legacy","legacy","0","207","NA","uniform","NA","NA","NA","1","undefined","1","0","72","72","72","0","72","72","72","NA","0","72","NA","NA","0","72","NA","72","0","72","NA","NA","NA","72","0","0","NA","NA","72","72","72","72","72","73","/","Thu Jul  6 16:35:14 2023","Executes Python code","yes","m21-ba-lexicalDecision.osexp","C:\Users\cramosma\Desktop\m21_vsl-main (1)\m21_vsl-main","no","mono","no","18","no","white","no","yes","1080","legacy","72","72","C:/Users/cramosma/Desktop/m21_vsl-main (1)/m21_vsl-main/subject-216.csv","xpyriment","Lentiform Loewenfeld","3.3.11","0","/","NA","NA","NA","NA","space","/","684","NA","NA","NA","NA","22110","684","2","legacy","1024","2","48000","-16","AB_m21","216","even","FILL_W","QUIT","2241","352259","350403","347073","24527","NA","NA","NA","NA","NA","350903","NA","NA","NA","349903","NA","349873","2415","352659","NA","NA","NA","350944","2241","2404","NA","NA","351629","351653","349873","350903","350924","morph21_Oliver/Morris","47","70703","73","yes","1920","21"
"300","","64.86486486486487","64.86486486486487","970.081081081081","970.081081081081","black","no","xpyriment","legacy","legacy","0","205","NA","uniform","NA","NA","NA","1","undefined","1","0","73","73","73","0","73","73","73","NA","0","73","NA","NA","0","73","NA","73","0","73","NA","NA","NA","73","0","0","NA","NA","73","73","73","73","73","74","z","Thu Jul  6 16:35:14 2023","Executes Python code","yes","m21-ba-lexicalDecision.osexp","C:\Users\cramosma\Desktop\m21_vsl-main (1)\m21_vsl-main","no","mono","no","18","no","white","no","yes","1080","legacy","73","73","C:/Users/cramosma/Desktop/m21_vsl-main (1)/m21_vsl-main/subject-216.csv","xpyriment","Lentiform Loewenfeld","3.3.11","0","z","NA","NA","NA","NA","space","z","1083","NA","NA","NA","NA","22110","1083","2","legacy","1024","2","48000","-16","AB_m21","216","even","NW_S_SIMP","HELMETOUS","2241","356435","354182","347073","24527","NA","NA","NA","NA","NA","354682","NA","NA","NA","353682","NA","353651","2415","356735","NA","NA","NA","354722","2241","2404","NA","NA","355805","355831","353651","354682","354702","morph21_Oliver/Morris","48","71786","74","yes","1920","14"
"200","","64","64","973.1466666666666","973.1466666666666","black","no","xpyriment","legacy","legacy","0","205","NA","uniform","NA","NA","NA","undefined","undefined","0","0","74","74","74","0","74","74","74","NA","0","74","NA","NA","0","74","NA","74","0","74","NA","NA","NA","74","0","0","NA","NA","74","74","74","74","74","75","z","Thu Jul  6 16:35:14 2023","Executes Python code","yes","m21-ba-lexicalDecision.osexp","C:\Users\cramosma\Desktop\m21_vsl-main (1)\m21_vsl-main","no","mono","no","18","no","white","no","yes","1080","legacy","74","74","C:/Users/cramosma/Desktop/m21_vsl-main (1)/m21_vsl-main/subject-216.csv","xpyriment","Lentiform Loewenfeld","3.3.11","0","space","space","NA","NA","NA","space","None","8123","8123","NA","NA","NA","22110","1200","2","legacy","1024","2","48000","-16","AB_m21","216","even","NW_S_SIMP","THRILLANCE","2241","362135","358257","360628","24527","362338","NA","NA","NA","NA","358757","NA","NA","NA","357756","NA","357732","2415","370462","NA","NA","NA","358799","2241","2404","NA","NA","359999","360023","357732","358757","358778","morph21_Oliver/Morris","48","72986","75","yes","1920","22"
"250","","64.47368421052632","64.47368421052632","971.3947368421053","971.3947368421053","black","no","xpyriment","legacy","legacy","0","208","NA","uniform","NA","NA","NA","1","undefined","1","0","75","75","75","0","75","75","75","NA","0","75","NA","NA","0","75","NA","75","0","75","NA","NA","NA","75","0","0","NA","NA","75","75","75","75","75","76","z","Thu Jul  6 16:35:14 2023","Executes Python code","yes","m21-ba-lexicalDecision.osexp","C:\Users\cramosma\Desktop\m21_vsl-main (1)\m21_vsl-main","no","mono","no","18","no","white","no","yes","1080","legacy","75","75","C:/Users/cramosma/Desktop/m21_vsl-main (1)/m21_vsl-main/subject-216.csv","xpyriment","Lentiform Loewenfeld","3.3.11","0","z","space","NA","NA","NA","space","z","840","8123","NA","NA","NA","22110","840","2","legacy","1024","2","48000","-16","AB_m21","216","even","FILL_NW","PIFTH","2241","374001","371991","360628","24527","362338","NA","NA","NA","NA","372492","NA","NA","NA","371491","NA","371466","2415","374251","NA","NA","NA","372533","2241","2404","NA","NA","373374","373398","371466","372492","372513","morph21_Oliver/Morris","49","73826","76","yes","1920","36"
"250","","63.63636363636363","63.63636363636363","969.0909090909091","969.0909090909091","black","no","xpyriment","legacy","legacy","0","201","NA","uniform","NA","NA","NA","0","undefined","0","0","76","76","76","0","76","76","76","NA","0","76","NA","NA","0","76","NA","76","0","76","NA","NA","NA","76","0","0","NA","NA","76","76","76","76","76","77","/","Thu Jul  6 16:35:14 2023","Executes Python code","yes","m21-ba-lexicalDecision.osexp","C:\Users\cramosma\Desktop\m21_vsl-main (1)\m21_vsl-main","no","mono","no","18","no","white","no","yes","1080","legacy","76","76","C:/Users/cramosma/Desktop/m21_vsl-main (1)/m21_vsl-main/subject-216.csv","xpyriment","Lentiform Loewenfeld","3.3.11","0","z","space","NA","NA","NA","space","z","794","8123","NA","NA","NA","22110","794","2","legacy","1024","2","48000","-16","AB_m21","216","even","CW_S","NOTICEABLE","2241","377761","375797","360628","24527","362338","NA","NA","NA","NA","376298","NA","NA","NA","375296","NA","375272","2415","378012","NA","NA","NA","376339","2241","2404","NA","NA","377134","377157","375271","376298","376319","morph21_Oliver/Morris","49","74620","77","yes","1920","3"
"300","","64.1025641025641","64.1025641025641","968.2948717948718","968.2948717948718","black","no","xpyriment","legacy","legacy","0","204","NA","uniform","NA","NA","NA","1","undefined","1","0","77","77","77","0","77","77","77","NA","0","77","NA","NA","0","77","NA","77","0","77","NA","NA","NA","77","0","0","NA","NA","77","77","77","77","77","78","z","Thu Jul  6 16:35:14 2023","Executes Python code","yes","m21-ba-lexicalDecision.osexp","C:\Users\cramosma\Desktop\m21_vsl-main (1)\m21_vsl-main","no","mono","no","18","no","white","no","yes","1080","legacy","77","77","C:/Users/cramosma/Desktop/m21_vsl-main (1)/m21_vsl-main/subject-216.csv","xpyriment","Lentiform Loewenfeld","3.3.11","0","z","space","NA","NA","NA","space","z","907","8123","NA","NA","NA","22110","907","2","legacy","1024","2","48000","-16","AB_m21","216","even","NW_L_COMP","KINGILM","2241","383133","379549","381627","24527","362338","NA","NA","NA","NA","380050","NA","NA","NA","379049","NA","379019","2415","383433","NA","NA","NA","380090","2241","2404","NA","NA","380998","381022","379019","380049","380070","morph21_Oliver/Morris","50","75527","78","yes","1920","19"
"400","","64.55696202531645","64.55696202531645","966.253164556962","966.253164556962","black","no","xpyriment","legacy","legacy","0","208","NA","uniform","NA","NA","NA","1","undefined","1","0","78","78","78","0","78","78","78","NA","0","78","NA","NA","0","78","NA","78","0","78","NA","NA","NA","78","0","0","NA","NA","78","78","78","78","78","79","z","Thu Jul  6 16:35:14 2023","Executes Python code","yes","m21-ba-lexicalDecision.osexp","C:\Users\cramosma\Desktop\m21_vsl-main (1)\m21_vsl-main","no","mono","no","18","no","white","no","yes","1080","legacy","78","78","C:/Users/cramosma/Desktop/m21_vsl-main (1)/m21_vsl-main/subject-216.csv","xpyriment","Lentiform Loewenfeld","3.3.11","0","z","space","NA","NA","NA","space","z","807","8123","NA","NA","NA","22110","807","2","legacy","1024","2","48000","-16","AB_m21","216","even","FILL_NW","ULNS","2241","386954","384978","381627","24527","362338","NA","NA","NA","NA","385478","NA","NA","NA","384478","NA","384448","2415","387354","NA","NA","NA","385518","2241","2404","NA","NA","386326","386350","384448","385478","385498","morph21_Oliver/Morris","51","76334","79","yes","1920","45"
"250","","65","65","967.5125","967.5125","black","no","xpyriment","legacy","legacy","0","201","NA","uniform","NA","NA","NA","1","undefined","1","0","79","79","79","0","79","79","79","NA","0","79","NA","NA","0","79","NA","79","0","79","NA","NA","NA","79","0","0","NA","NA","79","79","79","79","79","80","/","Thu Jul  6 16:35:14 2023","Executes Python code","yes","m21-ba-lexicalDecision.osexp","C:\Users\cramosma\Desktop\m21_vsl-main (1)\m21_vsl-main","no","mono","no","18","no","white","no","yes","1080","legacy","79","79","C:/Users/cramosma/Desktop/m21_vsl-main (1)/m21_vsl-main/subject-216.csv","xpyriment","Lentiform Loewenfeld","3.3.11","0","/","space","NA","NA","NA","space","/","1067","8123","NA","NA","NA","22110","1067","2","legacy","1024","2","48000","-16","AB_m21","216","even","CW_S","MILDNESS","2241","391112","388877","381627","24527","362338","NA","NA","NA","NA","389377","NA","NA","NA","388376","NA","388349","2415","391362","NA","NA","NA","389418","2241","2404","NA","NA","390486","390509","388349","389377","389397","morph21_Oliver/Morris","52","77401","80","yes","1920","42"
"250","","64.19753086419753","64.19753086419753","963.4691358024692","963.4691358024692","black","no","xpyriment","legacy","legacy","0","206","NA","uniform","NA","NA","NA","0","undefined","0","0","80","80","80","0","80","80","80","NA","0","80","NA","NA","0","80","NA","80","0","80","NA","NA","NA","80","0","0","NA","NA","80","80","80","80","80","81","z","Thu Jul  6 16:35:14 2023","Executes Python code","yes","m21-ba-lexicalDecision.osexp","C:\Users\cramosma\Desktop\m21_vsl-main (1)\m21_vsl-main","no","mono","no","18","no","white","no","yes","1080","legacy","80","80","C:/Users/cramosma/Desktop/m21_vsl-main (1)/m21_vsl-main/subject-216.csv","xpyriment","Lentiform Loewenfeld","3.3.11","0","/","space","NA","NA","NA","space","/","640","8123","NA","NA","NA","22110","640","2","legacy","1024","2","48000","-16","AB_m21","216","even","NW_L_SIMP","SMOOTHFUL","2241","396207","392894","394704","24527","362338","NA","NA","NA","NA","393396","NA","NA","NA","392393","NA","392370","2415","396457","NA","NA","NA","393437","2241","2404","NA","NA","394078","394101","392369","393396","393417","morph21_Oliver/Morris","52","78041","81","yes","1920","19"
"350","","64.63414634146342","64.63414634146342","959.1951219512196","959.1951219512196","black","no","xpyriment","legacy","legacy","0","207","NA","uniform","NA","NA","NA","1","undefined","1","0","81","81","81","0","81","81","81","NA","0","81","NA","NA","0","81","NA","81","0","81","NA","NA","NA","81","0","0","NA","NA","81","81","81","81","81","82","/","Thu Jul  6 16:35:14 2023","Executes Python code","yes","m21-ba-lexicalDecision.osexp","C:\Users\cramosma\Desktop\m21_vsl-main (1)\m21_vsl-main","no","mono","no","18","no","white","no","yes","1080","legacy","81","81","C:/Users/cramosma/Desktop/m21_vsl-main (1)/m21_vsl-main/subject-216.csv","xpyriment","Lentiform Loewenfeld","3.3.11","0","/","space","NA","NA","NA","space","/","613","8123","NA","NA","NA","22110","613","2","legacy","1024","2","48000","-16","AB_m21","216","even","FILL_W","GLOOM","2241","399768","397986","394704","24527","362338","NA","NA","NA","NA","398487","NA","NA","NA","397486","NA","397458","2415","400118","NA","NA","NA","398527","2241","2404","NA","NA","399141","399165","397458","398487","398507","morph21_Oliver/Morris","53","78654","82","yes","1920","14"
"350","","65.06024096385542","65.06024096385542","955.0361445783133","955.0361445783133","black","no","xpyriment","legacy","legacy","0","208","NA","uniform","NA","NA","NA","1","undefined","1","0","82","82","82","0","82","82","82","NA","0","82","NA","NA","0","82","NA","82","0","82","NA","NA","NA","82","0","0","NA","NA","82","82","82","82","82","83","z","Thu Jul  6 16:35:14 2023","Executes Python code","yes","m21-ba-lexicalDecision.osexp","C:\Users\cramosma\Desktop\m21_vsl-main (1)\m21_vsl-main","no","mono","no","18","no","white","no","yes","1080","legacy","82","82","C:/Users/cramosma/Desktop/m21_vsl-main (1)/m21_vsl-main/subject-216.csv","xpyriment","Lentiform Loewenfeld","3.3.11","0","z","space","NA","NA","NA","space","z","614","8123","NA","NA","NA","22110","614","2","legacy","1024","2","48000","-16","AB_m21","216","even","FILL_NW","JADS","2241","403440","401657","394704","24527","362338","NA","NA","NA","NA","402159","NA","NA","NA","401154","NA","401130","2415","403790","NA","NA","NA","402199","2241","2404","NA","NA","402814","402837","401130","402159","402179","morph21_Oliver/Morris","54","79268","83","yes","1920","31"
"200","","65.47619047619048","65.47619047619048","951.5595238095239","951.5595238095239","black","no","xpyriment","legacy","legacy","0","208","NA","uniform","NA","NA","NA","1","undefined","1","0","83","83","83","0","83","83","83","NA","0","83","NA","NA","0","83","NA","83","0","83","NA","NA","NA","83","0","0","NA","NA","83","83","83","83","83","84","z","Thu Jul  6 16:35:14 2023","Executes Python code","yes","m21-ba-lexicalDecision.osexp","C:\Users\cramosma\Desktop\m21_vsl-main (1)\m21_vsl-main","no","mono","no","18","no","white","no","yes","1080","legacy","83","83","C:/Users/cramosma/Desktop/m21_vsl-main (1)/m21_vsl-main/subject-216.csv","xpyriment","Lentiform Loewenfeld","3.3.11","0","z","space","NA","NA","NA","space","z","663","8123","NA","NA","NA","22110","663","2","legacy","1024","2","48000","-16","AB_m21","216","even","FILL_NW","PORDS","2241","408648","405312","407144","24527","362338","NA","NA","NA","NA","405813","NA","NA","NA","404812","NA","404785","2415","408848","NA","NA","NA","405854","2241","2404","NA","NA","406518","406541","404785","405813","405834","morph21_Oliver/Morris","55","79931","84","yes","1920","39"
"300","","65.88235294117646","65.88235294117646","953.2","953.2","black","no","xpyriment","legacy","legacy","0","206","NA","uniform","NA","NA","NA","1","undefined","1","0","84","84","84","0","84","84","84","NA","0","84","NA","NA","0","84","NA","84","0","84","NA","NA","NA","84","0","0","NA","NA","84","84","84","84","84","85","z","Thu Jul  6 16:35:14 2023","Executes Python code","yes","m21-ba-lexicalDecision.osexp","C:\Users\cramosma\Desktop\m21_vsl-main (1)\m21_vsl-main","no","mono","no","18","no","white","no","yes","1080","legacy","84","84","C:/Users/cramosma/Desktop/m21_vsl-main (1)/m21_vsl-main/subject-216.csv","xpyriment","Lentiform Loewenfeld","3.3.11","0","z","space","NA","NA","NA","space","z","1091","8123","NA","NA","NA","22110","1091","2","legacy","1024","2","48000","-16","AB_m21","216","even","NW_L_SIMP","PRAYANCE","2241","412665","410404","407144","24527","362338","NA","NA","NA","NA","410905","NA","NA","NA","409903","NA","409877","2415","412966","NA","NA","NA","410946","2241","2404","NA","NA","412038","412062","409877","410905","410926","morph21_Oliver/Morris","56","81022","85","yes","1920","1"
"350","","66.27906976744185","66.27906976744185","952.6860465116279","952.6860465116279","black","no","xpyriment","legacy","legacy","0","203","NA","uniform","NA","NA","NA","1","undefined","1","0","85","85","85","0","85","85","85","NA","0","85","NA","NA","0","85","NA","85","0","85","NA","NA","NA","85","0","0","NA","NA","85","85","85","85","85","86","z","Thu Jul  6 16:35:14 2023","Executes Python code","yes","m21-ba-lexicalDecision.osexp","C:\Users\cramosma\Desktop\m21_vsl-main (1)\m21_vsl-main","no","mono","no","18","no","white","no","yes","1080","legacy","85","85","C:/Users/cramosma/Desktop/m21_vsl-main (1)/m21_vsl-main/subject-216.csv","xpyriment","Lentiform Loewenfeld","3.3.11","0","z","space","NA","NA","NA","space","z","909","8123","NA","NA","NA","22110","909","2","legacy","1024","2","48000","-16","AB_m21","216","even","NW_S_COMP","FIENDILM","2241","416585","414506","407144","24527","362338","NA","NA","NA","NA","415007","NA","NA","NA","414006","NA","413978","2415","416935","NA","NA","NA","415048","2241","2404","NA","NA","415958","415982","413978","415007","415028","morph21_Oliver/Morris","57","81931","86","yes","1920","24"
