"ITI","acc","accuracy","average_response_time","avg_rt","background","bidi","canvas_backend","clock_backend","color_backend","compensation","cond_trig","condtrigtime","coordinates","coroutines_cycles","coroutines_duration","coroutines_mean_cycle_duration","correct","correct_instructions_1","correct_new_keyboard_response_1","count_AB_m21","count_ITI","count_blank_screen","count_blink_screen","count_block1","count_break1","count_break2","count_break3_1","count_canvas","count_close_port","count_cond_trigger","count_correct_trigger","count_def_chain","count_end_screen","count_fixation_1","count_getting_started","count_inc_counter","count_instructions_1","count_logger","count_logscript","count_new_inline_script","count_new_inline_script_2","count_new_keyboard_response_1","count_open_port","count_reset_counter_prep","count_reset_counter_run","count_response_trigger_trial","count_responsescreen","count_sequence","count_target_present","count_word_trigger","counter","cresp","datetime","description","disable_garbage_collection","experiment_file","experiment_path","font_bold","font_family","font_italic","font_size","font_underline","foreground","form_clicks","fullscreen","height","keyboard_backend","live_row","live_row_block1","logfile","mouse_backend","opensesame_codename","opensesame_version","repeat_cycle","response","response_break1","response_break2","response_break3_1","response_end_screen","response_instructions_1","response_new_keyboard_response_1","response_time","response_time_break1","response_time_break2","response_time_break3_1","response_time_end_screen","response_time_instructions_1","response_time_new_keyboard_response_1","round_decimals","sampler_backend","sound_buf_size","sound_channels","sound_freq","sound_sample_size","start","subject_nr","subject_parity","targ_type","target","time_AB_m21","time_ITI","time_blank_screen","time_blink_screen","time_block1","time_break1","time_break2","time_break3_1","time_canvas","time_close_port","time_cond_trigger","time_correct_trigger","time_def_chain","time_end_screen","time_fixation_1","time_getting_started","time_inc_counter","time_instructions_1","time_logger","time_logscript","time_new_inline_script","time_new_inline_script_2","time_new_keyboard_response_1","time_open_port","time_reset_counter_prep","time_reset_counter_run","time_response_trigger_trial","time_responsescreen","time_sequence","time_target_present","time_word_trigger","title","total_correct","total_response_time","total_responses","uniform_coordinates","width","word_trig"
"400","0","0","1200","1200","black","no","xpyriment","legacy","legacy","0","202","NA","uniform","NA","NA","NA","0","undefined","0","0","0","0","0","0","0","0","0","NA","0","0","NA","NA","0","0","NA","0","0","0","NA","NA","NA","0","0","0","NA","0","0","0","0","0","1","/","Thu Dec  7 10:35:56 2023","The main experiment item","yes","m21-ab-lexicalDecision.osexp","C:\Users\ekealey\Desktop","no","mono","no","18","no","white","no","yes","1080","legacy","0","0","C:/Users/ekealey/Desktop/subject-231.csv","xpyriment","Lentiform Loewenfeld","3.3.11","0","None","NA","NA","NA","NA","space","None","1200","NA","NA","NA","NA","28012","1200","2","legacy","1024","2","48000","-16","AB_m21","231","odd","CW_L","BLINDNESS","1883","34222","31855","NA","29909","NA","NA","NA","NA","NA","32356","NA","NA","NA","31353","NA","31320","1895","34622","NA","NA","NA","32396","1884","1884","NA","33596","33619","31319","32356","32376","morph21_Oliver/Morris","0","1200","1","yes","1920","40"
"400","0","0","1200","1200","black","no","xpyriment","legacy","legacy","0","208","NA","uniform","NA","NA","NA","0","undefined","0","0","1","1","1","0","1","1","1","NA","0","1","NA","NA","0","1","NA","1","0","1","NA","NA","NA","1","0","0","NA","1","1","1","1","1","2","z","Thu Dec  7 10:35:56 2023","The main experiment item","yes","m21-ab-lexicalDecision.osexp","C:\Users\ekealey\Desktop","no","mono","no","18","no","white","no","yes","1080","legacy","1","1","C:/Users/ekealey/Desktop/subject-231.csv","xpyriment","Lentiform Loewenfeld","3.3.11","0","None","NA","NA","NA","NA","space","None","1200","NA","NA","NA","NA","28012","1200","2","legacy","1024","2","48000","-16","AB_m21","231","odd","FILL_NW","BUTE","1883","38570","36202","NA","29909","NA","NA","NA","NA","NA","36703","NA","NA","NA","35700","NA","35671","1895","38970","NA","NA","NA","36743","1884","1884","NA","37943","37966","35671","36703","36723","morph21_Oliver/Morris","0","2400","2","yes","1920","5"
"400","0","0","1200","1200","black","no","xpyriment","legacy","legacy","0","201","NA","uniform","NA","NA","NA","0","undefined","0","0","2","2","2","0","2","2","2","NA","0","2","NA","NA","0","2","NA","2","0","2","NA","NA","NA","2","0","0","NA","2","2","2","2","2","3","/","Thu Dec  7 10:35:56 2023","The main experiment item","yes","m21-ab-lexicalDecision.osexp","C:\Users\ekealey\Desktop","no","mono","no","18","no","white","no","yes","1080","legacy","2","2","C:/Users/ekealey/Desktop/subject-231.csv","xpyriment","Lentiform Loewenfeld","3.3.11","0","None","NA","NA","NA","NA","space","None","1200","NA","NA","NA","NA","28012","1200","2","legacy","1024","2","48000","-16","AB_m21","231","odd","CW_S","DIETARY","1883","44438","40565","42934","29909","NA","NA","NA","NA","NA","41066","NA","NA","NA","40064","NA","40038","1895","44839","NA","NA","NA","41106","1884","1884","NA","42306","42331","40038","41066","41086","morph21_Oliver/Morris","0","3600","3","yes","1920","6"
"350","0","0","1200","1200","black","no","xpyriment","legacy","legacy","0","203","NA","uniform","NA","NA","NA","0","undefined","0","0","3","3","3","0","3","3","3","NA","0","3","NA","NA","0","3","NA","3","0","3","NA","NA","NA","3","0","0","NA","3","3","3","3","3","4","z","Thu Dec  7 10:35:56 2023","The main experiment item","yes","m21-ab-lexicalDecision.osexp","C:\Users\ekealey\Desktop","no","mono","no","18","no","white","no","yes","1080","legacy","3","3","C:/Users/ekealey/Desktop/subject-231.csv","xpyriment","Lentiform Loewenfeld","3.3.11","0","None","NA","NA","NA","NA","space","None","1200","NA","NA","NA","NA","28012","1200","2","legacy","1024","2","48000","-16","AB_m21","231","odd","NW_S_COMP","WELDIC","1883","48816","46447","42934","29909","NA","NA","NA","NA","NA","46947","NA","NA","NA","45946","NA","45918","1895","49166","NA","NA","NA","46989","1884","1884","NA","48189","48212","45918","46947","46969","morph21_Oliver/Morris","0","4800","4","yes","1920","21"
"300","0","0","1200","1200","black","no","xpyriment","legacy","legacy","0","204","NA","uniform","NA","NA","NA","0","undefined","0","0","4","4","4","0","4","4","4","NA","0","4","NA","NA","0","4","NA","4","0","4","NA","NA","NA","4","0","0","NA","4","4","4","4","4","5","z","Thu Dec  7 10:35:56 2023","The main experiment item","yes","m21-ab-lexicalDecision.osexp","C:\Users\ekealey\Desktop","no","mono","no","18","no","white","no","yes","1080","legacy","4","4","C:/Users/ekealey/Desktop/subject-231.csv","xpyriment","Lentiform Loewenfeld","3.3.11","0","None","NA","NA","NA","NA","space","None","1200","NA","NA","NA","NA","28012","1200","2","legacy","1024","2","48000","-16","AB_m21","231","odd","NW_L_COMP","NORTHIZE","1883","53105","50737","42934","29909","NA","NA","NA","NA","NA","51238","NA","NA","NA","50235","NA","50206","1895","53405","NA","NA","NA","51278","1884","1884","NA","52478","52502","50206","51238","51258","morph21_Oliver/Morris","0","6000","5","yes","1920","20"
"250","0","0","1200","1200","black","no","xpyriment","legacy","legacy","0","207","NA","uniform","NA","NA","NA","0","undefined","0","0","5","5","5","0","5","5","5","NA","0","5","NA","NA","0","5","NA","5","0","5","NA","NA","NA","5","0","0","NA","5","5","5","5","5","6","/","Thu Dec  7 10:35:56 2023","The main experiment item","yes","m21-ab-lexicalDecision.osexp","C:\Users\ekealey\Desktop","no","mono","no","18","no","white","no","yes","1080","legacy","5","5","C:/Users/ekealey/Desktop/subject-231.csv","xpyriment","Lentiform Loewenfeld","3.3.11","0","None","NA","NA","NA","NA","space","None","1200","NA","NA","NA","NA","28012","1200","2","legacy","1024","2","48000","-16","AB_m21","231","odd","FILL_W","SUIT","1883","58843","54970","57338","29909","NA","NA","NA","NA","NA","55471","NA","NA","NA","54468","NA","54441","1895","59093","NA","NA","NA","55511","1884","1884","NA","56711","56735","54441","55470","55491","morph21_Oliver/Morris","0","7200","6","yes","1920","49"
"300","0","0","1200","1200","black","no","xpyriment","legacy","legacy","0","206","NA","uniform","NA","NA","NA","0","undefined","0","0","6","6","6","0","6","6","6","NA","0","6","NA","NA","0","6","NA","6","0","6","NA","NA","NA","6","0","0","NA","6","6","6","6","6","7","z","Thu Dec  7 10:35:56 2023","The main experiment item","yes","m21-ab-lexicalDecision.osexp","C:\Users\ekealey\Desktop","no","mono","no","18","no","white","no","yes","1080","legacy","6","6","C:/Users/ekealey/Desktop/subject-231.csv","xpyriment","Lentiform Loewenfeld","3.3.11","0","None","NA","NA","NA","NA","space","None","1200","NA","NA","NA","NA","28012","1200","2","legacy","1024","2","48000","-16","AB_m21","231","odd","NW_L_SIMP","BEANITH","1883","63065","60694","57338","29909","NA","NA","NA","NA","NA","61195","NA","NA","NA","60192","NA","60161","1895","63365","NA","NA","NA","61236","1884","1884","NA","62436","62461","60161","61195","61216","morph21_Oliver/Morris","0","8400","7","yes","1920","8"
"200","0","0","1200","1200","black","no","xpyriment","legacy","legacy","0","208","NA","uniform","NA","NA","NA","0","undefined","0","0","7","7","7","0","7","7","7","NA","0","7","NA","NA","0","7","NA","7","0","7","NA","NA","NA","7","0","0","NA","7","7","7","7","7","8","z","Thu Dec  7 10:35:56 2023","The main experiment item","yes","m21-ab-lexicalDecision.osexp","C:\Users\ekealey\Desktop","no","mono","no","18","no","white","no","yes","1080","legacy","7","7","C:/Users/ekealey/Desktop/subject-231.csv","xpyriment","Lentiform Loewenfeld","3.3.11","0","None","NA","NA","NA","NA","space","None","1200","NA","NA","NA","NA","28012","1200","2","legacy","1024","2","48000","-16","AB_m21","231","odd","FILL_NW","GAIRS","1883","67278","64911","57338","29909","NA","NA","NA","NA","NA","65411","NA","NA","NA","64410","NA","64379","1895","67479","NA","NA","NA","65452","1884","1884","NA","66652","66675","64379","65411","65432","morph21_Oliver/Morris","0","9600","8","yes","1920","23"
"300","0","0","1200","1200","black","no","xpyriment","legacy","legacy","0","205","NA","uniform","NA","NA","NA","0","undefined","0","0","8","8","8","0","8","8","8","NA","0","8","NA","NA","0","8","NA","8","0","8","NA","NA","NA","8","0","0","NA","8","8","8","8","8","9","z","Thu Dec  7 10:35:56 2023","The main experiment item","yes","m21-ab-lexicalDecision.osexp","C:\Users\ekealey\Desktop","no","mono","no","18","no","white","no","yes","1080","legacy","8","8","C:/Users/ekealey/Desktop/subject-231.csv","xpyriment","Lentiform Loewenfeld","3.3.11","0","None","NA","NA","NA","NA","space","None","1200","NA","NA","NA","NA","28012","1200","2","legacy","1024","2","48000","-16","AB_m21","231","odd","NW_S_SIMP","BOLTOES","1883","72912","69039","71407","29909","NA","NA","NA","NA","NA","69539","NA","NA","NA","68538","NA","68506","1895","73212","NA","NA","NA","69580","1884","1884","NA","70780","70804","68506","69539","69560","morph21_Oliver/Morris","0","10800","9","yes","1920","13"
"350","0","0","1200","1200","black","no","xpyriment","legacy","legacy","0","205","NA","uniform","NA","NA","NA","0","undefined","0","0","9","9","9","0","9","9","9","NA","0","9","NA","NA","0","9","NA","9","0","9","NA","NA","NA","9","0","0","NA","9","9","9","9","9","10","z","Thu Dec  7 10:35:56 2023","The main experiment item","yes","m21-ab-lexicalDecision.osexp","C:\Users\ekealey\Desktop","no","mono","no","18","no","white","no","yes","1080","legacy","9","9","C:/Users/ekealey/Desktop/subject-231.csv","xpyriment","Lentiform Loewenfeld","3.3.11","0","None","NA","NA","NA","NA","space","None","1200","NA","NA","NA","NA","28012","1200","2","legacy","1024","2","48000","-16","AB_m21","231","odd","NW_S_SIMP","ACREMANT","1883","77188","74819","71407","29909","NA","NA","NA","NA","NA","75320","NA","NA","NA","74319","NA","74290","1895","77539","NA","NA","NA","75361","1884","1884","NA","76561","76585","74290","75320","75340","morph21_Oliver/Morris","0","12000","10","yes","1920","16"
"250","0","0","1200","1200","black","no","xpyriment","legacy","legacy","0","202","NA","uniform","NA","NA","NA","0","undefined","0","0","10","10","10","0","10","10","10","NA","0","10","NA","NA","0","10","NA","10","0","10","NA","NA","NA","10","0","0","NA","10","10","10","10","10","11","/","Thu Dec  7 10:35:56 2023","The main experiment item","yes","m21-ab-lexicalDecision.osexp","C:\Users\ekealey\Desktop","no","mono","no","18","no","white","no","yes","1080","legacy","10","10","C:/Users/ekealey/Desktop/subject-231.csv","xpyriment","Lentiform Loewenfeld","3.3.11","0","None","NA","NA","NA","NA","space","None","1200","NA","NA","NA","NA","28012","1200","2","legacy","1024","2","48000","-16","AB_m21","231","odd","CW_L","EXCITEMENT","1883","81467","79098","71407","29909","NA","NA","NA","NA","NA","79599","NA","NA","NA","78596","NA","78570","1895","81717","NA","NA","NA","79639","1884","1884","NA","80839","80864","78570","79599","79619","morph21_Oliver/Morris","0","13200","11","yes","1920","38"
"350","0","0","1200","1200","black","no","xpyriment","legacy","legacy","0","203","NA","uniform","NA","NA","NA","0","undefined","0","0","11","11","11","0","11","11","11","NA","0","11","NA","NA","0","11","NA","11","0","11","NA","NA","NA","11","0","0","NA","11","11","11","11","11","12","z","Thu Dec  7 10:35:56 2023","The main experiment item","yes","m21-ab-lexicalDecision.osexp","C:\Users\ekealey\Desktop","no","mono","no","18","no","white","no","yes","1080","legacy","11","11","C:/Users/ekealey/Desktop/subject-231.csv","xpyriment","Lentiform Loewenfeld","3.3.11","0","None","NA","NA","NA","NA","space","None","1200","NA","NA","NA","NA","28012","1200","2","legacy","1024","2","48000","-16","AB_m21","231","odd","NW_S_COMP","HUMIDOUS","1883","87167","83290","85661","29909","NA","NA","NA","NA","NA","83792","NA","NA","NA","82789","NA","82763","1895","87518","NA","NA","NA","83833","1884","1884","NA","85033","85057","82763","83792","83813","morph21_Oliver/Morris","0","14400","12","yes","1920","25"
"250","0","0","1200","1200","black","no","xpyriment","legacy","legacy","0","206","NA","uniform","NA","NA","NA","0","undefined","0","0","12","12","12","0","12","12","12","NA","0","12","NA","NA","0","12","NA","12","0","12","NA","NA","NA","12","0","0","NA","12","12","12","12","12","13","z","Thu Dec  7 10:35:56 2023","The main experiment item","yes","m21-ab-lexicalDecision.osexp","C:\Users\ekealey\Desktop","no","mono","no","18","no","white","no","yes","1080","legacy","12","12","C:/Users/ekealey/Desktop/subject-231.csv","xpyriment","Lentiform Loewenfeld","3.3.11","0","None","NA","NA","NA","NA","space","None","1200","NA","NA","NA","NA","28012","1200","2","legacy","1024","2","48000","-16","AB_m21","231","odd","NW_L_SIMP","SHOOTMANT","1883","91473","89106","85661","29909","NA","NA","NA","NA","NA","89606","NA","NA","NA","88605","NA","88573","1895","91723","NA","NA","NA","89647","1884","1884","NA","90847","90870","88573","89606","89627","morph21_Oliver/Morris","0","15600","13","yes","1920","16"
"400","0","0","1200","1200","black","no","xpyriment","legacy","legacy","0","208","NA","uniform","NA","NA","NA","0","undefined","0","0","13","13","13","0","13","13","13","NA","0","13","NA","NA","0","13","NA","13","0","13","NA","NA","NA","13","0","0","NA","13","13","13","13","13","14","z","Thu Dec  7 10:35:56 2023","The main experiment item","yes","m21-ab-lexicalDecision.osexp","C:\Users\ekealey\Desktop","no","mono","no","18","no","white","no","yes","1080","legacy","13","13","C:/Users/ekealey/Desktop/subject-231.csv","xpyriment","Lentiform Loewenfeld","3.3.11","0","None","NA","NA","NA","NA","space","None","1200","NA","NA","NA","NA","28012","1200","2","legacy","1024","2","48000","-16","AB_m21","231","odd","FILL_NW","DROES","1883","95640","93274","85661","29909","NA","NA","NA","NA","NA","93774","NA","NA","NA","92773","NA","92746","1895","96040","NA","NA","NA","93814","1884","1884","NA","95014","95037","92746","93774","93794","morph21_Oliver/Morris","0","16800","14","yes","1920","17"
"250","0","0","1200","1200","black","no","xpyriment","legacy","legacy","0","207","NA","uniform","NA","NA","NA","0","undefined","0","0","14","14","14","0","14","14","14","NA","0","14","NA","NA","0","14","NA","14","0","14","NA","NA","NA","14","0","0","NA","14","14","14","14","14","15","/","Thu Dec  7 10:35:56 2023","The main experiment item","yes","m21-ab-lexicalDecision.osexp","C:\Users\ekealey\Desktop","no","mono","no","18","no","white","no","yes","1080","legacy","14","14","C:/Users/ekealey/Desktop/subject-231.csv","xpyriment","Lentiform Loewenfeld","3.3.11","0","None","NA","NA","NA","NA","space","None","1200","NA","NA","NA","NA","28012","1200","2","legacy","1024","2","48000","-16","AB_m21","231","odd","FILL_W","SHIP","1883","101470","97595","99966","29909","NA","NA","NA","NA","NA","98096","NA","NA","NA","97094","NA","97068","1895","101720","NA","NA","NA","98137","1884","1884","NA","99337","99362","97068","98096","98117","morph21_Oliver/Morris","0","18000","15","yes","1920","37"
"300","0","0","1200","1200","black","no","xpyriment","legacy","legacy","0","202","NA","uniform","NA","NA","NA","0","undefined","0","0","15","15","15","0","15","15","15","NA","0","15","NA","NA","0","15","NA","15","0","15","NA","NA","NA","15","0","0","NA","15","15","15","15","15","16","/","Thu Dec  7 10:35:56 2023","The main experiment item","yes","m21-ab-lexicalDecision.osexp","C:\Users\ekealey\Desktop","no","mono","no","18","no","white","no","yes","1080","legacy","15","15","C:/Users/ekealey/Desktop/subject-231.csv","xpyriment","Lentiform Loewenfeld","3.3.11","0","None","NA","NA","NA","NA","space","None","1200","NA","NA","NA","NA","28012","1200","2","legacy","1024","2","48000","-16","AB_m21","231","odd","CW_L","KNOCKER","1883","105666","103295","99966","29909","NA","NA","NA","NA","NA","103798","NA","NA","NA","102795","NA","102768","1895","105966","NA","NA","NA","103838","1884","1884","NA","105038","105062","102768","103798","103818","morph21_Oliver/Morris","0","19200","16","yes","1920","4"
"300","0","0","1200","1200","black","no","xpyriment","legacy","legacy","0","201","NA","uniform","NA","NA","NA","0","undefined","0","0","16","16","16","0","16","16","16","NA","0","16","NA","NA","0","16","NA","16","0","16","NA","NA","NA","16","0","0","NA","16","16","16","16","16","17","/","Thu Dec  7 10:35:56 2023","The main experiment item","yes","m21-ab-lexicalDecision.osexp","C:\Users\ekealey\Desktop","no","mono","no","18","no","white","no","yes","1080","legacy","16","16","C:/Users/ekealey/Desktop/subject-231.csv","xpyriment","Lentiform Loewenfeld","3.3.11","0","None","NA","NA","NA","NA","space","None","1200","NA","NA","NA","NA","28012","1200","2","legacy","1024","2","48000","-16","AB_m21","231","odd","CW_S","INSISTENT","1883","109892","107523","99966","29909","NA","NA","NA","NA","NA","108024","NA","NA","NA","107023","NA","106995","1895","110193","NA","NA","NA","108065","1884","1884","NA","109265","109288","106995","108024","108045","morph21_Oliver/Morris","0","20400","17","yes","1920","9"
"300","0","0","1200","1200","black","no","xpyriment","legacy","legacy","0","208","NA","uniform","NA","NA","NA","0","undefined","0","0","17","17","17","0","17","17","17","NA","0","17","NA","NA","0","17","NA","17","0","17","NA","NA","NA","17","0","0","NA","17","17","17","17","17","18","z","Thu Dec  7 10:35:56 2023","The main experiment item","yes","m21-ab-lexicalDecision.osexp","C:\Users\ekealey\Desktop","no","mono","no","18","no","white","no","yes","1080","legacy","17","17","C:/Users/ekealey/Desktop/subject-231.csv","xpyriment","Lentiform Loewenfeld","3.3.11","0","None","NA","NA","NA","NA","space","None","1200","NA","NA","NA","NA","28012","1200","2","legacy","1024","2","48000","-16","AB_m21","231","odd","FILL_NW","VOGS","1883","115637","111762","114133","29909","NA","NA","NA","NA","NA","112264","NA","NA","NA","111261","NA","111237","1895","115937","NA","NA","NA","112304","1884","1884","NA","113504","113528","111237","112264","112284","morph21_Oliver/Morris","0","21600","18","yes","1920","47"
"400","0","0","1200","1200","black","no","xpyriment","legacy","legacy","0","208","NA","uniform","NA","NA","NA","0","undefined","0","0","18","18","18","0","18","18","18","NA","0","18","NA","NA","0","18","NA","18","0","18","NA","NA","NA","18","0","0","NA","18","18","18","18","18","19","z","Thu Dec  7 10:35:56 2023","The main experiment item","yes","m21-ab-lexicalDecision.osexp","C:\Users\ekealey\Desktop","no","mono","no","18","no","white","no","yes","1080","legacy","18","18","C:/Users/ekealey/Desktop/subject-231.csv","xpyriment","Lentiform Loewenfeld","3.3.11","0","None","NA","NA","NA","NA","space","None","1200","NA","NA","NA","NA","28012","1200","2","legacy","1024","2","48000","-16","AB_m21","231","odd","FILL_NW","SOISE","1883","119870","117502","114133","29909","NA","NA","NA","NA","NA","118002","NA","NA","NA","117002","NA","116969","1895","120270","NA","NA","NA","118043","1884","1884","NA","119243","119267","116969","118002","118023","morph21_Oliver/Morris","0","22800","19","yes","1920","43"
"300","0","0","1200","1200","black","no","xpyriment","legacy","legacy","0","202","NA","uniform","NA","NA","NA","0","undefined","0","0","19","19","19","0","19","19","19","NA","0","19","NA","NA","0","19","NA","19","0","19","NA","NA","NA","19","0","0","NA","19","19","19","19","19","20","/","Thu Dec  7 10:35:56 2023","The main experiment item","yes","m21-ab-lexicalDecision.osexp","C:\Users\ekealey\Desktop","no","mono","no","18","no","white","no","yes","1080","legacy","19","19","C:/Users/ekealey/Desktop/subject-231.csv","xpyriment","Lentiform Loewenfeld","3.3.11","0","None","NA","NA","NA","NA","space","None","1200","NA","NA","NA","NA","28012","1200","2","legacy","1024","2","48000","-16","AB_m21","231","odd","CW_L","DOUBTFUL","1883","124187","121821","114133","29909","NA","NA","NA","NA","NA","122321","NA","NA","NA","121320","NA","121296","1895","124487","NA","NA","NA","122361","1884","1884","NA","123561","123584","121296","122321","122341","morph21_Oliver/Morris","0","24000","20","yes","1920","21"
"350","0","0","1200","1200","black","no","xpyriment","legacy","legacy","0","201","NA","uniform","NA","NA","NA","0","undefined","0","0","20","20","20","0","20","20","20","NA","0","20","NA","NA","0","20","NA","20","0","20","NA","NA","NA","20","0","0","NA","20","20","20","20","20","21","/","Thu Dec  7 10:35:56 2023","The main experiment item","yes","m21-ab-lexicalDecision.osexp","C:\Users\ekealey\Desktop","no","mono","no","18","no","white","no","yes","1080","legacy","20","20","C:/Users/ekealey/Desktop/subject-231.csv","xpyriment","Lentiform Loewenfeld","3.3.11","0","None","NA","NA","NA","NA","space","None","1200","NA","NA","NA","NA","28012","1200","2","legacy","1024","2","48000","-16","AB_m21","231","odd","CW_S","RICHNESS","1883","129919","126047","128415","29909","NA","NA","NA","NA","NA","126547","NA","NA","NA","125547","NA","125518","1895","130270","NA","NA","NA","126588","1884","1884","NA","127788","127811","125518","126547","126568","morph21_Oliver/Morris","0","25200","21","yes","1920","45"
"300","0","0","1200","1200","black","no","xpyriment","legacy","legacy","0","205","NA","uniform","NA","NA","NA","0","undefined","0","0","21","21","21","0","21","21","21","NA","0","21","NA","NA","0","21","NA","21","0","21","NA","NA","NA","21","0","0","NA","21","21","21","21","21","22","z","Thu Dec  7 10:35:56 2023","The main experiment item","yes","m21-ab-lexicalDecision.osexp","C:\Users\ekealey\Desktop","no","mono","no","18","no","white","no","yes","1080","legacy","21","21","C:/Users/ekealey/Desktop/subject-231.csv","xpyriment","Lentiform Loewenfeld","3.3.11","0","None","NA","NA","NA","NA","space","None","1200","NA","NA","NA","NA","28012","1200","2","legacy","1024","2","48000","-16","AB_m21","231","odd","NW_S_SIMP","SOCKETEL","1883","134227","131853","128415","29909","NA","NA","NA","NA","NA","132356","NA","NA","NA","131352","NA","131327","1895","134527","NA","NA","NA","132397","1884","1884","NA","133597","133622","131327","132356","132376","morph21_Oliver/Morris","0","26400","22","yes","1920","1"
"250","0","0","1200","1200","black","no","xpyriment","legacy","legacy","0","204","NA","uniform","NA","NA","NA","0","undefined","0","0","22","22","22","0","22","22","22","NA","0","22","NA","NA","0","22","NA","22","0","22","NA","NA","NA","22","0","0","NA","22","22","22","22","22","23","z","Thu Dec  7 10:35:56 2023","The main experiment item","yes","m21-ab-lexicalDecision.osexp","C:\Users\ekealey\Desktop","no","mono","no","18","no","white","no","yes","1080","legacy","22","22","C:/Users/ekealey/Desktop/subject-231.csv","xpyriment","Lentiform Loewenfeld","3.3.11","0","None","NA","NA","NA","NA","space","None","1200","NA","NA","NA","NA","28012","1200","2","legacy","1024","2","48000","-16","AB_m21","231","odd","NW_L_COMP","FREENESS","1883","138447","136080","128415","29909","NA","NA","NA","NA","NA","136580","NA","NA","NA","135580","NA","135546","1895","138697","NA","NA","NA","136620","1884","1884","NA","137820","137844","135546","136580","136600","morph21_Oliver/Morris","0","27600","23","yes","1920","15"
"250","0","0","1200","1200","black","no","xpyriment","legacy","legacy","0","201","NA","uniform","NA","NA","NA","0","undefined","0","0","23","23","23","0","23","23","23","NA","0","23","NA","NA","0","23","NA","23","0","23","NA","NA","NA","23","0","0","NA","23","23","23","23","23","24","/","Thu Dec  7 10:35:56 2023","The main experiment item","yes","m21-ab-lexicalDecision.osexp","C:\Users\ekealey\Desktop","no","mono","no","18","no","white","no","yes","1080","legacy","23","23","C:/Users/ekealey/Desktop/subject-231.csv","xpyriment","Lentiform Loewenfeld","3.3.11","0","None","NA","NA","NA","NA","space","None","1200","NA","NA","NA","NA","28012","1200","2","legacy","1024","2","48000","-16","AB_m21","231","odd","CW_S","MILDNESS","1883","144134","140256","142628","29909","NA","NA","NA","NA","NA","140757","NA","NA","NA","139755","NA","139727","1895","144385","NA","NA","NA","140799","1884","1884","NA","141999","142023","139727","140757","140778","morph21_Oliver/Morris","0","28800","24","yes","1920","42"
"350","0","0","1200","1200","black","no","xpyriment","legacy","legacy","0","202","NA","uniform","NA","NA","NA","0","undefined","0","0","24","24","24","0","24","24","24","NA","0","24","NA","NA","0","24","NA","24","0","24","NA","NA","NA","24","0","0","NA","24","24","24","24","24","25","/","Thu Dec  7 10:35:56 2023","The main experiment item","yes","m21-ab-lexicalDecision.osexp","C:\Users\ekealey\Desktop","no","mono","no","18","no","white","no","yes","1080","legacy","24","24","C:/Users/ekealey/Desktop/subject-231.csv","xpyriment","Lentiform Loewenfeld","3.3.11","0","None","NA","NA","NA","NA","space","None","1200","NA","NA","NA","NA","28012","1200","2","legacy","1024","2","48000","-16","AB_m21","231","odd","CW_L","EDITOR","1883","148329","145959","142628","29909","NA","NA","NA","NA","NA","146461","NA","NA","NA","145457","NA","145429","1895","148679","NA","NA","NA","146501","1884","1884","NA","147701","147725","145429","146461","146481","morph21_Oliver/Morris","0","30000","25","yes","1920","45"
"200","0","0","1200","1200","black","no","xpyriment","legacy","legacy","0","203","NA","uniform","NA","NA","NA","0","undefined","0","0","25","25","25","0","25","25","25","NA","0","25","NA","NA","0","25","NA","25","0","25","NA","NA","NA","25","0","0","NA","25","25","25","25","25","26","z","Thu Dec  7 10:35:56 2023","The main experiment item","yes","m21-ab-lexicalDecision.osexp","C:\Users\ekealey\Desktop","no","mono","no","18","no","white","no","yes","1080","legacy","25","25","C:/Users/ekealey/Desktop/subject-231.csv","xpyriment","Lentiform Loewenfeld","3.3.11","0","None","NA","NA","NA","NA","space","None","1200","NA","NA","NA","NA","28012","1200","2","legacy","1024","2","48000","-16","AB_m21","231","odd","NW_S_COMP","ELMIST","1883","152629","150259","142628","29909","NA","NA","NA","NA","NA","150760","NA","NA","NA","149756","NA","149732","1895","152829","NA","NA","NA","150801","1884","1884","NA","152001","152026","149732","150760","150781","morph21_Oliver/Morris","0","31200","26","yes","1920","10"
"250","0","0","1200","1200","black","no","xpyriment","legacy","legacy","0","204","NA","uniform","NA","NA","NA","0","undefined","0","0","26","26","26","0","26","26","26","NA","0","26","NA","NA","0","26","NA","26","0","26","NA","NA","NA","26","0","0","NA","26","26","26","26","26","27","z","Thu Dec  7 10:35:56 2023","The main experiment item","yes","m21-ab-lexicalDecision.osexp","C:\Users\ekealey\Desktop","no","mono","no","18","no","white","no","yes","1080","legacy","26","26","C:/Users/ekealey/Desktop/subject-231.csv","xpyriment","Lentiform Loewenfeld","3.3.11","0","None","NA","NA","NA","NA","space","None","1200","NA","NA","NA","NA","28012","1200","2","legacy","1024","2","48000","-16","AB_m21","231","odd","NW_L_COMP","BREAKITY","1883","158253","154382","156749","29909","NA","NA","NA","NA","NA","154882","NA","NA","NA","153882","NA","153856","1895","158503","NA","NA","NA","154922","1884","1884","NA","156122","156146","153856","154882","154902","morph21_Oliver/Morris","0","32400","27","yes","1920","23"
"200","0","0","1200","1200","black","no","xpyriment","legacy","legacy","0","207","NA","uniform","NA","NA","NA","0","undefined","0","0","27","27","27","0","27","27","27","NA","0","27","NA","NA","0","27","NA","27","0","27","NA","NA","NA","27","0","0","NA","27","27","27","27","27","28","/","Thu Dec  7 10:35:56 2023","The main experiment item","yes","m21-ab-lexicalDecision.osexp","C:\Users\ekealey\Desktop","no","mono","no","18","no","white","no","yes","1080","legacy","27","27","C:/Users/ekealey/Desktop/subject-231.csv","xpyriment","Lentiform Loewenfeld","3.3.11","0","None","NA","NA","NA","NA","space","None","1200","NA","NA","NA","NA","28012","1200","2","legacy","1024","2","48000","-16","AB_m21","231","odd","FILL_W","WRECK","1883","162442","160075","156749","29909","NA","NA","NA","NA","NA","160575","NA","NA","NA","159574","NA","159541","1895","162642","NA","NA","NA","160615","1884","1884","NA","161815","161838","159541","160575","160595","morph21_Oliver/Morris","0","33600","28","yes","1920","13"
"350","0","0","1200","1200","black","no","xpyriment","legacy","legacy","0","202","NA","uniform","NA","NA","NA","0","undefined","0","0","28","28","28","0","28","28","28","NA","0","28","NA","NA","0","28","NA","28","0","28","NA","NA","NA","28","0","0","NA","28","28","28","28","28","29","/","Thu Dec  7 10:35:56 2023","The main experiment item","yes","m21-ab-lexicalDecision.osexp","C:\Users\ekealey\Desktop","no","mono","no","18","no","white","no","yes","1080","legacy","28","28","C:/Users/ekealey/Desktop/subject-231.csv","xpyriment","Lentiform Loewenfeld","3.3.11","0","None","NA","NA","NA","NA","space","None","1200","NA","NA","NA","NA","28012","1200","2","legacy","1024","2","48000","-16","AB_m21","231","odd","CW_L","PARKING","1883","166554","164187","156749","29909","NA","NA","NA","NA","NA","164688","NA","NA","NA","163687","NA","163655","1895","166905","NA","NA","NA","164728","1884","1884","NA","165928","165951","163655","164688","164708","morph21_Oliver/Morris","0","34800","29","yes","1920","25"
"400","0","0","1200","1200","black","no","xpyriment","legacy","legacy","0","207","NA","uniform","NA","NA","NA","0","undefined","0","0","29","29","29","0","29","29","29","NA","0","29","NA","NA","0","29","NA","29","0","29","NA","NA","NA","29","0","0","NA","29","29","29","29","29","30","/","Thu Dec  7 10:35:56 2023","The main experiment item","yes","m21-ab-lexicalDecision.osexp","C:\Users\ekealey\Desktop","no","mono","no","18","no","white","no","yes","1080","legacy","29","29","C:/Users/ekealey/Desktop/subject-231.csv","xpyriment","Lentiform Loewenfeld","3.3.11","0","None","NA","NA","NA","NA","space","None","1200","NA","NA","NA","NA","28012","1200","2","legacy","1024","2","48000","-16","AB_m21","231","odd","FILL_W","CHIP","1883","172336","168458","170831","29909","NA","NA","NA","NA","NA","168961","NA","NA","NA","167957","NA","167931","1895","172736","NA","NA","NA","169002","1884","1884","NA","170202","170228","167931","168961","168981","morph21_Oliver/Morris","0","36000","30","yes","1920","11"
"250","0","0","1200","1200","black","no","xpyriment","legacy","legacy","0","206","NA","uniform","NA","NA","NA","0","undefined","0","0","30","30","30","0","30","30","30","NA","0","30","NA","NA","0","30","NA","30","0","30","NA","NA","NA","30","0","0","NA","30","30","30","30","30","31","z","Thu Dec  7 10:35:56 2023","The main experiment item","yes","m21-ab-lexicalDecision.osexp","C:\Users\ekealey\Desktop","no","mono","no","18","no","white","no","yes","1080","legacy","30","30","C:/Users/ekealey/Desktop/subject-231.csv","xpyriment","Lentiform Loewenfeld","3.3.11","0","None","NA","NA","NA","NA","space","None","1200","NA","NA","NA","NA","28012","1200","2","legacy","1024","2","48000","-16","AB_m21","231","odd","NW_L_SIMP"," DRESSODY","1883","176698","174328","170831","29909","NA","NA","NA","NA","NA","174830","NA","NA","NA","173827","NA","173802","1895","176948","NA","NA","NA","174870","1884","1884","NA","176070","176094","173802","174829","174850","morph21_Oliver/Morris","0","37200","31","yes","1920","21"
"250","0","0","1200","1200","black","no","xpyriment","legacy","legacy","0","201","NA","uniform","NA","NA","NA","0","undefined","0","0","31","31","31","0","31","31","31","NA","0","31","NA","NA","0","31","NA","31","0","31","NA","NA","NA","31","0","0","NA","31","31","31","31","31","32","/","Thu Dec  7 10:35:56 2023","The main experiment item","yes","m21-ab-lexicalDecision.osexp","C:\Users\ekealey\Desktop","no","mono","no","18","no","white","no","yes","1080","legacy","31","31","C:/Users/ekealey/Desktop/subject-231.csv","xpyriment","Lentiform Loewenfeld","3.3.11","0","None","NA","NA","NA","NA","space","None","1200","NA","NA","NA","NA","28012","1200","2","legacy","1024","2","48000","-16","AB_m21","231","odd","CW_S","TOSSING","1883","180866","178496","170831","29909","NA","NA","NA","NA","NA","178997","NA","NA","NA","177994","NA","177968","1895","181116","NA","NA","NA","179037","1884","1884","NA","180237","180262","177968","178997","179017","morph21_Oliver/Morris","0","38400","32","yes","1920","26"
"300","0","0","1200","1200","black","no","xpyriment","legacy","legacy","0","202","NA","uniform","NA","NA","NA","0","undefined","0","0","32","32","32","0","32","32","32","NA","0","32","NA","NA","0","32","NA","32","0","32","NA","NA","NA","32","0","0","NA","32","32","32","32","32","33","/","Thu Dec  7 10:35:56 2023","The main experiment item","yes","m21-ab-lexicalDecision.osexp","C:\Users\ekealey\Desktop","no","mono","no","18","no","white","no","yes","1080","legacy","32","32","C:/Users/ekealey/Desktop/subject-231.csv","xpyriment","Lentiform Loewenfeld","3.3.11","0","None","NA","NA","NA","NA","space","None","1200","NA","NA","NA","NA","28012","1200","2","legacy","1024","2","48000","-16","AB_m21","231","odd","CW_L","COMPOSER","1883","186532","182657","185028","29909","NA","NA","NA","NA","NA","183159","NA","NA","NA","182155","NA","182126","1895","186832","NA","NA","NA","183199","1884","1884","NA","184399","184423","182126","183158","183179","morph21_Oliver/Morris","0","39600","33","yes","1920","6"
"200","0","0","1200","1200","black","no","xpyriment","legacy","legacy","0","205","NA","uniform","NA","NA","NA","0","undefined","0","0","33","33","33","0","33","33","33","NA","0","33","NA","NA","0","33","NA","33","0","33","NA","NA","NA","33","0","0","NA","33","33","33","33","33","34","z","Thu Dec  7 10:35:56 2023","The main experiment item","yes","m21-ab-lexicalDecision.osexp","C:\Users\ekealey\Desktop","no","mono","no","18","no","white","no","yes","1080","legacy","33","33","C:/Users/ekealey/Desktop/subject-231.csv","xpyriment","Lentiform Loewenfeld","3.3.11","0","None","NA","NA","NA","NA","space","None","1200","NA","NA","NA","NA","28012","1200","2","legacy","1024","2","48000","-16","AB_m21","231","odd","NW_S_SIMP","THRILLANGE","1883","190767","188398","185028","29909","NA","NA","NA","NA","NA","188898","NA","NA","NA","187898","NA","187868","1895","190967","NA","NA","NA","188939","1884","1884","NA","190139","190163","187868","188898","188919","morph21_Oliver/Morris","0","40800","34","yes","1920","22"
"200","0","0","1200","1200","black","no","xpyriment","legacy","legacy","0","205","NA","uniform","NA","NA","NA","0","undefined","0","0","34","34","34","0","34","34","34","NA","0","34","NA","NA","0","34","NA","34","0","34","NA","NA","NA","34","0","0","NA","34","34","34","34","34","35","z","Thu Dec  7 10:35:56 2023","The main experiment item","yes","m21-ab-lexicalDecision.osexp","C:\Users\ekealey\Desktop","no","mono","no","18","no","white","no","yes","1080","legacy","34","34","C:/Users/ekealey/Desktop/subject-231.csv","xpyriment","Lentiform Loewenfeld","3.3.11","0","None","NA","NA","NA","NA","space","None","1200","NA","NA","NA","NA","28012","1200","2","legacy","1024","2","48000","-16","AB_m21","231","odd","NW_S_SIMP","JAWLA","1883","194876","192508","185028","29909","NA","NA","NA","NA","NA","193008","NA","NA","NA","192007","NA","191979","1895","195076","NA","NA","NA","193049","1884","1884","NA","194249","194272","191979","193008","193029","morph21_Oliver/Morris","0","42000","35","yes","1920","7"
"350","0","0","1200","1200","black","no","xpyriment","legacy","legacy","0","202","NA","uniform","NA","NA","NA","0","undefined","0","0","35","35","35","0","35","35","35","NA","0","35","NA","NA","0","35","NA","35","0","35","NA","NA","NA","35","0","0","NA","35","35","35","35","35","36","/","Thu Dec  7 10:35:56 2023","The main experiment item","yes","m21-ab-lexicalDecision.osexp","C:\Users\ekealey\Desktop","no","mono","no","18","no","white","no","yes","1080","legacy","35","35","C:/Users/ekealey/Desktop/subject-231.csv","xpyriment","Lentiform Loewenfeld","3.3.11","0","None","NA","NA","NA","NA","space","None","1200","NA","NA","NA","NA","28012","1200","2","legacy","1024","2","48000","-16","AB_m21","231","odd","CW_L","PAINTER","1883","200492","196619","198986","29909","NA","NA","NA","NA","NA","197120","NA","NA","NA","196119","NA","196094","1895","200842","NA","NA","NA","197160","1884","1884","NA","198360","198383","196093","197120","197140","morph21_Oliver/Morris","0","43200","36","yes","1920","18"
"350","0","0","1200","1200","black","no","xpyriment","legacy","legacy","0","206","NA","uniform","NA","NA","NA","0","undefined","0","0","36","36","36","0","36","36","36","NA","0","36","NA","NA","0","36","NA","36","0","36","NA","NA","NA","36","0","0","NA","36","36","36","36","36","37","z","Thu Dec  7 10:35:56 2023","The main experiment item","yes","m21-ab-lexicalDecision.osexp","C:\Users\ekealey\Desktop","no","mono","no","18","no","white","no","yes","1080","legacy","36","36","C:/Users/ekealey/Desktop/subject-231.csv","xpyriment","Lentiform Loewenfeld","3.3.11","0","None","NA","NA","NA","NA","space","None","1200","NA","NA","NA","NA","28012","1200","2","legacy","1024","2","48000","-16","AB_m21","231","odd","NW_L_SIMP","WIGITH","1883","204777","202411","198986","29909","NA","NA","NA","NA","NA","202911","NA","NA","NA","201911","NA","201879","1895","205127","NA","NA","NA","202951","1884","1884","NA","204151","204174","201879","202911","202931","morph21_Oliver/Morris","0","44400","37","yes","1920","9"
"250","0","0","1200","1200","black","no","xpyriment","legacy","legacy","0","203","NA","uniform","NA","NA","NA","0","undefined","0","0","37","37","37","0","37","37","37","NA","0","37","NA","NA","0","37","NA","37","0","37","NA","NA","NA","37","0","0","NA","37","37","37","37","37","38","z","Thu Dec  7 10:35:56 2023","The main experiment item","yes","m21-ab-lexicalDecision.osexp","C:\Users\ekealey\Desktop","no","mono","no","18","no","white","no","yes","1080","legacy","37","37","C:/Users/ekealey/Desktop/subject-231.csv","xpyriment","Lentiform Loewenfeld","3.3.11","0","None","NA","NA","NA","NA","space","None","1200","NA","NA","NA","NA","28012","1200","2","legacy","1024","2","48000","-16","AB_m21","231","odd","NW_S_COMP","LIDARY","1883","209041","206673","198986","29909","NA","NA","NA","NA","NA","207173","NA","NA","NA","206172","NA","206142","1895","209291","NA","NA","NA","207213","1884","1884","NA","208413","208437","206142","207173","207193","morph21_Oliver/Morris","0","45600","38","yes","1920","3"
"200","0","0","1200","1200","black","no","xpyriment","legacy","legacy","0","201","NA","uniform","NA","NA","NA","0","undefined","0","0","38","38","38","0","38","38","38","NA","0","38","NA","NA","0","38","NA","38","0","38","NA","NA","NA","38","0","0","NA","38","38","38","38","38","39","/","Thu Dec  7 10:35:56 2023","The main experiment item","yes","m21-ab-lexicalDecision.osexp","C:\Users\ekealey\Desktop","no","mono","no","18","no","white","no","yes","1080","legacy","38","38","C:/Users/ekealey/Desktop/subject-231.csv","xpyriment","Lentiform Loewenfeld","3.3.11","0","None","NA","NA","NA","NA","space","None","1200","NA","NA","NA","NA","28012","1200","2","legacy","1024","2","48000","-16","AB_m21","231","odd","CW_S","ENJOYMENT","1883","214751","210879","213246","29909","NA","NA","NA","NA","NA","211379","NA","NA","NA","210379","NA","210349","1895","214951","NA","NA","NA","211420","1884","1884","NA","212620","212643","210349","211379","211400","morph21_Oliver/Morris","0","46800","39","yes","1920","40"
"250","0","0","1200","1200","black","no","xpyriment","legacy","legacy","0","208","NA","uniform","NA","NA","NA","0","undefined","0","0","39","39","39","0","39","39","39","NA","0","39","NA","NA","0","39","NA","39","0","39","NA","NA","NA","39","0","0","NA","39","39","39","39","39","40","z","Thu Dec  7 10:35:56 2023","The main experiment item","yes","m21-ab-lexicalDecision.osexp","C:\Users\ekealey\Desktop","no","mono","no","18","no","white","no","yes","1080","legacy","39","39","C:/Users/ekealey/Desktop/subject-231.csv","xpyriment","Lentiform Loewenfeld","3.3.11","0","None","NA","NA","NA","NA","space","None","1200","NA","NA","NA","NA","28012","1200","2","legacy","1024","2","48000","-16","AB_m21","231","odd","FILL_NW","BUWL","1883","218900","216530","213246","29909","NA","NA","NA","NA","NA","217032","NA","NA","NA","216027","NA","215997","1895","219150","NA","NA","NA","217073","1884","1884","NA","218273","218297","215997","217032","217053","morph21_Oliver/Morris","0","48000","40","yes","1920","9"
"250","0","0","1200","1200","black","no","xpyriment","legacy","legacy","0","207","NA","uniform","NA","NA","NA","0","undefined","0","0","40","40","40","0","40","40","40","NA","0","40","NA","NA","0","40","NA","40","0","40","NA","NA","NA","40","0","0","NA","40","40","40","40","40","41","/","Thu Dec  7 10:35:56 2023","The main experiment item","yes","m21-ab-lexicalDecision.osexp","C:\Users\ekealey\Desktop","no","mono","no","18","no","white","no","yes","1080","legacy","40","40","C:/Users/ekealey/Desktop/subject-231.csv","xpyriment","Lentiform Loewenfeld","3.3.11","0","None","NA","NA","NA","NA","space","None","1200","NA","NA","NA","NA","28012","1200","2","legacy","1024","2","48000","-16","AB_m21","231","odd","FILL_W","WEAVE","1883","223067","220699","213246","29909","NA","NA","NA","NA","NA","221200","NA","NA","NA","220198","NA","220172","1895","223318","NA","NA","NA","221240","1884","1884","NA","222440","222464","220172","221199","221220","morph21_Oliver/Morris","0","49200","41","yes","1920","12"
"300","0","0","1200","1200","black","no","xpyriment","legacy","legacy","0","201","NA","uniform","NA","NA","NA","0","undefined","0","0","41","41","41","0","41","41","41","NA","0","41","NA","NA","0","41","NA","41","0","41","NA","NA","NA","41","0","0","NA","41","41","41","41","41","42","/","Thu Dec  7 10:35:56 2023","The main experiment item","yes","m21-ab-lexicalDecision.osexp","C:\Users\ekealey\Desktop","no","mono","no","18","no","white","no","yes","1080","legacy","41","41","C:/Users/ekealey/Desktop/subject-231.csv","xpyriment","Lentiform Loewenfeld","3.3.11","0","None","NA","NA","NA","NA","space","None","1200","NA","NA","NA","NA","28012","1200","2","legacy","1024","2","48000","-16","AB_m21","231","odd","CW_S","RISKY","1883","228736","224859","227230","29909","NA","NA","NA","NA","NA","225360","NA","NA","NA","224357","NA","224332","1895","229036","NA","NA","NA","225400","1884","1884","NA","226600","226625","224332","225360","225380","morph21_Oliver/Morris","0","50400","42","yes","1920","50"
"250","0","0","1200","1200","black","no","xpyriment","legacy","legacy","0","201","NA","uniform","NA","NA","NA","0","undefined","0","0","42","42","42","0","42","42","42","NA","0","42","NA","NA","0","42","NA","42","0","42","NA","NA","NA","42","0","0","NA","42","42","42","42","42","43","/","Thu Dec  7 10:35:56 2023","The main experiment item","yes","m21-ab-lexicalDecision.osexp","C:\Users\ekealey\Desktop","no","mono","no","18","no","white","no","yes","1080","legacy","42","42","C:/Users/ekealey/Desktop/subject-231.csv","xpyriment","Lentiform Loewenfeld","3.3.11","0","None","NA","NA","NA","NA","space","None","1200","NA","NA","NA","NA","28012","1200","2","legacy","1024","2","48000","-16","AB_m21","231","odd","CW_S","HUGELY","1883","233001","230629","227230","29909","NA","NA","NA","NA","NA","231132","NA","NA","NA","230128","NA","230101","1895","233251","NA","NA","NA","231172","1884","1884","NA","232372","232398","230101","231132","231152","morph21_Oliver/Morris","0","51600","43","yes","1920","35"
"250","0","0","1200","1200","black","no","xpyriment","legacy","legacy","0","207","NA","uniform","NA","NA","NA","0","undefined","0","0","43","43","43","0","43","43","43","NA","0","43","NA","NA","0","43","NA","43","0","43","NA","NA","NA","43","0","0","NA","43","43","43","43","43","44","/","Thu Dec  7 10:35:56 2023","The main experiment item","yes","m21-ab-lexicalDecision.osexp","C:\Users\ekealey\Desktop","no","mono","no","18","no","white","no","yes","1080","legacy","43","43","C:/Users/ekealey/Desktop/subject-231.csv","xpyriment","Lentiform Loewenfeld","3.3.11","0","None","NA","NA","NA","NA","space","None","1200","NA","NA","NA","NA","28012","1200","2","legacy","1024","2","48000","-16","AB_m21","231","odd","FILL_W","SLIM","1883","237170","234801","227230","29909","NA","NA","NA","NA","NA","235302","NA","NA","NA","234300","NA","234274","1895","237420","NA","NA","NA","235342","1884","1884","NA","236542","236566","234274","235302","235322","morph21_Oliver/Morris","0","52800","44","yes","1920","6"
"200","0","0","1200","1200","black","no","xpyriment","legacy","legacy","0","203","NA","uniform","NA","NA","NA","0","undefined","0","0","44","44","44","0","44","44","44","NA","0","44","NA","NA","0","44","NA","44","0","44","NA","NA","NA","44","0","0","NA","44","44","44","44","44","45","z","Thu Dec  7 10:35:56 2023","The main experiment item","yes","m21-ab-lexicalDecision.osexp","C:\Users\ekealey\Desktop","no","mono","no","18","no","white","no","yes","1080","legacy","44","44","C:/Users/ekealey/Desktop/subject-231.csv","xpyriment","Lentiform Loewenfeld","3.3.11","0","None","NA","NA","NA","NA","space","None","1200","NA","NA","NA","NA","28012","1200","2","legacy","1024","2","48000","-16","AB_m21","231","odd","NW_S_COMP","PILLIZE","1883","242842","238971","241338","29909","NA","NA","NA","NA","NA","239471","NA","NA","NA","238471","NA","238442","1895","243043","NA","NA","NA","239512","1884","1884","NA","240712","240735","238442","239471","239492","morph21_Oliver/Morris","0","54000","45","yes","1920","13"
"350","0","0","1200","1200","black","no","xpyriment","legacy","legacy","0","206","NA","uniform","NA","NA","NA","0","undefined","0","0","45","45","45","0","45","45","45","NA","0","45","NA","NA","0","45","NA","45","0","45","NA","NA","NA","45","0","0","NA","45","45","45","45","45","46","z","Thu Dec  7 10:35:56 2023","The main experiment item","yes","m21-ab-lexicalDecision.osexp","C:\Users\ekealey\Desktop","no","mono","no","18","no","white","no","yes","1080","legacy","45","45","C:/Users/ekealey/Desktop/subject-231.csv","xpyriment","Lentiform Loewenfeld","3.3.11","0","None","NA","NA","NA","NA","space","None","1200","NA","NA","NA","NA","28012","1200","2","legacy","1024","2","48000","-16","AB_m21","231","odd","NW_L_SIMP","HABITIG","1883","246977","244610","241338","29909","NA","NA","NA","NA","NA","245110","NA","NA","NA","244109","NA","244076","1895","247327","NA","NA","NA","245150","1884","1884","NA","246350","246374","244076","245110","245130","morph21_Oliver/Morris","0","55200","46","yes","1920","7"
"200","0","0","1200","1200","black","no","xpyriment","legacy","legacy","0","208","NA","uniform","NA","NA","NA","0","undefined","0","0","46","46","46","0","46","46","46","NA","0","46","NA","NA","0","46","NA","46","0","46","NA","NA","NA","46","0","0","NA","46","46","46","46","46","47","z","Thu Dec  7 10:35:56 2023","The main experiment item","yes","m21-ab-lexicalDecision.osexp","C:\Users\ekealey\Desktop","no","mono","no","18","no","white","no","yes","1080","legacy","46","46","C:/Users/ekealey/Desktop/subject-231.csv","xpyriment","Lentiform Loewenfeld","3.3.11","0","None","NA","NA","NA","NA","space","None","1200","NA","NA","NA","NA","28012","1200","2","legacy","1024","2","48000","-16","AB_m21","231","odd","FILL_NW","GILN","1883","251248","248881","241338","29909","NA","NA","NA","NA","NA","249381","NA","NA","NA","248381","NA","248352","1895","251448","NA","NA","NA","249422","1884","1884","NA","250622","250645","248352","249381","249402","morph21_Oliver/Morris","0","56400","47","yes","1920","25"
"200","0","0","1200","1200","black","no","xpyriment","legacy","legacy","0","201","NA","uniform","NA","NA","NA","0","undefined","0","0","47","47","47","0","47","47","47","NA","0","47","NA","NA","0","47","NA","47","0","47","NA","NA","NA","47","0","0","NA","47","47","47","47","47","48","/","Thu Dec  7 10:35:56 2023","The main experiment item","yes","m21-ab-lexicalDecision.osexp","C:\Users\ekealey\Desktop","no","mono","no","18","no","white","no","yes","1080","legacy","47","47","C:/Users/ekealey/Desktop/subject-231.csv","xpyriment","Lentiform Loewenfeld","3.3.11","0","None","NA","NA","NA","NA","space","None","1200","NA","NA","NA","NA","28012","1200","2","legacy","1024","2","48000","-16","AB_m21","231","odd","CW_S","CAMPAIGNER","1883","256871","252996","255366","29909","NA","NA","NA","NA","NA","253497","NA","NA","NA","252494","NA","252467","1895","257071","NA","NA","NA","253537","1884","1884","NA","254737","254762","252467","253497","253517","morph21_Oliver/Morris","0","57600","48","yes","1920","15"
"300","0","0","1200","1200","black","no","xpyriment","legacy","legacy","0","208","NA","uniform","NA","NA","NA","0","undefined","0","0","48","48","48","0","48","48","48","NA","0","48","NA","NA","0","48","NA","48","0","48","NA","NA","NA","48","0","0","NA","48","48","48","48","48","49","z","Thu Dec  7 10:35:56 2023","The main experiment item","yes","m21-ab-lexicalDecision.osexp","C:\Users\ekealey\Desktop","no","mono","no","18","no","white","no","yes","1080","legacy","48","48","C:/Users/ekealey/Desktop/subject-231.csv","xpyriment","Lentiform Loewenfeld","3.3.11","0","None","NA","NA","NA","NA","space","None","1200","NA","NA","NA","NA","28012","1200","2","legacy","1024","2","48000","-16","AB_m21","231","odd","FILL_NW","SCURE","1883","261030","258662","255366","29909","NA","NA","NA","NA","NA","259163","NA","NA","NA","258161","NA","258132","1895","261330","NA","NA","NA","259203","1884","1884","NA","260403","260427","258132","259163","259183","morph21_Oliver/Morris","0","58800","49","yes","1920","41"
"250","0","0","1200","1200","black","no","xpyriment","legacy","legacy","0","207","NA","uniform","NA","NA","NA","0","undefined","0","0","49","49","49","0","49","49","49","NA","0","49","NA","NA","0","49","NA","49","0","49","NA","NA","NA","49","0","0","NA","49","49","49","49","49","50","/","Thu Dec  7 10:35:56 2023","The main experiment item","yes","m21-ab-lexicalDecision.osexp","C:\Users\ekealey\Desktop","no","mono","no","18","no","white","no","yes","1080","legacy","49","49","C:/Users/ekealey/Desktop/subject-231.csv","xpyriment","Lentiform Loewenfeld","3.3.11","0","None","NA","NA","NA","NA","space","None","1200","NA","NA","NA","NA","28012","1200","2","legacy","1024","2","48000","-16","AB_m21","231","odd","FILL_W","FIERCE","1883","265255","262888","255366","29909","NA","NA","NA","NA","NA","263388","NA","NA","NA","262386","NA","262361","1895","265505","NA","NA","NA","263429","1884","1884","NA","264629","264652","262361","263388","263409","morph21_Oliver/Morris","0","60000","50","yes","1920","24"
"250","0","0","1200","1200","black","no","xpyriment","legacy","legacy","0","207","NA","uniform","NA","NA","NA","0","undefined","0","0","50","50","50","0","50","50","50","NA","0","50","NA","NA","0","50","NA","50","0","50","NA","NA","NA","50","0","0","NA","50","50","50","50","50","51","/","Thu Dec  7 10:35:56 2023","The main experiment item","yes","m21-ab-lexicalDecision.osexp","C:\Users\ekealey\Desktop","no","mono","no","18","no","white","no","yes","1080","legacy","50","50","C:/Users/ekealey/Desktop/subject-231.csv","xpyriment","Lentiform Loewenfeld","3.3.11","0","None","NA","NA","NA","NA","space","None","1200","NA","NA","NA","NA","28012","1200","2","legacy","1024","2","48000","-16","AB_m21","231","odd","FILL_W","TREAT","1883","270927","267052","269418","29909","NA","NA","NA","NA","NA","267552","NA","NA","NA","266552","NA","266527","1895","271177","NA","NA","NA","267592","1884","1884","NA","268792","268815","266526","267552","267572","morph21_Oliver/Morris","0","61200","51","yes","1920","48"
"300","0","0","1200","1200","black","no","xpyriment","legacy","legacy","0","208","NA","uniform","NA","NA","NA","0","undefined","0","0","51","51","51","0","51","51","51","NA","0","51","NA","NA","0","51","NA","51","0","51","NA","NA","NA","51","0","0","NA","51","51","51","51","51","52","z","Thu Dec  7 10:35:56 2023","The main experiment item","yes","m21-ab-lexicalDecision.osexp","C:\Users\ekealey\Desktop","no","mono","no","18","no","white","no","yes","1080","legacy","51","51","C:/Users/ekealey/Desktop/subject-231.csv","xpyriment","Lentiform Loewenfeld","3.3.11","0","None","NA","NA","NA","NA","space","None","1200","NA","NA","NA","NA","28012","1200","2","legacy","1024","2","48000","-16","AB_m21","231","odd","FILL_NW","VOOFS","1883","275132","272765","269418","29909","NA","NA","NA","NA","NA","273266","NA","NA","NA","272264","NA","272235","1895","275432","NA","NA","NA","273306","1884","1884","NA","274506","274529","272235","273266","273286","morph21_Oliver/Morris","0","62400","52","yes","1920","48"
"250","0","0","1200","1200","black","no","xpyriment","legacy","legacy","0","201","NA","uniform","NA","NA","NA","0","undefined","0","0","52","52","52","0","52","52","52","NA","0","52","NA","NA","0","52","NA","52","0","52","NA","NA","NA","52","0","0","NA","52","52","52","52","52","53","/","Thu Dec  7 10:35:56 2023","The main experiment item","yes","m21-ab-lexicalDecision.osexp","C:\Users\ekealey\Desktop","no","mono","no","18","no","white","no","yes","1080","legacy","52","52","C:/Users/ekealey/Desktop/subject-231.csv","xpyriment","Lentiform Loewenfeld","3.3.11","0","None","NA","NA","NA","NA","space","None","1200","NA","NA","NA","NA","28012","1200","2","legacy","1024","2","48000","-16","AB_m21","231","odd","CW_S","PEAKING","1883","279367","276997","269418","29909","NA","NA","NA","NA","NA","277499","NA","NA","NA","276497","NA","276468","1895","279617","NA","NA","NA","277540","1884","1884","NA","278740","278764","276468","277499","277520","morph21_Oliver/Morris","0","63600","53","yes","1920","28"
"300","0","0","1200","1200","black","no","xpyriment","legacy","legacy","0","205","NA","uniform","NA","NA","NA","0","undefined","0","0","53","53","53","0","53","53","53","NA","0","53","NA","NA","0","53","NA","53","0","53","NA","NA","NA","53","0","0","NA","53","53","53","53","53","54","z","Thu Dec  7 10:35:56 2023","The main experiment item","yes","m21-ab-lexicalDecision.osexp","C:\Users\ekealey\Desktop","no","mono","no","18","no","white","no","yes","1080","legacy","53","53","C:/Users/ekealey/Desktop/subject-231.csv","xpyriment","Lentiform Loewenfeld","3.3.11","0","None","NA","NA","NA","NA","space","None","1200","NA","NA","NA","NA","28012","1200","2","legacy","1024","2","48000","-16","AB_m21","231","odd","NW_S_SIMP","NEXTNELS","1883","285049","281175","283544","29909","NA","NA","NA","NA","NA","281675","NA","NA","NA","280674","NA","280645","1895","285349","NA","NA","NA","281716","1884","1884","NA","282916","282940","280645","281675","281696","morph21_Oliver/Morris","0","64800","54","yes","1920","9"
"400","0","0","1200","1200","black","no","xpyriment","legacy","legacy","0","202","NA","uniform","NA","NA","NA","0","undefined","0","0","54","54","54","0","54","54","54","NA","0","54","NA","NA","0","54","NA","54","0","54","NA","NA","NA","54","0","0","NA","54","54","54","54","54","55","/","Thu Dec  7 10:35:56 2023","The main experiment item","yes","m21-ab-lexicalDecision.osexp","C:\Users\ekealey\Desktop","no","mono","no","18","no","white","no","yes","1080","legacy","54","54","C:/Users/ekealey/Desktop/subject-231.csv","xpyriment","Lentiform Loewenfeld","3.3.11","0","None","NA","NA","NA","NA","space","None","1200","NA","NA","NA","NA","28012","1200","2","legacy","1024","2","48000","-16","AB_m21","231","odd","CW_L","STYLISH","1883","289300","286931","283544","29909","NA","NA","NA","NA","NA","287431","NA","NA","NA","286430","NA","286405","1895","289700","NA","NA","NA","287472","1884","1884","NA","288672","288697","286405","287431","287452","morph21_Oliver/Morris","0","66000","55","yes","1920","29"
"200","0","0","1200","1200","black","no","xpyriment","legacy","legacy","0","207","NA","uniform","NA","NA","NA","0","undefined","0","0","55","55","55","0","55","55","55","NA","0","55","NA","NA","0","55","NA","55","0","55","NA","NA","NA","55","0","0","NA","55","55","55","55","55","56","/","Thu Dec  7 10:35:56 2023","The main experiment item","yes","m21-ab-lexicalDecision.osexp","C:\Users\ekealey\Desktop","no","mono","no","18","no","white","no","yes","1080","legacy","55","55","C:/Users/ekealey/Desktop/subject-231.csv","xpyriment","Lentiform Loewenfeld","3.3.11","0","None","NA","NA","NA","NA","space","None","1200","NA","NA","NA","NA","28012","1200","2","legacy","1024","2","48000","-16","AB_m21","231","odd","FILL_W","TAX","1883","293631","291261","283544","29909","NA","NA","NA","NA","NA","291763","NA","NA","NA","290760","NA","290734","1895","293831","NA","NA","NA","291804","1884","1884","NA","293004","293028","290734","291763","291784","morph21_Oliver/Morris","0","67200","56","yes","1920","45"
"350","0","0","1200","1200","black","no","xpyriment","legacy","legacy","0","207","NA","uniform","NA","NA","NA","0","undefined","0","0","56","56","56","0","56","56","56","NA","0","56","NA","NA","0","56","NA","56","0","56","NA","NA","NA","56","0","0","NA","56","56","56","56","56","57","/","Thu Dec  7 10:35:56 2023","The main experiment item","yes","m21-ab-lexicalDecision.osexp","C:\Users\ekealey\Desktop","no","mono","no","18","no","white","no","yes","1080","legacy","56","56","C:/Users/ekealey/Desktop/subject-231.csv","xpyriment","Lentiform Loewenfeld","3.3.11","0","None","NA","NA","NA","NA","space","None","1200","NA","NA","NA","NA","28012","1200","2","legacy","1024","2","48000","-16","AB_m21","231","odd","FILL_W","WEIRD","1883","299246","295375","297742","29909","NA","NA","NA","NA","NA","295875","NA","NA","NA","294875","NA","294846","1895","299597","NA","NA","NA","295916","1884","1884","NA","297116","297139","294846","295875","295896","morph21_Oliver/Morris","0","68400","57","yes","1920","2"
"300","0","0","1200","1200","black","no","xpyriment","legacy","legacy","0","202","NA","uniform","NA","NA","NA","0","undefined","0","0","57","57","57","0","57","57","57","NA","0","57","NA","NA","0","57","NA","57","0","57","NA","NA","NA","57","0","0","NA","57","57","57","57","57","58","/","Thu Dec  7 10:35:56 2023","The main experiment item","yes","m21-ab-lexicalDecision.osexp","C:\Users\ekealey\Desktop","no","mono","no","18","no","white","no","yes","1080","legacy","57","57","C:/Users/ekealey/Desktop/subject-231.csv","xpyriment","Lentiform Loewenfeld","3.3.11","0","None","NA","NA","NA","NA","space","None","1200","NA","NA","NA","NA","28012","1200","2","legacy","1024","2","48000","-16","AB_m21","231","odd","CW_L","HEATER","1883","303549","301180","297742","29909","NA","NA","NA","NA","NA","301680","NA","NA","NA","300680","NA","300651","1895","303849","NA","NA","NA","301721","1884","1884","NA","302921","302946","300651","301680","301701","morph21_Oliver/Morris","0","69600","58","yes","1920","16"
"300","0","0","1200","1200","black","no","xpyriment","legacy","legacy","0","208","NA","uniform","NA","NA","NA","0","undefined","0","0","58","58","58","0","58","58","58","NA","0","58","NA","NA","0","58","NA","58","0","58","NA","NA","NA","58","0","0","NA","58","58","58","58","58","59","z","Thu Dec  7 10:35:56 2023","The main experiment item","yes","m21-ab-lexicalDecision.osexp","C:\Users\ekealey\Desktop","no","mono","no","18","no","white","no","yes","1080","legacy","58","58","C:/Users/ekealey/Desktop/subject-231.csv","xpyriment","Lentiform Loewenfeld","3.3.11","0","None","NA","NA","NA","NA","space","None","1200","NA","NA","NA","NA","28012","1200","2","legacy","1024","2","48000","-16","AB_m21","231","odd","FILL_NW","KEMT","1883","307766","305396","297742","29909","NA","NA","NA","NA","NA","305898","NA","NA","NA","304895","NA","304870","1895","308066","NA","NA","NA","305938","1884","1884","NA","307138","307163","304870","305898","305918","morph21_Oliver/Morris","0","70800","59","yes","1920","32"
"300","0","0","1200","1200","black","no","xpyriment","legacy","legacy","0","207","NA","uniform","NA","NA","NA","0","undefined","0","0","59","59","59","0","59","59","59","NA","0","59","NA","NA","0","59","NA","59","0","59","NA","NA","NA","59","0","0","NA","59","59","59","59","59","60","/","Thu Dec  7 10:35:56 2023","The main experiment item","yes","m21-ab-lexicalDecision.osexp","C:\Users\ekealey\Desktop","no","mono","no","18","no","white","no","yes","1080","legacy","59","59","C:/Users/ekealey/Desktop/subject-231.csv","xpyriment","Lentiform Loewenfeld","3.3.11","0","None","NA","NA","NA","NA","space","None","1200","NA","NA","NA","NA","28012","1200","2","legacy","1024","2","48000","-16","AB_m21","231","odd","FILL_W","BOX","1883","313502","309623","311996","29909","NA","NA","NA","NA","NA","310125","NA","NA","NA","309122","NA","309096","1895","313802","NA","NA","NA","310166","1884","1884","NA","311366","311392","309096","310125","310146","morph21_Oliver/Morris","0","72000","60","yes","1920","42"
"300","0","0","1200","1200","black","no","xpyriment","legacy","legacy","0","205","NA","uniform","NA","NA","NA","0","undefined","0","0","60","60","60","0","60","60","60","NA","0","60","NA","NA","0","60","NA","60","0","60","NA","NA","NA","60","0","0","NA","60","60","60","60","60","61","z","Thu Dec  7 10:35:56 2023","The main experiment item","yes","m21-ab-lexicalDecision.osexp","C:\Users\ekealey\Desktop","no","mono","no","18","no","white","no","yes","1080","legacy","60","60","C:/Users/ekealey/Desktop/subject-231.csv","xpyriment","Lentiform Loewenfeld","3.3.11","0","None","NA","NA","NA","NA","space","None","1200","NA","NA","NA","NA","28012","1200","2","legacy","1024","2","48000","-16","AB_m21","231","odd","NW_S_SIMP","WINKIDY","1883","317777","315410","311996","29909","NA","NA","NA","NA","NA","315910","NA","NA","NA","314910","NA","314882","1895","318077","NA","NA","NA","315951","1884","1884","NA","317151","317174","314882","315910","315931","morph21_Oliver/Morris","0","73200","61","yes","1920","21"
"400","0","0","1200","1200","black","no","xpyriment","legacy","legacy","0","205","NA","uniform","NA","NA","NA","0","undefined","0","0","61","61","61","0","61","61","61","NA","0","61","NA","NA","0","61","NA","61","0","61","NA","NA","NA","61","0","0","NA","61","61","61","61","61","62","z","Thu Dec  7 10:35:56 2023","The main experiment item","yes","m21-ab-lexicalDecision.osexp","C:\Users\ekealey\Desktop","no","mono","no","18","no","white","no","yes","1080","legacy","61","61","C:/Users/ekealey/Desktop/subject-231.csv","xpyriment","Lentiform Loewenfeld","3.3.11","0","None","NA","NA","NA","NA","space","None","1200","NA","NA","NA","NA","28012","1200","2","legacy","1024","2","48000","-16","AB_m21","231","odd","NW_S_SIMP","URNILT","1883","322013","319645","311996","29909","NA","NA","NA","NA","NA","320145","NA","NA","NA","319146","NA","319117","1895","322413","NA","NA","NA","320186","1884","1884","NA","321386","321410","319117","320145","320166","morph21_Oliver/Morris","0","74400","62","yes","1920","5"
"350","0","0","1200","1200","black","no","xpyriment","legacy","legacy","0","201","NA","uniform","NA","NA","NA","0","undefined","0","0","62","62","62","0","62","62","62","NA","0","62","NA","NA","0","62","NA","62","0","62","NA","NA","NA","62","0","0","NA","62","62","62","62","62","63","/","Thu Dec  7 10:35:56 2023","The main experiment item","yes","m21-ab-lexicalDecision.osexp","C:\Users\ekealey\Desktop","no","mono","no","18","no","white","no","yes","1080","legacy","62","62","C:/Users/ekealey/Desktop/subject-231.csv","xpyriment","Lentiform Loewenfeld","3.3.11","0","None","NA","NA","NA","NA","space","None","1200","NA","NA","NA","NA","28012","1200","2","legacy","1024","2","48000","-16","AB_m21","231","odd","CW_S","NEATLY","1883","327843","323972","326338","29909","NA","NA","NA","NA","NA","324472","NA","NA","NA","323471","NA","323443","1895","328193","NA","NA","NA","324512","1884","1884","NA","325712","325735","323443","324472","324492","morph21_Oliver/Morris","0","75600","63","yes","1920","33"
"300","0","0","1200","1200","black","no","xpyriment","legacy","legacy","0","202","NA","uniform","NA","NA","NA","0","undefined","0","0","63","63","63","0","63","63","63","NA","0","63","NA","NA","0","63","NA","63","0","63","NA","NA","NA","63","0","0","NA","63","63","63","63","63","64","/","Thu Dec  7 10:35:56 2023","The main experiment item","yes","m21-ab-lexicalDecision.osexp","C:\Users\ekealey\Desktop","no","mono","no","18","no","white","no","yes","1080","legacy","63","63","C:/Users/ekealey/Desktop/subject-231.csv","xpyriment","Lentiform Loewenfeld","3.3.11","0","None","NA","NA","NA","NA","space","None","1200","NA","NA","NA","NA","28012","1200","2","legacy","1024","2","48000","-16","AB_m21","231","odd","CW_L","WEEDY","1883","332152","329784","326338","29909","NA","NA","NA","NA","NA","330284","NA","NA","NA","329283","NA","329259","1895","332452","NA","NA","NA","330325","1884","1884","NA","331525","331549","329259","330284","330305","morph21_Oliver/Morris","0","76800","64","yes","1920","48"
"400","0","0","1200","1200","black","no","xpyriment","legacy","legacy","0","202","NA","uniform","NA","NA","NA","0","undefined","0","0","64","64","64","0","64","64","64","NA","0","64","NA","NA","0","64","NA","64","0","64","NA","NA","NA","64","0","0","NA","64","64","64","64","64","65","/","Thu Dec  7 10:35:56 2023","The main experiment item","yes","m21-ab-lexicalDecision.osexp","C:\Users\ekealey\Desktop","no","mono","no","18","no","white","no","yes","1080","legacy","64","64","C:/Users/ekealey/Desktop/subject-231.csv","xpyriment","Lentiform Loewenfeld","3.3.11","0","None","NA","NA","NA","NA","space","None","1200","NA","NA","NA","NA","28012","1200","2","legacy","1024","2","48000","-16","AB_m21","231","odd","CW_L","LOCKER","1883","336369","334000","326338","29909","NA","NA","NA","NA","NA","334501","NA","NA","NA","333500","NA","333474","1895","336769","NA","NA","NA","334541","1884","1884","NA","335741","335765","333474","334501","334521","morph21_Oliver/Morris","0","78000","65","yes","1920","8"
"300","0","0","1200","1200","black","no","xpyriment","legacy","legacy","0","204","NA","uniform","NA","NA","NA","0","undefined","0","0","65","65","65","0","65","65","65","NA","0","65","NA","NA","0","65","NA","65","0","65","NA","NA","NA","65","0","0","NA","65","65","65","65","65","66","z","Thu Dec  7 10:35:56 2023","The main experiment item","yes","m21-ab-lexicalDecision.osexp","C:\Users\ekealey\Desktop","no","mono","no","18","no","white","no","yes","1080","legacy","65","65","C:/Users/ekealey/Desktop/subject-231.csv","xpyriment","Lentiform Loewenfeld","3.3.11","0","None","NA","NA","NA","NA","space","None","1200","NA","NA","NA","NA","28012","1200","2","legacy","1024","2","48000","-16","AB_m21","231","odd","NW_L_COMP","EMPLOYNESS","1883","342196","338319","340689","29909","NA","NA","NA","NA","NA","338819","NA","NA","NA","337818","NA","337789","1895","342496","NA","NA","NA","338860","1884","1884","NA","340060","340084","337789","338819","338840","morph21_Oliver/Morris","0","79200","66","yes","1920","21"
"400","0","0","1200","1200","black","no","xpyriment","legacy","legacy","0","207","NA","uniform","NA","NA","NA","0","undefined","0","0","66","66","66","0","66","66","66","NA","0","66","NA","NA","0","66","NA","66","0","66","NA","NA","NA","66","0","0","NA","66","66","66","66","66","67","/","Thu Dec  7 10:35:56 2023","The main experiment item","yes","m21-ab-lexicalDecision.osexp","C:\Users\ekealey\Desktop","no","mono","no","18","no","white","no","yes","1080","legacy","66","66","C:/Users/ekealey/Desktop/subject-231.csv","xpyriment","Lentiform Loewenfeld","3.3.11","0","None","NA","NA","NA","NA","space","None","1200","NA","NA","NA","NA","28012","1200","2","legacy","1024","2","48000","-16","AB_m21","231","odd","FILL_W","LITHE","1883","346438","344070","340689","29909","NA","NA","NA","NA","NA","344571","NA","NA","NA","343570","NA","343541","1895","346839","NA","NA","NA","344611","1884","1884","NA","345811","345835","343541","344571","344591","morph21_Oliver/Morris","0","80400","67","yes","1920","23"
"250","0","0","1200","1200","black","no","xpyriment","legacy","legacy","0","206","NA","uniform","NA","NA","NA","0","undefined","0","0","67","67","67","0","67","67","67","NA","0","67","NA","NA","0","67","NA","67","0","67","NA","NA","NA","67","0","0","NA","67","67","67","67","67","68","z","Thu Dec  7 10:35:56 2023","The main experiment item","yes","m21-ab-lexicalDecision.osexp","C:\Users\ekealey\Desktop","no","mono","no","18","no","white","no","yes","1080","legacy","67","67","C:/Users/ekealey/Desktop/subject-231.csv","xpyriment","Lentiform Loewenfeld","3.3.11","0","None","NA","NA","NA","NA","space","None","1200","NA","NA","NA","NA","28012","1200","2","legacy","1024","2","48000","-16","AB_m21","231","odd","NW_L_SIMP","SMOOTHFIL","1883","350766","348394","340689","29909","NA","NA","NA","NA","NA","348897","NA","NA","NA","347893","NA","347867","1895","351016","NA","NA","NA","348937","1884","1884","NA","350137","350161","347867","348897","348917","morph21_Oliver/Morris","0","81600","68","yes","1920","19"
"350","0","0","1200","1200","black","no","xpyriment","legacy","legacy","0","208","NA","uniform","NA","NA","NA","0","undefined","0","0","68","68","68","0","68","68","68","NA","0","68","NA","NA","0","68","NA","68","0","68","NA","NA","NA","68","0","0","NA","68","68","68","68","68","69","z","Thu Dec  7 10:35:56 2023","The main experiment item","yes","m21-ab-lexicalDecision.osexp","C:\Users\ekealey\Desktop","no","mono","no","18","no","white","no","yes","1080","legacy","68","68","C:/Users/ekealey/Desktop/subject-231.csv","xpyriment","Lentiform Loewenfeld","3.3.11","0","None","NA","NA","NA","NA","space","None","1200","NA","NA","NA","NA","28012","1200","2","legacy","1024","2","48000","-16","AB_m21","231","odd","FILL_NW","KRAISE","1883","356470","352594","354965","29909","NA","NA","NA","NA","NA","353096","NA","NA","NA","352092","NA","352068","1895","356820","NA","NA","NA","353137","1884","1884","NA","354337","354361","352068","353096","353117","morph21_Oliver/Morris","0","82800","69","yes","1920","33"
"350","0","0","1200","1200","black","no","xpyriment","legacy","legacy","0","202","NA","uniform","NA","NA","NA","0","undefined","0","0","69","69","69","0","69","69","69","NA","0","69","NA","NA","0","69","NA","69","0","69","NA","NA","NA","69","0","0","NA","69","69","69","69","69","70","/","Thu Dec  7 10:35:56 2023","The main experiment item","yes","m21-ab-lexicalDecision.osexp","C:\Users\ekealey\Desktop","no","mono","no","18","no","white","no","yes","1080","legacy","69","69","C:/Users/ekealey/Desktop/subject-231.csv","xpyriment","Lentiform Loewenfeld","3.3.11","0","None","NA","NA","NA","NA","space","None","1200","NA","NA","NA","NA","28012","1200","2","legacy","1024","2","48000","-16","AB_m21","231","odd","CW_L","FEEDER","1883","360783","358416","354965","29909","NA","NA","NA","NA","NA","358916","NA","NA","NA","357916","NA","357888","1895","361133","NA","NA","NA","358957","1884","1884","NA","360157","360180","357888","358916","358937","morph21_Oliver/Morris","0","84000","70","yes","1920","14"
"200","0","0","1200","1200","black","no","xpyriment","legacy","legacy","0","208","NA","uniform","NA","NA","NA","0","undefined","0","0","70","70","70","0","70","70","70","NA","0","70","NA","NA","0","70","NA","70","0","70","NA","NA","NA","70","0","0","NA","70","70","70","70","70","71","z","Thu Dec  7 10:35:56 2023","The main experiment item","yes","m21-ab-lexicalDecision.osexp","C:\Users\ekealey\Desktop","no","mono","no","18","no","white","no","yes","1080","legacy","70","70","C:/Users/ekealey/Desktop/subject-231.csv","xpyriment","Lentiform Loewenfeld","3.3.11","0","None","NA","NA","NA","NA","space","None","1200","NA","NA","NA","NA","28012","1200","2","legacy","1024","2","48000","-16","AB_m21","231","odd","FILL_NW","CINDS","1883","365056","362686","354965","29909","NA","NA","NA","NA","NA","363187","NA","NA","NA","362184","NA","362152","1895","365256","NA","NA","NA","363228","1884","1884","NA","364428","364452","362152","363187","363208","morph21_Oliver/Morris","0","85200","71","yes","1920","6"
"200","0","0","1200","1200","black","no","xpyriment","legacy","legacy","0","205","NA","uniform","NA","NA","NA","0","undefined","0","0","71","71","71","0","71","71","71","NA","0","71","NA","NA","0","71","NA","71","0","71","NA","NA","NA","71","0","0","NA","71","71","71","71","71","72","z","Thu Dec  7 10:35:56 2023","The main experiment item","yes","m21-ab-lexicalDecision.osexp","C:\Users\ekealey\Desktop","no","mono","no","18","no","white","no","yes","1080","legacy","71","71","C:/Users/ekealey/Desktop/subject-231.csv","xpyriment","Lentiform Loewenfeld","3.3.11","0","None","NA","NA","NA","NA","space","None","1200","NA","NA","NA","NA","28012","1200","2","legacy","1024","2","48000","-16","AB_m21","231","odd","NW_S_SIMP","GUMFIL","1883","370687","366814","369182","29909","NA","NA","NA","NA","NA","367314","NA","NA","NA","366313","NA","366285","1895","370887","NA","NA","NA","367355","1884","1884","NA","368555","368579","366285","367314","367335","morph21_Oliver/Morris","0","86400","72","yes","1920","2"
"400","0","0","1200","1200","black","no","xpyriment","legacy","legacy","0","201","NA","uniform","NA","NA","NA","0","undefined","0","0","72","72","72","0","72","72","72","NA","0","72","NA","NA","0","72","NA","72","0","72","NA","NA","NA","72","0","0","NA","72","72","72","72","72","73","/","Thu Dec  7 10:35:56 2023","The main experiment item","yes","m21-ab-lexicalDecision.osexp","C:\Users\ekealey\Desktop","no","mono","no","18","no","white","no","yes","1080","legacy","72","72","C:/Users/ekealey/Desktop/subject-231.csv","xpyriment","Lentiform Loewenfeld","3.3.11","0","None","NA","NA","NA","NA","space","None","1200","NA","NA","NA","NA","28012","1200","2","legacy","1024","2","48000","-16","AB_m21","231","odd","CW_S","DESIGN","1883","374829","372457","369182","29909","NA","NA","NA","NA","NA","372959","NA","NA","NA","371956","NA","371924","1895","375229","NA","NA","NA","373000","1884","1884","NA","374200","374225","371923","372959","372980","morph21_Oliver/Morris","0","87600","73","yes","1920","19"
"200","0","0","1200","1200","black","no","xpyriment","legacy","legacy","0","203","NA","uniform","NA","NA","NA","0","undefined","0","0","73","73","73","0","73","73","73","NA","0","73","NA","NA","0","73","NA","73","0","73","NA","NA","NA","73","0","0","NA","73","73","73","73","73","74","z","Thu Dec  7 10:35:56 2023","The main experiment item","yes","m21-ab-lexicalDecision.osexp","C:\Users\ekealey\Desktop","no","mono","no","18","no","white","no","yes","1080","legacy","73","73","C:/Users/ekealey/Desktop/subject-231.csv","xpyriment","Lentiform Loewenfeld","3.3.11","0","None","NA","NA","NA","NA","space","None","1200","NA","NA","NA","NA","28012","1200","2","legacy","1024","2","48000","-16","AB_m21","231","odd","NW_S_COMP","MELTANCE","1883","379167","376798","369182","29909","NA","NA","NA","NA","NA","377300","NA","NA","NA","376296","NA","376271","1895","379368","NA","NA","NA","377340","1884","1884","NA","378540","378564","376271","377300","377320","morph21_Oliver/Morris","0","88800","74","yes","1920","1"
"300","0","0","1200","1200","black","no","xpyriment","legacy","legacy","0","201","NA","uniform","NA","NA","NA","undefined","undefined","0","0","74","74","74","0","74","74","74","NA","0","74","NA","NA","0","74","NA","74","0","74","NA","NA","NA","74","0","0","NA","74","74","74","74","74","75","/","Thu Dec  7 10:35:56 2023","The main experiment item","yes","m21-ab-lexicalDecision.osexp","C:\Users\ekealey\Desktop","no","mono","no","18","no","white","no","yes","1080","legacy","74","74","C:/Users/ekealey/Desktop/subject-231.csv","xpyriment","Lentiform Loewenfeld","3.3.11","0","space","space","NA","NA","NA","space","None","20009","20009","NA","NA","NA","28012","1200","2","legacy","1024","2","48000","-16","AB_m21","231","odd","CW_S","ATTACKER","1883","384801","380923","383294","29909","385105","NA","NA","NA","NA","381424","NA","NA","NA","380422","NA","380396","1895","405116","NA","NA","NA","381465","1884","1884","NA","382665","382690","380396","381424","381445","morph21_Oliver/Morris","0","90000","75","yes","1920","20"
"300","0","0","1200","1200","black","no","xpyriment","legacy","legacy","0","206","NA","uniform","NA","NA","NA","0","undefined","0","0","75","75","75","0","75","75","75","NA","0","75","NA","NA","0","75","NA","75","0","75","NA","NA","NA","75","0","0","NA","75","75","75","75","75","76","z","Thu Dec  7 10:35:56 2023","The main experiment item","yes","m21-ab-lexicalDecision.osexp","C:\Users\ekealey\Desktop","no","mono","no","18","no","white","no","yes","1080","legacy","75","75","C:/Users/ekealey/Desktop/subject-231.csv","xpyriment","Lentiform Loewenfeld","3.3.11","0","None","space","NA","NA","NA","space","None","1200","20009","NA","NA","NA","28012","1200","2","legacy","1024","2","48000","-16","AB_m21","231","odd","NW_L_SIMP","EARILT","1883","409108","406740","383294","29909","385105","NA","NA","NA","NA","407240","NA","NA","NA","406238","NA","406212","1895","409408","NA","NA","NA","407281","1884","1884","NA","408481","408505","406212","407240","407261","morph21_Oliver/Morris","0","91200","76","yes","1920","12"
"350","0","0","1200","1200","black","no","xpyriment","legacy","legacy","0","205","NA","uniform","NA","NA","NA","0","undefined","0","0","76","76","76","0","76","76","76","NA","0","76","NA","NA","0","76","NA","76","0","76","NA","NA","NA","76","0","0","NA","76","76","76","76","76","77","z","Thu Dec  7 10:35:56 2023","The main experiment item","yes","m21-ab-lexicalDecision.osexp","C:\Users\ekealey\Desktop","no","mono","no","18","no","white","no","yes","1080","legacy","76","76","C:/Users/ekealey/Desktop/subject-231.csv","xpyriment","Lentiform Loewenfeld","3.3.11","0","None","space","NA","NA","NA","space","None","1200","20009","NA","NA","NA","28012","1200","2","legacy","1024","2","48000","-16","AB_m21","231","odd","NW_S_SIMP","BASKODY","1883","413350","410982","383294","29909","385105","NA","NA","NA","NA","411482","NA","NA","NA","410481","NA","410447","1895","413700","NA","NA","NA","411523","1884","1884","NA","412723","412747","410447","411482","411503","morph21_Oliver/Morris","0","92400","77","yes","1920","10"
"200","0","0","1200","1200","black","no","xpyriment","legacy","legacy","0","201","NA","uniform","NA","NA","NA","0","undefined","0","0","77","77","77","0","77","77","77","NA","0","77","NA","NA","0","77","NA","77","0","77","NA","NA","NA","77","0","0","NA","77","77","77","77","77","78","/","Thu Dec  7 10:35:56 2023","The main experiment item","yes","m21-ab-lexicalDecision.osexp","C:\Users\ekealey\Desktop","no","mono","no","18","no","white","no","yes","1080","legacy","77","77","C:/Users/ekealey/Desktop/subject-231.csv","xpyriment","Lentiform Loewenfeld","3.3.11","0","None","space","NA","NA","NA","space","None","1200","20009","NA","NA","NA","28012","1200","2","legacy","1024","2","48000","-16","AB_m21","231","odd","CW_S","AMUSEMENT","1883","419115","415242","417611","29909","385105","NA","NA","NA","NA","415742","NA","NA","NA","414741","NA","414708","1895","419316","NA","NA","NA","415783","1884","1884","NA","416983","417008","414708","415742","415763","morph21_Oliver/Morris","0","93600","78","yes","1920","38"
"200","0","0","1200","1200","black","no","xpyriment","legacy","legacy","0","206","NA","uniform","NA","NA","NA","0","undefined","0","0","78","78","78","0","78","78","78","NA","0","78","NA","NA","0","78","NA","78","0","78","NA","NA","NA","78","0","0","NA","78","78","78","78","78","79","z","Thu Dec  7 10:35:56 2023","The main experiment item","yes","m21-ab-lexicalDecision.osexp","C:\Users\ekealey\Desktop","no","mono","no","18","no","white","no","yes","1080","legacy","78","78","C:/Users/ekealey/Desktop/subject-231.csv","xpyriment","Lentiform Loewenfeld","3.3.11","0","None","space","NA","NA","NA","space","None","1200","20009","NA","NA","NA","28012","1200","2","legacy","1024","2","48000","-16","AB_m21","231","odd","NW_L_SIMP","GROWILT","1883","423273","420906","417611","29909","385105","NA","NA","NA","NA","421406","NA","NA","NA","420406","NA","420379","1895","423473","NA","NA","NA","421447","1884","1884","NA","422647","422670","420379","421406","421427","morph21_Oliver/Morris","0","94800","79","yes","1920","20"
"350","0","0","1200","1200","black","no","xpyriment","legacy","legacy","0","204","NA","uniform","NA","NA","NA","0","undefined","0","0","79","79","79","0","79","79","79","NA","0","79","NA","NA","0","79","NA","79","0","79","NA","NA","NA","79","0","0","NA","79","79","79","79","79","80","z","Thu Dec  7 10:35:56 2023","The main experiment item","yes","m21-ab-lexicalDecision.osexp","C:\Users\ekealey\Desktop","no","mono","no","18","no","white","no","yes","1080","legacy","79","79","C:/Users/ekealey/Desktop/subject-231.csv","xpyriment","Lentiform Loewenfeld","3.3.11","0","None","space","NA","NA","NA","space","None","1200","20009","NA","NA","NA","28012","1200","2","legacy","1024","2","48000","-16","AB_m21","231","odd","NW_L_COMP","MOUTHIZE","1883","427378","425010","417611","29909","385105","NA","NA","NA","NA","425511","NA","NA","NA","424510","NA","424483","1895","427728","NA","NA","NA","425552","1884","1884","NA","426752","426775","424483","425511","425532","morph21_Oliver/Morris","0","96000","80","yes","1920","11"
"300","0","0","1200","1200","black","no","xpyriment","legacy","legacy","0","201","NA","uniform","NA","NA","NA","0","undefined","0","0","80","80","80","0","80","80","80","NA","0","80","NA","NA","0","80","NA","80","0","80","NA","NA","NA","80","0","0","NA","80","80","80","80","80","81","/","Thu Dec  7 10:35:56 2023","The main experiment item","yes","m21-ab-lexicalDecision.osexp","C:\Users\ekealey\Desktop","no","mono","no","18","no","white","no","yes","1080","legacy","80","80","C:/Users/ekealey/Desktop/subject-231.csv","xpyriment","Lentiform Loewenfeld","3.3.11","0","None","space","NA","NA","NA","space","None","1200","20009","NA","NA","NA","28012","1200","2","legacy","1024","2","48000","-16","AB_m21","231","odd","CW_S","DESTROYER","1883","433158","429282","431652","29909","385105","NA","NA","NA","NA","429783","NA","NA","NA","428782","NA","428751","1895","433459","NA","NA","NA","429823","1884","1884","NA","431023","431048","428751","429783","429803","morph21_Oliver/Morris","0","97200","81","yes","1920","14"
"200","0","0","1200","1200","black","no","xpyriment","legacy","legacy","0","206","NA","uniform","NA","NA","NA","0","undefined","0","0","81","81","81","0","81","81","81","NA","0","81","NA","NA","0","81","NA","81","0","81","NA","NA","NA","81","0","0","NA","81","81","81","81","81","82","z","Thu Dec  7 10:35:56 2023","The main experiment item","yes","m21-ab-lexicalDecision.osexp","C:\Users\ekealey\Desktop","no","mono","no","18","no","white","no","yes","1080","legacy","81","81","C:/Users/ekealey/Desktop/subject-231.csv","xpyriment","Lentiform Loewenfeld","3.3.11","0","None","space","NA","NA","NA","space","None","1200","20009","NA","NA","NA","28012","1200","2","legacy","1024","2","48000","-16","AB_m21","231","odd","NW_L_SIMP","TOWERLA","1883","437422","435053","431652","29909","385105","NA","NA","NA","NA","435554","NA","NA","NA","434553","NA","434523","1895","437622","NA","NA","NA","435595","1884","1884","NA","436795","436819","434523","435554","435575","morph21_Oliver/Morris","0","98400","82","yes","1920","15"
"300","0","0","1200","1200","black","no","xpyriment","legacy","legacy","0","201","NA","uniform","NA","NA","NA","0","undefined","0","0","82","82","82","0","82","82","82","NA","0","82","NA","NA","0","82","NA","82","0","82","NA","NA","NA","82","0","0","NA","82","82","82","82","82","83","/","Thu Dec  7 10:35:56 2023","The main experiment item","yes","m21-ab-lexicalDecision.osexp","C:\Users\ekealey\Desktop","no","mono","no","18","no","white","no","yes","1080","legacy","82","82","C:/Users/ekealey/Desktop/subject-231.csv","xpyriment","Lentiform Loewenfeld","3.3.11","0","None","space","NA","NA","NA","space","None","1200","20009","NA","NA","NA","28012","1200","2","legacy","1024","2","48000","-16","AB_m21","231","odd","CW_S","GUILTY","1883","441541","439172","431652","29909","385105","NA","NA","NA","NA","439673","NA","NA","NA","438671","NA","438637","1895","441842","NA","NA","NA","439714","1884","1884","NA","440914","440938","438637","439673","439693","morph21_Oliver/Morris","0","99600","83","yes","1920","34"
"350","0","0","1200","1200","black","no","xpyriment","legacy","legacy","0","201","NA","uniform","NA","NA","NA","0","undefined","0","0","83","83","83","0","83","83","83","NA","0","83","NA","NA","0","83","NA","83","0","83","NA","NA","NA","83","0","0","NA","83","83","83","83","83","84","/","Thu Dec  7 10:35:56 2023","The main experiment item","yes","m21-ab-lexicalDecision.osexp","C:\Users\ekealey\Desktop","no","mono","no","18","no","white","no","yes","1080","legacy","83","83","C:/Users/ekealey/Desktop/subject-231.csv","xpyriment","Lentiform Loewenfeld","3.3.11","0","None","space","NA","NA","NA","space","None","1200","20009","NA","NA","NA","28012","1200","2","legacy","1024","2","48000","-16","AB_m21","231","odd","CW_S","STRANGENESS","1883","447273","443397","445768","29909","385105","NA","NA","NA","NA","443899","NA","NA","NA","442895","NA","442869","1895","447623","NA","NA","NA","443940","1884","1884","NA","445140","445163","442869","443899","443920","morph21_Oliver/Morris","0","100800","84","yes","1920","46"
"250","0","0","1200","1200","black","no","xpyriment","legacy","legacy","0","204","NA","uniform","NA","NA","NA","0","undefined","0","0","84","84","84","0","84","84","84","NA","0","84","NA","NA","0","84","NA","84","0","84","NA","NA","NA","84","0","0","NA","84","84","84","84","84","85","z","Thu Dec  7 10:35:56 2023","The main experiment item","yes","m21-ab-lexicalDecision.osexp","C:\Users\ekealey\Desktop","no","mono","no","18","no","white","no","yes","1080","legacy","84","84","C:/Users/ekealey/Desktop/subject-231.csv","xpyriment","Lentiform Loewenfeld","3.3.11","0","None","space","NA","NA","NA","space","None","1200","20009","NA","NA","NA","28012","1200","2","legacy","1024","2","48000","-16","AB_m21","231","odd","NW_L_COMP","MUDLY","1883","451589","449219","445768","29909","385105","NA","NA","NA","NA","449720","NA","NA","NA","448718","NA","448692","1895","451839","NA","NA","NA","449760","1884","1884","NA","450960","450984","448692","449720","449740","morph21_Oliver/Morris","0","102000","85","yes","1920","12"
"400","0","0","1200","1200","black","no","xpyriment","legacy","legacy","0","202","NA","uniform","NA","NA","NA","0","undefined","0","0","85","85","85","0","85","85","85","NA","0","85","NA","NA","0","85","NA","85","0","85","NA","NA","NA","85","0","0","NA","85","85","85","85","85","86","/","Thu Dec  7 10:35:56 2023","The main experiment item","yes","m21-ab-lexicalDecision.osexp","C:\Users\ekealey\Desktop","no","mono","no","18","no","white","no","yes","1080","legacy","85","85","C:/Users/ekealey/Desktop/subject-231.csv","xpyriment","Lentiform Loewenfeld","3.3.11","0","None","space","NA","NA","NA","space","None","1200","20009","NA","NA","NA","28012","1200","2","legacy","1024","2","48000","-16","AB_m21","231","odd","CW_L","CLEANER","1883","455764","453393","445768","29909","385105","NA","NA","NA","NA","453894","NA","NA","NA","452892","NA","452866","1895","456164","NA","NA","NA","453934","1884","1884","NA","455134","455159","452865","453894","453914","morph21_Oliver/Morris","0","103200","86","yes","1920","15"
"400","0","0","1200","1200","black","no","xpyriment","legacy","legacy","0","206","NA","uniform","NA","NA","NA","0","undefined","0","0","86","86","86","0","86","86","86","NA","0","86","NA","NA","0","86","NA","86","0","86","NA","NA","NA","86","0","0","NA","86","86","86","86","86","87","z","Thu Dec  7 10:35:56 2023","The main experiment item","yes","m21-ab-lexicalDecision.osexp","C:\Users\ekealey\Desktop","no","mono","no","18","no","white","no","yes","1080","legacy","86","86","C:/Users/ekealey/Desktop/subject-231.csv","xpyriment","Lentiform Loewenfeld","3.3.11","0","None","space","NA","NA","NA","space","None","1200","20009","NA","NA","NA","28012","1200","2","legacy","1024","2","48000","-16","AB_m21","231","odd","NW_L_SIMP","VALIDEL","1883","461604","457729","460099","29909","385105","NA","NA","NA","NA","458230","NA","NA","NA","457226","NA","457202","1895","462004","NA","NA","NA","458270","1884","1884","NA","459470","459496","457202","458230","458250","morph21_Oliver/Morris","0","104400","87","yes","1920","23"
"250","0","0","1200","1200","black","no","xpyriment","legacy","legacy","0","202","NA","uniform","NA","NA","NA","0","undefined","0","0","87","87","87","0","87","87","87","NA","0","87","NA","NA","0","87","NA","87","0","87","NA","NA","NA","87","0","0","NA","87","87","87","87","87","88","/","Thu Dec  7 10:35:56 2023","The main experiment item","yes","m21-ab-lexicalDecision.osexp","C:\Users\ekealey\Desktop","no","mono","no","18","no","white","no","yes","1080","legacy","87","87","C:/Users/ekealey/Desktop/subject-231.csv","xpyriment","Lentiform Loewenfeld","3.3.11","0","None","space","NA","NA","NA","space","None","1200","20009","NA","NA","NA","28012","1200","2","legacy","1024","2","48000","-16","AB_m21","231","odd","CW_L","STRIKER","1883","465935","463567","460099","29909","385105","NA","NA","NA","NA","464069","NA","NA","NA","463066","NA","463036","1895","466185","NA","NA","NA","464109","1884","1884","NA","465309","465332","463036","464068","464089","morph21_Oliver/Morris","0","105600","88","yes","1920","17"
"350","0","0","1200","1200","black","no","xpyriment","legacy","legacy","0","207","NA","uniform","NA","NA","NA","0","undefined","0","0","88","88","88","0","88","88","88","NA","0","88","NA","NA","0","88","NA","88","0","88","NA","NA","NA","88","0","0","NA","88","88","88","88","88","89","/","Thu Dec  7 10:35:56 2023","The main experiment item","yes","m21-ab-lexicalDecision.osexp","C:\Users\ekealey\Desktop","no","mono","no","18","no","white","no","yes","1080","legacy","88","88","C:/Users/ekealey/Desktop/subject-231.csv","xpyriment","Lentiform Loewenfeld","3.3.11","0","None","space","NA","NA","NA","space","None","1200","20009","NA","NA","NA","28012","1200","2","legacy","1024","2","48000","-16","AB_m21","231","odd","FILL_W","LEAK","1883","470094","467724","460099","29909","385105","NA","NA","NA","NA","468224","NA","NA","NA","467222","NA","467196","1895","470445","NA","NA","NA","468265","1884","1884","NA","469465","469490","467196","468224","468245","morph21_Oliver/Morris","0","106800","89","yes","1920","9"
"400","0","0","1200","1200","black","no","xpyriment","legacy","legacy","0","202","NA","uniform","NA","NA","NA","0","undefined","0","0","89","89","89","0","89","89","89","NA","0","89","NA","NA","0","89","NA","89","0","89","NA","NA","NA","89","0","0","NA","89","89","89","89","89","90","/","Thu Dec  7 10:35:56 2023","The main experiment item","yes","m21-ab-lexicalDecision.osexp","C:\Users\ekealey\Desktop","no","mono","no","18","no","white","no","yes","1080","legacy","89","89","C:/Users/ekealey/Desktop/subject-231.csv","xpyriment","Lentiform Loewenfeld","3.3.11","0","None","space","NA","NA","NA","space","None","1200","20009","NA","NA","NA","28012","1200","2","legacy","1024","2","48000","-16","AB_m21","231","odd","CW_L","DRYNESS","1883","475852","471980","474348","29909","385105","NA","NA","NA","NA","472480","NA","NA","NA","471479","NA","471451","1895","476253","NA","NA","NA","472521","1884","1884","NA","473721","473745","471451","472480","472501","morph21_Oliver/Morris","0","108000","90","yes","1920","42"
"200","0","0","1200","1200","black","no","xpyriment","legacy","legacy","0","207","NA","uniform","NA","NA","NA","0","undefined","0","0","90","90","90","0","90","90","90","NA","0","90","NA","NA","0","90","NA","90","0","90","NA","NA","NA","90","0","0","NA","90","90","90","90","90","91","/","Thu Dec  7 10:35:56 2023","The main experiment item","yes","m21-ab-lexicalDecision.osexp","C:\Users\ekealey\Desktop","no","mono","no","18","no","white","no","yes","1080","legacy","90","90","C:/Users/ekealey/Desktop/subject-231.csv","xpyriment","Lentiform Loewenfeld","3.3.11","0","None","space","NA","NA","NA","space","None","1200","20009","NA","NA","NA","28012","1200","2","legacy","1024","2","48000","-16","AB_m21","231","odd","FILL_W","GOLF","1883","480189","477821","474348","29909","385105","NA","NA","NA","NA","478322","NA","NA","NA","477321","NA","477292","1895","480390","NA","NA","NA","478363","1884","1884","NA","479563","479586","477292","478322","478343","morph21_Oliver/Morris","0","109200","91","yes","1920","28"
"300","0","0","1200","1200","black","no","xpyriment","legacy","legacy","0","208","NA","uniform","NA","NA","NA","0","undefined","0","0","91","91","91","0","91","91","91","NA","0","91","NA","NA","0","91","NA","91","0","91","NA","NA","NA","91","0","0","NA","91","91","91","91","91","92","z","Thu Dec  7 10:35:56 2023","The main experiment item","yes","m21-ab-lexicalDecision.osexp","C:\Users\ekealey\Desktop","no","mono","no","18","no","white","no","yes","1080","legacy","91","91","C:/Users/ekealey/Desktop/subject-231.csv","xpyriment","Lentiform Loewenfeld","3.3.11","0","None","space","NA","NA","NA","space","None","1200","20009","NA","NA","NA","28012","1200","2","legacy","1024","2","48000","-16","AB_m21","231","odd","FILL_NW","TREMP","1883","484311","481944","474348","29909","385105","NA","NA","NA","NA","482444","NA","NA","NA","481443","NA","481415","1895","484611","NA","NA","NA","482484","1884","1884","NA","483684","483708","481415","482444","482464","morph21_Oliver/Morris","0","110400","92","yes","1920","20"
"200","0","0","1200","1200","black","no","xpyriment","legacy","legacy","0","207","NA","uniform","NA","NA","NA","0","undefined","0","0","92","92","92","0","92","92","92","NA","0","92","NA","NA","0","92","NA","92","0","92","NA","NA","NA","92","0","0","NA","92","92","92","92","92","93","/","Thu Dec  7 10:35:56 2023","The main experiment item","yes","m21-ab-lexicalDecision.osexp","C:\Users\ekealey\Desktop","no","mono","no","18","no","white","no","yes","1080","legacy","92","92","C:/Users/ekealey/Desktop/subject-231.csv","xpyriment","Lentiform Loewenfeld","3.3.11","0","None","space","NA","NA","NA","space","None","1200","20009","NA","NA","NA","28012","1200","2","legacy","1024","2","48000","-16","AB_m21","231","odd","FILL_W","LEGAL","1883","490039","486161","488533","29909","385105","NA","NA","NA","NA","486664","NA","NA","NA","485661","NA","485635","1895","490239","NA","NA","NA","486704","1884","1884","NA","487904","487929","485635","486663","486684","morph21_Oliver/Morris","0","111600","93","yes","1920","35"
"250","0","0","1200","1200","black","no","xpyriment","legacy","legacy","0","202","NA","uniform","NA","NA","NA","0","undefined","0","0","93","93","93","0","93","93","93","NA","0","93","NA","NA","0","93","NA","93","0","93","NA","NA","NA","93","0","0","NA","93","93","93","93","93","94","/","Thu Dec  7 10:35:56 2023","The main experiment item","yes","m21-ab-lexicalDecision.osexp","C:\Users\ekealey\Desktop","no","mono","no","18","no","white","no","yes","1080","legacy","93","93","C:/Users/ekealey/Desktop/subject-231.csv","xpyriment","Lentiform Loewenfeld","3.3.11","0","None","space","NA","NA","NA","space","None","1200","20009","NA","NA","NA","28012","1200","2","legacy","1024","2","48000","-16","AB_m21","231","odd","CW_L","DANCER","1883","494171","491802","488533","29909","385105","NA","NA","NA","NA","492303","NA","NA","NA","491301","NA","491273","1895","494421","NA","NA","NA","492343","1884","1884","NA","493543","493566","491273","492303","492323","morph21_Oliver/Morris","0","112800","94","yes","1920","11"
"400","0","0","1200","1200","black","no","xpyriment","legacy","legacy","0","205","NA","uniform","NA","NA","NA","0","undefined","0","0","94","94","94","0","94","94","94","NA","0","94","NA","NA","0","94","NA","94","0","94","NA","NA","NA","94","0","0","NA","94","94","94","94","94","95","z","Thu Dec  7 10:35:56 2023","The main experiment item","yes","m21-ab-lexicalDecision.osexp","C:\Users\ekealey\Desktop","no","mono","no","18","no","white","no","yes","1080","legacy","94","94","C:/Users/ekealey/Desktop/subject-231.csv","xpyriment","Lentiform Loewenfeld","3.3.11","0","None","space","NA","NA","NA","space","None","1200","20009","NA","NA","NA","28012","1200","2","legacy","1024","2","48000","-16","AB_m21","231","odd","NW_S_SIMP","AIDIG","1883","498333","495964","488533","29909","385105","NA","NA","NA","NA","496464","NA","NA","NA","495462","NA","495436","1895","498733","NA","NA","NA","496505","1884","1884","NA","497705","497730","495436","496464","496485","morph21_Oliver/Morris","0","114000","95","yes","1920","4"
"350","0","0","1200","1200","black","no","xpyriment","legacy","legacy","0","203","NA","uniform","NA","NA","NA","0","undefined","0","0","95","95","95","0","95","95","95","NA","0","95","NA","NA","0","95","NA","95","0","95","NA","NA","NA","95","0","0","NA","95","95","95","95","95","96","z","Thu Dec  7 10:35:56 2023","The main experiment item","yes","m21-ab-lexicalDecision.osexp","C:\Users\ekealey\Desktop","no","mono","no","18","no","white","no","yes","1080","legacy","95","95","C:/Users/ekealey/Desktop/subject-231.csv","xpyriment","Lentiform Loewenfeld","3.3.11","0","None","space","NA","NA","NA","space","None","1200","20009","NA","NA","NA","28012","1200","2","legacy","1024","2","48000","-16","AB_m21","231","odd","NW_S_COMP","FIENDISM","1883","504173","500300","502669","29909","385105","NA","NA","NA","NA","500802","NA","NA","NA","499799","NA","499773","1895","504523","NA","NA","NA","500843","1884","1884","NA","502043","502066","499773","500802","500823","morph21_Oliver/Morris","0","115200","96","yes","1920","24"
