"ITI","acc","accuracy","average_response_time","avg_rt","background","bidi","canvas_backend","clock_backend","color_backend","compensation","cond_trig","condtrigtime","coordinates","coroutines_cycles","coroutines_duration","coroutines_mean_cycle_duration","correct","correct_instructions_1","correct_new_keyboard_response_1","count_AB_m21","count_ITI","count_blank_screen","count_blink_screen","count_block1","count_break1","count_break2","count_break3_1","count_canvas","count_close_port","count_cond_trigger","count_correct_trigger","count_def_chain","count_end_screen","count_fixation_1","count_getting_started","count_inc_counter","count_instructions_1","count_logger","count_logscript","count_new_inline_script","count_new_inline_script_2","count_new_keyboard_response_1","count_open_port","count_reset_counter_prep","count_reset_counter_run","count_response_trigger_trial","count_responsescreen","count_sequence","count_target_present","count_word_trigger","counter","cresp","datetime","description","disable_garbage_collection","experiment_file","experiment_path","font_bold","font_family","font_italic","font_size","font_underline","foreground","form_clicks","fullscreen","height","keyboard_backend","live_row","live_row_block1","logfile","mouse_backend","opensesame_codename","opensesame_version","repeat_cycle","response","response_break1","response_break2","response_break3_1","response_end_screen","response_instructions_1","response_new_keyboard_response_1","response_time","response_time_break1","response_time_break2","response_time_break3_1","response_time_end_screen","response_time_instructions_1","response_time_new_keyboard_response_1","round_decimals","sampler_backend","sound_buf_size","sound_channels","sound_freq","sound_sample_size","start","subject_nr","subject_parity","targ_type","target","time_AB_m21","time_ITI","time_blank_screen","time_blink_screen","time_block1","time_break1","time_break2","time_break3_1","time_canvas","time_close_port","time_cond_trigger","time_correct_trigger","time_def_chain","time_end_screen","time_fixation_1","time_getting_started","time_inc_counter","time_instructions_1","time_logger","time_logscript","time_new_inline_script","time_new_inline_script_2","time_new_keyboard_response_1","time_open_port","time_reset_counter_prep","time_reset_counter_run","time_response_trigger_trial","time_responsescreen","time_sequence","time_target_present","time_word_trigger","title","total_correct","total_response_time","total_responses","uniform_coordinates","width","word_trig"
"200","100","100","994","994","black","no","xpyriment","legacy","legacy","0","208","NA","uniform","NA","NA","NA","1","undefined","1","0","0","0","0","0","0","0","0","NA","0","0","NA","NA","0","0","NA","0","0","0","NA","NA","NA","0","0","0","NA","0","0","0","0","0","1","z","Wed Jun 14 17:27:43 2023","The main experiment item","yes","m21-ab-lexicalDecision.osexp","C:\Users\emoore8\Desktop\m21_vsl-main","no","mono","no","18","no","white","no","yes","1080","legacy","0","0","C:/Users/emoore8/Desktop/m21_vsl-main/subject-205.csv","xpyriment","Lentiform Loewenfeld","3.3.11","0","z","NA","NA","NA","NA","space","z","994","NA","NA","NA","NA","83148","994","2","legacy","1024","2","48000","-16","AB_m21","205","odd","FILL_NW","GAIRS","1661","88710","86548","NA","84820","NA","NA","NA","NA","NA","87049","NA","NA","NA","86048","NA","86018","1670","88910","NA","NA","NA","87089","1661","1661","NA","88083","88107","86018","87048","87069","morph21_Oliver/Morris","1","994","1","yes","1920","23"
"400","50","50","971.5","971.5","black","no","xpyriment","legacy","legacy","0","201","NA","uniform","NA","NA","NA","0","undefined","0","0","1","1","1","0","1","1","1","NA","0","1","NA","NA","0","1","NA","1","0","1","NA","NA","NA","1","0","0","NA","1","1","1","1","1","2","/","Wed Jun 14 17:27:43 2023","The main experiment item","yes","m21-ab-lexicalDecision.osexp","C:\Users\emoore8\Desktop\m21_vsl-main","no","mono","no","18","no","white","no","yes","1080","legacy","1","1","C:/Users/emoore8/Desktop/m21_vsl-main/subject-205.csv","xpyriment","Lentiform Loewenfeld","3.3.11","0","z","NA","NA","NA","NA","space","z","949","NA","NA","NA","NA","83148","949","2","legacy","1024","2","48000","-16","AB_m21","205","odd","CW_S","WIDOWED","1661","92533","90416","NA","84820","NA","NA","NA","NA","NA","90916","NA","NA","NA","89914","NA","89891","1670","92933","NA","NA","NA","90957","1661","1661","NA","91907","91930","89891","90916","90937","morph21_Oliver/Morris","1","1943","2","yes","1920","7"
"200","66.66666666666667","66.66666666666667","982","982","black","no","xpyriment","legacy","legacy","0","203","NA","uniform","NA","NA","NA","1","undefined","1","0","2","2","2","0","2","2","2","NA","0","2","NA","NA","0","2","NA","2","0","2","NA","NA","NA","2","0","0","NA","2","2","2","2","2","3","z","Wed Jun 14 17:27:43 2023","The main experiment item","yes","m21-ab-lexicalDecision.osexp","C:\Users\emoore8\Desktop\m21_vsl-main","no","mono","no","18","no","white","no","yes","1080","legacy","2","2","C:/Users/emoore8/Desktop/m21_vsl-main/subject-205.csv","xpyriment","Lentiform Loewenfeld","3.3.11","0","z","NA","NA","NA","NA","space","z","1003","NA","NA","NA","NA","83148","1003","2","legacy","1024","2","48000","-16","AB_m21","205","odd","NW_S_COMP","MELTANCE","1661","98121","94443","96614","84820","NA","NA","NA","NA","NA","94943","NA","NA","NA","93943","NA","93917","1670","98321","NA","NA","NA","94983","1661","1661","NA","95987","96010","93917","94943","94963","morph21_Oliver/Morris","2","2946","3","yes","1920","1"
"350","75","75","882.5","882.5","black","no","xpyriment","legacy","legacy","0","202","NA","uniform","NA","NA","NA","1","undefined","1","0","3","3","3","0","3","3","3","NA","0","3","NA","NA","0","3","NA","3","0","3","NA","NA","NA","3","0","0","NA","3","3","3","3","3","4","/","Wed Jun 14 17:27:43 2023","The main experiment item","yes","m21-ab-lexicalDecision.osexp","C:\Users\emoore8\Desktop\m21_vsl-main","no","mono","no","18","no","white","no","yes","1080","legacy","3","3","C:/Users/emoore8/Desktop/m21_vsl-main/subject-205.csv","xpyriment","Lentiform Loewenfeld","3.3.11","0","/","NA","NA","NA","NA","space","/","584","NA","NA","NA","NA","83148","584","2","legacy","1024","2","48000","-16","AB_m21","205","odd","CW_L","KICKING","1661","101670","99917","96614","84820","NA","NA","NA","NA","NA","100418","NA","NA","NA","99416","NA","99390","1670","102020","NA","NA","NA","100459","1661","1661","NA","101043","101067","99390","100418","100439","morph21_Oliver/Morris","3","3530","4","yes","1920","23"
"300","80","80","856.4","856.4","black","no","xpyriment","legacy","legacy","0","208","NA","uniform","NA","NA","NA","1","undefined","1","0","4","4","4","0","4","4","4","NA","0","4","NA","NA","0","4","NA","4","0","4","NA","NA","NA","4","0","0","NA","4","4","4","4","4","5","z","Wed Jun 14 17:27:43 2023","The main experiment item","yes","m21-ab-lexicalDecision.osexp","C:\Users\emoore8\Desktop\m21_vsl-main","no","mono","no","18","no","white","no","yes","1080","legacy","4","4","C:/Users/emoore8/Desktop/m21_vsl-main/subject-205.csv","xpyriment","Lentiform Loewenfeld","3.3.11","0","z","NA","NA","NA","NA","space","z","752","NA","NA","NA","NA","83148","752","2","legacy","1024","2","48000","-16","AB_m21","205","odd","FILL_NW","VOGS","1661","105445","103526","96614","84820","NA","NA","NA","NA","NA","104026","NA","NA","NA","103025","NA","102999","1670","105745","NA","NA","NA","104066","1661","1661","NA","104819","104842","102999","104026","104046","morph21_Oliver/Morris","4","4282","5","yes","1920","47"
"300","83.33333333333333","83.33333333333333","823.8333333333334","823.8333333333334","black","no","xpyriment","legacy","legacy","0","202","NA","uniform","NA","NA","NA","1","undefined","1","0","5","5","5","0","5","5","5","NA","0","5","NA","NA","0","5","NA","5","0","5","NA","NA","NA","5","0","0","NA","5","5","5","5","5","6","/","Wed Jun 14 17:27:43 2023","The main experiment item","yes","m21-ab-lexicalDecision.osexp","C:\Users\emoore8\Desktop\m21_vsl-main","no","mono","no","18","no","white","no","yes","1080","legacy","5","5","C:/Users/emoore8/Desktop/m21_vsl-main/subject-205.csv","xpyriment","Lentiform Loewenfeld","3.3.11","0","/","NA","NA","NA","NA","space","/","661","NA","NA","NA","NA","83148","661","2","legacy","1024","2","48000","-16","AB_m21","205","odd","CW_L","HEATER","1661","110592","107256","109089","84820","NA","NA","NA","NA","NA","107758","NA","NA","NA","106754","NA","106730","1670","110892","NA","NA","NA","107798","1661","1661","NA","108459","108484","106730","107758","107778","morph21_Oliver/Morris","5","4943","6","yes","1920","16"
"250","85.71428571428571","85.71428571428571","797.7142857142857","797.7142857142857","black","no","xpyriment","legacy","legacy","0","201","NA","uniform","NA","NA","NA","1","undefined","1","0","6","6","6","0","6","6","6","NA","0","6","NA","NA","0","6","NA","6","0","6","NA","NA","NA","6","0","0","NA","6","6","6","6","6","7","/","Wed Jun 14 17:27:43 2023","The main experiment item","yes","m21-ab-lexicalDecision.osexp","C:\Users\emoore8\Desktop\m21_vsl-main","no","mono","no","18","no","white","no","yes","1080","legacy","6","6","C:/Users/emoore8/Desktop/m21_vsl-main/subject-205.csv","xpyriment","Lentiform Loewenfeld","3.3.11","0","/","NA","NA","NA","NA","space","/","641","NA","NA","NA","NA","83148","641","2","legacy","1024","2","48000","-16","AB_m21","205","odd","CW_S","PLANNER","1661","114208","112396","109089","84820","NA","NA","NA","NA","NA","112898","NA","NA","NA","111896","NA","111870","1670","114458","NA","NA","NA","112938","1661","1661","NA","113580","113604","111869","112897","112918","morph21_Oliver/Morris","6","5584","7","yes","1920","22"
"400","87.5","87.5","771.25","771.25","black","no","xpyriment","legacy","legacy","0","207","NA","uniform","NA","NA","NA","1","undefined","1","0","7","7","7","0","7","7","7","NA","0","7","NA","NA","0","7","NA","7","0","7","NA","NA","NA","7","0","0","NA","7","7","7","7","7","8","/","Wed Jun 14 17:27:43 2023","The main experiment item","yes","m21-ab-lexicalDecision.osexp","C:\Users\emoore8\Desktop\m21_vsl-main","no","mono","no","18","no","white","no","yes","1080","legacy","7","7","C:/Users/emoore8/Desktop/m21_vsl-main/subject-205.csv","xpyriment","Lentiform Loewenfeld","3.3.11","0","/","NA","NA","NA","NA","space","/","586","NA","NA","NA","NA","83148","586","2","legacy","1024","2","48000","-16","AB_m21","205","odd","FILL_W","CHIP","1661","117721","115964","109089","84820","NA","NA","NA","NA","NA","116464","NA","NA","NA","115464","NA","115437","1670","118121","NA","NA","NA","116505","1661","1661","NA","117091","117117","115437","116464","116485","morph21_Oliver/Morris","7","6170","8","yes","1920","11"
"250","88.88888888888889","88.88888888888889","745.8888888888889","745.8888888888889","black","no","xpyriment","legacy","legacy","0","207","NA","uniform","NA","NA","NA","1","undefined","1","0","8","8","8","0","8","8","8","NA","0","8","NA","NA","0","8","NA","8","0","8","NA","NA","NA","8","0","0","NA","8","8","8","8","8","9","/","Wed Jun 14 17:27:43 2023","The main experiment item","yes","m21-ab-lexicalDecision.osexp","C:\Users\emoore8\Desktop\m21_vsl-main","no","mono","no","18","no","white","no","yes","1080","legacy","8","8","C:/Users/emoore8/Desktop/m21_vsl-main/subject-205.csv","xpyriment","Lentiform Loewenfeld","3.3.11","0","/","NA","NA","NA","NA","space","/","543","NA","NA","NA","NA","83148","543","2","legacy","1024","2","48000","-16","AB_m21","205","odd","FILL_W","SUIT","1661","122861","119645","121358","84820","NA","NA","NA","NA","NA","120147","NA","NA","NA","119143","NA","119115","1670","123111","NA","NA","NA","120187","1661","1661","NA","120731","120754","119115","120146","120167","morph21_Oliver/Morris","8","6713","9","yes","1920","49"
"300","90","90","724.9","724.9","black","no","xpyriment","legacy","legacy","0","202","NA","uniform","NA","NA","NA","1","undefined","1","0","9","9","9","0","9","9","9","NA","0","9","NA","NA","0","9","NA","9","0","9","NA","NA","NA","9","0","0","NA","9","9","9","9","9","10","/","Wed Jun 14 17:27:43 2023","The main experiment item","yes","m21-ab-lexicalDecision.osexp","C:\Users\emoore8\Desktop\m21_vsl-main","no","mono","no","18","no","white","no","yes","1080","legacy","9","9","C:/Users/emoore8/Desktop/m21_vsl-main/subject-205.csv","xpyriment","Lentiform Loewenfeld","3.3.11","0","/","NA","NA","NA","NA","space","/","536","NA","NA","NA","NA","83148","536","2","legacy","1024","2","48000","-16","AB_m21","205","odd","CW_L","KNOCKER","1661","126310","124606","121358","84820","NA","NA","NA","NA","NA","125106","NA","NA","NA","124106","NA","124083","1670","126610","NA","NA","NA","125147","1661","1661","NA","125683","125707","124083","125106","125127","morph21_Oliver/Morris","9","7249","10","yes","1920","4"
"300","90.9090909090909","90.9090909090909","708.1818181818181","708.1818181818181","black","no","xpyriment","legacy","legacy","0","202","NA","uniform","NA","NA","NA","1","undefined","1","0","10","10","10","0","10","10","10","NA","0","10","NA","NA","0","10","NA","10","0","10","NA","NA","NA","10","0","0","NA","10","10","10","10","10","11","/","Wed Jun 14 17:27:43 2023","The main experiment item","yes","m21-ab-lexicalDecision.osexp","C:\Users\emoore8\Desktop\m21_vsl-main","no","mono","no","18","no","white","no","yes","1080","legacy","10","10","C:/Users/emoore8/Desktop/m21_vsl-main/subject-205.csv","xpyriment","Lentiform Loewenfeld","3.3.11","0","/","NA","NA","NA","NA","space","/","541","NA","NA","NA","NA","83148","541","2","legacy","1024","2","48000","-16","AB_m21","205","odd","CW_L","DOUBTFUL","1661","129824","128112","121358","84820","NA","NA","NA","NA","NA","128612","NA","NA","NA","127612","NA","127588","1670","130124","NA","NA","NA","128653","1661","1661","NA","129194","129219","127588","128612","128633","morph21_Oliver/Morris","10","7790","11","yes","1920","21"
"400","91.66666666666667","91.66666666666667","705.6666666666666","705.6666666666666","black","no","xpyriment","legacy","legacy","0","202","NA","uniform","NA","NA","NA","1","undefined","1","0","11","11","11","0","11","11","11","NA","0","11","NA","NA","0","11","NA","11","0","11","NA","NA","NA","11","0","0","NA","11","11","11","11","11","12","/","Wed Jun 14 17:27:43 2023","The main experiment item","yes","m21-ab-lexicalDecision.osexp","C:\Users\emoore8\Desktop\m21_vsl-main","no","mono","no","18","no","white","no","yes","1080","legacy","11","11","C:/Users/emoore8/Desktop/m21_vsl-main/subject-205.csv","xpyriment","Lentiform Loewenfeld","3.3.11","0","/","NA","NA","NA","NA","space","/","678","NA","NA","NA","NA","83148","678","2","legacy","1024","2","48000","-16","AB_m21","205","odd","CW_L","WRONGLY","1661","135014","131664","133509","84820","NA","NA","NA","NA","NA","132164","NA","NA","NA","131164","NA","131136","1670","135414","NA","NA","NA","132204","1661","1661","NA","132883","132907","131136","132164","132184","morph21_Oliver/Morris","11","8468","12","yes","1920","37"
"350","92.3076923076923","92.3076923076923","734.5384615384615","734.5384615384615","black","no","xpyriment","legacy","legacy","0","203","NA","uniform","NA","NA","NA","1","undefined","1","0","12","12","12","0","12","12","12","NA","0","12","NA","NA","0","12","NA","12","0","12","NA","NA","NA","12","0","0","NA","12","12","12","12","12","13","z","Wed Jun 14 17:27:43 2023","The main experiment item","yes","m21-ab-lexicalDecision.osexp","C:\Users\emoore8\Desktop\m21_vsl-main","no","mono","no","18","no","white","no","yes","1080","legacy","12","12","C:/Users/emoore8/Desktop/m21_vsl-main/subject-205.csv","xpyriment","Lentiform Loewenfeld","3.3.11","0","z","NA","NA","NA","NA","space","z","1081","NA","NA","NA","NA","83148","1081","2","legacy","1024","2","48000","-16","AB_m21","205","odd","NW_S_COMP","HEIGHTENCE","1661","139166","136916","133509","84820","NA","NA","NA","NA","NA","137417","NA","NA","NA","136415","NA","136391","1670","139517","NA","NA","NA","137458","1661","1661","NA","138539","138563","136391","137417","137438","morph21_Oliver/Morris","12","9549","13","yes","1920","18"
"350","92.85714285714286","92.85714285714286","726.1428571428571","726.1428571428571","black","no","xpyriment","legacy","legacy","0","201","NA","uniform","NA","NA","NA","1","undefined","1","0","13","13","13","0","13","13","13","NA","0","13","NA","NA","0","13","NA","13","0","13","NA","NA","NA","13","0","0","NA","13","13","13","13","13","14","/","Wed Jun 14 17:27:43 2023","The main experiment item","yes","m21-ab-lexicalDecision.osexp","C:\Users\emoore8\Desktop\m21_vsl-main","no","mono","no","18","no","white","no","yes","1080","legacy","13","13","C:/Users/emoore8/Desktop/m21_vsl-main/subject-205.csv","xpyriment","Lentiform Loewenfeld","3.3.11","0","/","NA","NA","NA","NA","space","/","617","NA","NA","NA","NA","83148","617","2","legacy","1024","2","48000","-16","AB_m21","205","odd","CW_S","AMAZEMENT","1661","142813","141028","133509","84820","NA","NA","NA","NA","NA","141529","NA","NA","NA","140528","NA","140502","1670","143163","NA","NA","NA","141569","1661","1661","NA","142187","142210","140502","141529","141549","morph21_Oliver/Morris","13","10166","14","yes","1920","39"
"300","93.33333333333333","93.33333333333333","725","725","black","no","xpyriment","legacy","legacy","0","205","NA","uniform","NA","NA","NA","1","undefined","1","0","14","14","14","0","14","14","14","NA","0","14","NA","NA","0","14","NA","14","0","14","NA","NA","NA","14","0","0","NA","14","14","14","14","14","15","z","Wed Jun 14 17:27:43 2023","The main experiment item","yes","m21-ab-lexicalDecision.osexp","C:\Users\emoore8\Desktop\m21_vsl-main","no","mono","no","18","no","white","no","yes","1080","legacy","14","14","C:/Users/emoore8/Desktop/m21_vsl-main/subject-205.csv","xpyriment","Lentiform Loewenfeld","3.3.11","0","z","NA","NA","NA","NA","space","z","709","NA","NA","NA","NA","83148","709","2","legacy","1024","2","48000","-16","AB_m21","205","odd","NW_S_SIMP","BOLTOES","1661","148045","144664","146542","84820","NA","NA","NA","NA","NA","145164","NA","NA","NA","144162","NA","144136","1670","148345","NA","NA","NA","145205","1661","1661","NA","145915","145939","144136","145164","145185","morph21_Oliver/Morris","14","10875","15","yes","1920","13"
"250","93.75","93.75","728.375","728.375","black","no","xpyriment","legacy","legacy","0","207","NA","uniform","NA","NA","NA","1","undefined","1","0","15","15","15","0","15","15","15","NA","0","15","NA","NA","0","15","NA","15","0","15","NA","NA","NA","15","0","0","NA","15","15","15","15","15","16","/","Wed Jun 14 17:27:43 2023","The main experiment item","yes","m21-ab-lexicalDecision.osexp","C:\Users\emoore8\Desktop\m21_vsl-main","no","mono","no","18","no","white","no","yes","1080","legacy","15","15","C:/Users/emoore8/Desktop/m21_vsl-main/subject-205.csv","xpyriment","Lentiform Loewenfeld","3.3.11","0","/","NA","NA","NA","NA","space","/","779","NA","NA","NA","NA","83148","779","2","legacy","1024","2","48000","-16","AB_m21","205","odd","FILL_W","FIERCE","1661","151774","149826","146542","84820","NA","NA","NA","NA","NA","150326","NA","NA","NA","149326","NA","149301","1670","152024","NA","NA","NA","150367","1661","1661","NA","151147","151171","149301","150326","150347","morph21_Oliver/Morris","15","11654","16","yes","1920","24"
"250","94.11764705882354","94.11764705882354","714.8823529411765","714.8823529411765","black","no","xpyriment","legacy","legacy","0","207","NA","uniform","NA","NA","NA","1","undefined","1","0","16","16","16","0","16","16","16","NA","0","16","NA","NA","0","16","NA","16","0","16","NA","NA","NA","16","0","0","NA","16","16","16","16","16","17","/","Wed Jun 14 17:27:43 2023","The main experiment item","yes","m21-ab-lexicalDecision.osexp","C:\Users\emoore8\Desktop\m21_vsl-main","no","mono","no","18","no","white","no","yes","1080","legacy","16","16","C:/Users/emoore8/Desktop/m21_vsl-main/subject-205.csv","xpyriment","Lentiform Loewenfeld","3.3.11","0","/","NA","NA","NA","NA","space","/","499","NA","NA","NA","NA","83148","499","2","legacy","1024","2","48000","-16","AB_m21","205","odd","FILL_W","SHIP","1661","155197","153530","146542","84820","NA","NA","NA","NA","NA","154030","NA","NA","NA","153030","NA","153002","1670","155447","NA","NA","NA","154071","1661","1661","NA","154571","154594","153002","154030","154051","morph21_Oliver/Morris","16","12153","17","yes","1920","37"
"300","94.44444444444444","94.44444444444444","710.1111111111111","710.1111111111111","black","no","xpyriment","legacy","legacy","0","208","NA","uniform","NA","NA","NA","1","undefined","1","0","17","17","17","0","17","17","17","NA","0","17","NA","NA","0","17","NA","17","0","17","NA","NA","NA","17","0","0","NA","17","17","17","17","17","18","z","Wed Jun 14 17:27:43 2023","The main experiment item","yes","m21-ab-lexicalDecision.osexp","C:\Users\emoore8\Desktop\m21_vsl-main","no","mono","no","18","no","white","no","yes","1080","legacy","17","17","C:/Users/emoore8/Desktop/m21_vsl-main/subject-205.csv","xpyriment","Lentiform Loewenfeld","3.3.11","0","z","NA","NA","NA","NA","space","z","629","NA","NA","NA","NA","83148","629","2","legacy","1024","2","48000","-16","AB_m21","205","odd","FILL_NW","VOOFS","1661","160263","156961","158760","84820","NA","NA","NA","NA","NA","157461","NA","NA","NA","156460","NA","156432","1670","160563","NA","NA","NA","157502","1661","1661","NA","158131","158155","156432","157461","157482","morph21_Oliver/Morris","17","12782","18","yes","1920","48"
"350","94.73684210526316","94.73684210526316","707.9473684210526","707.9473684210526","black","no","xpyriment","legacy","legacy","0","202","NA","uniform","NA","NA","NA","1","undefined","1","0","18","18","18","0","18","18","18","NA","0","18","NA","NA","0","18","NA","18","0","18","NA","NA","NA","18","0","0","NA","18","18","18","18","18","19","/","Wed Jun 14 17:27:43 2023","The main experiment item","yes","m21-ab-lexicalDecision.osexp","C:\Users\emoore8\Desktop\m21_vsl-main","no","mono","no","18","no","white","no","yes","1080","legacy","18","18","C:/Users/emoore8/Desktop/m21_vsl-main/subject-205.csv","xpyriment","Lentiform Loewenfeld","3.3.11","0","/","NA","NA","NA","NA","space","/","669","NA","NA","NA","NA","83148","669","2","legacy","1024","2","48000","-16","AB_m21","205","odd","CW_L","FEEDER","1661","163901","162064","158760","84820","NA","NA","NA","NA","NA","162565","NA","NA","NA","161564","NA","161538","1670","164251","NA","NA","NA","162605","1661","1661","NA","163275","163298","161538","162565","162585","morph21_Oliver/Morris","18","13451","19","yes","1920","14"
"200","95","95","697.35","697.35","black","no","xpyriment","legacy","legacy","0","207","NA","uniform","NA","NA","NA","1","undefined","1","0","19","19","19","0","19","19","19","NA","0","19","NA","NA","0","19","NA","19","0","19","NA","NA","NA","19","0","0","NA","19","19","19","19","19","20","/","Wed Jun 14 17:27:43 2023","The main experiment item","yes","m21-ab-lexicalDecision.osexp","C:\Users\emoore8\Desktop\m21_vsl-main","no","mono","no","18","no","white","no","yes","1080","legacy","19","19","C:/Users/emoore8/Desktop/m21_vsl-main/subject-205.csv","xpyriment","Lentiform Loewenfeld","3.3.11","0","/","NA","NA","NA","NA","space","/","496","NA","NA","NA","NA","83148","496","2","legacy","1024","2","48000","-16","AB_m21","205","odd","FILL_W","SAVE","1661","167406","165743","158760","84820","NA","NA","NA","NA","NA","166243","NA","NA","NA","165243","NA","165219","1670","167606","NA","NA","NA","166283","1661","1661","NA","166780","166803","165219","166243","166263","morph21_Oliver/Morris","19","13947","20","yes","1920","46"
"200","95.23809523809524","95.23809523809524","687.952380952381","687.952380952381","black","no","xpyriment","legacy","legacy","0","207","NA","uniform","NA","NA","NA","1","undefined","1","0","20","20","20","0","20","20","20","NA","0","20","NA","NA","0","20","NA","20","0","20","NA","NA","NA","20","0","0","NA","20","20","20","20","20","21","/","Wed Jun 14 17:27:43 2023","The main experiment item","yes","m21-ab-lexicalDecision.osexp","C:\Users\emoore8\Desktop\m21_vsl-main","no","mono","no","18","no","white","no","yes","1080","legacy","20","20","C:/Users/emoore8/Desktop/m21_vsl-main/subject-205.csv","xpyriment","Lentiform Loewenfeld","3.3.11","0","/","NA","NA","NA","NA","space","/","500","NA","NA","NA","NA","83148","500","2","legacy","1024","2","48000","-16","AB_m21","205","odd","FILL_W","TEST","1661","172268","169098","170765","84820","NA","NA","NA","NA","NA","169598","NA","NA","NA","168598","NA","168570","1670","172468","NA","NA","NA","169638","1661","1661","NA","170139","170162","168570","169598","169618","morph21_Oliver/Morris","20","14447","21","yes","1920","47"
"250","95.45454545454545","95.45454545454545","682.0454545454545","682.0454545454545","black","no","xpyriment","legacy","legacy","0","207","NA","uniform","NA","NA","NA","1","undefined","1","0","21","21","21","0","21","21","21","NA","0","21","NA","NA","0","21","NA","21","0","21","NA","NA","NA","21","0","0","NA","21","21","21","21","21","22","/","Wed Jun 14 17:27:43 2023","The main experiment item","yes","m21-ab-lexicalDecision.osexp","C:\Users\emoore8\Desktop\m21_vsl-main","no","mono","no","18","no","white","no","yes","1080","legacy","21","21","C:/Users/emoore8/Desktop/m21_vsl-main/subject-205.csv","xpyriment","Lentiform Loewenfeld","3.3.11","0","/","NA","NA","NA","NA","space","/","558","NA","NA","NA","NA","83148","558","2","legacy","1024","2","48000","-16","AB_m21","205","odd","FILL_W","STARVE","1661","175701","173975","170765","84820","NA","NA","NA","NA","NA","174476","NA","NA","NA","173475","NA","173452","1670","175951","NA","NA","NA","174516","1661","1661","NA","175075","175098","173452","174475","174496","morph21_Oliver/Morris","21","15005","22","yes","1920","15"
"250","95.65217391304348","95.65217391304348","686.4782608695652","686.4782608695652","black","no","xpyriment","legacy","legacy","0","207","NA","uniform","NA","NA","NA","1","undefined","1","0","22","22","22","0","22","22","22","NA","0","22","NA","NA","0","22","NA","22","0","22","NA","NA","NA","22","0","0","NA","22","22","22","22","22","23","/","Wed Jun 14 17:27:43 2023","The main experiment item","yes","m21-ab-lexicalDecision.osexp","C:\Users\emoore8\Desktop\m21_vsl-main","no","mono","no","18","no","white","no","yes","1080","legacy","22","22","C:/Users/emoore8/Desktop/m21_vsl-main/subject-205.csv","xpyriment","Lentiform Loewenfeld","3.3.11","0","/","NA","NA","NA","NA","space","/","784","NA","NA","NA","NA","83148","784","2","legacy","1024","2","48000","-16","AB_m21","205","odd","FILL_W","PACK","1661","179415","177463","170765","84820","NA","NA","NA","NA","NA","177963","NA","NA","NA","176963","NA","176936","1670","179666","NA","NA","NA","178003","1661","1661","NA","178788","178812","176936","177963","177983","morph21_Oliver/Morris","22","15789","23","yes","1920","41"
"400","95.83333333333333","95.83333333333333","684.2083333333334","684.2083333333334","black","no","xpyriment","legacy","legacy","0","206","NA","uniform","NA","NA","NA","1","undefined","1","0","23","23","23","0","23","23","23","NA","0","23","NA","NA","0","23","NA","23","0","23","NA","NA","NA","23","0","0","NA","23","23","23","23","23","24","z","Wed Jun 14 17:27:43 2023","The main experiment item","yes","m21-ab-lexicalDecision.osexp","C:\Users\emoore8\Desktop\m21_vsl-main","no","mono","no","18","no","white","no","yes","1080","legacy","23","23","C:/Users/emoore8/Desktop/m21_vsl-main/subject-205.csv","xpyriment","Lentiform Loewenfeld","3.3.11","0","z","NA","NA","NA","NA","space","z","632","NA","NA","NA","NA","83148","632","2","legacy","1024","2","48000","-16","AB_m21","205","odd","NW_L_SIMP","VALIDEL","1661","184527","181219","183024","84820","NA","NA","NA","NA","NA","181721","NA","NA","NA","180718","NA","180695","1670","184927","NA","NA","NA","181762","1661","1661","NA","182395","182420","180695","181721","181741","morph21_Oliver/Morris","23","16421","24","yes","1920","23"
"250","96","96","689.6","689.6","black","no","xpyriment","legacy","legacy","0","204","NA","uniform","NA","NA","NA","1","undefined","1","0","24","24","24","0","24","24","24","NA","0","24","NA","NA","0","24","NA","24","0","24","NA","NA","NA","24","0","0","NA","24","24","24","24","24","25","z","Wed Jun 14 17:27:43 2023","The main experiment item","yes","m21-ab-lexicalDecision.osexp","C:\Users\emoore8\Desktop\m21_vsl-main","no","mono","no","18","no","white","no","yes","1080","legacy","24","24","C:/Users/emoore8/Desktop/m21_vsl-main/subject-205.csv","xpyriment","Lentiform Loewenfeld","3.3.11","0","z","NA","NA","NA","NA","space","z","819","NA","NA","NA","NA","83148","819","2","legacy","1024","2","48000","-16","AB_m21","205","odd","NW_L_COMP","BREAKITY","1661","188425","186435","183024","84820","NA","NA","NA","NA","NA","186935","NA","NA","NA","185935","NA","185907","1670","188675","NA","NA","NA","186975","1661","1661","NA","187795","187820","185907","186935","186955","morph21_Oliver/Morris","24","17240","25","yes","1920","23"
"400","92.3076923076923","92.3076923076923","684.6153846153846","684.6153846153846","black","no","xpyriment","legacy","legacy","0","203","NA","uniform","NA","NA","NA","0","undefined","0","0","25","25","25","0","25","25","25","NA","0","25","NA","NA","0","25","NA","25","0","25","NA","NA","NA","25","0","0","NA","25","25","25","25","25","26","z","Wed Jun 14 17:27:43 2023","The main experiment item","yes","m21-ab-lexicalDecision.osexp","C:\Users\emoore8\Desktop\m21_vsl-main","no","mono","no","18","no","white","no","yes","1080","legacy","25","25","C:/Users/emoore8/Desktop/m21_vsl-main/subject-205.csv","xpyriment","Lentiform Loewenfeld","3.3.11","0","/","NA","NA","NA","NA","space","/","560","NA","NA","NA","NA","83148","560","2","legacy","1024","2","48000","-16","AB_m21","205","odd","NW_S_COMP","TRUENESS","1661","191894","190166","183024","84820","NA","NA","NA","NA","NA","190666","NA","NA","NA","189666","NA","189639","1670","192294","NA","NA","NA","190706","1661","1661","NA","191267","191290","189639","190666","190686","morph21_Oliver/Morris","24","17800","26","yes","1920","15"
"300","92.5925925925926","92.5925925925926","691.8518518518518","691.8518518518518","black","no","xpyriment","legacy","legacy","0","205","NA","uniform","NA","NA","NA","1","undefined","1","0","26","26","26","0","26","26","26","NA","0","26","NA","NA","0","26","NA","26","0","26","NA","NA","NA","26","0","0","NA","26","26","26","26","26","27","z","Wed Jun 14 17:27:43 2023","The main experiment item","yes","m21-ab-lexicalDecision.osexp","C:\Users\emoore8\Desktop\m21_vsl-main","no","mono","no","18","no","white","no","yes","1080","legacy","26","26","C:/Users/emoore8/Desktop/m21_vsl-main/subject-205.csv","xpyriment","Lentiform Loewenfeld","3.3.11","0","z","NA","NA","NA","NA","space","z","880","NA","NA","NA","NA","83148","880","2","legacy","1024","2","48000","-16","AB_m21","205","odd","NW_S_SIMP","FEVERIME","1661","197352","193798","195846","84820","NA","NA","NA","NA","NA","194298","NA","NA","NA","193298","NA","193271","1670","197652","NA","NA","NA","194339","1661","1661","NA","195220","195243","193271","194298","194319","morph21_Oliver/Morris","25","18680","27","yes","1920","24"
"400","92.85714285714286","92.85714285714286","692.7142857142857","692.7142857142857","black","no","xpyriment","legacy","legacy","0","202","NA","uniform","NA","NA","NA","1","undefined","1","0","27","27","27","0","27","27","27","NA","0","27","NA","NA","0","27","NA","27","0","27","NA","NA","NA","27","0","0","NA","27","27","27","27","27","28","/","Wed Jun 14 17:27:43 2023","The main experiment item","yes","m21-ab-lexicalDecision.osexp","C:\Users\emoore8\Desktop\m21_vsl-main","no","mono","no","18","no","white","no","yes","1080","legacy","27","27","C:/Users/emoore8/Desktop/m21_vsl-main/subject-205.csv","xpyriment","Lentiform Loewenfeld","3.3.11","0","/","NA","NA","NA","NA","space","/","716","NA","NA","NA","NA","83148","716","2","legacy","1024","2","48000","-16","AB_m21","205","odd","CW_L","CLOUDLESS","1661","201057","199169","195846","84820","NA","NA","NA","NA","NA","199670","NA","NA","NA","198668","NA","198636","1670","201457","NA","NA","NA","199711","1661","1661","NA","200427","200452","198636","199670","199691","morph21_Oliver/Morris","26","19396","28","yes","1920","33"
"250","93.10344827586206","93.10344827586206","686.551724137931","686.551724137931","black","no","xpyriment","legacy","legacy","0","201","NA","uniform","NA","NA","NA","1","undefined","1","0","28","28","28","0","28","28","28","NA","0","28","NA","NA","0","28","NA","28","0","28","NA","NA","NA","28","0","0","NA","28","28","28","28","28","29","/","Wed Jun 14 17:27:43 2023","The main experiment item","yes","m21-ab-lexicalDecision.osexp","C:\Users\emoore8\Desktop\m21_vsl-main","no","mono","no","18","no","white","no","yes","1080","legacy","28","28","C:/Users/emoore8/Desktop/m21_vsl-main/subject-205.csv","xpyriment","Lentiform Loewenfeld","3.3.11","0","/","NA","NA","NA","NA","space","/","514","NA","NA","NA","NA","83148","514","2","legacy","1024","2","48000","-16","AB_m21","205","odd","CW_S","TOSSING","1661","204648","202963","195846","84820","NA","NA","NA","NA","NA","203463","NA","NA","NA","202463","NA","202436","1670","204898","NA","NA","NA","203504","1661","1661","NA","204019","204044","202436","203463","203484","morph21_Oliver/Morris","27","19910","29","yes","1920","26"
"400","93.33333333333333","93.33333333333333","690.5","690.5","black","no","xpyriment","legacy","legacy","0","208","NA","uniform","NA","NA","NA","1","undefined","1","0","29","29","29","0","29","29","29","NA","0","29","NA","NA","0","29","NA","29","0","29","NA","NA","NA","29","0","0","NA","29","29","29","29","29","30","z","Wed Jun 14 17:27:43 2023","The main experiment item","yes","m21-ab-lexicalDecision.osexp","C:\Users\emoore8\Desktop\m21_vsl-main","no","mono","no","18","no","white","no","yes","1080","legacy","29","29","C:/Users/emoore8/Desktop/m21_vsl-main/subject-205.csv","xpyriment","Lentiform Loewenfeld","3.3.11","0","z","NA","NA","NA","NA","space","z","805","NA","NA","NA","NA","83148","805","2","legacy","1024","2","48000","-16","AB_m21","205","odd","FILL_NW","VELT","1661","209888","206408","208384","84820","NA","NA","NA","NA","NA","206908","NA","NA","NA","205908","NA","205884","1670","210288","NA","NA","NA","206949","1661","1661","NA","207755","207779","205884","206908","206929","morph21_Oliver/Morris","28","20715","30","yes","1920","46"
"200","93.54838709677419","93.54838709677419","685","685","black","no","xpyriment","legacy","legacy","0","201","NA","uniform","NA","NA","NA","1","undefined","1","0","30","30","30","0","30","30","30","NA","0","30","NA","NA","0","30","NA","30","0","30","NA","NA","NA","30","0","0","NA","30","30","30","30","30","31","/","Wed Jun 14 17:27:43 2023","The main experiment item","yes","m21-ab-lexicalDecision.osexp","C:\Users\emoore8\Desktop\m21_vsl-main","no","mono","no","18","no","white","no","yes","1080","legacy","30","30","C:/Users/emoore8/Desktop/m21_vsl-main/subject-205.csv","xpyriment","Lentiform Loewenfeld","3.3.11","0","/","NA","NA","NA","NA","space","/","520","NA","NA","NA","NA","83148","520","2","legacy","1024","2","48000","-16","AB_m21","205","odd","CW_S","AMUSEMENT","1661","213486","211797","208384","84820","NA","NA","NA","NA","NA","212298","NA","NA","NA","211297","NA","211269","1670","213687","NA","NA","NA","212338","1661","1661","NA","212859","212882","211269","212297","212318","morph21_Oliver/Morris","29","21235","31","yes","1920","38"
"250","93.75","93.75","685.15625","685.15625","black","no","xpyriment","legacy","legacy","0","202","NA","uniform","NA","NA","NA","1","undefined","1","0","31","31","31","0","31","31","31","NA","0","31","NA","NA","0","31","NA","31","0","31","NA","NA","NA","31","0","0","NA","31","31","31","31","31","32","/","Wed Jun 14 17:27:43 2023","The main experiment item","yes","m21-ab-lexicalDecision.osexp","C:\Users\emoore8\Desktop\m21_vsl-main","no","mono","no","18","no","white","no","yes","1080","legacy","31","31","C:/Users/emoore8/Desktop/m21_vsl-main/subject-205.csv","xpyriment","Lentiform Loewenfeld","3.3.11","0","/","NA","NA","NA","NA","space","/","690","NA","NA","NA","NA","83148","690","2","legacy","1024","2","48000","-16","AB_m21","205","odd","CW_L","STRIKER","1661","217055","215196","208384","84820","NA","NA","NA","NA","NA","215696","NA","NA","NA","214695","NA","214668","1670","217305","NA","NA","NA","215736","1661","1661","NA","216427","216452","214668","215696","215716","morph21_Oliver/Morris","30","21925","32","yes","1920","17"
"400","93.93939393939394","93.93939393939394","682.969696969697","682.969696969697","black","no","xpyriment","legacy","legacy","0","206","NA","uniform","NA","NA","NA","1","undefined","1","0","32","32","32","0","32","32","32","NA","0","32","NA","NA","0","32","NA","32","0","32","NA","NA","NA","32","0","0","NA","32","32","32","32","32","33","z","Wed Jun 14 17:27:43 2023","The main experiment item","yes","m21-ab-lexicalDecision.osexp","C:\Users\emoore8\Desktop\m21_vsl-main","no","mono","no","18","no","white","no","yes","1080","legacy","32","32","C:/Users/emoore8/Desktop/m21_vsl-main/subject-205.csv","xpyriment","Lentiform Loewenfeld","3.3.11","0","z","NA","NA","NA","NA","space","z","613","NA","NA","NA","NA","83148","613","2","legacy","1024","2","48000","-16","AB_m21","205","odd","NW_L_SIMP","BLOODEL","1661","222101","218815","220598","84820","NA","NA","NA","NA","NA","219316","NA","NA","NA","218314","NA","218290","1670","222501","NA","NA","NA","219357","1661","1661","NA","219971","219995","218289","219316","219337","morph21_Oliver/Morris","31","22538","33","yes","1920","24"
"200","91.17647058823529","91.17647058823529","687.7352941176471","687.7352941176471","black","no","xpyriment","legacy","legacy","0","203","NA","uniform","NA","NA","NA","0","undefined","0","0","33","33","33","0","33","33","33","NA","0","33","NA","NA","0","33","NA","33","0","33","NA","NA","NA","33","0","0","NA","33","33","33","33","33","34","z","Wed Jun 14 17:27:43 2023","The main experiment item","yes","m21-ab-lexicalDecision.osexp","C:\Users\emoore8\Desktop\m21_vsl-main","no","mono","no","18","no","white","no","yes","1080","legacy","33","33","C:/Users/emoore8/Desktop/m21_vsl-main/subject-205.csv","xpyriment","Lentiform Loewenfeld","3.3.11","0","/","NA","NA","NA","NA","space","/","845","NA","NA","NA","NA","83148","845","2","legacy","1024","2","48000","-16","AB_m21","205","odd","NW_S_COMP","HAPPENANCE","1661","226023","224008","220598","84820","NA","NA","NA","NA","NA","224508","NA","NA","NA","223508","NA","223482","1670","226224","NA","NA","NA","224549","1661","1661","NA","225395","225420","223482","224508","224529","morph21_Oliver/Morris","31","23383","34","yes","1920","2"
"300","88.57142857142857","88.57142857142857","683.1142857142858","683.1142857142858","black","no","xpyriment","legacy","legacy","0","208","NA","uniform","NA","NA","NA","0","undefined","0","0","34","34","34","0","34","34","34","NA","0","34","NA","NA","0","34","NA","34","0","34","NA","NA","NA","34","0","0","NA","34","34","34","34","34","35","z","Wed Jun 14 17:27:43 2023","The main experiment item","yes","m21-ab-lexicalDecision.osexp","C:\Users\emoore8\Desktop\m21_vsl-main","no","mono","no","18","no","white","no","yes","1080","legacy","34","34","C:/Users/emoore8/Desktop/m21_vsl-main/subject-205.csv","xpyriment","Lentiform Loewenfeld","3.3.11","0","/","NA","NA","NA","NA","space","/","526","NA","NA","NA","NA","83148","526","2","legacy","1024","2","48000","-16","AB_m21","205","odd","FILL_NW","DASK","1661","229437","227743","220598","84820","NA","NA","NA","NA","NA","228243","NA","NA","NA","227241","NA","227218","1670","229737","NA","NA","NA","228284","1661","1661","NA","228811","228834","227218","228243","228264","morph21_Oliver/Morris","31","23909","35","yes","1920","12"
"200","88.88888888888889","88.88888888888889","682.7777777777778","682.7777777777778","black","no","xpyriment","legacy","legacy","0","208","NA","uniform","NA","NA","NA","1","undefined","1","0","35","35","35","0","35","35","35","NA","0","35","NA","NA","0","35","NA","35","0","35","NA","NA","NA","35","0","0","NA","35","35","35","35","35","36","z","Wed Jun 14 17:27:43 2023","The main experiment item","yes","m21-ab-lexicalDecision.osexp","C:\Users\emoore8\Desktop\m21_vsl-main","no","mono","no","18","no","white","no","yes","1080","legacy","35","35","C:/Users/emoore8/Desktop/m21_vsl-main/subject-205.csv","xpyriment","Lentiform Loewenfeld","3.3.11","0","z","NA","NA","NA","NA","space","z","671","NA","NA","NA","NA","83148","671","2","legacy","1024","2","48000","-16","AB_m21","205","odd","FILL_NW","BROUPS","1661","234582","231239","233079","84820","NA","NA","NA","NA","NA","231740","NA","NA","NA","230738","NA","230711","1670","234783","NA","NA","NA","231780","1661","1661","NA","232452","232475","230711","231740","231760","morph21_Oliver/Morris","32","24580","36","yes","1920","4"
"250","89.1891891891892","89.1891891891892","684","684","black","no","xpyriment","legacy","legacy","0","207","NA","uniform","NA","NA","NA","1","undefined","1","0","36","36","36","0","36","36","36","NA","0","36","NA","NA","0","36","NA","36","0","36","NA","NA","NA","36","0","0","NA","36","36","36","36","36","37","/","Wed Jun 14 17:27:43 2023","The main experiment item","yes","m21-ab-lexicalDecision.osexp","C:\Users\emoore8\Desktop\m21_vsl-main","no","mono","no","18","no","white","no","yes","1080","legacy","36","36","C:/Users/emoore8/Desktop/m21_vsl-main/subject-205.csv","xpyriment","Lentiform Loewenfeld","3.3.11","0","/","NA","NA","NA","NA","space","/","728","NA","NA","NA","NA","83148","728","2","legacy","1024","2","48000","-16","AB_m21","205","odd","FILL_W","SPLICE","1661","238192","236295","233079","84820","NA","NA","NA","NA","NA","236795","NA","NA","NA","235796","NA","235769","1670","238442","NA","NA","NA","236835","1661","1661","NA","237563","237587","235769","236795","236815","morph21_Oliver/Morris","33","25308","37","yes","1920","22"
"200","89.47368421052632","89.47368421052632","688.2894736842105","688.2894736842105","black","no","xpyriment","legacy","legacy","0","203","NA","uniform","NA","NA","NA","1","undefined","1","0","37","37","37","0","37","37","37","NA","0","37","NA","NA","0","37","NA","37","0","37","NA","NA","NA","37","0","0","NA","37","37","37","37","37","38","z","Wed Jun 14 17:27:43 2023","The main experiment item","yes","m21-ab-lexicalDecision.osexp","C:\Users\emoore8\Desktop\m21_vsl-main","no","mono","no","18","no","white","no","yes","1080","legacy","37","37","C:/Users/emoore8/Desktop/m21_vsl-main/subject-205.csv","xpyriment","Lentiform Loewenfeld","3.3.11","0","z","NA","NA","NA","NA","space","z","847","NA","NA","NA","NA","83148","847","2","legacy","1024","2","48000","-16","AB_m21","205","odd","NW_S_COMP","DUMBITY","1661","241974","239958","233079","84820","NA","NA","NA","NA","NA","240459","NA","NA","NA","239458","NA","239431","1670","242174","NA","NA","NA","240500","1661","1661","NA","241347","241371","239431","240459","240480","morph21_Oliver/Morris","34","26155","38","yes","1920","12"
"350","89.74358974358974","89.74358974358974","688.8717948717949","688.8717948717949","black","no","xpyriment","legacy","legacy","0","208","NA","uniform","NA","NA","NA","1","undefined","1","0","38","38","38","0","38","38","38","NA","0","38","NA","NA","0","38","NA","38","0","38","NA","NA","NA","38","0","0","NA","38","38","38","38","38","39","z","Wed Jun 14 17:27:43 2023","The main experiment item","yes","m21-ab-lexicalDecision.osexp","C:\Users\emoore8\Desktop\m21_vsl-main","no","mono","no","18","no","white","no","yes","1080","legacy","38","38","C:/Users/emoore8/Desktop/m21_vsl-main/subject-205.csv","xpyriment","Lentiform Loewenfeld","3.3.11","0","z","NA","NA","NA","NA","space","z","711","NA","NA","NA","NA","83148","711","2","legacy","1024","2","48000","-16","AB_m21","205","odd","FILL_NW","DELP","1661","247063","243678","245560","84820","NA","NA","NA","NA","NA","244180","NA","NA","NA","243177","NA","243153","1670","247413","NA","NA","NA","244220","1661","1661","NA","244931","244957","243153","244179","244200","morph21_Oliver/Morris","35","26866","39","yes","1920","14"
"400","90","90","695.25","695.25","black","no","xpyriment","legacy","legacy","0","205","NA","uniform","NA","NA","NA","1","undefined","1","0","39","39","39","0","39","39","39","NA","0","39","NA","NA","0","39","NA","39","0","39","NA","NA","NA","39","0","0","NA","39","39","39","39","39","40","z","Wed Jun 14 17:27:43 2023","The main experiment item","yes","m21-ab-lexicalDecision.osexp","C:\Users\emoore8\Desktop\m21_vsl-main","no","mono","no","18","no","white","no","yes","1080","legacy","39","39","C:/Users/emoore8/Desktop/m21_vsl-main/subject-205.csv","xpyriment","Lentiform Loewenfeld","3.3.11","0","z","NA","NA","NA","NA","space","z","944","NA","NA","NA","NA","83148","944","2","legacy","1024","2","48000","-16","AB_m21","205","odd","NW_S_SIMP","RAMPIME","1661","251030","248917","245560","84820","NA","NA","NA","NA","NA","249418","NA","NA","NA","248416","NA","248393","1670","251431","NA","NA","NA","249459","1661","1661","NA","250403","250427","248393","249418","249439","morph21_Oliver/Morris","36","27810","40","yes","1920","6"
"250","90.2439024390244","90.2439024390244","694.9024390243902","694.9024390243902","black","no","xpyriment","legacy","legacy","0","201","NA","uniform","NA","NA","NA","1","undefined","1","0","40","40","40","0","40","40","40","NA","0","40","NA","NA","0","40","NA","40","0","40","NA","NA","NA","40","0","0","NA","40","40","40","40","40","41","/","Wed Jun 14 17:27:43 2023","The main experiment item","yes","m21-ab-lexicalDecision.osexp","C:\Users\emoore8\Desktop\m21_vsl-main","no","mono","no","18","no","white","no","yes","1080","legacy","40","40","C:/Users/emoore8/Desktop/m21_vsl-main/subject-205.csv","xpyriment","Lentiform Loewenfeld","3.3.11","0","/","NA","NA","NA","NA","space","/","681","NA","NA","NA","NA","83148","681","2","legacy","1024","2","48000","-16","AB_m21","205","odd","CW_S","MOSSY","1661","254793","252942","245560","84820","NA","NA","NA","NA","NA","253442","NA","NA","NA","252442","NA","252413","1670","255043","NA","NA","NA","253482","1661","1661","NA","254163","254189","252413","253442","253462","morph21_Oliver/Morris","37","28491","41","yes","1920","47"
"400","90.47619047619048","90.47619047619048","691.9285714285714","691.9285714285714","black","no","xpyriment","legacy","legacy","0","207","NA","uniform","NA","NA","NA","1","undefined","1","0","41","41","41","0","41","41","41","NA","0","41","NA","NA","0","41","NA","41","0","41","NA","NA","NA","41","0","0","NA","41","41","41","41","41","42","/","Wed Jun 14 17:27:43 2023","The main experiment item","yes","m21-ab-lexicalDecision.osexp","C:\Users\emoore8\Desktop\m21_vsl-main","no","mono","no","18","no","white","no","yes","1080","legacy","41","41","C:/Users/emoore8/Desktop/m21_vsl-main/subject-205.csv","xpyriment","Lentiform Loewenfeld","3.3.11","0","/","NA","NA","NA","NA","space","/","570","NA","NA","NA","NA","83148","570","2","legacy","1024","2","48000","-16","AB_m21","205","odd","FILL_W","DRUNK","1661","259782","256541","258278","84820","NA","NA","NA","NA","NA","257041","NA","NA","NA","256041","NA","256015","1670","260182","NA","NA","NA","257081","1661","1661","NA","257651","257675","256015","257041","257061","morph21_Oliver/Morris","38","29061","42","yes","1920","19"
"350","90.69767441860465","90.69767441860465","689.4418604651163","689.4418604651163","black","no","xpyriment","legacy","legacy","0","207","NA","uniform","NA","NA","NA","1","undefined","1","0","42","42","42","0","42","42","42","NA","0","42","NA","NA","0","42","NA","42","0","42","NA","NA","NA","42","0","0","NA","42","42","42","42","42","43","/","Wed Jun 14 17:27:43 2023","The main experiment item","yes","m21-ab-lexicalDecision.osexp","C:\Users\emoore8\Desktop\m21_vsl-main","no","mono","no","18","no","white","no","yes","1080","legacy","42","42","C:/Users/emoore8/Desktop/m21_vsl-main/subject-205.csv","xpyriment","Lentiform Loewenfeld","3.3.11","0","/","NA","NA","NA","NA","space","/","585","NA","NA","NA","NA","83148","585","2","legacy","1024","2","48000","-16","AB_m21","205","odd","FILL_W","FOLLOW","1661","263446","261693","258278","84820","NA","NA","NA","NA","NA","262193","NA","NA","NA","261192","NA","261165","1670","263796","NA","NA","NA","262234","1661","1661","NA","262820","262843","261165","262193","262214","morph21_Oliver/Morris","39","29646","43","yes","1920","17"
"350","90.9090909090909","90.9090909090909","686.7727272727273","686.7727272727273","black","no","xpyriment","legacy","legacy","0","202","NA","uniform","NA","NA","NA","1","undefined","1","0","43","43","43","0","43","43","43","NA","0","43","NA","NA","0","43","NA","43","0","43","NA","NA","NA","43","0","0","NA","43","43","43","43","43","44","/","Wed Jun 14 17:27:43 2023","The main experiment item","yes","m21-ab-lexicalDecision.osexp","C:\Users\emoore8\Desktop\m21_vsl-main","no","mono","no","18","no","white","no","yes","1080","legacy","43","43","C:/Users/emoore8/Desktop/m21_vsl-main/subject-205.csv","xpyriment","Lentiform Loewenfeld","3.3.11","0","/","NA","NA","NA","NA","space","/","572","NA","NA","NA","NA","83148","572","2","legacy","1024","2","48000","-16","AB_m21","205","odd","CW_L","SWIMMER","1661","267039","265297","258278","84820","NA","NA","NA","NA","NA","265797","NA","NA","NA","264797","NA","264771","1670","267389","NA","NA","NA","265838","1661","1661","NA","266412","266435","264771","265797","265818","morph21_Oliver/Morris","40","30218","44","yes","1920","5"
"250","91.11111111111111","91.11111111111111","689.5555555555555","689.5555555555555","black","no","xpyriment","legacy","legacy","0","201","NA","uniform","NA","NA","NA","1","undefined","1","0","44","44","44","0","44","44","44","NA","0","44","NA","NA","0","44","NA","44","0","44","NA","NA","NA","44","0","0","NA","44","44","44","44","44","45","/","Wed Jun 14 17:27:43 2023","The main experiment item","yes","m21-ab-lexicalDecision.osexp","C:\Users\emoore8\Desktop\m21_vsl-main","no","mono","no","18","no","white","no","yes","1080","legacy","44","44","C:/Users/emoore8/Desktop/m21_vsl-main/subject-205.csv","xpyriment","Lentiform Loewenfeld","3.3.11","0","/","NA","NA","NA","NA","space","/","812","NA","NA","NA","NA","83148","812","2","legacy","1024","2","48000","-16","AB_m21","205","odd","CW_S","COSTLY","1661","272384","268898","270878","84820","NA","NA","NA","NA","NA","269398","NA","NA","NA","268398","NA","268371","1670","272634","NA","NA","NA","269439","1661","1661","NA","270251","270275","268371","269398","269419","morph21_Oliver/Morris","41","31030","45","yes","1920","36"
"400","91.30434782608695","91.30434782608695","695.2608695652174","695.2608695652174","black","no","xpyriment","legacy","legacy","0","206","NA","uniform","NA","NA","NA","1","undefined","1","0","45","45","45","0","45","45","45","NA","0","45","NA","NA","0","45","NA","45","0","45","NA","NA","NA","45","0","0","NA","45","45","45","45","45","46","z","Wed Jun 14 17:27:43 2023","The main experiment item","yes","m21-ab-lexicalDecision.osexp","C:\Users\emoore8\Desktop\m21_vsl-main","no","mono","no","18","no","white","no","yes","1080","legacy","45","45","C:/Users/emoore8/Desktop/m21_vsl-main/subject-205.csv","xpyriment","Lentiform Loewenfeld","3.3.11","0","z","NA","NA","NA","NA","space","z","952","NA","NA","NA","NA","83148","952","2","legacy","1024","2","48000","-16","AB_m21","205","odd","NW_L_SIMP","POORIDY","1661","276263","274142","270878","84820","NA","NA","NA","NA","NA","274642","NA","NA","NA","273642","NA","273615","1670","276663","NA","NA","NA","274682","1661","1661","NA","275635","275659","273615","274642","274662","morph21_Oliver/Morris","42","31982","46","yes","1920","13"
"400","91.48936170212765","91.48936170212765","696.2978723404256","696.2978723404256","black","no","xpyriment","legacy","legacy","0","208","NA","uniform","NA","NA","NA","1","undefined","1","0","46","46","46","0","46","46","46","NA","0","46","NA","NA","0","46","NA","46","0","46","NA","NA","NA","46","0","0","NA","46","46","46","46","46","47","z","Wed Jun 14 17:27:43 2023","The main experiment item","yes","m21-ab-lexicalDecision.osexp","C:\Users\emoore8\Desktop\m21_vsl-main","no","mono","no","18","no","white","no","yes","1080","legacy","46","46","C:/Users/emoore8/Desktop/m21_vsl-main/subject-205.csv","xpyriment","Lentiform Loewenfeld","3.3.11","0","z","NA","NA","NA","NA","space","z","744","NA","NA","NA","NA","83148","744","2","legacy","1024","2","48000","-16","AB_m21","205","odd","FILL_NW","BORMS","1661","280088","278174","270878","84820","NA","NA","NA","NA","NA","278674","NA","NA","NA","277674","NA","277644","1670","280488","NA","NA","NA","278714","1661","1661","NA","279459","279484","277644","278674","278694","morph21_Oliver/Morris","43","32726","47","yes","1920","50"
"250","91.66666666666667","91.66666666666667","694.75","694.75","black","no","xpyriment","legacy","legacy","0","207","NA","uniform","NA","NA","NA","1","undefined","1","0","47","47","47","0","47","47","47","NA","0","47","NA","NA","0","47","NA","47","0","47","NA","NA","NA","47","0","0","NA","47","47","47","47","47","48","/","Wed Jun 14 17:27:43 2023","The main experiment item","yes","m21-ab-lexicalDecision.osexp","C:\Users\emoore8\Desktop\m21_vsl-main","no","mono","no","18","no","white","no","yes","1080","legacy","47","47","C:/Users/emoore8/Desktop/m21_vsl-main/subject-205.csv","xpyriment","Lentiform Loewenfeld","3.3.11","0","/","NA","NA","NA","NA","space","/","622","NA","NA","NA","NA","83148","622","2","legacy","1024","2","48000","-16","AB_m21","205","odd","FILL_W","TREAT","1661","285302","282008","283799","84820","NA","NA","NA","NA","NA","282509","NA","NA","NA","281507","NA","281484","1670","285552","NA","NA","NA","282549","1661","1661","NA","283172","283196","281484","282508","282529","morph21_Oliver/Morris","44","33348","48","yes","1920","48"
"400","91.83673469387755","91.83673469387755","693.6938775510204","693.6938775510204","black","no","xpyriment","legacy","legacy","0","208","NA","uniform","NA","NA","NA","1","undefined","1","0","48","48","48","0","48","48","48","NA","0","48","NA","NA","0","48","NA","48","0","48","NA","NA","NA","48","0","0","NA","48","48","48","48","48","49","z","Wed Jun 14 17:27:43 2023","The main experiment item","yes","m21-ab-lexicalDecision.osexp","C:\Users\emoore8\Desktop\m21_vsl-main","no","mono","no","18","no","white","no","yes","1080","legacy","48","48","C:/Users/emoore8/Desktop/m21_vsl-main/subject-205.csv","xpyriment","Lentiform Loewenfeld","3.3.11","0","z","NA","NA","NA","NA","space","z","643","NA","NA","NA","NA","83148","643","2","legacy","1024","2","48000","-16","AB_m21","205","odd","FILL_NW","SOISE","1661","288888","287074","283799","84820","NA","NA","NA","NA","NA","287574","NA","NA","NA","286573","NA","286543","1670","289288","NA","NA","NA","287616","1661","1661","NA","288259","288285","286543","287574","287596","morph21_Oliver/Morris","45","33991","49","yes","1920","43"
"350","92","92","695.24","695.24","black","no","xpyriment","legacy","legacy","0","204","NA","uniform","NA","NA","NA","1","undefined","1","0","49","49","49","0","49","49","49","NA","0","49","NA","NA","0","49","NA","49","0","49","NA","NA","NA","49","0","0","NA","49","49","49","49","49","50","z","Wed Jun 14 17:27:43 2023","The main experiment item","yes","m21-ab-lexicalDecision.osexp","C:\Users\emoore8\Desktop\m21_vsl-main","no","mono","no","18","no","white","no","yes","1080","legacy","49","49","C:/Users/emoore8/Desktop/m21_vsl-main/subject-205.csv","xpyriment","Lentiform Loewenfeld","3.3.11","0","z","NA","NA","NA","NA","space","z","771","NA","NA","NA","NA","83148","771","2","legacy","1024","2","48000","-16","AB_m21","205","odd","NW_L_COMP","INKISM","1661","292726","290785","283799","84820","NA","NA","NA","NA","NA","291286","NA","NA","NA","290284","NA","290260","1670","293076","NA","NA","NA","291327","1661","1661","NA","292099","292123","290260","291286","291307","morph21_Oliver/Morris","46","34762","50","yes","1920","8"
"400","92.15686274509804","92.15686274509804","692.9411764705883","692.9411764705883","black","no","xpyriment","legacy","legacy","0","206","NA","uniform","NA","NA","NA","1","undefined","1","0","50","50","50","0","50","50","50","NA","0","50","NA","NA","0","50","NA","50","0","50","NA","NA","NA","50","0","0","NA","50","50","50","50","50","51","z","Wed Jun 14 17:27:43 2023","The main experiment item","yes","m21-ab-lexicalDecision.osexp","C:\Users\emoore8\Desktop\m21_vsl-main","no","mono","no","18","no","white","no","yes","1080","legacy","50","50","C:/Users/emoore8/Desktop/m21_vsl-main/subject-205.csv","xpyriment","Lentiform Loewenfeld","3.3.11","0","z","NA","NA","NA","NA","space","z","578","NA","NA","NA","NA","83148","578","2","legacy","1024","2","48000","-16","AB_m21","205","odd","NW_L_SIMP","BOGADY","1661","297814","294564","296311","84820","NA","NA","NA","NA","NA","295064","NA","NA","NA","294064","NA","294038","1670","298214","NA","NA","NA","295105","1661","1661","NA","295683","295707","294038","295064","295085","morph21_Oliver/Morris","47","35340","51","yes","1920","2"
"400","92.3076923076923","92.3076923076923","690.9807692307693","690.9807692307693","black","no","xpyriment","legacy","legacy","0","204","NA","uniform","NA","NA","NA","1","undefined","1","0","51","51","51","0","51","51","51","NA","0","51","NA","NA","0","51","NA","51","0","51","NA","NA","NA","51","0","0","NA","51","51","51","51","51","52","z","Wed Jun 14 17:27:43 2023","The main experiment item","yes","m21-ab-lexicalDecision.osexp","C:\Users\emoore8\Desktop\m21_vsl-main","no","mono","no","18","no","white","no","yes","1080","legacy","51","51","C:/Users/emoore8/Desktop/m21_vsl-main/subject-205.csv","xpyriment","Lentiform Loewenfeld","3.3.11","0","z","NA","NA","NA","NA","space","z","591","NA","NA","NA","NA","83148","591","2","legacy","1024","2","48000","-16","AB_m21","205","odd","NW_L_COMP","BOILOUS","1661","301469","299709","296311","84820","NA","NA","NA","NA","NA","300210","NA","NA","NA","299208","NA","299185","1670","301869","NA","NA","NA","300251","1661","1661","NA","300843","300866","299185","300210","300231","morph21_Oliver/Morris","48","35931","52","yes","1920","18"
"300","92.45283018867924","92.45283018867924","689.5283018867924","689.5283018867924","black","no","xpyriment","legacy","legacy","0","205","NA","uniform","NA","NA","NA","1","undefined","1","0","52","52","52","0","52","52","52","NA","0","52","NA","NA","0","52","NA","52","0","52","NA","NA","NA","52","0","0","NA","52","52","52","52","52","53","z","Wed Jun 14 17:27:43 2023","The main experiment item","yes","m21-ab-lexicalDecision.osexp","C:\Users\emoore8\Desktop\m21_vsl-main","no","mono","no","18","no","white","no","yes","1080","legacy","52","52","C:/Users/emoore8/Desktop/m21_vsl-main/subject-205.csv","xpyriment","Lentiform Loewenfeld","3.3.11","0","z","NA","NA","NA","NA","space","z","614","NA","NA","NA","NA","83148","614","2","legacy","1024","2","48000","-16","AB_m21","205","odd","NW_S_SIMP","WINKIDY","1661","305151","303369","296311","84820","NA","NA","NA","NA","NA","303869","NA","NA","NA","302869","NA","302842","1670","305452","NA","NA","NA","303909","1661","1661","NA","304524","304547","302842","303869","303889","morph21_Oliver/Morris","49","36545","53","yes","1920","21"
"400","92.5925925925926","92.5925925925926","689.8703703703703","689.8703703703703","black","no","xpyriment","legacy","legacy","0","208","NA","uniform","NA","NA","NA","1","undefined","1","0","53","53","53","0","53","53","53","NA","0","53","NA","NA","0","53","NA","53","0","53","NA","NA","NA","53","0","0","NA","53","53","53","53","53","54","z","Wed Jun 14 17:27:43 2023","The main experiment item","yes","m21-ab-lexicalDecision.osexp","C:\Users\emoore8\Desktop\m21_vsl-main","no","mono","no","18","no","white","no","yes","1080","legacy","53","53","C:/Users/emoore8/Desktop/m21_vsl-main/subject-205.csv","xpyriment","Lentiform Loewenfeld","3.3.11","0","z","NA","NA","NA","NA","space","z","708","NA","NA","NA","NA","83148","708","2","legacy","1024","2","48000","-16","AB_m21","205","odd","FILL_NW","HEND","1661","310341","306961","308838","84820","NA","NA","NA","NA","NA","307461","NA","NA","NA","306460","NA","306435","1670","310741","NA","NA","NA","307503","1661","1661","NA","308212","308235","306435","307461","307482","morph21_Oliver/Morris","50","37253","54","yes","1920","28"
"350","92.72727272727273","92.72727272727273","690.4545454545455","690.4545454545455","black","no","xpyriment","legacy","legacy","0","201","NA","uniform","NA","NA","NA","1","undefined","1","0","54","54","54","0","54","54","54","NA","0","54","NA","NA","0","54","NA","54","0","54","NA","NA","NA","54","0","0","NA","54","54","54","54","54","55","/","Wed Jun 14 17:27:43 2023","The main experiment item","yes","m21-ab-lexicalDecision.osexp","C:\Users\emoore8\Desktop\m21_vsl-main","no","mono","no","18","no","white","no","yes","1080","legacy","54","54","C:/Users/emoore8/Desktop/m21_vsl-main/subject-205.csv","xpyriment","Lentiform Loewenfeld","3.3.11","0","/","NA","NA","NA","NA","space","/","722","NA","NA","NA","NA","83148","722","2","legacy","1024","2","48000","-16","AB_m21","205","odd","CW_S","NEATLY","1661","314126","312235","308838","84820","NA","NA","NA","NA","NA","312735","NA","NA","NA","311735","NA","311707","1670","314476","NA","NA","NA","312776","1661","1661","NA","313499","313523","311707","312735","312756","morph21_Oliver/Morris","51","37975","55","yes","1920","33"
"350","92.85714285714286","92.85714285714286","693.1785714285714","693.1785714285714","black","no","xpyriment","legacy","legacy","0","206","NA","uniform","NA","NA","NA","1","undefined","1","0","55","55","55","0","55","55","55","NA","0","55","NA","NA","0","55","NA","55","0","55","NA","NA","NA","55","0","0","NA","55","55","55","55","55","56","z","Wed Jun 14 17:27:43 2023","The main experiment item","yes","m21-ab-lexicalDecision.osexp","C:\Users\emoore8\Desktop\m21_vsl-main","no","mono","no","18","no","white","no","yes","1080","legacy","55","55","C:/Users/emoore8/Desktop/m21_vsl-main/subject-205.csv","xpyriment","Lentiform Loewenfeld","3.3.11","0","z","NA","NA","NA","NA","space","z","843","NA","NA","NA","NA","83148","843","2","legacy","1024","2","48000","-16","AB_m21","205","odd","NW_L_SIMP","WIGITH","1661","318005","315994","308838","84820","NA","NA","NA","NA","NA","316495","NA","NA","NA","315493","NA","315466","1670","318355","NA","NA","NA","316535","1661","1661","NA","317379","317402","315466","316495","316515","morph21_Oliver/Morris","52","38818","56","yes","1920","9"
"400","92.98245614035088","92.98245614035088","690.5964912280701","690.5964912280701","black","no","xpyriment","legacy","legacy","0","208","NA","uniform","NA","NA","NA","1","undefined","1","0","56","56","56","0","56","56","56","NA","0","56","NA","NA","0","56","NA","56","0","56","NA","NA","NA","56","0","0","NA","56","56","56","56","56","57","z","Wed Jun 14 17:27:43 2023","The main experiment item","yes","m21-ab-lexicalDecision.osexp","C:\Users\emoore8\Desktop\m21_vsl-main","no","mono","no","18","no","white","no","yes","1080","legacy","56","56","C:/Users/emoore8/Desktop/m21_vsl-main/subject-205.csv","xpyriment","Lentiform Loewenfeld","3.3.11","0","z","NA","NA","NA","NA","space","z","546","NA","NA","NA","NA","83148","546","2","legacy","1024","2","48000","-16","AB_m21","205","odd","FILL_NW","CORG","1661","323096","319876","321593","84820","NA","NA","NA","NA","NA","320377","NA","NA","NA","319376","NA","319347","1670","323496","NA","NA","NA","320417","1661","1661","NA","320964","320990","319347","320376","320397","morph21_Oliver/Morris","53","39364","57","yes","1920","7"
"300","93.10344827586206","93.10344827586206","692.8275862068965","692.8275862068965","black","no","xpyriment","legacy","legacy","0","206","NA","uniform","NA","NA","NA","1","undefined","1","0","57","57","57","0","57","57","57","NA","0","57","NA","NA","0","57","NA","57","0","57","NA","NA","NA","57","0","0","NA","57","57","57","57","57","58","z","Wed Jun 14 17:27:43 2023","The main experiment item","yes","m21-ab-lexicalDecision.osexp","C:\Users\emoore8\Desktop\m21_vsl-main","no","mono","no","18","no","white","no","yes","1080","legacy","57","57","C:/Users/emoore8/Desktop/m21_vsl-main/subject-205.csv","xpyriment","Lentiform Loewenfeld","3.3.11","0","z","NA","NA","NA","NA","space","z","820","NA","NA","NA","NA","83148","820","2","legacy","1024","2","48000","-16","AB_m21","205","odd","NW_L_SIMP","LONGNELS","1661","326991","325002","321593","84820","NA","NA","NA","NA","NA","325502","NA","NA","NA","324501","NA","324474","1670","327291","NA","NA","NA","325542","1661","1661","NA","326363","326388","324474","325502","325522","morph21_Oliver/Morris","54","40184","58","yes","1920","17"
"250","93.22033898305085","93.22033898305085","689.2203389830509","689.2203389830509","black","no","xpyriment","legacy","legacy","0","202","NA","uniform","NA","NA","NA","1","undefined","1","0","58","58","58","0","58","58","58","NA","0","58","NA","NA","0","58","NA","58","0","58","NA","NA","NA","58","0","0","NA","58","58","58","58","58","59","/","Wed Jun 14 17:27:43 2023","The main experiment item","yes","m21-ab-lexicalDecision.osexp","C:\Users\emoore8\Desktop\m21_vsl-main","no","mono","no","18","no","white","no","yes","1080","legacy","58","58","C:/Users/emoore8/Desktop/m21_vsl-main/subject-205.csv","xpyriment","Lentiform Loewenfeld","3.3.11","0","/","NA","NA","NA","NA","space","/","480","NA","NA","NA","NA","83148","480","2","legacy","1024","2","48000","-16","AB_m21","205","odd","CW_L","PUSHER","1661","330457","328807","321593","84820","NA","NA","NA","NA","NA","329307","NA","NA","NA","328307","NA","328280","1670","330707","NA","NA","NA","329347","1661","1661","NA","329827","329853","328280","329307","329327","morph21_Oliver/Morris","55","40664","59","yes","1920","13"
"350","93.33333333333333","93.33333333333333","685.2833333333333","685.2833333333333","black","no","xpyriment","legacy","legacy","0","207","NA","uniform","NA","NA","NA","1","undefined","1","0","59","59","59","0","59","59","59","NA","0","59","NA","NA","0","59","NA","59","0","59","NA","NA","NA","59","0","0","NA","59","59","59","59","59","60","/","Wed Jun 14 17:27:43 2023","The main experiment item","yes","m21-ab-lexicalDecision.osexp","C:\Users\emoore8\Desktop\m21_vsl-main","no","mono","no","18","no","white","no","yes","1080","legacy","59","59","C:/Users/emoore8/Desktop/m21_vsl-main/subject-205.csv","xpyriment","Lentiform Loewenfeld","3.3.11","0","/","NA","NA","NA","NA","space","/","453","NA","NA","NA","NA","83148","453","2","legacy","1024","2","48000","-16","AB_m21","205","odd","FILL_W","LEAK","1661","335334","332209","333831","84820","NA","NA","NA","NA","NA","332709","NA","NA","NA","331708","NA","331685","1670","335685","NA","NA","NA","332749","1661","1661","NA","333203","333227","331685","332709","332729","morph21_Oliver/Morris","56","41117","60","yes","1920","9"
"250","93.44262295081967","93.44262295081967","687.5245901639345","687.5245901639345","black","no","xpyriment","legacy","legacy","0","203","NA","uniform","NA","NA","NA","1","undefined","1","0","60","60","60","0","60","60","60","NA","0","60","NA","NA","0","60","NA","60","0","60","NA","NA","NA","60","0","0","NA","60","60","60","60","60","61","z","Wed Jun 14 17:27:43 2023","The main experiment item","yes","m21-ab-lexicalDecision.osexp","C:\Users\emoore8\Desktop\m21_vsl-main","no","mono","no","18","no","white","no","yes","1080","legacy","60","60","C:/Users/emoore8/Desktop/m21_vsl-main/subject-205.csv","xpyriment","Lentiform Loewenfeld","3.3.11","0","z","NA","NA","NA","NA","space","z","822","NA","NA","NA","NA","83148","822","2","legacy","1024","2","48000","-16","AB_m21","205","odd","NW_S_COMP","BEERER","1661","339205","337215","333831","84820","NA","NA","NA","NA","NA","337716","NA","NA","NA","336715","NA","336689","1670","339455","NA","NA","NA","337756","1661","1661","NA","338579","338602","336689","337715","337736","morph21_Oliver/Morris","57","41939","61","yes","1920","5"
"300","93.54838709677419","93.54838709677419","692.0967741935484","692.0967741935484","black","no","xpyriment","legacy","legacy","0","206","NA","uniform","NA","NA","NA","1","undefined","1","0","61","61","61","0","61","61","61","NA","0","61","NA","NA","0","61","NA","61","0","61","NA","NA","NA","61","0","0","NA","61","61","61","61","61","62","z","Wed Jun 14 17:27:43 2023","The main experiment item","yes","m21-ab-lexicalDecision.osexp","C:\Users\emoore8\Desktop\m21_vsl-main","no","mono","no","18","no","white","no","yes","1080","legacy","61","61","C:/Users/emoore8/Desktop/m21_vsl-main/subject-205.csv","xpyriment","Lentiform Loewenfeld","3.3.11","0","z","NA","NA","NA","NA","space","z","971","NA","NA","NA","NA","83148","971","2","legacy","1024","2","48000","-16","AB_m21","205","odd","NW_L_SIMP","ELBOWILM","1661","343152","341010","333831","84820","NA","NA","NA","NA","NA","341511","NA","NA","NA","340510","NA","340485","1670","343452","NA","NA","NA","341552","1661","1661","NA","342523","342548","340485","341511","341532","morph21_Oliver/Morris","58","42910","62","yes","1920","10"
"200","93.65079365079364","93.65079365079364","693.2698412698413","693.2698412698413","black","no","xpyriment","legacy","legacy","0","206","NA","uniform","NA","NA","NA","1","undefined","1","0","62","62","62","0","62","62","62","NA","0","62","NA","NA","0","62","NA","62","0","62","NA","NA","NA","62","0","0","NA","62","62","62","62","62","63","z","Wed Jun 14 17:27:43 2023","The main experiment item","yes","m21-ab-lexicalDecision.osexp","C:\Users\emoore8\Desktop\m21_vsl-main","no","mono","no","18","no","white","no","yes","1080","legacy","62","62","C:/Users/emoore8/Desktop/m21_vsl-main/subject-205.csv","xpyriment","Lentiform Loewenfeld","3.3.11","0","z","NA","NA","NA","NA","space","z","766","NA","NA","NA","NA","83148","766","2","legacy","1024","2","48000","-16","AB_m21","205","odd","NW_L_SIMP","TOWERLA","1661","348398","344960","346895","84820","NA","NA","NA","NA","NA","345461","NA","NA","NA","344460","NA","344433","1670","348598","NA","NA","NA","345501","1661","1661","NA","346267","346292","344433","345461","345481","morph21_Oliver/Morris","59","43676","63","yes","1920","15"
"350","93.75","93.75","689.625","689.625","black","no","xpyriment","legacy","legacy","0","201","NA","uniform","NA","NA","NA","1","undefined","1","0","63","63","63","0","63","63","63","NA","0","63","NA","NA","0","63","NA","63","0","63","NA","NA","NA","63","0","0","NA","63","63","63","63","63","64","/","Wed Jun 14 17:27:43 2023","The main experiment item","yes","m21-ab-lexicalDecision.osexp","C:\Users\emoore8\Desktop\m21_vsl-main","no","mono","no","18","no","white","no","yes","1080","legacy","63","63","C:/Users/emoore8/Desktop/m21_vsl-main/subject-205.csv","xpyriment","Lentiform Loewenfeld","3.3.11","0","/","NA","NA","NA","NA","space","/","460","NA","NA","NA","NA","83148","460","2","legacy","1024","2","48000","-16","AB_m21","205","odd","CW_S","TEACHER","1661","351734","350106","346895","84820","NA","NA","NA","NA","NA","350606","NA","NA","NA","349605","NA","349578","1670","352085","NA","NA","NA","350647","1661","1661","NA","351108","351131","349578","350606","350627","morph21_Oliver/Morris","60","44136","64","yes","1920","23"
"400","93.84615384615384","93.84615384615384","689.9076923076923","689.9076923076923","black","no","xpyriment","legacy","legacy","0","204","NA","uniform","NA","NA","NA","1","undefined","1","0","64","64","64","0","64","64","64","NA","0","64","NA","NA","0","64","NA","64","0","64","NA","NA","NA","64","0","0","NA","64","64","64","64","64","65","z","Wed Jun 14 17:27:43 2023","The main experiment item","yes","m21-ab-lexicalDecision.osexp","C:\Users\emoore8\Desktop\m21_vsl-main","no","mono","no","18","no","white","no","yes","1080","legacy","64","64","C:/Users/emoore8/Desktop/m21_vsl-main/subject-205.csv","xpyriment","Lentiform Loewenfeld","3.3.11","0","z","NA","NA","NA","NA","space","z","708","NA","NA","NA","NA","83148","708","2","legacy","1024","2","48000","-16","AB_m21","205","odd","NW_L_COMP","COLDITY","1661","355478","353603","346895","84820","NA","NA","NA","NA","NA","354103","NA","NA","NA","353102","NA","353071","1670","355878","NA","NA","NA","354143","1661","1661","NA","354852","354875","353071","354103","354123","morph21_Oliver/Morris","61","44844","65","yes","1920","10"
"350","93.93939393939394","93.93939393939394","687.3181818181819","687.3181818181819","black","no","xpyriment","legacy","legacy","0","202","NA","uniform","NA","NA","NA","1","undefined","1","0","65","65","65","0","65","65","65","NA","0","65","NA","NA","0","65","NA","65","0","65","NA","NA","NA","65","0","0","NA","65","65","65","65","65","66","/","Wed Jun 14 17:27:43 2023","The main experiment item","yes","m21-ab-lexicalDecision.osexp","C:\Users\emoore8\Desktop\m21_vsl-main","no","mono","no","18","no","white","no","yes","1080","legacy","65","65","C:/Users/emoore8/Desktop/m21_vsl-main/subject-205.csv","xpyriment","Lentiform Loewenfeld","3.3.11","0","/","NA","NA","NA","NA","space","/","519","NA","NA","NA","NA","83148","519","2","legacy","1024","2","48000","-16","AB_m21","205","odd","CW_L","PUNCHER","1661","360636","357446","359133","84820","NA","NA","NA","NA","NA","357947","NA","NA","NA","356945","NA","356917","1670","360986","NA","NA","NA","357987","1661","1661","NA","358507","358530","356916","357946","357967","morph21_Oliver/Morris","62","45363","66","yes","1920","1"
"200","94.02985074626865","94.02985074626865","688.3582089552239","688.3582089552239","black","no","xpyriment","legacy","legacy","0","208","NA","uniform","NA","NA","NA","1","undefined","1","0","66","66","66","0","66","66","66","NA","0","66","NA","NA","0","66","NA","66","0","66","NA","NA","NA","66","0","0","NA","66","66","66","66","66","67","z","Wed Jun 14 17:27:43 2023","The main experiment item","yes","m21-ab-lexicalDecision.osexp","C:\Users\emoore8\Desktop\m21_vsl-main","no","mono","no","18","no","white","no","yes","1080","legacy","66","66","C:/Users/emoore8/Desktop/m21_vsl-main/subject-205.csv","xpyriment","Lentiform Loewenfeld","3.3.11","0","z","NA","NA","NA","NA","space","z","757","NA","NA","NA","NA","83148","757","2","legacy","1024","2","48000","-16","AB_m21","205","odd","FILL_NW","GILN","1661","364424","362497","359133","84820","NA","NA","NA","NA","NA","362998","NA","NA","NA","361997","NA","361971","1670","364624","NA","NA","NA","363038","1661","1661","NA","363796","363820","361970","362998","363018","morph21_Oliver/Morris","63","46120","67","yes","1920","25"
"300","94.11764705882354","94.11764705882354","688.5588235294117","688.5588235294117","black","no","xpyriment","legacy","legacy","0","206","NA","uniform","NA","NA","NA","1","undefined","1","0","67","67","67","0","67","67","67","NA","0","67","NA","NA","0","67","NA","67","0","67","NA","NA","NA","67","0","0","NA","67","67","67","67","67","68","z","Wed Jun 14 17:27:43 2023","The main experiment item","yes","m21-ab-lexicalDecision.osexp","C:\Users\emoore8\Desktop\m21_vsl-main","no","mono","no","18","no","white","no","yes","1080","legacy","67","67","C:/Users/emoore8/Desktop/m21_vsl-main/subject-205.csv","xpyriment","Lentiform Loewenfeld","3.3.11","0","z","NA","NA","NA","NA","space","z","702","NA","NA","NA","NA","83148","702","2","legacy","1024","2","48000","-16","AB_m21","205","odd","NW_L_SIMP","BANDADY","1661","367998","366127","359133","84820","NA","NA","NA","NA","NA","366628","NA","NA","NA","365627","NA","365600","1670","368299","NA","NA","NA","366668","1661","1661","NA","367371","367395","365600","366628","366648","morph21_Oliver/Morris","64","46822","68","yes","1920","3"
"300","94.20289855072464","94.20289855072464","687.6811594202899","687.6811594202899","black","no","xpyriment","legacy","legacy","0","204","NA","uniform","NA","NA","NA","1","undefined","1","0","68","68","68","0","68","68","68","NA","0","68","NA","NA","0","68","NA","68","0","68","NA","NA","NA","68","0","0","NA","68","68","68","68","68","69","z","Wed Jun 14 17:27:43 2023","The main experiment item","yes","m21-ab-lexicalDecision.osexp","C:\Users\emoore8\Desktop\m21_vsl-main","no","mono","no","18","no","white","no","yes","1080","legacy","68","68","C:/Users/emoore8/Desktop/m21_vsl-main/subject-205.csv","xpyriment","Lentiform Loewenfeld","3.3.11","0","z","NA","NA","NA","NA","space","z","628","NA","NA","NA","NA","83148","628","2","legacy","1024","2","48000","-16","AB_m21","205","odd","NW_L_COMP","BINDIC","1661","373102","369802","371599","84820","NA","NA","NA","NA","NA","370302","NA","NA","NA","369302","NA","369270","1670","373402","NA","NA","NA","370343","1661","1661","NA","370971","370996","369270","370302","370323","morph21_Oliver/Morris","65","47450","69","yes","1920","22"
"250","94.28571428571429","94.28571428571429","691.7142857142857","691.7142857142857","black","no","xpyriment","legacy","legacy","0","203","NA","uniform","NA","NA","NA","1","undefined","1","0","69","69","69","0","69","69","69","NA","0","69","NA","NA","0","69","NA","69","0","69","NA","NA","NA","69","0","0","NA","69","69","69","69","69","70","z","Wed Jun 14 17:27:43 2023","The main experiment item","yes","m21-ab-lexicalDecision.osexp","C:\Users\emoore8\Desktop\m21_vsl-main","no","mono","no","18","no","white","no","yes","1080","legacy","69","69","C:/Users/emoore8/Desktop/m21_vsl-main/subject-205.csv","xpyriment","Lentiform Loewenfeld","3.3.11","0","z","NA","NA","NA","NA","space","z","970","NA","NA","NA","NA","83148","970","2","legacy","1024","2","48000","-16","AB_m21","205","odd","NW_S_COMP","TREASONIZE","1661","377038","374900","371599","84820","NA","NA","NA","NA","NA","375400","NA","NA","NA","374400","NA","374374","1670","377288","NA","NA","NA","375440","1661","1661","NA","376411","376435","374374","375400","375420","morph21_Oliver/Morris","66","48420","70","yes","1920","14"
"250","94.36619718309859","94.36619718309859","690.2535211267606","690.2535211267606","black","no","xpyriment","legacy","legacy","0","201","NA","uniform","NA","NA","NA","1","undefined","1","0","70","70","70","0","70","70","70","NA","0","70","NA","NA","0","70","NA","70","0","70","NA","NA","NA","70","0","0","NA","70","70","70","70","70","71","/","Wed Jun 14 17:27:43 2023","The main experiment item","yes","m21-ab-lexicalDecision.osexp","C:\Users\emoore8\Desktop\m21_vsl-main","no","mono","no","18","no","white","no","yes","1080","legacy","70","70","C:/Users/emoore8/Desktop/m21_vsl-main/subject-205.csv","xpyriment","Lentiform Loewenfeld","3.3.11","0","/","NA","NA","NA","NA","space","/","588","NA","NA","NA","NA","83148","588","2","legacy","1024","2","48000","-16","AB_m21","205","odd","CW_S","SEEKER","1661","380542","378785","371599","84820","NA","NA","NA","NA","NA","379287","NA","NA","NA","378284","NA","378260","1670","380792","NA","NA","NA","379327","1661","1661","NA","379916","379939","378260","379287","379307","morph21_Oliver/Morris","67","49008","71","yes","1920","16"
"300","94.44444444444444","94.44444444444444","692.5","692.5","black","no","xpyriment","legacy","legacy","0","201","NA","uniform","NA","NA","NA","1","undefined","1","0","71","71","71","0","71","71","71","NA","0","71","NA","NA","0","71","NA","71","0","71","NA","NA","NA","71","0","0","NA","71","71","71","71","71","72","/","Wed Jun 14 17:27:43 2023","The main experiment item","yes","m21-ab-lexicalDecision.osexp","C:\Users\emoore8\Desktop\m21_vsl-main","no","mono","no","18","no","white","no","yes","1080","legacy","71","71","C:/Users/emoore8/Desktop/m21_vsl-main/subject-205.csv","xpyriment","Lentiform Loewenfeld","3.3.11","0","/","NA","NA","NA","NA","space","/","852","NA","NA","NA","NA","83148","852","2","legacy","1024","2","48000","-16","AB_m21","205","odd","CW_S","DETECTABLE","1661","385825","382297","384321","84820","NA","NA","NA","NA","NA","382797","NA","NA","NA","381797","NA","381770","1670","386125","NA","NA","NA","382838","1661","1661","NA","383691","383717","381770","382797","382818","morph21_Oliver/Morris","68","49860","72","yes","1920","1"
"200","94.52054794520548","94.52054794520548","691.7671232876712","691.7671232876712","black","no","xpyriment","legacy","legacy","0","202","NA","uniform","NA","NA","NA","1","undefined","1","0","72","72","72","0","72","72","72","NA","0","72","NA","NA","0","72","NA","72","0","72","NA","NA","NA","72","0","0","NA","72","72","72","72","72","73","/","Wed Jun 14 17:27:43 2023","The main experiment item","yes","m21-ab-lexicalDecision.osexp","C:\Users\emoore8\Desktop\m21_vsl-main","no","mono","no","18","no","white","no","yes","1080","legacy","72","72","C:/Users/emoore8/Desktop/m21_vsl-main/subject-205.csv","xpyriment","Lentiform Loewenfeld","3.3.11","0","/","NA","NA","NA","NA","space","/","639","NA","NA","NA","NA","83148","639","2","legacy","1024","2","48000","-16","AB_m21","205","odd","CW_L","VERBAL","1661","389470","387662","384321","84820","NA","NA","NA","NA","NA","388162","NA","NA","NA","387161","NA","387134","1670","389670","NA","NA","NA","388203","1661","1661","NA","388843","388867","387134","388162","388183","morph21_Oliver/Morris","69","50499","73","yes","1920","50"
"350","94.5945945945946","94.5945945945946","690.5945945945946","690.5945945945946","black","no","xpyriment","legacy","legacy","0","202","NA","uniform","NA","NA","NA","1","undefined","1","0","73","73","73","0","73","73","73","NA","0","73","NA","NA","0","73","NA","73","0","73","NA","NA","NA","73","0","0","NA","73","73","73","73","73","74","/","Wed Jun 14 17:27:43 2023","The main experiment item","yes","m21-ab-lexicalDecision.osexp","C:\Users\emoore8\Desktop\m21_vsl-main","no","mono","no","18","no","white","no","yes","1080","legacy","73","73","C:/Users/emoore8/Desktop/m21_vsl-main/subject-205.csv","xpyriment","Lentiform Loewenfeld","3.3.11","0","/","NA","NA","NA","NA","space","/","605","NA","NA","NA","NA","83148","605","2","legacy","1024","2","48000","-16","AB_m21","205","odd","CW_L","GUARDING","1661","392951","391178","384321","84820","NA","NA","NA","NA","NA","391678","NA","NA","NA","390678","NA","390654","1670","393302","NA","NA","NA","391718","1661","1661","NA","392323","392347","390654","391678","391698","morph21_Oliver/Morris","70","51104","74","yes","1920","26"
"300","94.66666666666667","94.66666666666667","691.9066666666666","691.9066666666666","black","no","xpyriment","legacy","legacy","0","206","NA","uniform","NA","NA","NA","undefined","undefined","1","0","74","74","74","0","74","74","74","NA","0","74","NA","NA","0","74","NA","74","0","74","NA","NA","NA","74","0","0","NA","74","74","74","74","74","75","z","Wed Jun 14 17:27:43 2023","The main experiment item","yes","m21-ab-lexicalDecision.osexp","C:\Users\emoore8\Desktop\m21_vsl-main","no","mono","no","18","no","white","no","yes","1080","legacy","74","74","C:/Users/emoore8/Desktop/m21_vsl-main/subject-205.csv","xpyriment","Lentiform Loewenfeld","3.3.11","0","space","space","NA","NA","NA","space","z","15301","15301","NA","NA","NA","83148","789","2","legacy","1024","2","48000","-16","AB_m21","205","odd","NW_L_SIMP","EARILT","1661","398262","394801","396759","84820","398566","NA","NA","NA","NA","395301","NA","NA","NA","394301","NA","394274","1670","413868","NA","NA","NA","395341","1661","1661","NA","396131","396155","394274","395301","395321","morph21_Oliver/Morris","71","51893","75","yes","1920","12"
"350","94.73684210526316","94.73684210526316","695.1315789473684","695.1315789473684","black","no","xpyriment","legacy","legacy","0","205","NA","uniform","NA","NA","NA","1","undefined","1","0","75","75","75","0","75","75","75","NA","0","75","NA","NA","0","75","NA","75","0","75","NA","NA","NA","75","0","0","NA","75","75","75","75","75","76","z","Wed Jun 14 17:27:43 2023","The main experiment item","yes","m21-ab-lexicalDecision.osexp","C:\Users\emoore8\Desktop\m21_vsl-main","no","mono","no","18","no","white","no","yes","1080","legacy","75","75","C:/Users/emoore8/Desktop/m21_vsl-main/subject-205.csv","xpyriment","Lentiform Loewenfeld","3.3.11","0","z","space","NA","NA","NA","space","z","937","15301","NA","NA","NA","83148","937","2","legacy","1024","2","48000","-16","AB_m21","205","odd","NW_S_SIMP","BASKODY","1661","417489","415380","396759","84820","398566","NA","NA","NA","NA","415881","NA","NA","NA","414879","NA","414855","1670","417839","NA","NA","NA","415922","1661","1661","NA","416860","416885","414855","415881","415902","morph21_Oliver/Morris","72","52830","76","yes","1920","10"
"200","94.8051948051948","94.8051948051948","694.3506493506494","694.3506493506494","black","no","xpyriment","legacy","legacy","0","208","NA","uniform","NA","NA","NA","1","undefined","1","0","76","76","76","0","76","76","76","NA","0","76","NA","NA","0","76","NA","76","0","76","NA","NA","NA","76","0","0","NA","76","76","76","76","76","77","z","Wed Jun 14 17:27:43 2023","The main experiment item","yes","m21-ab-lexicalDecision.osexp","C:\Users\emoore8\Desktop\m21_vsl-main","no","mono","no","18","no","white","no","yes","1080","legacy","76","76","C:/Users/emoore8/Desktop/m21_vsl-main/subject-205.csv","xpyriment","Lentiform Loewenfeld","3.3.11","0","z","space","NA","NA","NA","space","z","635","15301","NA","NA","NA","83148","635","2","legacy","1024","2","48000","-16","AB_m21","205","odd","FILL_NW","SMADE","1661","421174","419372","396759","84820","398566","NA","NA","NA","NA","419872","NA","NA","NA","418871","NA","418842","1670","421374","NA","NA","NA","419912","1661","1661","NA","420548","420571","418842","419872","419892","morph21_Oliver/Morris","73","53465","77","yes","1920","42"
"200","94.87179487179488","94.87179487179488","693.3333333333334","693.3333333333334","black","no","xpyriment","legacy","legacy","0","201","NA","uniform","NA","NA","NA","1","undefined","1","0","77","77","77","0","77","77","77","NA","0","77","NA","NA","0","77","NA","77","0","77","NA","NA","NA","77","0","0","NA","77","77","77","77","77","78","/","Wed Jun 14 17:27:43 2023","The main experiment item","yes","m21-ab-lexicalDecision.osexp","C:\Users\emoore8\Desktop\m21_vsl-main","no","mono","no","18","no","white","no","yes","1080","legacy","77","77","C:/Users/emoore8/Desktop/m21_vsl-main/subject-205.csv","xpyriment","Lentiform Loewenfeld","3.3.11","0","/","space","NA","NA","NA","space","/","615","15301","NA","NA","NA","83148","615","2","legacy","1024","2","48000","-16","AB_m21","205","odd","CW_S","ANGELIC","1661","426162","422870","424658","84820","398566","NA","NA","NA","NA","423370","NA","NA","NA","422370","NA","422339","1670","426362","NA","NA","NA","423411","1661","1661","NA","424027","424053","422339","423370","423391","morph21_Oliver/Morris","74","54080","78","yes","1920","25"
"200","93.67088607594937","93.67088607594937","696.0126582278481","696.0126582278481","black","no","xpyriment","legacy","legacy","0","205","NA","uniform","NA","NA","NA","0","undefined","0","0","78","78","78","0","78","78","78","NA","0","78","NA","NA","0","78","NA","78","0","78","NA","NA","NA","78","0","0","NA","78","78","78","78","78","79","z","Wed Jun 14 17:27:43 2023","The main experiment item","yes","m21-ab-lexicalDecision.osexp","C:\Users\emoore8\Desktop\m21_vsl-main","no","mono","no","18","no","white","no","yes","1080","legacy","78","78","C:/Users/emoore8/Desktop/m21_vsl-main/subject-205.csv","xpyriment","Lentiform Loewenfeld","3.3.11","0","/","space","NA","NA","NA","space","/","905","15301","NA","NA","NA","83148","905","2","legacy","1024","2","48000","-16","AB_m21","205","odd","NW_S_SIMP","OPPOSEMANT","1661","429968","427892","424658","84820","398566","NA","NA","NA","NA","428393","NA","NA","NA","427391","NA","427361","1670","430168","NA","NA","NA","428433","1661","1661","NA","429339","429364","427361","428393","428413","morph21_Oliver/Morris","74","54985","79","yes","1920","8"
"200","93.75","93.75","693.875","693.875","black","no","xpyriment","legacy","legacy","0","207","NA","uniform","NA","NA","NA","1","undefined","1","0","79","79","79","0","79","79","79","NA","0","79","NA","NA","0","79","NA","79","0","79","NA","NA","NA","79","0","0","NA","79","79","79","79","79","80","/","Wed Jun 14 17:27:43 2023","The main experiment item","yes","m21-ab-lexicalDecision.osexp","C:\Users\emoore8\Desktop\m21_vsl-main","no","mono","no","18","no","white","no","yes","1080","legacy","79","79","C:/Users/emoore8/Desktop/m21_vsl-main/subject-205.csv","xpyriment","Lentiform Loewenfeld","3.3.11","0","/","space","NA","NA","NA","space","/","525","15301","NA","NA","NA","83148","525","2","legacy","1024","2","48000","-16","AB_m21","205","odd","FILL_W","OLD","1661","433375","431679","424658","84820","398566","NA","NA","NA","NA","432180","NA","NA","NA","431178","NA","431149","1670","433575","NA","NA","NA","432221","1661","1661","NA","432747","432772","431149","432180","432201","morph21_Oliver/Morris","75","55510","80","yes","1920","44"
"250","93.82716049382717","93.82716049382717","696.7777777777778","696.7777777777778","black","no","xpyriment","legacy","legacy","0","204","NA","uniform","NA","NA","NA","1","undefined","1","0","80","80","80","0","80","80","80","NA","0","80","NA","NA","0","80","NA","80","0","80","NA","NA","NA","80","0","0","NA","80","80","80","80","80","81","z","Wed Jun 14 17:27:43 2023","The main experiment item","yes","m21-ab-lexicalDecision.osexp","C:\Users\emoore8\Desktop\m21_vsl-main","no","mono","no","18","no","white","no","yes","1080","legacy","80","80","C:/Users/emoore8/Desktop/m21_vsl-main/subject-205.csv","xpyriment","Lentiform Loewenfeld","3.3.11","0","z","space","NA","NA","NA","space","z","929","15301","NA","NA","NA","83148","929","2","legacy","1024","2","48000","-16","AB_m21","205","odd","NW_L_COMP","MUDLY","1661","438690","435083","437185","84820","398566","NA","NA","NA","NA","435585","NA","NA","NA","434582","NA","434558","1670","438941","NA","NA","NA","435625","1661","1661","NA","436555","436580","434558","435585","435605","morph21_Oliver/Morris","76","56439","81","yes","1920","12"
"350","93.90243902439025","93.90243902439025","696.9756097560976","696.9756097560976","black","no","xpyriment","legacy","legacy","0","201","NA","uniform","NA","NA","NA","1","undefined","1","0","81","81","81","0","81","81","81","NA","0","81","NA","NA","0","81","NA","81","0","81","NA","NA","NA","81","0","0","NA","81","81","81","81","81","82","/","Wed Jun 14 17:27:43 2023","The main experiment item","yes","m21-ab-lexicalDecision.osexp","C:\Users\emoore8\Desktop\m21_vsl-main","no","mono","no","18","no","white","no","yes","1080","legacy","81","81","C:/Users/emoore8/Desktop/m21_vsl-main/subject-205.csv","xpyriment","Lentiform Loewenfeld","3.3.11","0","/","space","NA","NA","NA","space","/","713","15301","NA","NA","NA","83148","713","2","legacy","1024","2","48000","-16","AB_m21","205","odd","CW_S","STRANGENESS","1661","442374","440491","437185","84820","398566","NA","NA","NA","NA","440993","NA","NA","NA","439991","NA","439967","1670","442725","NA","NA","NA","441034","1661","1661","NA","441748","441771","439967","440993","441014","morph21_Oliver/Morris","77","57152","82","yes","1920","46"
"200","93.97590361445783","93.97590361445783","698.4698795180723","698.4698795180723","black","no","xpyriment","legacy","legacy","0","204","NA","uniform","NA","NA","NA","1","undefined","1","0","82","82","82","0","82","82","82","NA","0","82","NA","NA","0","82","NA","82","0","82","NA","NA","NA","82","0","0","NA","82","82","82","82","82","83","z","Wed Jun 14 17:27:43 2023","The main experiment item","yes","m21-ab-lexicalDecision.osexp","C:\Users\emoore8\Desktop\m21_vsl-main","no","mono","no","18","no","white","no","yes","1080","legacy","82","82","C:/Users/emoore8/Desktop/m21_vsl-main/subject-205.csv","xpyriment","Lentiform Loewenfeld","3.3.11","0","z","space","NA","NA","NA","space","z","821","15301","NA","NA","NA","83148","821","2","legacy","1024","2","48000","-16","AB_m21","205","odd","NW_L_COMP","FLIPORY","1661","446224","444233","437185","84820","398566","NA","NA","NA","NA","444733","NA","NA","NA","443731","NA","443705","1670","446424","NA","NA","NA","444774","1661","1661","NA","445595","445621","443705","444733","444754","morph21_Oliver/Morris","78","57973","83","yes","1920","16"
"400","94.04761904761905","94.04761904761905","699.0357142857143","699.0357142857143","black","no","xpyriment","legacy","legacy","0","207","NA","uniform","NA","NA","NA","1","undefined","1","0","83","83","83","0","83","83","83","NA","0","83","NA","NA","0","83","NA","83","0","83","NA","NA","NA","83","0","0","NA","83","83","83","83","83","84","/","Wed Jun 14 17:27:43 2023","The main experiment item","yes","m21-ab-lexicalDecision.osexp","C:\Users\emoore8\Desktop\m21_vsl-main","no","mono","no","18","no","white","no","yes","1080","legacy","83","83","C:/Users/emoore8/Desktop/m21_vsl-main/subject-205.csv","xpyriment","Lentiform Loewenfeld","3.3.11","0","/","space","NA","NA","NA","space","/","746","15301","NA","NA","NA","83148","746","2","legacy","1024","2","48000","-16","AB_m21","205","odd","FILL_W","CRUNCH","1661","451351","447931","449847","84820","398566","NA","NA","NA","NA","448431","NA","NA","NA","447430","NA","447404","1670","451752","NA","NA","NA","448472","1661","1661","NA","449219","449243","447404","448431","448452","morph21_Oliver/Morris","79","58719","84","yes","1920","20"
"400","94.11764705882354","94.11764705882354","700.6117647058824","700.6117647058824","black","no","xpyriment","legacy","legacy","0","205","NA","uniform","NA","NA","NA","1","undefined","1","0","84","84","84","0","84","84","84","NA","0","84","NA","NA","0","84","NA","84","0","84","NA","NA","NA","84","0","0","NA","84","84","84","84","84","85","z","Wed Jun 14 17:27:43 2023","The main experiment item","yes","m21-ab-lexicalDecision.osexp","C:\Users\emoore8\Desktop\m21_vsl-main","no","mono","no","18","no","white","no","yes","1080","legacy","84","84","C:/Users/emoore8/Desktop/m21_vsl-main/subject-205.csv","xpyriment","Lentiform Loewenfeld","3.3.11","0","z","space","NA","NA","NA","space","z","833","15301","NA","NA","NA","83148","833","2","legacy","1024","2","48000","-16","AB_m21","205","odd","NW_S_SIMP","SCHEMENELS","1661","455247","453244","449847","84820","398566","NA","NA","NA","NA","453745","NA","NA","NA","452744","NA","452721","1670","455647","NA","NA","NA","453786","1661","1661","NA","454620","454643","452721","453745","453766","morph21_Oliver/Morris","80","59552","85","yes","1920","15"
"200","94.18604651162791","94.18604651162791","699.7441860465116","699.7441860465116","black","no","xpyriment","legacy","legacy","0","207","NA","uniform","NA","NA","NA","1","undefined","1","0","85","85","85","0","85","85","85","NA","0","85","NA","NA","0","85","NA","85","0","85","NA","NA","NA","85","0","0","NA","85","85","85","85","85","86","/","Wed Jun 14 17:27:43 2023","The main experiment item","yes","m21-ab-lexicalDecision.osexp","C:\Users\emoore8\Desktop\m21_vsl-main","no","mono","no","18","no","white","no","yes","1080","legacy","85","85","C:/Users/emoore8/Desktop/m21_vsl-main/subject-205.csv","xpyriment","Lentiform Loewenfeld","3.3.11","0","/","space","NA","NA","NA","space","/","626","15301","NA","NA","NA","83148","626","2","legacy","1024","2","48000","-16","AB_m21","205","odd","FILL_W","STALK","1661","458974","457180","449847","84820","398566","NA","NA","NA","NA","457680","NA","NA","NA","456680","NA","456653","1670","459175","NA","NA","NA","457720","1661","1661","NA","458347","458371","456653","457680","457700","morph21_Oliver/Morris","81","60178","86","yes","1920","27"
"400","94.25287356321839","94.25287356321839","702.3678160919541","702.3678160919541","black","no","xpyriment","legacy","legacy","0","202","NA","uniform","NA","NA","NA","1","undefined","1","0","86","86","86","0","86","86","86","NA","0","86","NA","NA","0","86","NA","86","0","86","NA","NA","NA","86","0","0","NA","86","86","86","86","86","87","/","Wed Jun 14 17:27:43 2023","The main experiment item","yes","m21-ab-lexicalDecision.osexp","C:\Users\emoore8\Desktop\m21_vsl-main","no","mono","no","18","no","white","no","yes","1080","legacy","86","86","C:/Users/emoore8/Desktop/m21_vsl-main/subject-205.csv","xpyriment","Lentiform Loewenfeld","3.3.11","0","/","space","NA","NA","NA","space","/","928","15301","NA","NA","NA","83148","928","2","legacy","1024","2","48000","-16","AB_m21","205","odd","CW_L","SHAPELY","1661","464272","460670","462767","84820","398566","NA","NA","NA","NA","461170","NA","NA","NA","460169","NA","460143","1670","464672","NA","NA","NA","461211","1661","1661","NA","462140","462164","460143","461170","461191","morph21_Oliver/Morris","82","61106","87","yes","1920","35"
"250","94.31818181818181","94.31818181818181","701.5909090909091","701.5909090909091","black","no","xpyriment","legacy","legacy","0","207","NA","uniform","NA","NA","NA","1","undefined","1","0","87","87","87","0","87","87","87","NA","0","87","NA","NA","0","87","NA","87","0","87","NA","NA","NA","87","0","0","NA","87","87","87","87","87","88","/","Wed Jun 14 17:27:43 2023","The main experiment item","yes","m21-ab-lexicalDecision.osexp","C:\Users\emoore8\Desktop\m21_vsl-main","no","mono","no","18","no","white","no","yes","1080","legacy","87","87","C:/Users/emoore8/Desktop/m21_vsl-main/subject-205.csv","xpyriment","Lentiform Loewenfeld","3.3.11","0","/","space","NA","NA","NA","space","/","634","15301","NA","NA","NA","83148","634","2","legacy","1024","2","48000","-16","AB_m21","205","odd","FILL_W","SLIM","1661","467993","466187","462767","84820","398566","NA","NA","NA","NA","466688","NA","NA","NA","465686","NA","465661","1670","468243","NA","NA","NA","466729","1661","1661","NA","467363","467388","465661","466688","466709","morph21_Oliver/Morris","83","61740","88","yes","1920","6"
"200","94.38202247191012","94.38202247191012","700.2247191011236","700.2247191011236","black","no","xpyriment","legacy","legacy","0","201","NA","uniform","NA","NA","NA","1","undefined","1","0","88","88","88","0","88","88","88","NA","0","88","NA","NA","0","88","NA","88","0","88","NA","NA","NA","88","0","0","NA","88","88","88","88","88","89","/","Wed Jun 14 17:27:43 2023","The main experiment item","yes","m21-ab-lexicalDecision.osexp","C:\Users\emoore8\Desktop\m21_vsl-main","no","mono","no","18","no","white","no","yes","1080","legacy","88","88","C:/Users/emoore8/Desktop/m21_vsl-main/subject-205.csv","xpyriment","Lentiform Loewenfeld","3.3.11","0","/","space","NA","NA","NA","space","/","580","15301","NA","NA","NA","83148","580","2","legacy","1024","2","48000","-16","AB_m21","205","odd","CW_S","LOCALLY","1661","471488","469737","462767","84820","398566","NA","NA","NA","NA","470237","NA","NA","NA","469237","NA","469212","1670","471688","NA","NA","NA","470278","1661","1661","NA","470859","470884","469212","470237","470258","morph21_Oliver/Morris","84","62320","89","yes","1920","37"
"200","94.44444444444444","94.44444444444444","701.1111111111111","701.1111111111111","black","no","xpyriment","legacy","legacy","0","208","NA","uniform","NA","NA","NA","1","undefined","1","0","89","89","89","0","89","89","89","NA","0","89","NA","NA","0","89","NA","89","0","89","NA","NA","NA","89","0","0","NA","89","89","89","89","89","90","z","Wed Jun 14 17:27:43 2023","The main experiment item","yes","m21-ab-lexicalDecision.osexp","C:\Users\emoore8\Desktop\m21_vsl-main","no","mono","no","18","no","white","no","yes","1080","legacy","89","89","C:/Users/emoore8/Desktop/m21_vsl-main/subject-205.csv","xpyriment","Lentiform Loewenfeld","3.3.11","0","z","space","NA","NA","NA","space","z","780","15301","NA","NA","NA","83148","780","2","legacy","1024","2","48000","-16","AB_m21","205","odd","FILL_NW","PUCTS","1661","476655","473202","475151","84820","398566","NA","NA","NA","NA","473702","NA","NA","NA","472702","NA","472674","1670","476855","NA","NA","NA","473743","1661","1661","NA","474524","474547","472674","473702","473723","morph21_Oliver/Morris","85","63100","90","yes","1920","40"
