"ITI","acc","accuracy","average_response_time","avg_rt","background","bidi","canvas_backend","clock_backend","color_backend","compensation","cond_trig","condtrigtime","coordinates","coroutines_cycles","coroutines_duration","coroutines_mean_cycle_duration","correct","correct_instructions_1","correct_new_keyboard_response_1","count_AB_m21","count_ITI","count_blank_screen","count_blink_screen","count_block1","count_break1","count_break2","count_break3_1","count_canvas","count_close_port","count_cond_trigger","count_correct_trigger","count_def_chain","count_end_screen","count_fixation_1","count_getting_started","count_inc_counter","count_instructions_1","count_logger","count_logscript","count_new_inline_script","count_new_inline_script_2","count_new_keyboard_response_1","count_open_port","count_reset_counter_prep","count_reset_counter_run","count_response_trigger_trial","count_responsescreen","count_sequence","count_target_present","count_word_trigger","counter","cresp","datetime","description","disable_garbage_collection","experiment_file","experiment_path","font_bold","font_family","font_italic","font_size","font_underline","foreground","form_clicks","fullscreen","height","keyboard_backend","live_row","live_row_block1","logfile","mouse_backend","opensesame_codename","opensesame_version","repeat_cycle","response","response_break1","response_break2","response_break3_1","response_end_screen","response_instructions_1","response_new_keyboard_response_1","response_time","response_time_break1","response_time_break2","response_time_break3_1","response_time_end_screen","response_time_instructions_1","response_time_new_keyboard_response_1","round_decimals","sampler_backend","sound_buf_size","sound_channels","sound_freq","sound_sample_size","start","subject_nr","subject_parity","targ_type","target","time_AB_m21","time_ITI","time_blank_screen","time_blink_screen","time_block1","time_break1","time_break2","time_break3_1","time_canvas","time_close_port","time_cond_trigger","time_correct_trigger","time_def_chain","time_end_screen","time_fixation_1","time_getting_started","time_inc_counter","time_instructions_1","time_logger","time_logscript","time_new_inline_script","time_new_inline_script_2","time_new_keyboard_response_1","time_open_port","time_reset_counter_prep","time_reset_counter_run","time_response_trigger_trial","time_responsescreen","time_sequence","time_target_present","time_word_trigger","title","total_correct","total_response_time","total_responses","uniform_coordinates","width","word_trig"
"200","0","0","1200","1200","black","no","xpyriment","legacy","legacy","0","202","NA","uniform","NA","NA","NA","0","undefined","0","0","0","0","0","0","0","0","0","NA","0","0","NA","NA","0","0","NA","0","0","0","NA","NA","NA","0","0","0","NA","0","0","0","0","0","1","/","Thu Apr 11 16:07:12 2024","The main experiment item","yes","m21-ab-lexicalDecision.osexp","C:\Users\ekealey\Desktop","no","mono","no","18","no","white","no","yes","1080","legacy","0","0","C:/Users/ekealey/Desktop/subject-243.csv","xpyriment","Lentiform Loewenfeld","3.3.11","0","None","NA","NA","NA","NA","space","None","1200","NA","NA","NA","NA","68004","1200","2","legacy","1024","2","48000","-16","AB_m21","243","odd","CW_L","COLLECTOR","1888","74199","71829","NA","69906","NA","NA","NA","NA","NA","72331","NA","NA","NA","71328","NA","71297","1900","74399","NA","NA","NA","72371","1888","1888","NA","73571","73596","71296","72331","72351","morph21_Oliver/Morris","0","1200","1","yes","1920","46"
"200","0","0","1200","1200","black","no","xpyriment","legacy","legacy","0","203","NA","uniform","NA","NA","NA","0","undefined","0","0","1","1","1","0","1","1","1","NA","0","1","NA","NA","0","1","NA","1","0","1","NA","NA","NA","1","0","0","NA","1","1","1","1","1","2","z","Thu Apr 11 16:07:12 2024","The main experiment item","yes","m21-ab-lexicalDecision.osexp","C:\Users\ekealey\Desktop","no","mono","no","18","no","white","no","yes","1080","legacy","1","1","C:/Users/ekealey/Desktop/subject-243.csv","xpyriment","Lentiform Loewenfeld","3.3.11","0","None","NA","NA","NA","NA","space","None","1200","NA","NA","NA","NA","68004","1200","2","legacy","1024","2","48000","-16","AB_m21","243","odd","NW_S_COMP","HAPPENANCE","1888","78342","75976","NA","69906","NA","NA","NA","NA","NA","76476","NA","NA","NA","75476","NA","75445","1900","78542","NA","NA","NA","76516","1888","1888","NA","77716","77739","75444","76476","76496","morph21_Oliver/Morris","0","2400","2","yes","1920","2"
"350","33.333333333333336","33.333333333333336","1062.3333333333333","1062.3333333333333","black","no","xpyriment","legacy","legacy","0","206","NA","uniform","NA","NA","NA","1","undefined","1","0","2","2","2","0","2","2","2","NA","0","2","NA","NA","0","2","NA","2","0","2","NA","NA","NA","2","0","0","NA","2","2","2","2","2","3","z","Thu Apr 11 16:07:12 2024","The main experiment item","yes","m21-ab-lexicalDecision.osexp","C:\Users\ekealey\Desktop","no","mono","no","18","no","white","no","yes","1080","legacy","2","2","C:/Users/ekealey/Desktop/subject-243.csv","xpyriment","Lentiform Loewenfeld","3.3.11","0","z","NA","NA","NA","NA","space","z","787","NA","NA","NA","NA","68004","787","2","legacy","1024","2","48000","-16","AB_m21","243","odd","NW_L_SIMP","HABITIG","1888","83586","80128","82083","69906","NA","NA","NA","NA","NA","80629","NA","NA","NA","79626","NA","79602","1900","83936","NA","NA","NA","80669","1888","1888","NA","81457","81480","79602","80629","80649","morph21_Oliver/Morris","1","3187","3","yes","1920","7"
"250","50","50","1094.25","1094.25","black","no","xpyriment","legacy","legacy","0","208","NA","uniform","NA","NA","NA","1","undefined","1","0","3","3","3","0","3","3","3","NA","0","3","NA","NA","0","3","NA","3","0","3","NA","NA","NA","3","0","0","NA","3","3","3","3","3","4","z","Thu Apr 11 16:07:12 2024","The main experiment item","yes","m21-ab-lexicalDecision.osexp","C:\Users\ekealey\Desktop","no","mono","no","18","no","white","no","yes","1080","legacy","3","3","C:/Users/ekealey/Desktop/subject-243.csv","xpyriment","Lentiform Loewenfeld","3.3.11","0","z","NA","NA","NA","NA","space","z","1190","NA","NA","NA","NA","68004","1190","2","legacy","1024","2","48000","-16","AB_m21","243","odd","FILL_NW","LOLDS","1888","87877","85517","82083","69906","NA","NA","NA","NA","NA","86017","NA","NA","NA","85016","NA","84980","1900","88127","NA","NA","NA","86058","1888","1888","NA","87248","87274","84980","86017","86038","morph21_Oliver/Morris","2","4377","4","yes","1920","34"
"300","60","60","1066.4","1066.4","black","no","xpyriment","legacy","legacy","0","201","NA","uniform","NA","NA","NA","1","undefined","1","0","4","4","4","0","4","4","4","NA","0","4","NA","NA","0","4","NA","4","0","4","NA","NA","NA","4","0","0","NA","4","4","4","4","4","5","/","Thu Apr 11 16:07:12 2024","The main experiment item","yes","m21-ab-lexicalDecision.osexp","C:\Users\ekealey\Desktop","no","mono","no","18","no","white","no","yes","1080","legacy","4","4","C:/Users/ekealey/Desktop/subject-243.csv","xpyriment","Lentiform Loewenfeld","3.3.11","0","/","NA","NA","NA","NA","space","/","955","NA","NA","NA","NA","68004","955","2","legacy","1024","2","48000","-16","AB_m21","243","odd","CW_S","INSISTENT","1888","91788","89663","82083","69906","NA","NA","NA","NA","NA","90165","NA","NA","NA","89160","NA","89134","1900","92088","NA","NA","NA","90205","1888","1888","NA","91161","91185","89134","90165","90185","morph21_Oliver/Morris","3","5332","5","yes","1920","9"
"350","66.66666666666667","66.66666666666667","1038.5","1038.5","black","no","xpyriment","legacy","legacy","0","208","NA","uniform","NA","NA","NA","1","undefined","1","0","5","5","5","0","5","5","5","NA","0","5","NA","NA","0","5","NA","5","0","5","NA","NA","NA","5","0","0","NA","5","5","5","5","5","6","z","Thu Apr 11 16:07:12 2024","The main experiment item","yes","m21-ab-lexicalDecision.osexp","C:\Users\ekealey\Desktop","no","mono","no","18","no","white","no","yes","1080","legacy","5","5","C:/Users/ekealey/Desktop/subject-243.csv","xpyriment","Lentiform Loewenfeld","3.3.11","0","z","NA","NA","NA","NA","space","z","899","NA","NA","NA","NA","68004","899","2","legacy","1024","2","48000","-16","AB_m21","243","odd","FILL_NW","DARF","1888","97207","93633","95702","69906","NA","NA","NA","NA","NA","94133","NA","NA","NA","93132","NA","93105","1900","97557","NA","NA","NA","94174","1888","1888","NA","95073","95098","93105","94133","94154","morph21_Oliver/Morris","4","6231","6","yes","1920","10"
"350","71.42857142857143","71.42857142857143","1026.5714285714287","1026.5714285714287","black","no","xpyriment","legacy","legacy","0","208","NA","uniform","NA","NA","NA","1","undefined","1","0","6","6","6","0","6","6","6","NA","0","6","NA","NA","0","6","NA","6","0","6","NA","NA","NA","6","0","0","NA","6","6","6","6","6","7","z","Thu Apr 11 16:07:12 2024","The main experiment item","yes","m21-ab-lexicalDecision.osexp","C:\Users\ekealey\Desktop","no","mono","no","18","no","white","no","yes","1080","legacy","6","6","C:/Users/ekealey/Desktop/subject-243.csv","xpyriment","Lentiform Loewenfeld","3.3.11","0","z","NA","NA","NA","NA","space","z","955","NA","NA","NA","NA","68004","955","2","legacy","1024","2","48000","-16","AB_m21","243","odd","FILL_NW","DASP","1888","101237","99112","95702","69906","NA","NA","NA","NA","NA","99613","NA","NA","NA","98611","NA","98578","1900","101587","NA","NA","NA","99653","1888","1888","NA","100609","100633","98578","99613","99633","morph21_Oliver/Morris","5","7186","7","yes","1920","13"
"400","62.5","62.5","1048.25","1048.25","black","no","xpyriment","legacy","legacy","0","201","NA","uniform","NA","NA","NA","0","undefined","0","0","7","7","7","0","7","7","7","NA","0","7","NA","NA","0","7","NA","7","0","7","NA","NA","NA","7","0","0","NA","7","7","7","7","7","8","/","Thu Apr 11 16:07:12 2024","The main experiment item","yes","m21-ab-lexicalDecision.osexp","C:\Users\ekealey\Desktop","no","mono","no","18","no","white","no","yes","1080","legacy","7","7","C:/Users/ekealey/Desktop/subject-243.csv","xpyriment","Lentiform Loewenfeld","3.3.11","0","None","NA","NA","NA","NA","space","None","1200","NA","NA","NA","NA","68004","1200","2","legacy","1024","2","48000","-16","AB_m21","243","odd","CW_S","RAIDER","1888","105539","103167","95702","69906","NA","NA","NA","NA","NA","103668","NA","NA","NA","102666","NA","102640","1900","105939","NA","NA","NA","103709","1888","1888","NA","104909","104935","102640","103668","103689","morph21_Oliver/Morris","5","8386","8","yes","1920","12"
"400","66.66666666666667","66.66666666666667","1014.1111111111111","1014.1111111111111","black","no","xpyriment","legacy","legacy","0","206","NA","uniform","NA","NA","NA","1","undefined","1","0","8","8","8","0","8","8","8","NA","0","8","NA","NA","0","8","NA","8","0","8","NA","NA","NA","8","0","0","NA","8","8","8","8","8","9","z","Thu Apr 11 16:07:12 2024","The main experiment item","yes","m21-ab-lexicalDecision.osexp","C:\Users\ekealey\Desktop","no","mono","no","18","no","white","no","yes","1080","legacy","8","8","C:/Users/ekealey/Desktop/subject-243.csv","xpyriment","Lentiform Loewenfeld","3.3.11","0","z","NA","NA","NA","NA","space","z","741","NA","NA","NA","NA","68004","741","2","legacy","1024","2","48000","-16","AB_m21","243","odd","NW_L_SIMP","BLOODEL","1888","110909","107493","109406","69906","NA","NA","NA","NA","NA","107995","NA","NA","NA","106991","NA","106967","1900","111309","NA","NA","NA","108035","1888","1888","NA","108776","108802","106967","107995","108015","morph21_Oliver/Morris","6","9127","9","yes","1920","24"
"200","60","60","1032.7","1032.7","black","no","xpyriment","legacy","legacy","0","203","NA","uniform","NA","NA","NA","0","undefined","0","0","9","9","9","0","9","9","9","NA","0","9","NA","NA","0","9","NA","9","0","9","NA","NA","NA","9","0","0","NA","9","9","9","9","9","10","z","Thu Apr 11 16:07:12 2024","The main experiment item","yes","m21-ab-lexicalDecision.osexp","C:\Users\ekealey\Desktop","no","mono","no","18","no","white","no","yes","1080","legacy","9","9","C:/Users/ekealey/Desktop/subject-243.csv","xpyriment","Lentiform Loewenfeld","3.3.11","0","None","NA","NA","NA","NA","space","None","1200","NA","NA","NA","NA","68004","1200","2","legacy","1024","2","48000","-16","AB_m21","243","odd","NW_S_COMP","PILLIZE","1888","115218","112850","109406","69906","NA","NA","NA","NA","NA","113350","NA","NA","NA","112350","NA","112317","1900","115418","NA","NA","NA","113392","1888","1888","NA","114592","114615","112317","113350","113372","morph21_Oliver/Morris","6","10327","10","yes","1920","13"
"300","63.63636363636363","63.63636363636363","1007","1007","black","no","xpyriment","legacy","legacy","0","208","NA","uniform","NA","NA","NA","1","undefined","1","0","10","10","10","0","10","10","10","NA","0","10","NA","NA","0","10","NA","10","0","10","NA","NA","NA","10","0","0","NA","10","10","10","10","10","11","z","Thu Apr 11 16:07:12 2024","The main experiment item","yes","m21-ab-lexicalDecision.osexp","C:\Users\ekealey\Desktop","no","mono","no","18","no","white","no","yes","1080","legacy","10","10","C:/Users/ekealey/Desktop/subject-243.csv","xpyriment","Lentiform Loewenfeld","3.3.11","0","z","NA","NA","NA","NA","space","z","750","NA","NA","NA","NA","68004","750","2","legacy","1024","2","48000","-16","AB_m21","243","odd","FILL_NW","VOGS","1888","118916","116996","109406","69906","NA","NA","NA","NA","NA","117497","NA","NA","NA","116494","NA","116469","1900","119216","NA","NA","NA","117538","1888","1888","NA","118289","118313","116469","117497","117518","morph21_Oliver/Morris","7","11077","11","yes","1920","47"
"400","58.333333333333336","58.333333333333336","1023.0833333333334","1023.0833333333334","black","no","xpyriment","legacy","legacy","0","205","NA","uniform","NA","NA","NA","0","undefined","0","0","11","11","11","0","11","11","11","NA","0","11","NA","NA","0","11","NA","11","0","11","NA","NA","NA","11","0","0","NA","11","11","11","11","11","12","z","Thu Apr 11 16:07:12 2024","The main experiment item","yes","m21-ab-lexicalDecision.osexp","C:\Users\ekealey\Desktop","no","mono","no","18","no","white","no","yes","1080","legacy","11","11","C:/Users/ekealey/Desktop/subject-243.csv","xpyriment","Lentiform Loewenfeld","3.3.11","0","None","NA","NA","NA","NA","space","None","1200","NA","NA","NA","NA","68004","1200","2","legacy","1024","2","48000","-16","AB_m21","243","odd","NW_S_SIMP","RAMPIME","1888","124661","120789","123156","69906","NA","NA","NA","NA","NA","121289","NA","NA","NA","120288","NA","120258","1900","125061","NA","NA","NA","121329","1888","1888","NA","122529","122553","120258","121289","121309","morph21_Oliver/Morris","7","12277","12","yes","1920","6"
"350","61.53846153846154","61.53846153846154","1005","1005","black","no","xpyriment","legacy","legacy","0","202","NA","uniform","NA","NA","NA","1","undefined","1","0","12","12","12","0","12","12","12","NA","0","12","NA","NA","0","12","NA","12","0","12","NA","NA","NA","12","0","0","NA","12","12","12","12","12","13","/","Thu Apr 11 16:07:12 2024","The main experiment item","yes","m21-ab-lexicalDecision.osexp","C:\Users\ekealey\Desktop","no","mono","no","18","no","white","no","yes","1080","legacy","12","12","C:/Users/ekealey/Desktop/subject-243.csv","xpyriment","Lentiform Loewenfeld","3.3.11","0","/","NA","NA","NA","NA","space","/","788","NA","NA","NA","NA","68004","788","2","legacy","1024","2","48000","-16","AB_m21","243","odd","CW_L","PARKING","1888","128573","126616","123156","69906","NA","NA","NA","NA","NA","127116","NA","NA","NA","126115","NA","126081","1900","128923","NA","NA","NA","127156","1888","1888","NA","127944","127969","126081","127116","127136","morph21_Oliver/Morris","8","13065","13","yes","1920","25"
"300","64.28571428571429","64.28571428571429","977.9285714285714","977.9285714285714","black","no","xpyriment","legacy","legacy","0","206","NA","uniform","NA","NA","NA","1","undefined","1","0","13","13","13","0","13","13","13","NA","0","13","NA","NA","0","13","NA","13","0","13","NA","NA","NA","13","0","0","NA","13","13","13","13","13","14","z","Thu Apr 11 16:07:12 2024","The main experiment item","yes","m21-ab-lexicalDecision.osexp","C:\Users\ekealey\Desktop","no","mono","no","18","no","white","no","yes","1080","legacy","13","13","C:/Users/ekealey/Desktop/subject-243.csv","xpyriment","Lentiform Loewenfeld","3.3.11","0","z","NA","NA","NA","NA","space","z","626","NA","NA","NA","NA","68004","626","2","legacy","1024","2","48000","-16","AB_m21","243","odd","NW_L_SIMP","ELBOWILM","1888","132309","130513","123156","69906","NA","NA","NA","NA","NA","131013","NA","NA","NA","130013","NA","129985","1900","132609","NA","NA","NA","131054","1888","1888","NA","131680","131705","129985","131013","131034","morph21_Oliver/Morris","9","13691","14","yes","1920","10"
"400","66.66666666666667","66.66666666666667","960.2666666666667","960.2666666666667","black","no","xpyriment","legacy","legacy","0","208","NA","uniform","NA","NA","NA","1","undefined","1","0","14","14","14","0","14","14","14","NA","0","14","NA","NA","0","14","NA","14","0","14","NA","NA","NA","14","0","0","NA","14","14","14","14","14","15","z","Thu Apr 11 16:07:12 2024","The main experiment item","yes","m21-ab-lexicalDecision.osexp","C:\Users\ekealey\Desktop","no","mono","no","18","no","white","no","yes","1080","legacy","14","14","C:/Users/ekealey/Desktop/subject-243.csv","xpyriment","Lentiform Loewenfeld","3.3.11","0","z","NA","NA","NA","NA","space","z","713","NA","NA","NA","NA","68004","713","2","legacy","1024","2","48000","-16","AB_m21","243","odd","FILL_NW","SOISE","1888","137557","134171","136053","69906","NA","NA","NA","NA","NA","134672","NA","NA","NA","133670","NA","133643","1900","137958","NA","NA","NA","134712","1888","1888","NA","135425","135449","133643","134672","134692","morph21_Oliver/Morris","10","14404","15","yes","1920","43"
"300","68.75","68.75","954.0625","954.0625","black","no","xpyriment","legacy","legacy","0","206","NA","uniform","NA","NA","NA","1","undefined","1","0","15","15","15","0","15","15","15","NA","0","15","NA","NA","0","15","NA","15","0","15","NA","NA","NA","15","0","0","NA","15","15","15","15","15","16","z","Thu Apr 11 16:07:12 2024","The main experiment item","yes","m21-ab-lexicalDecision.osexp","C:\Users\ekealey\Desktop","no","mono","no","18","no","white","no","yes","1080","legacy","15","15","C:/Users/ekealey/Desktop/subject-243.csv","xpyriment","Lentiform Loewenfeld","3.3.11","0","z","NA","NA","NA","NA","space","z","861","NA","NA","NA","NA","68004","861","2","legacy","1024","2","48000","-16","AB_m21","243","odd","NW_L_SIMP","LONGNELS","1888","141555","139526","136053","69906","NA","NA","NA","NA","NA","140027","NA","NA","NA","139026","NA","138992","1900","141855","NA","NA","NA","140067","1888","1888","NA","140929","140952","138992","140026","140047","morph21_Oliver/Morris","11","15265","16","yes","1920","17"
"400","70.58823529411765","70.58823529411765","962.0588235294117","962.0588235294117","black","no","xpyriment","legacy","legacy","0","203","NA","uniform","NA","NA","NA","1","undefined","1","0","16","16","16","0","16","16","16","NA","0","16","NA","NA","0","16","NA","16","0","16","NA","NA","NA","16","0","0","NA","16","16","16","16","16","17","z","Thu Apr 11 16:07:12 2024","The main experiment item","yes","m21-ab-lexicalDecision.osexp","C:\Users\ekealey\Desktop","no","mono","no","18","no","white","no","yes","1080","legacy","16","16","C:/Users/ekealey/Desktop/subject-243.csv","xpyriment","Lentiform Loewenfeld","3.3.11","0","z","NA","NA","NA","NA","space","z","1090","NA","NA","NA","NA","68004","1090","2","legacy","1024","2","48000","-16","AB_m21","243","odd","NW_S_COMP","ARIDISM","1888","145692","143432","136053","69906","NA","NA","NA","NA","NA","143934","NA","NA","NA","142931","NA","142907","1900","146092","NA","NA","NA","143974","1888","1888","NA","145064","145088","142907","143934","143954","morph21_Oliver/Morris","12","16355","17","yes","1920","9"
"350","72.22222222222223","72.22222222222223","941.6111111111111","941.6111111111111","black","no","xpyriment","legacy","legacy","0","201","NA","uniform","NA","NA","NA","1","undefined","1","0","17","17","17","0","17","17","17","NA","0","17","NA","NA","0","17","NA","17","0","17","NA","NA","NA","17","0","0","NA","17","17","17","17","17","18","/","Thu Apr 11 16:07:12 2024","The main experiment item","yes","m21-ab-lexicalDecision.osexp","C:\Users\ekealey\Desktop","no","mono","no","18","no","white","no","yes","1080","legacy","17","17","C:/Users/ekealey/Desktop/subject-243.csv","xpyriment","Lentiform Loewenfeld","3.3.11","0","/","NA","NA","NA","NA","space","/","594","NA","NA","NA","NA","68004","594","2","legacy","1024","2","48000","-16","AB_m21","243","odd","CW_S","RICHNESS","1888","150902","147632","149399","69906","NA","NA","NA","NA","NA","148132","NA","NA","NA","147130","NA","147101","1900","151252","NA","NA","NA","148174","1888","1888","NA","148769","148794","147101","148132","148153","morph21_Oliver/Morris","13","16949","18","yes","1920","45"
"200","73.6842105263158","73.6842105263158","929.421052631579","929.421052631579","black","no","xpyriment","legacy","legacy","0","202","NA","uniform","NA","NA","NA","1","undefined","1","0","18","18","18","0","18","18","18","NA","0","18","NA","NA","0","18","NA","18","0","18","NA","NA","NA","18","0","0","NA","18","18","18","18","18","19","/","Thu Apr 11 16:07:12 2024","The main experiment item","yes","m21-ab-lexicalDecision.osexp","C:\Users\ekealey\Desktop","no","mono","no","18","no","white","no","yes","1080","legacy","18","18","C:/Users/ekealey/Desktop/subject-243.csv","xpyriment","Lentiform Loewenfeld","3.3.11","0","/","NA","NA","NA","NA","space","/","710","NA","NA","NA","NA","68004","710","2","legacy","1024","2","48000","-16","AB_m21","243","odd","CW_L","BOOTLESS","1888","154677","152796","149399","69906","NA","NA","NA","NA","NA","153297","NA","NA","NA","152296","NA","152265","1900","154877","NA","NA","NA","153338","1888","1888","NA","154049","154073","152265","153297","153318","morph21_Oliver/Morris","14","17659","19","yes","1920","32"
"300","75","75","910.3","910.3","black","no","xpyriment","legacy","legacy","0","205","NA","uniform","NA","NA","NA","1","undefined","1","0","19","19","19","0","19","19","19","NA","0","19","NA","NA","0","19","NA","19","0","19","NA","NA","NA","19","0","0","NA","19","19","19","19","19","20","z","Thu Apr 11 16:07:12 2024","The main experiment item","yes","m21-ab-lexicalDecision.osexp","C:\Users\ekealey\Desktop","no","mono","no","18","no","white","no","yes","1080","legacy","19","19","C:/Users/ekealey/Desktop/subject-243.csv","xpyriment","Lentiform Loewenfeld","3.3.11","0","z","NA","NA","NA","NA","space","z","547","NA","NA","NA","NA","68004","547","2","legacy","1024","2","48000","-16","AB_m21","243","odd","NW_S_SIMP","HEIRIG","1888","158141","156424","149399","69906","NA","NA","NA","NA","NA","156924","NA","NA","NA","155924","NA","155896","1900","158441","NA","NA","NA","156965","1888","1888","NA","157513","157537","155896","156924","156945","morph21_Oliver/Morris","15","18206","20","yes","1920","3"
"300","76.19047619047619","76.19047619047619","893.0952380952381","893.0952380952381","black","no","xpyriment","legacy","legacy","0","206","NA","uniform","NA","NA","NA","1","undefined","1","0","20","20","20","0","20","20","20","NA","0","20","NA","NA","0","20","NA","20","0","20","NA","NA","NA","20","0","0","NA","20","20","20","20","20","21","z","Thu Apr 11 16:07:12 2024","The main experiment item","yes","m21-ab-lexicalDecision.osexp","C:\Users\ekealey\Desktop","no","mono","no","18","no","white","no","yes","1080","legacy","20","20","C:/Users/ekealey/Desktop/subject-243.csv","xpyriment","Lentiform Loewenfeld","3.3.11","0","z","NA","NA","NA","NA","space","z","549","NA","NA","NA","NA","68004","549","2","legacy","1024","2","48000","-16","AB_m21","243","odd","NW_L_SIMP","TAXFIL","1888","163204","159982","161700","69906","NA","NA","NA","NA","NA","160482","NA","NA","NA","159481","NA","159449","1900","163504","NA","NA","NA","160523","1888","1888","NA","161072","161096","159449","160482","160503","morph21_Oliver/Morris","16","18755","21","yes","1920","6"
"200","72.72727272727273","72.72727272727273","899.5909090909091","899.5909090909091","black","no","xpyriment","legacy","legacy","0","205","NA","uniform","NA","NA","NA","0","undefined","0","0","21","21","21","0","21","21","21","NA","0","21","NA","NA","0","21","NA","21","0","21","NA","NA","NA","21","0","0","NA","21","21","21","21","21","22","z","Thu Apr 11 16:07:12 2024","The main experiment item","yes","m21-ab-lexicalDecision.osexp","C:\Users\ekealey\Desktop","no","mono","no","18","no","white","no","yes","1080","legacy","21","21","C:/Users/ekealey/Desktop/subject-243.csv","xpyriment","Lentiform Loewenfeld","3.3.11","0","/","NA","NA","NA","NA","space","/","1036","NA","NA","NA","NA","68004","1036","2","legacy","1024","2","48000","-16","AB_m21","243","odd","NW_S_SIMP","THRILLANGE","1888","167293","165087","161700","69906","NA","NA","NA","NA","NA","165588","NA","NA","NA","164586","NA","164556","1900","167493","NA","NA","NA","165628","1888","1888","NA","166665","166688","164556","165588","165608","morph21_Oliver/Morris","16","19791","22","yes","1920","22"
"250","73.91304347826087","73.91304347826087","888.304347826087","888.304347826087","black","no","xpyriment","legacy","legacy","0","207","NA","uniform","NA","NA","NA","1","undefined","1","0","22","22","22","0","22","22","22","NA","0","22","NA","NA","0","22","NA","22","0","22","NA","NA","NA","22","0","0","NA","22","22","22","22","22","23","/","Thu Apr 11 16:07:12 2024","The main experiment item","yes","m21-ab-lexicalDecision.osexp","C:\Users\ekealey\Desktop","no","mono","no","18","no","white","no","yes","1080","legacy","22","22","C:/Users/ekealey/Desktop/subject-243.csv","xpyriment","Lentiform Loewenfeld","3.3.11","0","/","NA","NA","NA","NA","space","/","640","NA","NA","NA","NA","68004","640","2","legacy","1024","2","48000","-16","AB_m21","243","odd","FILL_W","WEAVE","1888","170861","169051","161700","69906","NA","NA","NA","NA","NA","169552","NA","NA","NA","168551","NA","168523","1900","171111","NA","NA","NA","169592","1888","1888","NA","170233","170257","168523","169551","169572","morph21_Oliver/Morris","17","20431","23","yes","1920","12"
"200","75","75","882.6666666666666","882.6666666666666","black","no","xpyriment","legacy","legacy","0","208","NA","uniform","NA","NA","NA","1","undefined","1","0","23","23","23","0","23","23","23","NA","0","23","NA","NA","0","23","NA","23","0","23","NA","NA","NA","23","0","0","NA","23","23","23","23","23","24","z","Thu Apr 11 16:07:12 2024","The main experiment item","yes","m21-ab-lexicalDecision.osexp","C:\Users\ekealey\Desktop","no","mono","no","18","no","white","no","yes","1080","legacy","23","23","C:/Users/ekealey/Desktop/subject-243.csv","xpyriment","Lentiform Loewenfeld","3.3.11","0","z","NA","NA","NA","NA","space","z","753","NA","NA","NA","NA","68004","753","2","legacy","1024","2","48000","-16","AB_m21","243","odd","FILL_NW","VUNKS","1888","176091","172665","174588","69906","NA","NA","NA","NA","NA","173167","NA","NA","NA","172164","NA","172139","1900","176291","NA","NA","NA","173207","1888","1888","NA","173961","173985","172139","173167","173187","morph21_Oliver/Morris","18","21184","24","yes","1920","49"
"250","76","76","872.16","872.16","black","no","xpyriment","legacy","legacy","0","207","NA","uniform","NA","NA","NA","1","undefined","1","0","24","24","24","0","24","24","24","NA","0","24","NA","NA","0","24","NA","24","0","24","NA","NA","NA","24","0","0","NA","24","24","24","24","24","25","/","Thu Apr 11 16:07:12 2024","The main experiment item","yes","m21-ab-lexicalDecision.osexp","C:\Users\ekealey\Desktop","no","mono","no","18","no","white","no","yes","1080","legacy","24","24","C:/Users/ekealey/Desktop/subject-243.csv","xpyriment","Lentiform Loewenfeld","3.3.11","0","/","NA","NA","NA","NA","space","/","620","NA","NA","NA","NA","68004","620","2","legacy","1024","2","48000","-16","AB_m21","243","odd","FILL_W","SUIT","1888","179629","177838","174588","69906","NA","NA","NA","NA","NA","178339","NA","NA","NA","177338","NA","177308","1900","179879","NA","NA","NA","178380","1888","1888","NA","179001","179024","177308","178339","178360","morph21_Oliver/Morris","19","21804","25","yes","1920","49"
"300","76.92307692307692","76.92307692307692","859.2692307692307","859.2692307692307","black","no","xpyriment","legacy","legacy","0","201","NA","uniform","NA","NA","NA","1","undefined","1","0","25","25","25","0","25","25","25","NA","0","25","NA","NA","0","25","NA","25","0","25","NA","NA","NA","25","0","0","NA","25","25","25","25","25","26","/","Thu Apr 11 16:07:12 2024","The main experiment item","yes","m21-ab-lexicalDecision.osexp","C:\Users\ekealey\Desktop","no","mono","no","18","no","white","no","yes","1080","legacy","25","25","C:/Users/ekealey/Desktop/subject-243.csv","xpyriment","Lentiform Loewenfeld","3.3.11","0","/","NA","NA","NA","NA","space","/","537","NA","NA","NA","NA","68004","537","2","legacy","1024","2","48000","-16","AB_m21","243","odd","CW_S","DESTROYER","1888","183139","181433","174588","69906","NA","NA","NA","NA","NA","181934","NA","NA","NA","180932","NA","180906","1900","183439","NA","NA","NA","181975","1888","1888","NA","182512","182536","180905","181934","181955","morph21_Oliver/Morris","20","22341","26","yes","1920","14"
"300","77.77777777777777","77.77777777777777","849.074074074074","849.074074074074","black","no","xpyriment","legacy","legacy","0","201","NA","uniform","NA","NA","NA","1","undefined","1","0","26","26","26","0","26","26","26","NA","0","26","NA","NA","0","26","NA","26","0","26","NA","NA","NA","26","0","0","NA","26","26","26","26","26","27","/","Thu Apr 11 16:07:12 2024","The main experiment item","yes","m21-ab-lexicalDecision.osexp","C:\Users\ekealey\Desktop","no","mono","no","18","no","white","no","yes","1080","legacy","26","26","C:/Users/ekealey/Desktop/subject-243.csv","xpyriment","Lentiform Loewenfeld","3.3.11","0","/","NA","NA","NA","NA","space","/","584","NA","NA","NA","NA","68004","584","2","legacy","1024","2","48000","-16","AB_m21","243","odd","CW_S","MAGICAL","1888","188244","184987","186741","69906","NA","NA","NA","NA","NA","185487","NA","NA","NA","184487","NA","184460","1900","188544","NA","NA","NA","185528","1888","1888","NA","186112","186136","184460","185487","185508","morph21_Oliver/Morris","21","22925","27","yes","1920","4"
"350","75","75","840.9642857142857","840.9642857142857","black","no","xpyriment","legacy","legacy","0","203","NA","uniform","NA","NA","NA","0","undefined","0","0","27","27","27","0","27","27","27","NA","0","27","NA","NA","0","27","NA","27","0","27","NA","NA","NA","27","0","0","NA","27","27","27","27","27","28","z","Thu Apr 11 16:07:12 2024","The main experiment item","yes","m21-ab-lexicalDecision.osexp","C:\Users\ekealey\Desktop","no","mono","no","18","no","white","no","yes","1080","legacy","27","27","C:/Users/ekealey/Desktop/subject-243.csv","xpyriment","Lentiform Loewenfeld","3.3.11","0","/","NA","NA","NA","NA","space","/","622","NA","NA","NA","NA","68004","622","2","legacy","1024","2","48000","-16","AB_m21","243","odd","NW_S_COMP","HUMIDOUS","1888","191908","190117","186741","69906","NA","NA","NA","NA","NA","190617","NA","NA","NA","189617","NA","189585","1900","192258","NA","NA","NA","190658","1888","1888","NA","191280","191305","189585","190617","190638","morph21_Oliver/Morris","21","23547","28","yes","1920","25"
"350","75.86206896551724","75.86206896551724","832.7241379310345","832.7241379310345","black","no","xpyriment","legacy","legacy","0","202","NA","uniform","NA","NA","NA","1","undefined","1","0","28","28","28","0","28","28","28","NA","0","28","NA","NA","0","28","NA","28","0","28","NA","NA","NA","28","0","0","NA","28","28","28","28","28","29","/","Thu Apr 11 16:07:12 2024","The main experiment item","yes","m21-ab-lexicalDecision.osexp","C:\Users\ekealey\Desktop","no","mono","no","18","no","white","no","yes","1080","legacy","28","28","C:/Users/ekealey/Desktop/subject-243.csv","xpyriment","Lentiform Loewenfeld","3.3.11","0","/","NA","NA","NA","NA","space","/","602","NA","NA","NA","NA","68004","602","2","legacy","1024","2","48000","-16","AB_m21","243","odd","CW_L","BOMBER","1888","195611","193840","186741","69906","NA","NA","NA","NA","NA","194340","NA","NA","NA","193340","NA","193313","1900","195962","NA","NA","NA","194381","1888","1888","NA","194984","195008","193313","194340","194361","morph21_Oliver/Morris","22","24149","29","yes","1920","7"
"400","76.66666666666667","76.66666666666667","826.8333333333334","826.8333333333334","black","no","xpyriment","legacy","legacy","0","208","NA","uniform","NA","NA","NA","1","undefined","1","0","29","29","29","0","29","29","29","NA","0","29","NA","NA","0","29","NA","29","0","29","NA","NA","NA","29","0","0","NA","29","29","29","29","29","30","z","Thu Apr 11 16:07:12 2024","The main experiment item","yes","m21-ab-lexicalDecision.osexp","C:\Users\ekealey\Desktop","no","mono","no","18","no","white","no","yes","1080","legacy","29","29","C:/Users/ekealey/Desktop/subject-243.csv","xpyriment","Lentiform Loewenfeld","3.3.11","0","z","NA","NA","NA","NA","space","z","656","NA","NA","NA","NA","68004","656","2","legacy","1024","2","48000","-16","AB_m21","243","odd","FILL_NW","ULNS","1888","200843","197515","199340","69906","NA","NA","NA","NA","NA","198015","NA","NA","NA","197013","NA","196984","1900","201243","NA","NA","NA","198056","1888","1888","NA","198712","198737","196984","198015","198036","morph21_Oliver/Morris","23","24805","30","yes","1920","45"
"300","77.41935483870968","77.41935483870968","822.3548387096774","822.3548387096774","black","no","xpyriment","legacy","legacy","0","202","NA","uniform","NA","NA","NA","1","undefined","1","0","30","30","30","0","30","30","30","NA","0","30","NA","NA","0","30","NA","30","0","30","NA","NA","NA","30","0","0","NA","30","30","30","30","30","31","/","Thu Apr 11 16:07:12 2024","The main experiment item","yes","m21-ab-lexicalDecision.osexp","C:\Users\ekealey\Desktop","no","mono","no","18","no","white","no","yes","1080","legacy","30","30","C:/Users/ekealey/Desktop/subject-243.csv","xpyriment","Lentiform Loewenfeld","3.3.11","0","/","NA","NA","NA","NA","space","/","688","NA","NA","NA","NA","68004","688","2","legacy","1024","2","48000","-16","AB_m21","243","odd","CW_L","DAMPISH","1888","204660","202804","199340","69906","NA","NA","NA","NA","NA","203304","NA","NA","NA","202304","NA","202270","1900","204961","NA","NA","NA","203344","1888","1888","NA","204033","204056","202270","203304","203324","morph21_Oliver/Morris","24","25493","31","yes","1920","28"
"300","78.125","78.125","814.78125","814.78125","black","no","xpyriment","legacy","legacy","0","208","NA","uniform","NA","NA","NA","1","undefined","1","0","31","31","31","0","31","31","31","NA","0","31","NA","NA","0","31","NA","31","0","31","NA","NA","NA","31","0","0","NA","31","31","31","31","31","32","z","Thu Apr 11 16:07:12 2024","The main experiment item","yes","m21-ab-lexicalDecision.osexp","C:\Users\ekealey\Desktop","no","mono","no","18","no","white","no","yes","1080","legacy","31","31","C:/Users/ekealey/Desktop/subject-243.csv","xpyriment","Lentiform Loewenfeld","3.3.11","0","z","NA","NA","NA","NA","space","z","580","NA","NA","NA","NA","68004","580","2","legacy","1024","2","48000","-16","AB_m21","243","odd","FILL_NW","BAFED","1888","208259","206510","199340","69906","NA","NA","NA","NA","NA","207011","NA","NA","NA","206010","NA","205981","1900","208559","NA","NA","NA","207052","1888","1888","NA","207632","207656","205981","207011","207031","morph21_Oliver/Morris","25","26073","32","yes","1920","1"
"350","75.75757575757575","75.75757575757575","809.3333333333334","809.3333333333334","black","no","xpyriment","legacy","legacy","0","204","NA","uniform","NA","NA","NA","0","undefined","0","0","32","32","32","0","32","32","32","NA","0","32","NA","NA","0","32","NA","32","0","32","NA","NA","NA","32","0","0","NA","32","32","32","32","32","33","z","Thu Apr 11 16:07:12 2024","The main experiment item","yes","m21-ab-lexicalDecision.osexp","C:\Users\ekealey\Desktop","no","mono","no","18","no","white","no","yes","1080","legacy","32","32","C:/Users/ekealey/Desktop/subject-243.csv","xpyriment","Lentiform Loewenfeld","3.3.11","0","/","NA","NA","NA","NA","space","/","635","NA","NA","NA","NA","68004","635","2","legacy","1024","2","48000","-16","AB_m21","243","odd","NW_L_COMP","MOUTHIZE","1888","213430","210120","211925","69906","NA","NA","NA","NA","NA","210620","NA","NA","NA","209620","NA","209591","1900","213780","NA","NA","NA","210661","1888","1888","NA","211297","211321","209591","210620","210641","morph21_Oliver/Morris","25","26708","33","yes","1920","11"
"250","76.47058823529412","76.47058823529412","802.4411764705883","802.4411764705883","black","no","xpyriment","legacy","legacy","0","201","NA","uniform","NA","NA","NA","1","undefined","1","0","33","33","33","0","33","33","33","NA","0","33","NA","NA","0","33","NA","33","0","33","NA","NA","NA","33","0","0","NA","33","33","33","33","33","34","/","Thu Apr 11 16:07:12 2024","The main experiment item","yes","m21-ab-lexicalDecision.osexp","C:\Users\ekealey\Desktop","no","mono","no","18","no","white","no","yes","1080","legacy","33","33","C:/Users/ekealey/Desktop/subject-243.csv","xpyriment","Lentiform Loewenfeld","3.3.11","0","/","NA","NA","NA","NA","space","/","575","NA","NA","NA","NA","68004","575","2","legacy","1024","2","48000","-16","AB_m21","243","odd","CW_S","TUTORING","1888","217062","215316","211925","69906","NA","NA","NA","NA","NA","215817","NA","NA","NA","214815","NA","214784","1900","217312","NA","NA","NA","215857","1888","1888","NA","216433","216457","214784","215817","215837","morph21_Oliver/Morris","26","27283","34","yes","1920","27"
"400","77.14285714285714","77.14285714285714","793.4","793.4","black","no","xpyriment","legacy","legacy","0","202","NA","uniform","NA","NA","NA","1","undefined","1","0","34","34","34","0","34","34","34","NA","0","34","NA","NA","0","34","NA","34","0","34","NA","NA","NA","34","0","0","NA","34","34","34","34","34","35","/","Thu Apr 11 16:07:12 2024","The main experiment item","yes","m21-ab-lexicalDecision.osexp","C:\Users\ekealey\Desktop","no","mono","no","18","no","white","no","yes","1080","legacy","34","34","C:/Users/ekealey/Desktop/subject-243.csv","xpyriment","Lentiform Loewenfeld","3.3.11","0","/","NA","NA","NA","NA","space","/","486","NA","NA","NA","NA","68004","486","2","legacy","1024","2","48000","-16","AB_m21","243","odd","CW_L","COOLING","1888","220516","218860","211925","69906","NA","NA","NA","NA","NA","219362","NA","NA","NA","218358","NA","218330","1900","220917","NA","NA","NA","219402","1888","1888","NA","219889","219913","218330","219362","219382","morph21_Oliver/Morris","27","27769","35","yes","1920","24"
"400","77.77777777777777","77.77777777777777","787.7222222222222","787.7222222222222","black","no","xpyriment","legacy","legacy","0","202","NA","uniform","NA","NA","NA","1","undefined","1","0","35","35","35","0","35","35","35","NA","0","35","NA","NA","0","35","NA","35","0","35","NA","NA","NA","35","0","0","NA","35","35","35","35","35","36","/","Thu Apr 11 16:07:12 2024","The main experiment item","yes","m21-ab-lexicalDecision.osexp","C:\Users\ekealey\Desktop","no","mono","no","18","no","white","no","yes","1080","legacy","35","35","C:/Users/ekealey/Desktop/subject-243.csv","xpyriment","Lentiform Loewenfeld","3.3.11","0","/","NA","NA","NA","NA","space","/","589","NA","NA","NA","NA","68004","589","2","legacy","1024","2","48000","-16","AB_m21","243","odd","CW_L","SPELLER","1888","225754","222492","224251","69906","NA","NA","NA","NA","NA","222994","NA","NA","NA","221991","NA","221967","1900","226154","NA","NA","NA","223035","1888","1888","NA","223624","223648","221967","222994","223014","morph21_Oliver/Morris","28","28358","36","yes","1920","3"
"250","78.37837837837837","78.37837837837837","793.7027027027027","793.7027027027027","black","no","xpyriment","legacy","legacy","0","206","NA","uniform","NA","NA","NA","1","undefined","1","0","36","36","36","0","36","36","36","NA","0","36","NA","NA","0","36","NA","36","0","36","NA","NA","NA","36","0","0","NA","36","36","36","36","36","37","z","Thu Apr 11 16:07:12 2024","The main experiment item","yes","m21-ab-lexicalDecision.osexp","C:\Users\ekealey\Desktop","no","mono","no","18","no","white","no","yes","1080","legacy","36","36","C:/Users/ekealey/Desktop/subject-243.csv","xpyriment","Lentiform Loewenfeld","3.3.11","0","z","NA","NA","NA","NA","space","z","1009","NA","NA","NA","NA","68004","1009","2","legacy","1024","2","48000","-16","AB_m21","243","odd","NW_L_SIMP","BEARILT","1888","229900","227721","224251","69906","NA","NA","NA","NA","NA","228221","NA","NA","NA","227220","NA","227187","1900","230150","NA","NA","NA","228262","1888","1888","NA","229272","229296","227187","228221","228242","morph21_Oliver/Morris","29","29367","37","yes","1920","25"
"200","78.94736842105263","78.94736842105263","787.3157894736842","787.3157894736842","black","no","xpyriment","legacy","legacy","0","207","NA","uniform","NA","NA","NA","1","undefined","1","0","37","37","37","0","37","37","37","NA","0","37","NA","NA","0","37","NA","37","0","37","NA","NA","NA","37","0","0","NA","37","37","37","37","37","38","/","Thu Apr 11 16:07:12 2024","The main experiment item","yes","m21-ab-lexicalDecision.osexp","C:\Users\ekealey\Desktop","no","mono","no","18","no","white","no","yes","1080","legacy","37","37","C:/Users/ekealey/Desktop/subject-243.csv","xpyriment","Lentiform Loewenfeld","3.3.11","0","/","NA","NA","NA","NA","space","/","551","NA","NA","NA","NA","68004","551","2","legacy","1024","2","48000","-16","AB_m21","243","odd","FILL_W","SAVE","1888","233420","231700","224251","69906","NA","NA","NA","NA","NA","232201","NA","NA","NA","231197","NA","231169","1900","233620","NA","NA","NA","232241","1888","1888","NA","232793","232817","231169","232201","232221","morph21_Oliver/Morris","30","29918","38","yes","1920","46"
"300","79.48717948717949","79.48717948717949","787.6153846153846","787.6153846153846","black","no","xpyriment","legacy","legacy","0","208","NA","uniform","NA","NA","NA","1","undefined","1","0","38","38","38","0","38","38","38","NA","0","38","NA","NA","0","38","NA","38","0","38","NA","NA","NA","38","0","0","NA","38","38","38","38","38","39","z","Thu Apr 11 16:07:12 2024","The main experiment item","yes","m21-ab-lexicalDecision.osexp","C:\Users\ekealey\Desktop","no","mono","no","18","no","white","no","yes","1080","legacy","38","38","C:/Users/ekealey/Desktop/subject-243.csv","xpyriment","Lentiform Loewenfeld","3.3.11","0","z","NA","NA","NA","NA","space","z","799","NA","NA","NA","NA","68004","799","2","legacy","1024","2","48000","-16","AB_m21","243","odd","FILL_NW","DULKS","1888","238668","235194","237164","69906","NA","NA","NA","NA","NA","235696","NA","NA","NA","234692","NA","234667","1900","238968","NA","NA","NA","235736","1888","1888","NA","236536","236560","234667","235695","235716","morph21_Oliver/Morris","31","30717","39","yes","1920","18"
"350","80","80","783.425","783.425","black","no","xpyriment","legacy","legacy","0","202","NA","uniform","NA","NA","NA","1","undefined","1","0","39","39","39","0","39","39","39","NA","0","39","NA","NA","0","39","NA","39","0","39","NA","NA","NA","39","0","0","NA","39","39","39","39","39","40","/","Thu Apr 11 16:07:12 2024","The main experiment item","yes","m21-ab-lexicalDecision.osexp","C:\Users\ekealey\Desktop","no","mono","no","18","no","white","no","yes","1080","legacy","39","39","C:/Users/ekealey/Desktop/subject-243.csv","xpyriment","Lentiform Loewenfeld","3.3.11","0","/","NA","NA","NA","NA","space","/","620","NA","NA","NA","NA","68004","620","2","legacy","1024","2","48000","-16","AB_m21","243","odd","CW_L","PAINTER","1888","242302","240512","237164","69906","NA","NA","NA","NA","NA","241012","NA","NA","NA","240012","NA","239981","1900","242652","NA","NA","NA","241052","1888","1888","NA","241673","241697","239981","241012","241032","morph21_Oliver/Morris","32","31337","40","yes","1920","18"
"350","80.48780487804878","80.48780487804878","781.5365853658536","781.5365853658536","black","no","xpyriment","legacy","legacy","0","201","NA","uniform","NA","NA","NA","1","undefined","1","0","40","40","40","0","40","40","40","NA","0","40","NA","NA","0","40","NA","40","0","40","NA","NA","NA","40","0","0","NA","40","40","40","40","40","41","/","Thu Apr 11 16:07:12 2024","The main experiment item","yes","m21-ab-lexicalDecision.osexp","C:\Users\ekealey\Desktop","no","mono","no","18","no","white","no","yes","1080","legacy","40","40","C:/Users/ekealey/Desktop/subject-243.csv","xpyriment","Lentiform Loewenfeld","3.3.11","0","/","NA","NA","NA","NA","space","/","706","NA","NA","NA","NA","68004","706","2","legacy","1024","2","48000","-16","AB_m21","243","odd","CW_S","LENDER","1888","246075","244199","237164","69906","NA","NA","NA","NA","NA","244701","NA","NA","NA","243697","NA","243671","1900","246425","NA","NA","NA","244741","1888","1888","NA","245448","245472","243671","244701","244721","morph21_Oliver/Morris","33","32043","41","yes","1920","11"
"300","78.57142857142857","78.57142857142857","786.452380952381","786.452380952381","black","no","xpyriment","legacy","legacy","0","206","NA","uniform","NA","NA","NA","0","undefined","0","0","41","41","41","0","41","41","41","NA","0","41","NA","NA","0","41","NA","41","0","41","NA","NA","NA","41","0","0","NA","41","41","41","41","41","42","z","Thu Apr 11 16:07:12 2024","The main experiment item","yes","m21-ab-lexicalDecision.osexp","C:\Users\ekealey\Desktop","no","mono","no","18","no","white","no","yes","1080","legacy","41","41","C:/Users/ekealey/Desktop/subject-243.csv","xpyriment","Lentiform Loewenfeld","3.3.11","0","/","NA","NA","NA","NA","space","/","988","NA","NA","NA","NA","68004","988","2","legacy","1024","2","48000","-16","AB_m21","243","odd","NW_L_SIMP","BEGENGE","1888","251640","247973","250134","69906","NA","NA","NA","NA","NA","248474","NA","NA","NA","247473","NA","247444","1900","251940","NA","NA","NA","248515","1888","1888","NA","249505","249530","247444","248474","248495","morph21_Oliver/Morris","33","33031","42","yes","1920","4"
"250","79.06976744186046","79.06976744186046","780.8139534883721","780.8139534883721","black","no","xpyriment","legacy","legacy","0","207","NA","uniform","NA","NA","NA","1","undefined","1","0","42","42","42","0","42","42","42","NA","0","42","NA","NA","0","42","NA","42","0","42","NA","NA","NA","42","0","0","NA","42","42","42","42","42","43","/","Thu Apr 11 16:07:12 2024","The main experiment item","yes","m21-ab-lexicalDecision.osexp","C:\Users\ekealey\Desktop","no","mono","no","18","no","white","no","yes","1080","legacy","42","42","C:/Users/ekealey/Desktop/subject-243.csv","xpyriment","Lentiform Loewenfeld","3.3.11","0","/","NA","NA","NA","NA","space","/","544","NA","NA","NA","NA","68004","544","2","legacy","1024","2","48000","-16","AB_m21","243","odd","FILL_W","TREAT","1888","255219","253506","250134","69906","NA","NA","NA","NA","NA","254006","NA","NA","NA","253004","NA","252974","1900","255469","NA","NA","NA","254047","1888","1888","NA","254592","254616","252974","254006","254027","morph21_Oliver/Morris","34","33575","43","yes","1920","48"
"400","79.54545454545455","79.54545454545455","776.6818181818181","776.6818181818181","black","no","xpyriment","legacy","legacy","0","202","NA","uniform","NA","NA","NA","1","undefined","1","0","43","43","43","0","43","43","43","NA","0","43","NA","NA","0","43","NA","43","0","43","NA","NA","NA","43","0","0","NA","43","43","43","43","43","44","/","Thu Apr 11 16:07:12 2024","The main experiment item","yes","m21-ab-lexicalDecision.osexp","C:\Users\ekealey\Desktop","no","mono","no","18","no","white","no","yes","1080","legacy","43","43","C:/Users/ekealey/Desktop/subject-243.csv","xpyriment","Lentiform Loewenfeld","3.3.11","0","/","NA","NA","NA","NA","space","/","599","NA","NA","NA","NA","68004","599","2","legacy","1024","2","48000","-16","AB_m21","243","odd","CW_L","LOCKER","1888","258837","257067","250134","69906","NA","NA","NA","NA","NA","257568","NA","NA","NA","256567","NA","256541","1900","259237","NA","NA","NA","257609","1888","1888","NA","258208","258233","256540","257568","257589","morph21_Oliver/Morris","35","34174","44","yes","1920","8"
"400","80","80","771.8222222222222","771.8222222222222","black","no","xpyriment","legacy","legacy","0","207","NA","uniform","NA","NA","NA","1","undefined","1","0","44","44","44","0","44","44","44","NA","0","44","NA","NA","0","44","NA","44","0","44","NA","NA","NA","44","0","0","NA","44","44","44","44","44","45","/","Thu Apr 11 16:07:12 2024","The main experiment item","yes","m21-ab-lexicalDecision.osexp","C:\Users\ekealey\Desktop","no","mono","no","18","no","white","no","yes","1080","legacy","44","44","C:/Users/ekealey/Desktop/subject-243.csv","xpyriment","Lentiform Loewenfeld","3.3.11","0","/","NA","NA","NA","NA","space","/","558","NA","NA","NA","NA","68004","558","2","legacy","1024","2","48000","-16","AB_m21","243","odd","FILL_W","FLIRT","1888","264026","260796","262523","69906","NA","NA","NA","NA","NA","261297","NA","NA","NA","260294","NA","260267","1900","264426","NA","NA","NA","261338","1888","1888","NA","261897","261920","260267","261297","261318","morph21_Oliver/Morris","36","34732","45","yes","1920","1"
"350","80.43478260869566","80.43478260869566","769.2608695652174","769.2608695652174","black","no","xpyriment","legacy","legacy","0","203","NA","uniform","NA","NA","NA","1","undefined","1","0","45","45","45","0","45","45","45","NA","0","45","NA","NA","0","45","NA","45","0","45","NA","NA","NA","45","0","0","NA","45","45","45","45","45","46","z","Thu Apr 11 16:07:12 2024","The main experiment item","yes","m21-ab-lexicalDecision.osexp","C:\Users\ekealey\Desktop","no","mono","no","18","no","white","no","yes","1080","legacy","45","45","C:/Users/ekealey/Desktop/subject-243.csv","xpyriment","Lentiform Loewenfeld","3.3.11","0","z","NA","NA","NA","NA","space","z","654","NA","NA","NA","NA","68004","654","2","legacy","1024","2","48000","-16","AB_m21","243","odd","NW_S_COMP","WELDIC","1888","267836","266012","262523","69906","NA","NA","NA","NA","NA","266513","NA","NA","NA","265512","NA","265481","1900","268186","NA","NA","NA","266553","1888","1888","NA","267208","267233","265481","266512","266533","morph21_Oliver/Morris","37","35386","46","yes","1920","21"
"350","80.85106382978724","80.85106382978724","763.8085106382979","763.8085106382979","black","no","xpyriment","legacy","legacy","0","207","NA","uniform","NA","NA","NA","1","undefined","1","0","46","46","46","0","46","46","46","NA","0","46","NA","NA","0","46","NA","46","0","46","NA","NA","NA","46","0","0","NA","46","46","46","46","46","47","/","Thu Apr 11 16:07:12 2024","The main experiment item","yes","m21-ab-lexicalDecision.osexp","C:\Users\ekealey\Desktop","no","mono","no","18","no","white","no","yes","1080","legacy","46","46","C:/Users/ekealey/Desktop/subject-243.csv","xpyriment","Lentiform Loewenfeld","3.3.11","0","/","NA","NA","NA","NA","space","/","513","NA","NA","NA","NA","68004","513","2","legacy","1024","2","48000","-16","AB_m21","243","odd","FILL_W","BRISK","1888","271501","269818","262523","69906","NA","NA","NA","NA","NA","270318","NA","NA","NA","269318","NA","269289","1900","271851","NA","NA","NA","270358","1888","1888","NA","270872","270897","269289","270318","270338","morph21_Oliver/Morris","38","35899","47","yes","1920","8"
"250","81.25","81.25","761.8958333333334","761.8958333333334","black","no","xpyriment","legacy","legacy","0","208","NA","uniform","NA","NA","NA","1","undefined","1","0","47","47","47","0","47","47","47","NA","0","47","NA","NA","0","47","NA","47","0","47","NA","NA","NA","47","0","0","NA","47","47","47","47","47","48","z","Thu Apr 11 16:07:12 2024","The main experiment item","yes","m21-ab-lexicalDecision.osexp","C:\Users\ekealey\Desktop","no","mono","no","18","no","white","no","yes","1080","legacy","47","47","C:/Users/ekealey/Desktop/subject-243.csv","xpyriment","Lentiform Loewenfeld","3.3.11","0","z","NA","NA","NA","NA","space","z","672","NA","NA","NA","NA","68004","672","2","legacy","1024","2","48000","-16","AB_m21","243","odd","FILL_NW","BUWL","1888","276740","273395","275236","69906","NA","NA","NA","NA","NA","273896","NA","NA","NA","272893","NA","272868","1900","276990","NA","NA","NA","273936","1888","1888","NA","274608","274633","272867","273896","273916","morph21_Oliver/Morris","39","36571","48","yes","1920","9"
"400","81.63265306122449","81.63265306122449","758.1836734693877","758.1836734693877","black","no","xpyriment","legacy","legacy","0","207","NA","uniform","NA","NA","NA","1","undefined","1","0","48","48","48","0","48","48","48","NA","0","48","NA","NA","0","48","NA","48","0","48","NA","NA","NA","48","0","0","NA","48","48","48","48","48","49","/","Thu Apr 11 16:07:12 2024","The main experiment item","yes","m21-ab-lexicalDecision.osexp","C:\Users\ekealey\Desktop","no","mono","no","18","no","white","no","yes","1080","legacy","48","48","C:/Users/ekealey/Desktop/subject-243.csv","xpyriment","Lentiform Loewenfeld","3.3.11","0","/","NA","NA","NA","NA","space","/","580","NA","NA","NA","NA","68004","580","2","legacy","1024","2","48000","-16","AB_m21","243","odd","FILL_W","DRUNK","1888","280291","278541","275236","69906","NA","NA","NA","NA","NA","279041","NA","NA","NA","278040","NA","278009","1900","280691","NA","NA","NA","279083","1888","1888","NA","279664","279688","278009","279041","279062","morph21_Oliver/Morris","40","37151","49","yes","1920","19"
"400","82","82","759.12","759.12","black","no","xpyriment","legacy","legacy","0","205","NA","uniform","NA","NA","NA","1","undefined","1","0","49","49","49","0","49","49","49","NA","0","49","NA","NA","0","49","NA","49","0","49","NA","NA","NA","49","0","0","NA","49","49","49","49","49","50","z","Thu Apr 11 16:07:12 2024","The main experiment item","yes","m21-ab-lexicalDecision.osexp","C:\Users\ekealey\Desktop","no","mono","no","18","no","white","no","yes","1080","legacy","49","49","C:/Users/ekealey/Desktop/subject-243.csv","xpyriment","Lentiform Loewenfeld","3.3.11","0","z","NA","NA","NA","NA","space","z","805","NA","NA","NA","NA","68004","805","2","legacy","1024","2","48000","-16","AB_m21","243","odd","NW_S_SIMP","ADVERTISELA","1888","284237","282259","275236","69906","NA","NA","NA","NA","NA","282762","NA","NA","NA","281759","NA","281729","1900","284637","NA","NA","NA","282802","1888","1888","NA","283608","283634","281729","282762","282782","morph21_Oliver/Morris","41","37956","50","yes","1920","25"
"200","82.3529411764706","82.3529411764706","758.0784313725491","758.0784313725491","black","no","xpyriment","legacy","legacy","0","208","NA","uniform","NA","NA","NA","1","undefined","1","0","50","50","50","0","50","50","50","NA","0","50","NA","NA","0","50","NA","50","0","50","NA","NA","NA","50","0","0","NA","50","50","50","50","50","51","z","Thu Apr 11 16:07:12 2024","The main experiment item","yes","m21-ab-lexicalDecision.osexp","C:\Users\ekealey\Desktop","no","mono","no","18","no","white","no","yes","1080","legacy","50","50","C:/Users/ekealey/Desktop/subject-243.csv","xpyriment","Lentiform Loewenfeld","3.3.11","0","z","NA","NA","NA","NA","space","z","706","NA","NA","NA","NA","68004","706","2","legacy","1024","2","48000","-16","AB_m21","243","odd","FILL_NW","PORDS","1888","289572","286191","288069","69906","NA","NA","NA","NA","NA","286692","NA","NA","NA","285690","NA","285663","1900","289772","NA","NA","NA","286733","1888","1888","NA","287440","287466","285663","286692","286713","morph21_Oliver/Morris","42","38662","51","yes","1920","39"
"250","82.6923076923077","82.6923076923077","755.7884615384615","755.7884615384615","black","no","xpyriment","legacy","legacy","0","208","NA","uniform","NA","NA","NA","1","undefined","1","0","51","51","51","0","51","51","51","NA","0","51","NA","NA","0","51","NA","51","0","51","NA","NA","NA","51","0","0","NA","51","51","51","51","51","52","z","Thu Apr 11 16:07:12 2024","The main experiment item","yes","m21-ab-lexicalDecision.osexp","C:\Users\ekealey\Desktop","no","mono","no","18","no","white","no","yes","1080","legacy","51","51","C:/Users/ekealey/Desktop/subject-243.csv","xpyriment","Lentiform Loewenfeld","3.3.11","0","z","NA","NA","NA","NA","space","z","639","NA","NA","NA","NA","68004","639","2","legacy","1024","2","48000","-16","AB_m21","243","odd","FILL_NW","PIFTH","1888","293155","291347","288069","69906","NA","NA","NA","NA","NA","291847","NA","NA","NA","290847","NA","290817","1900","293405","NA","NA","NA","291888","1888","1888","NA","292528","292551","290817","291847","291868","morph21_Oliver/Morris","43","39301","52","yes","1920","36"
"250","83.01886792452831","83.01886792452831","752.0943396226415","752.0943396226415","black","no","xpyriment","legacy","legacy","0","201","NA","uniform","NA","NA","NA","1","undefined","1","0","52","52","52","0","52","52","52","NA","0","52","NA","NA","0","52","NA","52","0","52","NA","NA","NA","52","0","0","NA","52","52","52","52","52","53","/","Thu Apr 11 16:07:12 2024","The main experiment item","yes","m21-ab-lexicalDecision.osexp","C:\Users\ekealey\Desktop","no","mono","no","18","no","white","no","yes","1080","legacy","52","52","C:/Users/ekealey/Desktop/subject-243.csv","xpyriment","Lentiform Loewenfeld","3.3.11","0","/","NA","NA","NA","NA","space","/","560","NA","NA","NA","NA","68004","560","2","legacy","1024","2","48000","-16","AB_m21","243","odd","CW_S","PEAKING","1888","296734","295001","288069","69906","NA","NA","NA","NA","NA","295503","NA","NA","NA","294499","NA","294472","1900","296984","NA","NA","NA","295544","1888","1888","NA","296104","296128","294472","295503","295524","morph21_Oliver/Morris","44","39861","53","yes","1920","28"
"350","83.33333333333333","83.33333333333333","751.574074074074","751.574074074074","black","no","xpyriment","legacy","legacy","0","201","NA","uniform","NA","NA","NA","1","undefined","1","0","53","53","53","0","53","53","53","NA","0","53","NA","NA","0","53","NA","53","0","53","NA","NA","NA","53","0","0","NA","53","53","53","53","53","54","/","Thu Apr 11 16:07:12 2024","The main experiment item","yes","m21-ab-lexicalDecision.osexp","C:\Users\ekealey\Desktop","no","mono","no","18","no","white","no","yes","1080","legacy","53","53","C:/Users/ekealey/Desktop/subject-243.csv","xpyriment","Lentiform Loewenfeld","3.3.11","0","/","NA","NA","NA","NA","space","/","724","NA","NA","NA","NA","68004","724","2","legacy","1024","2","48000","-16","AB_m21","243","odd","CW_S","BEARDED","1888","301972","298574","300468","69906","NA","NA","NA","NA","NA","299074","NA","NA","NA","298073","NA","298046","1900","302322","NA","NA","NA","299115","1888","1888","NA","299840","299865","298046","299074","299095","morph21_Oliver/Morris","45","40585","54","yes","1920","8"
"250","83.63636363636364","83.63636363636364","754.2","754.2","black","no","xpyriment","legacy","legacy","0","206","NA","uniform","NA","NA","NA","1","undefined","1","0","54","54","54","0","54","54","54","NA","0","54","NA","NA","0","54","NA","54","0","54","NA","NA","NA","54","0","0","NA","54","54","54","54","54","55","z","Thu Apr 11 16:07:12 2024","The main experiment item","yes","m21-ab-lexicalDecision.osexp","C:\Users\ekealey\Desktop","no","mono","no","18","no","white","no","yes","1080","legacy","54","54","C:/Users/ekealey/Desktop/subject-243.csv","xpyriment","Lentiform Loewenfeld","3.3.11","0","z","NA","NA","NA","NA","space","z","896","NA","NA","NA","NA","68004","896","2","legacy","1024","2","48000","-16","AB_m21","243","odd","NW_L_SIMP","SMOOTHFIL","1888","305947","303883","300468","69906","NA","NA","NA","NA","NA","304383","NA","NA","NA","303382","NA","303351","1900","306197","NA","NA","NA","304424","1888","1888","NA","305321","305344","303351","304383","304404","morph21_Oliver/Morris","46","41481","55","yes","1920","19"
"300","83.92857142857143","83.92857142857143","750.1785714285714","750.1785714285714","black","no","xpyriment","legacy","legacy","0","207","NA","uniform","NA","NA","NA","1","undefined","1","0","55","55","55","0","55","55","55","NA","0","55","NA","NA","0","55","NA","55","0","55","NA","NA","NA","55","0","0","NA","55","55","55","55","55","56","/","Thu Apr 11 16:07:12 2024","The main experiment item","yes","m21-ab-lexicalDecision.osexp","C:\Users\ekealey\Desktop","no","mono","no","18","no","white","no","yes","1080","legacy","55","55","C:/Users/ekealey/Desktop/subject-243.csv","xpyriment","Lentiform Loewenfeld","3.3.11","0","/","NA","NA","NA","NA","space","/","529","NA","NA","NA","NA","68004","529","2","legacy","1024","2","48000","-16","AB_m21","243","odd","FILL_W","BOX","1888","309475","307778","300468","69906","NA","NA","NA","NA","NA","308278","NA","NA","NA","307278","NA","307251","1900","309775","NA","NA","NA","308319","1888","1888","NA","308848","308872","307251","308278","308299","morph21_Oliver/Morris","47","42010","56","yes","1920","42"
"300","84.21052631578948","84.21052631578948","749.561403508772","749.561403508772","black","no","xpyriment","legacy","legacy","0","206","NA","uniform","NA","NA","NA","1","undefined","1","0","56","56","56","0","56","56","56","NA","0","56","NA","NA","0","56","NA","56","0","56","NA","NA","NA","56","0","0","NA","56","56","56","56","56","57","z","Thu Apr 11 16:07:12 2024","The main experiment item","yes","m21-ab-lexicalDecision.osexp","C:\Users\ekealey\Desktop","no","mono","no","18","no","white","no","yes","1080","legacy","56","56","C:/Users/ekealey/Desktop/subject-243.csv","xpyriment","Lentiform Loewenfeld","3.3.11","0","z","NA","NA","NA","NA","space","z","715","NA","NA","NA","NA","68004","715","2","legacy","1024","2","48000","-16","AB_m21","243","odd","NW_L_SIMP","EARILT","1888","314739","311352","313236","69906","NA","NA","NA","NA","NA","311852","NA","NA","NA","310851","NA","310824","1900","315039","NA","NA","NA","311892","1888","1888","NA","312608","312633","310824","311852","311872","morph21_Oliver/Morris","48","42725","57","yes","1920","12"
"300","84.48275862068965","84.48275862068965","754.4655172413793","754.4655172413793","black","no","xpyriment","legacy","legacy","0","204","NA","uniform","NA","NA","NA","1","undefined","1","0","57","57","57","0","57","57","57","NA","0","57","NA","NA","0","57","NA","57","0","57","NA","NA","NA","57","0","0","NA","57","57","57","57","57","58","z","Thu Apr 11 16:07:12 2024","The main experiment item","yes","m21-ab-lexicalDecision.osexp","C:\Users\ekealey\Desktop","no","mono","no","18","no","white","no","yes","1080","legacy","57","57","C:/Users/ekealey/Desktop/subject-243.csv","xpyriment","Lentiform Loewenfeld","3.3.11","0","z","NA","NA","NA","NA","space","z","1034","NA","NA","NA","NA","68004","1034","2","legacy","1024","2","48000","-16","AB_m21","243","odd","NW_L_COMP","EMPLOYNESS","1888","318813","316609","313236","69906","NA","NA","NA","NA","NA","317109","NA","NA","NA","316109","NA","316078","1900","319113","NA","NA","NA","317150","1888","1888","NA","318184","318209","316077","317109","317130","morph21_Oliver/Morris","49","43759","58","yes","1920","21"
"350","84.7457627118644","84.7457627118644","759.1864406779661","759.1864406779661","black","no","xpyriment","legacy","legacy","0","206","NA","uniform","NA","NA","NA","1","undefined","1","0","58","58","58","0","58","58","58","NA","0","58","NA","NA","0","58","NA","58","0","58","NA","NA","NA","58","0","0","NA","58","58","58","58","58","59","z","Thu Apr 11 16:07:12 2024","The main experiment item","yes","m21-ab-lexicalDecision.osexp","C:\Users\ekealey\Desktop","no","mono","no","18","no","white","no","yes","1080","legacy","58","58","C:/Users/ekealey/Desktop/subject-243.csv","xpyriment","Lentiform Loewenfeld","3.3.11","0","z","NA","NA","NA","NA","space","z","1033","NA","NA","NA","NA","68004","1033","2","legacy","1024","2","48000","-16","AB_m21","243","odd","NW_L_SIMP","CRITICANGE","1888","322875","320674","313236","69906","NA","NA","NA","NA","NA","321174","NA","NA","NA","320173","NA","320146","1900","323225","NA","NA","NA","321215","1888","1888","NA","322249","322272","320146","321174","321195","morph21_Oliver/Morris","50","44792","59","yes","1920","22"
"350","85","85","756.05","756.05","black","no","xpyriment","legacy","legacy","0","207","NA","uniform","NA","NA","NA","1","undefined","1","0","59","59","59","0","59","59","59","NA","0","59","NA","NA","0","59","NA","59","0","59","NA","NA","NA","59","0","0","NA","59","59","59","59","59","60","/","Thu Apr 11 16:07:12 2024","The main experiment item","yes","m21-ab-lexicalDecision.osexp","C:\Users\ekealey\Desktop","no","mono","no","18","no","white","no","yes","1080","legacy","59","59","C:/Users/ekealey/Desktop/subject-243.csv","xpyriment","Lentiform Loewenfeld","3.3.11","0","/","NA","NA","NA","NA","space","/","571","NA","NA","NA","NA","68004","571","2","legacy","1024","2","48000","-16","AB_m21","243","odd","FILL_W","WEIRD","1888","328042","324799","326539","69906","NA","NA","NA","NA","NA","325300","NA","NA","NA","324297","NA","324272","1900","328392","NA","NA","NA","325340","1888","1888","NA","325912","325935","324272","325300","325320","morph21_Oliver/Morris","51","45363","60","yes","1920","2"
"250","85.24590163934427","85.24590163934427","758.672131147541","758.672131147541","black","no","xpyriment","legacy","legacy","0","203","NA","uniform","NA","NA","NA","1","undefined","1","0","60","60","60","0","60","60","60","NA","0","60","NA","NA","0","60","NA","60","0","60","NA","NA","NA","60","0","0","NA","60","60","60","60","60","61","z","Thu Apr 11 16:07:12 2024","The main experiment item","yes","m21-ab-lexicalDecision.osexp","C:\Users\ekealey\Desktop","no","mono","no","18","no","white","no","yes","1080","legacy","60","60","C:/Users/ekealey/Desktop/subject-243.csv","xpyriment","Lentiform Loewenfeld","3.3.11","0","z","NA","NA","NA","NA","space","z","916","NA","NA","NA","NA","68004","916","2","legacy","1024","2","48000","-16","AB_m21","243","odd","NW_S_COMP","TREASONIZE","1888","332051","329964","326539","69906","NA","NA","NA","NA","NA","330466","NA","NA","NA","329462","NA","329429","1900","332301","NA","NA","NA","330507","1888","1888","NA","331424","331448","329429","330466","330487","morph21_Oliver/Morris","52","46279","61","yes","1920","14"
"300","85.48387096774194","85.48387096774194","763.1129032258065","763.1129032258065","black","no","xpyriment","legacy","legacy","0","204","NA","uniform","NA","NA","NA","1","undefined","1","0","61","61","61","0","61","61","61","NA","0","61","NA","NA","0","61","NA","61","0","61","NA","NA","NA","61","0","0","NA","61","61","61","61","61","62","z","Thu Apr 11 16:07:12 2024","The main experiment item","yes","m21-ab-lexicalDecision.osexp","C:\Users\ekealey\Desktop","no","mono","no","18","no","white","no","yes","1080","legacy","61","61","C:/Users/ekealey/Desktop/subject-243.csv","xpyriment","Lentiform Loewenfeld","3.3.11","0","z","NA","NA","NA","NA","space","z","1034","NA","NA","NA","NA","68004","1034","2","legacy","1024","2","48000","-16","AB_m21","243","odd","NW_L_COMP","ADDMENT","1888","336069","333863","326539","69906","NA","NA","NA","NA","NA","334365","NA","NA","NA","333361","NA","333335","1900","336369","NA","NA","NA","334406","1888","1888","NA","335440","335466","333335","334365","334386","morph21_Oliver/Morris","53","47313","62","yes","1920","13"
"400","85.71428571428571","85.71428571428571","765.1587301587301","765.1587301587301","black","no","xpyriment","legacy","legacy","0","205","NA","uniform","NA","NA","NA","1","undefined","1","0","62","62","62","0","62","62","62","NA","0","62","NA","NA","0","62","NA","62","0","62","NA","NA","NA","62","0","0","NA","62","62","62","62","62","63","z","Thu Apr 11 16:07:12 2024","The main experiment item","yes","m21-ab-lexicalDecision.osexp","C:\Users\ekealey\Desktop","no","mono","no","18","no","white","no","yes","1080","legacy","62","62","C:/Users/ekealey/Desktop/subject-243.csv","xpyriment","Lentiform Loewenfeld","3.3.11","0","z","NA","NA","NA","NA","space","z","892","NA","NA","NA","NA","68004","892","2","legacy","1024","2","48000","-16","AB_m21","243","odd","NW_S_SIMP","SCHEMENELS","1888","341483","337918","339978","69906","NA","NA","NA","NA","NA","338418","NA","NA","NA","337417","NA","337387","1900","341883","NA","NA","NA","338459","1888","1888","NA","339352","339375","337387","338418","338439","morph21_Oliver/Morris","54","48205","63","yes","1920","15"
"250","85.9375","85.9375","763.15625","763.15625","black","no","xpyriment","legacy","legacy","0","202","NA","uniform","NA","NA","NA","1","undefined","1","0","63","63","63","0","63","63","63","NA","0","63","NA","NA","0","63","NA","63","0","63","NA","NA","NA","63","0","0","NA","63","63","63","63","63","64","/","Thu Apr 11 16:07:12 2024","The main experiment item","yes","m21-ab-lexicalDecision.osexp","C:\Users\ekealey\Desktop","no","mono","no","18","no","white","no","yes","1080","legacy","63","63","C:/Users/ekealey/Desktop/subject-243.csv","xpyriment","Lentiform Loewenfeld","3.3.11","0","/","NA","NA","NA","NA","space","/","637","NA","NA","NA","NA","68004","637","2","legacy","1024","2","48000","-16","AB_m21","243","odd","CW_L","CREAMY","1888","345270","343461","339978","69906","NA","NA","NA","NA","NA","343963","NA","NA","NA","342960","NA","342934","1900","345520","NA","NA","NA","344003","1888","1888","NA","344640","344666","342934","343963","343983","morph21_Oliver/Morris","55","48842","64","yes","1920","49"
"400","86.15384615384616","86.15384615384616","764.4","764.4","black","no","xpyriment","legacy","legacy","0","208","NA","uniform","NA","NA","NA","1","undefined","1","0","64","64","64","0","64","64","64","NA","0","64","NA","NA","0","64","NA","64","0","64","NA","NA","NA","64","0","0","NA","64","64","64","64","64","65","z","Thu Apr 11 16:07:12 2024","The main experiment item","yes","m21-ab-lexicalDecision.osexp","C:\Users\ekealey\Desktop","no","mono","no","18","no","white","no","yes","1080","legacy","64","64","C:/Users/ekealey/Desktop/subject-243.csv","xpyriment","Lentiform Loewenfeld","3.3.11","0","z","NA","NA","NA","NA","space","z","844","NA","NA","NA","NA","68004","844","2","legacy","1024","2","48000","-16","AB_m21","243","odd","FILL_NW","DROES","1888","349102","347086","339978","69906","NA","NA","NA","NA","NA","347587","NA","NA","NA","346586","NA","346556","1900","349502","NA","NA","NA","347627","1888","1888","NA","348472","348498","346555","347587","347607","morph21_Oliver/Morris","56","49686","65","yes","1920","17"
"350","86.36363636363636","86.36363636363636","763.560606060606","763.560606060606","black","no","xpyriment","legacy","legacy","0","208","NA","uniform","NA","NA","NA","1","undefined","1","0","65","65","65","0","65","65","65","NA","0","65","NA","NA","0","65","NA","65","0","65","NA","NA","NA","65","0","0","NA","65","65","65","65","65","66","z","Thu Apr 11 16:07:12 2024","The main experiment item","yes","m21-ab-lexicalDecision.osexp","C:\Users\ekealey\Desktop","no","mono","no","18","no","white","no","yes","1080","legacy","65","65","C:/Users/ekealey/Desktop/subject-243.csv","xpyriment","Lentiform Loewenfeld","3.3.11","0","z","NA","NA","NA","NA","space","z","709","NA","NA","NA","NA","68004","709","2","legacy","1024","2","48000","-16","AB_m21","243","odd","FILL_NW","DOADS","1888","354438","351054","352935","69906","NA","NA","NA","NA","NA","351554","NA","NA","NA","350554","NA","350524","1900","354788","NA","NA","NA","351595","1888","1888","NA","352304","352330","350523","351554","351575","morph21_Oliver/Morris","57","50395","66","yes","1920","15"
"350","86.56716417910448","86.56716417910448","763.9253731343283","763.9253731343283","black","no","xpyriment","legacy","legacy","0","202","NA","uniform","NA","NA","NA","1","undefined","1","0","66","66","66","0","66","66","66","NA","0","66","NA","NA","0","66","NA","66","0","66","NA","NA","NA","66","0","0","NA","66","66","66","66","66","67","/","Thu Apr 11 16:07:12 2024","The main experiment item","yes","m21-ab-lexicalDecision.osexp","C:\Users\ekealey\Desktop","no","mono","no","18","no","white","no","yes","1080","legacy","66","66","C:/Users/ekealey/Desktop/subject-243.csv","xpyriment","Lentiform Loewenfeld","3.3.11","0","/","NA","NA","NA","NA","space","/","788","NA","NA","NA","NA","68004","788","2","legacy","1024","2","48000","-16","AB_m21","243","odd","CW_L","FEEDER","1888","358316","356357","352935","69906","NA","NA","NA","NA","NA","356858","NA","NA","NA","355856","NA","355827","1900","358666","NA","NA","NA","356899","1888","1888","NA","357688","357713","355827","356858","356879","morph21_Oliver/Morris","58","51183","67","yes","1920","14"
"400","85.29411764705883","85.29411764705883","762.6176470588235","762.6176470588235","black","no","xpyriment","legacy","legacy","0","203","NA","uniform","NA","NA","NA","0","undefined","0","0","67","67","67","0","67","67","67","NA","0","67","NA","NA","0","67","NA","67","0","67","NA","NA","NA","67","0","0","NA","67","67","67","67","67","68","z","Thu Apr 11 16:07:12 2024","The main experiment item","yes","m21-ab-lexicalDecision.osexp","C:\Users\ekealey\Desktop","no","mono","no","18","no","white","no","yes","1080","legacy","67","67","C:/Users/ekealey/Desktop/subject-243.csv","xpyriment","Lentiform Loewenfeld","3.3.11","0","/","NA","NA","NA","NA","space","/","675","NA","NA","NA","NA","68004","675","2","legacy","1024","2","48000","-16","AB_m21","243","odd","NW_S_COMP","TRUENESS","1888","362076","360231","352935","69906","NA","NA","NA","NA","NA","360732","NA","NA","NA","359730","NA","359704","1900","362476","NA","NA","NA","360772","1888","1888","NA","361448","361472","359704","360732","360752","morph21_Oliver/Morris","58","51858","68","yes","1920","15"
"350","85.5072463768116","85.5072463768116","764.1884057971015","764.1884057971015","black","no","xpyriment","legacy","legacy","0","203","NA","uniform","NA","NA","NA","1","undefined","1","0","68","68","68","0","68","68","68","NA","0","68","NA","NA","0","68","NA","68","0","68","NA","NA","NA","68","0","0","NA","68","68","68","68","68","69","z","Thu Apr 11 16:07:12 2024","The main experiment item","yes","m21-ab-lexicalDecision.osexp","C:\Users\ekealey\Desktop","no","mono","no","18","no","white","no","yes","1080","legacy","68","68","C:/Users/ekealey/Desktop/subject-243.csv","xpyriment","Lentiform Loewenfeld","3.3.11","0","z","NA","NA","NA","NA","space","z","871","NA","NA","NA","NA","68004","871","2","legacy","1024","2","48000","-16","AB_m21","243","odd","NW_S_COMP","DEBTISH","1888","367581","364032","366076","69906","NA","NA","NA","NA","NA","364535","NA","NA","NA","363531","NA","363504","1900","367931","NA","NA","NA","364576","1888","1888","NA","365448","365473","363504","364535","364556","morph21_Oliver/Morris","59","52729","69","yes","1920","22"
"250","85.71428571428571","85.71428571428571","766.2285714285714","766.2285714285714","black","no","xpyriment","legacy","legacy","0","202","NA","uniform","NA","NA","NA","1","undefined","1","0","69","69","69","0","69","69","69","NA","0","69","NA","NA","0","69","NA","69","0","69","NA","NA","NA","69","0","0","NA","69","69","69","69","69","70","/","Thu Apr 11 16:07:12 2024","The main experiment item","yes","m21-ab-lexicalDecision.osexp","C:\Users\ekealey\Desktop","no","mono","no","18","no","white","no","yes","1080","legacy","69","69","C:/Users/ekealey/Desktop/subject-243.csv","xpyriment","Lentiform Loewenfeld","3.3.11","0","/","NA","NA","NA","NA","space","/","907","NA","NA","NA","NA","68004","907","2","legacy","1024","2","48000","-16","AB_m21","243","odd","CW_L","EXCITEMENT","1888","371571","369494","366076","69906","NA","NA","NA","NA","NA","369996","NA","NA","NA","368992","NA","368960","1900","371821","NA","NA","NA","370036","1888","1888","NA","370944","370968","368960","369996","370016","morph21_Oliver/Morris","60","53636","70","yes","1920","38"
"300","85.91549295774648","85.91549295774648","767.7887323943662","767.7887323943662","black","no","xpyriment","legacy","legacy","0","206","NA","uniform","NA","NA","NA","1","undefined","1","0","70","70","70","0","70","70","70","NA","0","70","NA","NA","0","70","NA","70","0","70","NA","NA","NA","70","0","0","NA","70","70","70","70","70","71","z","Thu Apr 11 16:07:12 2024","The main experiment item","yes","m21-ab-lexicalDecision.osexp","C:\Users\ekealey\Desktop","no","mono","no","18","no","white","no","yes","1080","legacy","70","70","C:/Users/ekealey/Desktop/subject-243.csv","xpyriment","Lentiform Loewenfeld","3.3.11","0","z","NA","NA","NA","NA","space","z","877","NA","NA","NA","NA","68004","877","2","legacy","1024","2","48000","-16","AB_m21","243","odd","NW_L_SIMP","BEANITH","1888","375437","373389","366076","69906","NA","NA","NA","NA","NA","373889","NA","NA","NA","372888","NA","372862","1900","375737","NA","NA","NA","373930","1888","1888","NA","374808","374834","372862","373889","373910","morph21_Oliver/Morris","61","54513","71","yes","1920","8"
"350","86.11111111111111","86.11111111111111","767.0972222222222","767.0972222222222","black","no","xpyriment","legacy","legacy","0","201","NA","uniform","NA","NA","NA","1","undefined","1","0","71","71","71","0","71","71","71","NA","0","71","NA","NA","0","71","NA","71","0","71","NA","NA","NA","71","0","0","NA","71","71","71","71","71","72","/","Thu Apr 11 16:07:12 2024","The main experiment item","yes","m21-ab-lexicalDecision.osexp","C:\Users\ekealey\Desktop","no","mono","no","18","no","white","no","yes","1080","legacy","71","71","C:/Users/ekealey/Desktop/subject-243.csv","xpyriment","Lentiform Loewenfeld","3.3.11","0","/","NA","NA","NA","NA","space","/","718","NA","NA","NA","NA","68004","718","2","legacy","1024","2","48000","-16","AB_m21","243","odd","CW_S","DULLNESS","1888","380707","377317","379204","69906","NA","NA","NA","NA","NA","377817","NA","NA","NA","376817","NA","376788","1900","381057","NA","NA","NA","377857","1888","1888","NA","378576","378600","376788","377817","377837","morph21_Oliver/Morris","62","55231","72","yes","1920","43"
"200","86.3013698630137","86.3013698630137","767.6986301369863","767.6986301369863","black","no","xpyriment","legacy","legacy","0","203","NA","uniform","NA","NA","NA","1","undefined","1","0","72","72","72","0","72","72","72","NA","0","72","NA","NA","0","72","NA","72","0","72","NA","NA","NA","72","0","0","NA","72","72","72","72","72","73","z","Thu Apr 11 16:07:12 2024","The main experiment item","yes","m21-ab-lexicalDecision.osexp","C:\Users\ekealey\Desktop","no","mono","no","18","no","white","no","yes","1080","legacy","72","72","C:/Users/ekealey/Desktop/subject-243.csv","xpyriment","Lentiform Loewenfeld","3.3.11","0","z","NA","NA","NA","NA","space","z","811","NA","NA","NA","NA","68004","811","2","legacy","1024","2","48000","-16","AB_m21","243","odd","NW_S_COMP","ELMIST","1888","384621","382639","379204","69906","NA","NA","NA","NA","NA","383139","NA","NA","NA","382137","NA","382102","1900","384821","NA","NA","NA","383180","1888","1888","NA","383992","384017","382102","383139","383160","morph21_Oliver/Morris","63","56042","73","yes","1920","10"
"200","85.13513513513513","85.13513513513513","773.5405405405405","773.5405405405405","black","no","xpyriment","legacy","legacy","0","203","NA","uniform","NA","NA","NA","0","undefined","0","0","73","73","73","0","73","73","73","NA","0","73","NA","NA","0","73","NA","73","0","73","NA","NA","NA","73","0","0","NA","73","73","73","73","73","74","z","Thu Apr 11 16:07:12 2024","The main experiment item","yes","m21-ab-lexicalDecision.osexp","C:\Users\ekealey\Desktop","no","mono","no","18","no","white","no","yes","1080","legacy","73","73","C:/Users/ekealey/Desktop/subject-243.csv","xpyriment","Lentiform Loewenfeld","3.3.11","0","None","NA","NA","NA","NA","space","None","1200","NA","NA","NA","NA","68004","1200","2","legacy","1024","2","48000","-16","AB_m21","243","odd","NW_S_COMP","MELTANCE","1888","388750","386381","379204","69906","NA","NA","NA","NA","NA","386881","NA","NA","NA","385880","NA","385852","1900","388950","NA","NA","NA","386922","1888","1888","NA","388122","388146","385852","386881","386902","morph21_Oliver/Morris","63","57242","74","yes","1920","1"
"200","85.33333333333333","85.33333333333333","769.8266666666667","769.8266666666667","black","no","xpyriment","legacy","legacy","0","207","NA","uniform","NA","NA","NA","undefined","undefined","1","0","74","74","74","0","74","74","74","NA","0","74","NA","NA","0","74","NA","74","0","74","NA","NA","NA","74","0","0","NA","74","74","74","74","74","75","/","Thu Apr 11 16:07:12 2024","The main experiment item","yes","m21-ab-lexicalDecision.osexp","C:\Users\ekealey\Desktop","no","mono","no","18","no","white","no","yes","1080","legacy","74","74","C:/Users/ekealey/Desktop/subject-243.csv","xpyriment","Lentiform Loewenfeld","3.3.11","0","space","space","NA","NA","NA","space","/","25106","25106","NA","NA","NA","68004","495","2","legacy","1024","2","48000","-16","AB_m21","243","odd","FILL_W","FLOAT","1888","393674","390508","392171","69906","393877","NA","NA","NA","NA","391008","NA","NA","NA","390008","NA","389981","1900","418984","NA","NA","NA","391048","1888","1888","NA","391544","391567","389981","391008","391028","morph21_Oliver/Morris","64","57737","75","yes","1920","30"
"300","85.52631578947368","85.52631578947368","773.5263157894736","773.5263157894736","black","no","xpyriment","legacy","legacy","0","208","NA","uniform","NA","NA","NA","1","undefined","1","0","75","75","75","0","75","75","75","NA","0","75","NA","NA","0","75","NA","75","0","75","NA","NA","NA","75","0","0","NA","75","75","75","75","75","76","z","Thu Apr 11 16:07:12 2024","The main experiment item","yes","m21-ab-lexicalDecision.osexp","C:\Users\ekealey\Desktop","no","mono","no","18","no","white","no","yes","1080","legacy","75","75","C:/Users/ekealey/Desktop/subject-243.csv","xpyriment","Lentiform Loewenfeld","3.3.11","0","z","space","NA","NA","NA","space","z","1051","25106","NA","NA","NA","68004","1051","2","legacy","1024","2","48000","-16","AB_m21","243","odd","FILL_NW","VOOFS","1888","422766","420542","392171","69906","393877","NA","NA","NA","NA","421043","NA","NA","NA","420042","NA","420008","1900","423067","NA","NA","NA","421084","1888","1888","NA","422136","422161","420008","421043","421064","morph21_Oliver/Morris","65","58788","76","yes","1920","48"
"300","84.41558441558442","84.41558441558442","776.2077922077922","776.2077922077922","black","no","xpyriment","legacy","legacy","0","204","NA","uniform","NA","NA","NA","0","undefined","0","0","76","76","76","0","76","76","76","NA","0","76","NA","NA","0","76","NA","76","0","76","NA","NA","NA","76","0","0","NA","76","76","76","76","76","77","z","Thu Apr 11 16:07:12 2024","The main experiment item","yes","m21-ab-lexicalDecision.osexp","C:\Users\ekealey\Desktop","no","mono","no","18","no","white","no","yes","1080","legacy","76","76","C:/Users/ekealey/Desktop/subject-243.csv","xpyriment","Lentiform Loewenfeld","3.3.11","0","/","space","NA","NA","NA","space","/","980","25106","NA","NA","NA","68004","980","2","legacy","1024","2","48000","-16","AB_m21","243","odd","NW_L_COMP","KINGISM","1888","426773","424623","392171","69906","393877","NA","NA","NA","NA","425124","NA","NA","NA","424122","NA","424095","1900","427073","NA","NA","NA","425164","1888","1888","NA","426144","426169","424095","425124","425144","morph21_Oliver/Morris","65","59768","77","yes","1920","19"
"400","84.61538461538461","84.61538461538461","773.6410256410256","773.6410256410256","black","no","xpyriment","legacy","legacy","0","207","NA","uniform","NA","NA","NA","1","undefined","1","0","77","77","77","0","77","77","77","NA","0","77","NA","NA","0","77","NA","77","0","77","NA","NA","NA","77","0","0","NA","77","77","77","77","77","78","/","Thu Apr 11 16:07:12 2024","The main experiment item","yes","m21-ab-lexicalDecision.osexp","C:\Users\ekealey\Desktop","no","mono","no","18","no","white","no","yes","1080","legacy","77","77","C:/Users/ekealey/Desktop/subject-243.csv","xpyriment","Lentiform Loewenfeld","3.3.11","0","/","space","NA","NA","NA","space","/","576","25106","NA","NA","NA","68004","576","2","legacy","1024","2","48000","-16","AB_m21","243","odd","FILL_W","EAT","1888","431876","428625","430372","69906","393877","NA","NA","NA","NA","429127","NA","NA","NA","428124","NA","428099","1900","432276","NA","NA","NA","429167","1888","1888","NA","429743","429769","428099","429127","429147","morph21_Oliver/Morris","66","60344","78","yes","1920","25"
"200","83.54430379746836","83.54430379746836","773.5443037974684","773.5443037974684","black","no","xpyriment","legacy","legacy","0","204","NA","uniform","NA","NA","NA","0","undefined","0","0","78","78","78","0","78","78","78","NA","0","78","NA","NA","0","78","NA","78","0","78","NA","NA","NA","78","0","0","NA","78","78","78","78","78","79","z","Thu Apr 11 16:07:12 2024","The main experiment item","yes","m21-ab-lexicalDecision.osexp","C:\Users\ekealey\Desktop","no","mono","no","18","no","white","no","yes","1080","legacy","78","78","C:/Users/ekealey/Desktop/subject-243.csv","xpyriment","Lentiform Loewenfeld","3.3.11","0","/","space","NA","NA","NA","space","/","766","25106","NA","NA","NA","68004","766","2","legacy","1024","2","48000","-16","AB_m21","243","odd","NW_L_COMP","GASFUL","1888","435828","433892","430372","69906","393877","NA","NA","NA","NA","434392","NA","NA","NA","433392","NA","433367","1900","436028","NA","NA","NA","434433","1888","1888","NA","435200","435224","433367","434392","434413","morph21_Oliver/Morris","66","61110","79","yes","1920","6"
"200","83.75","83.75","772.1875","772.1875","black","no","xpyriment","legacy","legacy","0","202","NA","uniform","NA","NA","NA","1","undefined","1","0","79","79","79","0","79","79","79","NA","0","79","NA","NA","0","79","NA","79","0","79","NA","NA","NA","79","0","0","NA","79","79","79","79","79","80","/","Thu Apr 11 16:07:12 2024","The main experiment item","yes","m21-ab-lexicalDecision.osexp","C:\Users\ekealey\Desktop","no","mono","no","18","no","white","no","yes","1080","legacy","79","79","C:/Users/ekealey/Desktop/subject-243.csv","xpyriment","Lentiform Loewenfeld","3.3.11","0","/","space","NA","NA","NA","space","/","665","25106","NA","NA","NA","68004","665","2","legacy","1024","2","48000","-16","AB_m21","243","odd","CW_L","SHAMEFUL","1888","439419","437584","430372","69906","393877","NA","NA","NA","NA","438085","NA","NA","NA","437084","NA","437053","1900","439619","NA","NA","NA","438126","1888","1888","NA","438792","438815","437053","438085","438106","morph21_Oliver/Morris","67","61775","80","yes","1920","19"
"200","83.95061728395062","83.95061728395062","770.8518518518518","770.8518518518518","black","no","xpyriment","legacy","legacy","0","204","NA","uniform","NA","NA","NA","1","undefined","1","0","80","80","80","0","80","80","80","NA","0","80","NA","NA","0","80","NA","80","0","80","NA","NA","NA","80","0","0","NA","80","80","80","80","80","81","z","Thu Apr 11 16:07:12 2024","The main experiment item","yes","m21-ab-lexicalDecision.osexp","C:\Users\ekealey\Desktop","no","mono","no","18","no","white","no","yes","1080","legacy","80","80","C:/Users/ekealey/Desktop/subject-243.csv","xpyriment","Lentiform Loewenfeld","3.3.11","0","z","space","NA","NA","NA","space","z","664","25106","NA","NA","NA","68004","664","2","legacy","1024","2","48000","-16","AB_m21","243","odd","NW_L_COMP","FLIPORY","1888","444514","441179","443011","69906","393877","NA","NA","NA","NA","441679","NA","NA","NA","440678","NA","440651","1900","444714","NA","NA","NA","441719","1888","1888","NA","442384","442407","440651","441679","441699","morph21_Oliver/Morris","68","62439","81","yes","1920","16"
"400","82.92682926829268","82.92682926829268","768.9024390243902","768.9024390243902","black","no","xpyriment","legacy","legacy","0","208","NA","uniform","NA","NA","NA","0","undefined","0","0","81","81","81","0","81","81","81","NA","0","81","NA","NA","0","81","NA","81","0","81","NA","NA","NA","81","0","0","NA","81","81","81","81","81","82","z","Thu Apr 11 16:07:12 2024","The main experiment item","yes","m21-ab-lexicalDecision.osexp","C:\Users\ekealey\Desktop","no","mono","no","18","no","white","no","yes","1080","legacy","81","81","C:/Users/ekealey/Desktop/subject-243.csv","xpyriment","Lentiform Loewenfeld","3.3.11","0","/","space","NA","NA","NA","space","/","611","25106","NA","NA","NA","68004","611","2","legacy","1024","2","48000","-16","AB_m21","243","odd","FILL_NW","VELT","1888","448067","446287","443011","69906","393877","NA","NA","NA","NA","446787","NA","NA","NA","445785","NA","445750","1900","448467","NA","NA","NA","446828","1888","1888","NA","447440","447464","445750","446787","446808","morph21_Oliver/Morris","68","63050","82","yes","1920","46"
"300","81.92771084337349","81.92771084337349","768.9518072289156","768.9518072289156","black","no","xpyriment","legacy","legacy","0","208","NA","uniform","NA","NA","NA","0","undefined","0","0","82","82","82","0","82","82","82","NA","0","82","NA","NA","0","82","NA","82","0","82","NA","NA","NA","82","0","0","NA","82","82","82","82","82","83","z","Thu Apr 11 16:07:12 2024","The main experiment item","yes","m21-ab-lexicalDecision.osexp","C:\Users\ekealey\Desktop","no","mono","no","18","no","white","no","yes","1080","legacy","82","82","C:/Users/ekealey/Desktop/subject-243.csv","xpyriment","Lentiform Loewenfeld","3.3.11","0","/","space","NA","NA","NA","space","/","773","25106","NA","NA","NA","68004","773","2","legacy","1024","2","48000","-16","AB_m21","243","odd","FILL_NW","TREMP","1888","451963","450021","443011","69906","393877","NA","NA","NA","NA","450521","NA","NA","NA","449521","NA","449497","1900","452263","NA","NA","NA","450562","1888","1888","NA","451336","451359","449497","450521","450542","morph21_Oliver/Morris","68","63823","83","yes","1920","20"
"200","82.14285714285714","82.14285714285714","768.547619047619","768.547619047619","black","no","xpyriment","legacy","legacy","0","208","NA","uniform","NA","NA","NA","1","undefined","1","0","83","83","83","0","83","83","83","NA","0","83","NA","NA","0","83","NA","83","0","83","NA","NA","NA","83","0","0","NA","83","83","83","83","83","84","z","Thu Apr 11 16:07:12 2024","The main experiment item","yes","m21-ab-lexicalDecision.osexp","C:\Users\ekealey\Desktop","no","mono","no","18","no","white","no","yes","1080","legacy","83","83","C:/Users/ekealey/Desktop/subject-243.csv","xpyriment","Lentiform Loewenfeld","3.3.11","0","z","space","NA","NA","NA","space","z","735","25106","NA","NA","NA","68004","735","2","legacy","1024","2","48000","-16","AB_m21","243","odd","FILL_NW","GAIRS","1888","457218","453811","455715","69906","393877","NA","NA","NA","NA","454311","NA","NA","NA","453310","NA","453283","1900","457418","NA","NA","NA","454352","1888","1888","NA","455088","455112","453283","454311","454332","morph21_Oliver/Morris","69","64558","84","yes","1920","23"
"400","82.3529411764706","82.3529411764706","770.7411764705882","770.7411764705882","black","no","xpyriment","legacy","legacy","0","204","NA","uniform","NA","NA","NA","1","undefined","1","0","84","84","84","0","84","84","84","NA","0","84","NA","NA","0","84","NA","84","0","84","NA","NA","NA","84","0","0","NA","84","84","84","84","84","85","z","Thu Apr 11 16:07:12 2024","The main experiment item","yes","m21-ab-lexicalDecision.osexp","C:\Users\ekealey\Desktop","no","mono","no","18","no","white","no","yes","1080","legacy","84","84","C:/Users/ekealey/Desktop/subject-243.csv","xpyriment","Lentiform Loewenfeld","3.3.11","0","z","space","NA","NA","NA","space","z","955","25106","NA","NA","NA","68004","955","2","legacy","1024","2","48000","-16","AB_m21","243","odd","NW_L_COMP","FLITENCE","1888","461092","458966","455715","69906","393877","NA","NA","NA","NA","459468","NA","NA","NA","458464","NA","458435","1900","461492","NA","NA","NA","459508","1888","1888","NA","460464","460487","458435","459467","459488","morph21_Oliver/Morris","70","65513","85","yes","1920","3"
"350","82.55813953488372","82.55813953488372","768.1511627906976","768.1511627906976","black","no","xpyriment","legacy","legacy","0","202","NA","uniform","NA","NA","NA","1","undefined","1","0","85","85","85","0","85","85","85","NA","0","85","NA","NA","0","85","NA","85","0","85","NA","NA","NA","85","0","0","NA","85","85","85","85","85","86","/","Thu Apr 11 16:07:12 2024","The main experiment item","yes","m21-ab-lexicalDecision.osexp","C:\Users\ekealey\Desktop","no","mono","no","18","no","white","no","yes","1080","legacy","85","85","C:/Users/ekealey/Desktop/subject-243.csv","xpyriment","Lentiform Loewenfeld","3.3.11","0","/","space","NA","NA","NA","space","/","548","25106","NA","NA","NA","68004","548","2","legacy","1024","2","48000","-16","AB_m21","243","odd","CW_L","BARKER","1888","464755","463035","455715","69906","393877","NA","NA","NA","NA","463537","NA","NA","NA","462535","NA","462508","1900","465106","NA","NA","NA","463579","1888","1888","NA","464128","464151","462508","463537","463558","morph21_Oliver/Morris","71","66061","86","yes","1920","2"
"250","82.75862068965517","82.75862068965517","765.0574712643678","765.0574712643678","black","no","xpyriment","legacy","legacy","0","207","NA","uniform","NA","NA","NA","1","undefined","1","0","86","86","86","0","86","86","86","NA","0","86","NA","NA","0","86","NA","86","0","86","NA","NA","NA","86","0","0","NA","86","86","86","86","86","87","/","Thu Apr 11 16:07:12 2024","The main experiment item","yes","m21-ab-lexicalDecision.osexp","C:\Users\ekealey\Desktop","no","mono","no","18","no","white","no","yes","1080","legacy","86","86","C:/Users/ekealey/Desktop/subject-243.csv","xpyriment","Lentiform Loewenfeld","3.3.11","0","/","space","NA","NA","NA","space","/","499","25106","NA","NA","NA","68004","499","2","legacy","1024","2","48000","-16","AB_m21","243","odd","FILL_W","COOK","1888","469828","466654","468324","69906","393877","NA","NA","NA","NA","467155","NA","NA","NA","466154","NA","466121","1900","470078","NA","NA","NA","467196","1888","1888","NA","467696","467720","466121","467155","467176","morph21_Oliver/Morris","72","66560","87","yes","1920","38"
"400","82.95454545454545","82.95454545454545","761.8977272727273","761.8977272727273","black","no","xpyriment","legacy","legacy","0","202","NA","uniform","NA","NA","NA","1","undefined","1","0","87","87","87","0","87","87","87","NA","0","87","NA","NA","0","87","NA","87","0","87","NA","NA","NA","87","0","0","NA","87","87","87","87","87","88","/","Thu Apr 11 16:07:12 2024","The main experiment item","yes","m21-ab-lexicalDecision.osexp","C:\Users\ekealey\Desktop","no","mono","no","18","no","white","no","yes","1080","legacy","87","87","C:/Users/ekealey/Desktop/subject-243.csv","xpyriment","Lentiform Loewenfeld","3.3.11","0","/","space","NA","NA","NA","space","/","487","25106","NA","NA","NA","68004","487","2","legacy","1024","2","48000","-16","AB_m21","243","odd","CW_L","CLEANER","1888","473291","471635","468324","69906","393877","NA","NA","NA","NA","472135","NA","NA","NA","471134","NA","471108","1900","473691","NA","NA","NA","472176","1888","1888","NA","472664","472688","471108","472135","472156","morph21_Oliver/Morris","73","67047","88","yes","1920","15"
"350","83.14606741573034","83.14606741573034","758.4044943820224","758.4044943820224","black","no","xpyriment","legacy","legacy","0","201","NA","uniform","NA","NA","NA","1","undefined","1","0","88","88","88","0","88","88","88","NA","0","88","NA","NA","0","88","NA","88","0","88","NA","NA","NA","88","0","0","NA","88","88","88","88","88","89","/","Thu Apr 11 16:07:12 2024","The main experiment item","yes","m21-ab-lexicalDecision.osexp","C:\Users\ekealey\Desktop","no","mono","no","18","no","white","no","yes","1080","legacy","88","88","C:/Users/ekealey/Desktop/subject-243.csv","xpyriment","Lentiform Loewenfeld","3.3.11","0","/","space","NA","NA","NA","space","/","451","25106","NA","NA","NA","68004","451","2","legacy","1024","2","48000","-16","AB_m21","243","odd","CW_S","TOASTER","1888","476869","475248","468324","69906","393877","NA","NA","NA","NA","475748","NA","NA","NA","474747","NA","474720","1900","477219","NA","NA","NA","475788","1888","1888","NA","476240","476264","474720","475748","475768","morph21_Oliver/Morris","74","67498","89","yes","1920","10"
"200","83.33333333333333","83.33333333333333","757.1444444444444","757.1444444444444","black","no","xpyriment","legacy","legacy","0","203","NA","uniform","NA","NA","NA","1","undefined","1","0","89","89","89","0","89","89","89","NA","0","89","NA","NA","0","89","NA","89","0","89","NA","NA","NA","89","0","0","NA","89","89","89","89","89","90","z","Thu Apr 11 16:07:12 2024","The main experiment item","yes","m21-ab-lexicalDecision.osexp","C:\Users\ekealey\Desktop","no","mono","no","18","no","white","no","yes","1080","legacy","89","89","C:/Users/ekealey/Desktop/subject-243.csv","xpyriment","Lentiform Loewenfeld","3.3.11","0","z","space","NA","NA","NA","space","z","645","25106","NA","NA","NA","68004","645","2","legacy","1024","2","48000","-16","AB_m21","243","odd","NW_S_COMP","YANKORY","1888","482082","478764","480578","69906","393877","NA","NA","NA","NA","479265","NA","NA","NA","478262","NA","478236","1900","482282","NA","NA","NA","479306","1888","1888","NA","479952","479975","478236","479265","479286","morph21_Oliver/Morris","75","68143","90","yes","1920","23"
"300","82.41758241758242","82.41758241758242","762.010989010989","762.010989010989","black","no","xpyriment","legacy","legacy","0","204","NA","uniform","NA","NA","NA","0","undefined","0","0","90","90","90","0","90","90","90","NA","0","90","NA","NA","0","90","NA","90","0","90","NA","NA","NA","90","0","0","NA","90","90","90","90","90","91","z","Thu Apr 11 16:07:12 2024","The main experiment item","yes","m21-ab-lexicalDecision.osexp","C:\Users\ekealey\Desktop","no","mono","no","18","no","white","no","yes","1080","legacy","90","90","C:/Users/ekealey/Desktop/subject-243.csv","xpyriment","Lentiform Loewenfeld","3.3.11","0","None","space","NA","NA","NA","space","None","1200","25106","NA","NA","NA","68004","1200","2","legacy","1024","2","48000","-16","AB_m21","243","odd","NW_L_COMP","FELLOWOUS","1888","486204","483834","480578","69906","393877","NA","NA","NA","NA","484336","NA","NA","NA","483334","NA","483303","1900","486504","NA","NA","NA","484376","1888","1888","NA","485576","485600","483303","484336","484356","morph21_Oliver/Morris","75","69343","91","yes","1920","17"
"250","82.6086956521739","82.6086956521739","759.054347826087","759.054347826087","black","no","xpyriment","legacy","legacy","0","207","NA","uniform","NA","NA","NA","1","undefined","1","0","91","91","91","0","91","91","91","NA","0","91","NA","NA","0","91","NA","91","0","91","NA","NA","NA","91","0","0","NA","91","91","91","91","91","92","/","Thu Apr 11 16:07:12 2024","The main experiment item","yes","m21-ab-lexicalDecision.osexp","C:\Users\ekealey\Desktop","no","mono","no","18","no","white","no","yes","1080","legacy","91","91","C:/Users/ekealey/Desktop/subject-243.csv","xpyriment","Lentiform Loewenfeld","3.3.11","0","/","space","NA","NA","NA","space","/","490","25106","NA","NA","NA","68004","490","2","legacy","1024","2","48000","-16","AB_m21","243","odd","FILL_W","SLIM","1888","489707","488048","480578","69906","393877","NA","NA","NA","NA","488548","NA","NA","NA","487548","NA","487521","1900","489957","NA","NA","NA","488588","1888","1888","NA","489079","489104","487521","488548","488568","morph21_Oliver/Morris","76","69833","92","yes","1920","6"
