"ITI","acc","accuracy","average_response_time","avg_rt","background","bidi","canvas_backend","clock_backend","color_backend","compensation","cond_trig","condtrigtime","coordinates","coroutines_cycles","coroutines_duration","coroutines_mean_cycle_duration","correct","correct_instructions_1","correct_new_keyboard_response_1","count_AB_m21","count_ITI","count_blank_screen","count_blink_screen","count_block1","count_break1","count_break2","count_break3_1","count_canvas","count_close_port","count_cond_trigger","count_correct_trigger","count_def_chain","count_end_screen","count_fixation_1","count_getting_started","count_inc_counter","count_instructions_1","count_logger","count_logscript","count_new_inline_script","count_new_inline_script_2","count_new_keyboard_response_1","count_open_port","count_reset_counter_prep","count_reset_counter_run","count_response_trigger_trial","count_responsescreen","count_sequence","count_target_present","count_word_trigger","counter","cresp","datetime","description","disable_garbage_collection","experiment_file","experiment_path","font_bold","font_family","font_italic","font_size","font_underline","foreground","form_clicks","fullscreen","height","keyboard_backend","live_row","live_row_block1","logfile","mouse_backend","opensesame_codename","opensesame_version","repeat_cycle","response","response_break1","response_break2","response_break3_1","response_end_screen","response_instructions_1","response_new_keyboard_response_1","response_time","response_time_break1","response_time_break2","response_time_break3_1","response_time_end_screen","response_time_instructions_1","response_time_new_keyboard_response_1","round_decimals","sampler_backend","sound_buf_size","sound_channels","sound_freq","sound_sample_size","start","subject_nr","subject_parity","targ_type","target","time_AB_m21","time_ITI","time_blank_screen","time_blink_screen","time_block1","time_break1","time_break2","time_break3_1","time_canvas","time_close_port","time_cond_trigger","time_correct_trigger","time_def_chain","time_end_screen","time_fixation_1","time_getting_started","time_inc_counter","time_instructions_1","time_logger","time_logscript","time_new_inline_script","time_new_inline_script_2","time_new_keyboard_response_1","time_open_port","time_reset_counter_prep","time_reset_counter_run","time_response_trigger_trial","time_responsescreen","time_sequence","time_target_present","time_word_trigger","title","total_correct","total_response_time","total_responses","uniform_coordinates","width","word_trig"
"350","0","0","1200","1200","black","no","xpyriment","legacy","legacy","0","202","NA","uniform","NA","NA","NA","0","undefined","0","0","0","0","0","0","0","0","0","NA","0","0","NA","NA","0","0","NA","0","0","0","NA","NA","NA","0","0","0","NA","0","0","0","0","0","1","/","Fri Oct 20 14:39:04 2023","The main experiment item","yes","m21-ab-lexicalDecision.osexp","C:\Users\ekealey\Desktop","no","mono","no","18","no","white","no","yes","1080","legacy","0","0","C:/Users/ekealey/Desktop/subject-225.csv","xpyriment","Lentiform Loewenfeld","3.3.11","0","None","NA","NA","NA","NA","space","None","1200","NA","NA","NA","NA","22393","1200","2","legacy","1024","2","48000","-16","AB_m21","225","odd","CW_L","GUARDING","1883","28596","26228","NA","24288","NA","NA","NA","NA","NA","26729","NA","NA","NA","25725","NA","25694","1894","28946","NA","NA","NA","26769","1883","1883","NA","27969","27993","25693","26729","26749","morph21_Oliver/Morris","0","1200","1","yes","1920","26"
"300","0","0","1200","1200","black","no","xpyriment","legacy","legacy","0","202","NA","uniform","NA","NA","NA","0","undefined","0","0","1","1","1","0","1","1","1","NA","0","1","NA","NA","0","1","NA","1","0","1","NA","NA","NA","1","0","0","NA","1","1","1","1","1","2","/","Fri Oct 20 14:39:04 2023","The main experiment item","yes","m21-ab-lexicalDecision.osexp","C:\Users\ekealey\Desktop","no","mono","no","18","no","white","no","yes","1080","legacy","1","1","C:/Users/ekealey/Desktop/subject-225.csv","xpyriment","Lentiform Loewenfeld","3.3.11","0","None","NA","NA","NA","NA","space","None","1200","NA","NA","NA","NA","22393","1200","2","legacy","1024","2","48000","-16","AB_m21","225","odd","CW_L","DOUBTFUL","1883","32906","30536","NA","24288","NA","NA","NA","NA","NA","31037","NA","NA","NA","30034","NA","30005","1894","33206","NA","NA","NA","31077","1883","1883","NA","32277","32303","30005","31037","31057","morph21_Oliver/Morris","0","2400","2","yes","1920","21"
"200","0","0","1200","1200","black","no","xpyriment","legacy","legacy","0","205","NA","uniform","NA","NA","NA","0","undefined","0","0","2","2","2","0","2","2","2","NA","0","2","NA","NA","0","2","NA","2","0","2","NA","NA","NA","2","0","0","NA","2","2","2","2","2","3","z","Fri Oct 20 14:39:04 2023","The main experiment item","yes","m21-ab-lexicalDecision.osexp","C:\Users\ekealey\Desktop","no","mono","no","18","no","white","no","yes","1080","legacy","2","2","C:/Users/ekealey/Desktop/subject-225.csv","xpyriment","Lentiform Loewenfeld","3.3.11","0","None","NA","NA","NA","NA","space","None","1200","NA","NA","NA","NA","22393","1200","2","legacy","1024","2","48000","-16","AB_m21","225","odd","NW_S_SIMP","NULLITH","1883","38662","34789","37156","24288","NA","NA","NA","NA","NA","35290","NA","NA","NA","34289","NA","34262","1894","38863","NA","NA","NA","35330","1883","1883","NA","36530","36553","34262","35290","35310","morph21_Oliver/Morris","0","3600","3","yes","1920","23"
"250","0","0","1200","1200","black","no","xpyriment","legacy","legacy","0","207","NA","uniform","NA","NA","NA","0","undefined","0","0","3","3","3","0","3","3","3","NA","0","3","NA","NA","0","3","NA","3","0","3","NA","NA","NA","3","0","0","NA","3","3","3","3","3","4","/","Fri Oct 20 14:39:04 2023","The main experiment item","yes","m21-ab-lexicalDecision.osexp","C:\Users\ekealey\Desktop","no","mono","no","18","no","white","no","yes","1080","legacy","3","3","C:/Users/ekealey/Desktop/subject-225.csv","xpyriment","Lentiform Loewenfeld","3.3.11","0","None","NA","NA","NA","NA","space","None","1200","NA","NA","NA","NA","22393","1200","2","legacy","1024","2","48000","-16","AB_m21","225","odd","FILL_W","PREACH","1883","42842","40475","37156","24288","NA","NA","NA","NA","NA","40975","NA","NA","NA","39974","NA","39947","1894","43093","NA","NA","NA","41016","1883","1883","NA","42216","42239","39947","40975","40996","morph21_Oliver/Morris","0","4800","4","yes","1920","7"
"250","0","0","1200","1200","black","no","xpyriment","legacy","legacy","0","202","NA","uniform","NA","NA","NA","0","undefined","0","0","4","4","4","0","4","4","4","NA","0","4","NA","NA","0","4","NA","4","0","4","NA","NA","NA","4","0","0","NA","4","4","4","4","4","5","/","Fri Oct 20 14:39:04 2023","The main experiment item","yes","m21-ab-lexicalDecision.osexp","C:\Users\ekealey\Desktop","no","mono","no","18","no","white","no","yes","1080","legacy","4","4","C:/Users/ekealey/Desktop/subject-225.csv","xpyriment","Lentiform Loewenfeld","3.3.11","0","None","NA","NA","NA","NA","space","None","1200","NA","NA","NA","NA","22393","1200","2","legacy","1024","2","48000","-16","AB_m21","225","odd","CW_L","PUSHER","1883","47016","44647","37156","24288","NA","NA","NA","NA","NA","45147","NA","NA","NA","44147","NA","44118","1894","47266","NA","NA","NA","45189","1883","1883","NA","46389","46413","44118","45147","45169","morph21_Oliver/Morris","0","6000","5","yes","1920","13"
"350","16.666666666666668","16.666666666666668","1145.3333333333333","1145.3333333333333","black","no","xpyriment","legacy","legacy","0","202","NA","uniform","NA","NA","NA","1","undefined","1","0","5","5","5","0","5","5","5","NA","0","5","NA","NA","0","5","NA","5","0","5","NA","NA","NA","5","0","0","NA","5","5","5","5","5","6","/","Fri Oct 20 14:39:04 2023","The main experiment item","yes","m21-ab-lexicalDecision.osexp","C:\Users\ekealey\Desktop","no","mono","no","18","no","white","no","yes","1080","legacy","5","5","C:/Users/ekealey/Desktop/subject-225.csv","xpyriment","Lentiform Loewenfeld","3.3.11","0","/","NA","NA","NA","NA","space","/","872","NA","NA","NA","NA","22393","872","2","legacy","1024","2","48000","-16","AB_m21","225","odd","CW_L","BARKER","1883","52356","48810","50850","24288","NA","NA","NA","NA","NA","49311","NA","NA","NA","48310","NA","48280","1894","52706","NA","NA","NA","49351","1883","1883","NA","50223","50247","48280","49311","49331","morph21_Oliver/Morris","1","6872","6","yes","1920","2"
"300","14.285714285714286","14.285714285714286","1114.5714285714287","1114.5714285714287","black","no","xpyriment","legacy","legacy","0","206","NA","uniform","NA","NA","NA","0","undefined","0","0","6","6","6","0","6","6","6","NA","0","6","NA","NA","0","6","NA","6","0","6","NA","NA","NA","6","0","0","NA","6","6","6","6","6","7","z","Fri Oct 20 14:39:04 2023","The main experiment item","yes","m21-ab-lexicalDecision.osexp","C:\Users\ekealey\Desktop","no","mono","no","18","no","white","no","yes","1080","legacy","6","6","C:/Users/ekealey/Desktop/subject-225.csv","xpyriment","Lentiform Loewenfeld","3.3.11","0","/","NA","NA","NA","NA","space","/","930","NA","NA","NA","NA","22393","930","2","legacy","1024","2","48000","-16","AB_m21","225","odd","NW_L_SIMP","BEGENGE","1883","56387","54289","50850","24288","NA","NA","NA","NA","NA","54789","NA","NA","NA","53789","NA","53762","1894","56687","NA","NA","NA","54829","1883","1883","NA","55759","55783","53762","54789","54809","morph21_Oliver/Morris","1","7802","7","yes","1920","4"
"300","12.5","12.5","1125.25","1125.25","black","no","xpyriment","legacy","legacy","0","206","NA","uniform","NA","NA","NA","0","undefined","0","0","7","7","7","0","7","7","7","NA","0","7","NA","NA","0","7","NA","7","0","7","NA","NA","NA","7","0","0","NA","7","7","7","7","7","8","z","Fri Oct 20 14:39:04 2023","The main experiment item","yes","m21-ab-lexicalDecision.osexp","C:\Users\ekealey\Desktop","no","mono","no","18","no","white","no","yes","1080","legacy","7","7","C:/Users/ekealey/Desktop/subject-225.csv","xpyriment","Lentiform Loewenfeld","3.3.11","0","None","NA","NA","NA","NA","space","None","1200","NA","NA","NA","NA","22393","1200","2","legacy","1024","2","48000","-16","AB_m21","225","odd","NW_L_SIMP","TAXFIL","1883","60612","58245","50850","24288","NA","NA","NA","NA","NA","58746","NA","NA","NA","57745","NA","57717","1894","60912","NA","NA","NA","58786","1883","1883","NA","59986","60009","57717","58746","58766","morph21_Oliver/Morris","1","9002","8","yes","1920","6"
"200","22.22222222222222","22.22222222222222","1077.2222222222222","1077.2222222222222","black","no","xpyriment","legacy","legacy","0","208","NA","uniform","NA","NA","NA","1","undefined","1","0","8","8","8","0","8","8","8","NA","0","8","NA","NA","0","8","NA","8","0","8","NA","NA","NA","8","0","0","NA","8","8","8","8","8","9","z","Fri Oct 20 14:39:04 2023","The main experiment item","yes","m21-ab-lexicalDecision.osexp","C:\Users\ekealey\Desktop","no","mono","no","18","no","white","no","yes","1080","legacy","8","8","C:/Users/ekealey/Desktop/subject-225.csv","xpyriment","Lentiform Loewenfeld","3.3.11","0","z","NA","NA","NA","NA","space","z","693","NA","NA","NA","NA","22393","693","2","legacy","1024","2","48000","-16","AB_m21","225","odd","FILL_NW","GAIRS","1883","65849","62485","64346","24288","NA","NA","NA","NA","NA","62985","NA","NA","NA","61985","NA","61955","1894","66050","NA","NA","NA","63025","1883","1883","NA","63719","63742","61955","62985","63005","morph21_Oliver/Morris","2","9695","9","yes","1920","23"
"300","30","30","1059.9","1059.9","black","no","xpyriment","legacy","legacy","0","206","NA","uniform","NA","NA","NA","1","undefined","1","0","9","9","9","0","9","9","9","NA","0","9","NA","NA","0","9","NA","9","0","9","NA","NA","NA","9","0","0","NA","9","9","9","9","9","10","z","Fri Oct 20 14:39:04 2023","The main experiment item","yes","m21-ab-lexicalDecision.osexp","C:\Users\ekealey\Desktop","no","mono","no","18","no","white","no","yes","1080","legacy","9","9","C:/Users/ekealey/Desktop/subject-225.csv","xpyriment","Lentiform Loewenfeld","3.3.11","0","z","NA","NA","NA","NA","space","z","904","NA","NA","NA","NA","22393","904","2","legacy","1024","2","48000","-16","AB_m21","225","odd","NW_L_SIMP","LONGNELS","1883","69723","67650","64346","24288","NA","NA","NA","NA","NA","68150","NA","NA","NA","67150","NA","67119","1894","70023","NA","NA","NA","68190","1883","1883","NA","69095","69120","67119","68150","68170","morph21_Oliver/Morris","3","10599","10","yes","1920","17"
"200","36.36363636363637","36.36363636363637","1034.8181818181818","1034.8181818181818","black","no","xpyriment","legacy","legacy","0","201","NA","uniform","NA","NA","NA","1","undefined","1","0","10","10","10","0","10","10","10","NA","0","10","NA","NA","0","10","NA","10","0","10","NA","NA","NA","10","0","0","NA","10","10","10","10","10","11","/","Fri Oct 20 14:39:04 2023","The main experiment item","yes","m21-ab-lexicalDecision.osexp","C:\Users\ekealey\Desktop","no","mono","no","18","no","white","no","yes","1080","legacy","10","10","C:/Users/ekealey/Desktop/subject-225.csv","xpyriment","Lentiform Loewenfeld","3.3.11","0","/","NA","NA","NA","NA","space","/","784","NA","NA","NA","NA","22393","784","2","legacy","1024","2","48000","-16","AB_m21","225","odd","CW_S","ENJOYMENT","1883","73522","71569","64346","24288","NA","NA","NA","NA","NA","72070","NA","NA","NA","71067","NA","71041","1894","73722","NA","NA","NA","72110","1883","1883","NA","72895","72919","71041","72070","72090","morph21_Oliver/Morris","4","11383","11","yes","1920","40"
"300","41.666666666666664","41.666666666666664","1013.25","1013.25","black","no","xpyriment","legacy","legacy","0","201","NA","uniform","NA","NA","NA","1","undefined","1","0","11","11","11","0","11","11","11","NA","0","11","NA","NA","0","11","NA","11","0","11","NA","NA","NA","11","0","0","NA","11","11","11","11","11","12","/","Fri Oct 20 14:39:04 2023","The main experiment item","yes","m21-ab-lexicalDecision.osexp","C:\Users\ekealey\Desktop","no","mono","no","18","no","white","no","yes","1080","legacy","11","11","C:/Users/ekealey/Desktop/subject-225.csv","xpyriment","Lentiform Loewenfeld","3.3.11","0","/","NA","NA","NA","NA","space","/","776","NA","NA","NA","NA","22393","776","2","legacy","1024","2","48000","-16","AB_m21","225","odd","CW_S","INSISTENT","1883","78740","75290","77237","24288","NA","NA","NA","NA","NA","75791","NA","NA","NA","74789","NA","74762","1894","79040","NA","NA","NA","75831","1883","1883","NA","76607","76633","74762","75791","75811","morph21_Oliver/Morris","5","12159","12","yes","1920","9"
"350","46.15384615384615","46.15384615384615","992.1538461538462","992.1538461538462","black","no","xpyriment","legacy","legacy","0","201","NA","uniform","NA","NA","NA","1","undefined","1","0","12","12","12","0","12","12","12","NA","0","12","NA","NA","0","12","NA","12","0","12","NA","NA","NA","12","0","0","NA","12","12","12","12","12","13","/","Fri Oct 20 14:39:04 2023","The main experiment item","yes","m21-ab-lexicalDecision.osexp","C:\Users\ekealey\Desktop","no","mono","no","18","no","white","no","yes","1080","legacy","12","12","C:/Users/ekealey/Desktop/subject-225.csv","xpyriment","Lentiform Loewenfeld","3.3.11","0","/","NA","NA","NA","NA","space","/","739","NA","NA","NA","NA","22393","739","2","legacy","1024","2","48000","-16","AB_m21","225","odd","CW_S","AMAZEMENT","1883","82506","80597","77237","24288","NA","NA","NA","NA","NA","81099","NA","NA","NA","80095","NA","80064","1894","82856","NA","NA","NA","81140","1883","1883","NA","81879","81903","80063","81099","81120","morph21_Oliver/Morris","6","12898","13","yes","1920","39"
"300","50","50","976.4285714285714","976.4285714285714","black","no","xpyriment","legacy","legacy","0","206","NA","uniform","NA","NA","NA","1","undefined","1","0","13","13","13","0","13","13","13","NA","0","13","NA","NA","0","13","NA","13","0","13","NA","NA","NA","13","0","0","NA","13","13","13","13","13","14","z","Fri Oct 20 14:39:04 2023","The main experiment item","yes","m21-ab-lexicalDecision.osexp","C:\Users\ekealey\Desktop","no","mono","no","18","no","white","no","yes","1080","legacy","13","13","C:/Users/ekealey/Desktop/subject-225.csv","xpyriment","Lentiform Loewenfeld","3.3.11","0","z","NA","NA","NA","NA","space","z","772","NA","NA","NA","NA","22393","772","2","legacy","1024","2","48000","-16","AB_m21","225","odd","NW_L_SIMP","BEANITH","1883","86405","84462","77237","24288","NA","NA","NA","NA","NA","84963","NA","NA","NA","83961","NA","83936","1894","86705","NA","NA","NA","85003","1883","1883","NA","85775","85801","83936","84963","84983","morph21_Oliver/Morris","7","13670","14","yes","1920","8"
"400","53.333333333333336","53.333333333333336","955.8666666666667","955.8666666666667","black","no","xpyriment","legacy","legacy","0","207","NA","uniform","NA","NA","NA","1","undefined","1","0","14","14","14","0","14","14","14","NA","0","14","NA","NA","0","14","NA","14","0","14","NA","NA","NA","14","0","0","NA","14","14","14","14","14","15","/","Fri Oct 20 14:39:04 2023","The main experiment item","yes","m21-ab-lexicalDecision.osexp","C:\Users\ekealey\Desktop","no","mono","no","18","no","white","no","yes","1080","legacy","14","14","C:/Users/ekealey/Desktop/subject-225.csv","xpyriment","Lentiform Loewenfeld","3.3.11","0","/","NA","NA","NA","NA","space","/","668","NA","NA","NA","NA","22393","668","2","legacy","1024","2","48000","-16","AB_m21","225","odd","FILL_W","FLIRT","1883","91626","88286","90122","24288","NA","NA","NA","NA","NA","88786","NA","NA","NA","87786","NA","87757","1894","92026","NA","NA","NA","88827","1883","1883","NA","89495","89519","87757","88786","88807","morph21_Oliver/Morris","8","14338","15","yes","1920","1"
"350","56.25","56.25","944.75","944.75","black","no","xpyriment","legacy","legacy","0","202","NA","uniform","NA","NA","NA","1","undefined","1","0","15","15","15","0","15","15","15","NA","0","15","NA","NA","0","15","NA","15","0","15","NA","NA","NA","15","0","0","NA","15","15","15","15","15","16","/","Fri Oct 20 14:39:04 2023","The main experiment item","yes","m21-ab-lexicalDecision.osexp","C:\Users\ekealey\Desktop","no","mono","no","18","no","white","no","yes","1080","legacy","15","15","C:/Users/ekealey/Desktop/subject-225.csv","xpyriment","Lentiform Loewenfeld","3.3.11","0","/","NA","NA","NA","NA","space","/","778","NA","NA","NA","NA","22393","778","2","legacy","1024","2","48000","-16","AB_m21","225","odd","CW_L","PAINTER","1883","95514","93567","90122","24288","NA","NA","NA","NA","NA","94068","NA","NA","NA","93066","NA","93037","1894","95864","NA","NA","NA","94108","1883","1883","NA","94887","94910","93037","94068","94088","morph21_Oliver/Morris","9","15116","16","yes","1920","18"
"250","58.8235294117647","58.8235294117647","929.5294117647059","929.5294117647059","black","no","xpyriment","legacy","legacy","0","207","NA","uniform","NA","NA","NA","1","undefined","1","0","16","16","16","0","16","16","16","NA","0","16","NA","NA","0","16","NA","16","0","16","NA","NA","NA","16","0","0","NA","16","16","16","16","16","17","/","Fri Oct 20 14:39:04 2023","The main experiment item","yes","m21-ab-lexicalDecision.osexp","C:\Users\ekealey\Desktop","no","mono","no","18","no","white","no","yes","1080","legacy","16","16","C:/Users/ekealey/Desktop/subject-225.csv","xpyriment","Lentiform Loewenfeld","3.3.11","0","/","NA","NA","NA","NA","space","/","686","NA","NA","NA","NA","22393","686","2","legacy","1024","2","48000","-16","AB_m21","225","odd","FILL_W","PACK","1883","99266","97411","90122","24288","NA","NA","NA","NA","NA","97911","NA","NA","NA","96911","NA","96883","1894","99516","NA","NA","NA","97952","1883","1883","NA","98639","98663","96883","97911","97932","morph21_Oliver/Morris","10","15802","17","yes","1920","41"
"400","61.111111111111114","61.111111111111114","912.1666666666666","912.1666666666666","black","no","xpyriment","legacy","legacy","0","205","NA","uniform","NA","NA","NA","1","undefined","1","0","17","17","17","0","17","17","17","NA","0","17","NA","NA","0","17","NA","17","0","17","NA","NA","NA","17","0","0","NA","17","17","17","17","17","18","z","Fri Oct 20 14:39:04 2023","The main experiment item","yes","m21-ab-lexicalDecision.osexp","C:\Users\ekealey\Desktop","no","mono","no","18","no","white","no","yes","1080","legacy","17","17","C:/Users/ekealey/Desktop/subject-225.csv","xpyriment","Lentiform Loewenfeld","3.3.11","0","z","NA","NA","NA","NA","space","z","617","NA","NA","NA","NA","22393","617","2","legacy","1024","2","48000","-16","AB_m21","225","odd","NW_S_SIMP","URNILT","1883","104373","101081","102870","24288","NA","NA","NA","NA","NA","101581","NA","NA","NA","100581","NA","100552","1894","104773","NA","NA","NA","101622","1883","1883","NA","102239","102265","100552","101581","101602","morph21_Oliver/Morris","11","16419","18","yes","1920","5"
"250","57.89473684210526","57.89473684210526","900.2105263157895","900.2105263157895","black","no","xpyriment","legacy","legacy","0","204","NA","uniform","NA","NA","NA","0","undefined","0","0","18","18","18","0","18","18","18","NA","0","18","NA","NA","0","18","NA","18","0","18","NA","NA","NA","18","0","0","NA","18","18","18","18","18","19","z","Fri Oct 20 14:39:04 2023","The main experiment item","yes","m21-ab-lexicalDecision.osexp","C:\Users\ekealey\Desktop","no","mono","no","18","no","white","no","yes","1080","legacy","18","18","C:/Users/ekealey/Desktop/subject-225.csv","xpyriment","Lentiform Loewenfeld","3.3.11","0","/","NA","NA","NA","NA","space","/","685","NA","NA","NA","NA","22393","685","2","legacy","1024","2","48000","-16","AB_m21","225","odd","NW_L_COMP","FREENESS","1883","108196","106340","102870","24288","NA","NA","NA","NA","NA","106841","NA","NA","NA","105839","NA","105806","1894","108446","NA","NA","NA","106882","1883","1883","NA","107568","107591","105806","106841","106862","morph21_Oliver/Morris","11","17104","19","yes","1920","15"
"200","60","60","887.95","887.95","black","no","xpyriment","legacy","legacy","0","205","NA","uniform","NA","NA","NA","1","undefined","1","0","19","19","19","0","19","19","19","NA","0","19","NA","NA","0","19","NA","19","0","19","NA","NA","NA","19","0","0","NA","19","19","19","19","19","20","z","Fri Oct 20 14:39:04 2023","The main experiment item","yes","m21-ab-lexicalDecision.osexp","C:\Users\ekealey\Desktop","no","mono","no","18","no","white","no","yes","1080","legacy","19","19","C:/Users/ekealey/Desktop/subject-225.csv","xpyriment","Lentiform Loewenfeld","3.3.11","0","z","NA","NA","NA","NA","space","z","655","NA","NA","NA","NA","22393","655","2","legacy","1024","2","48000","-16","AB_m21","225","odd","NW_S_SIMP","JAWLA","1883","111827","110001","102870","24288","NA","NA","NA","NA","NA","110502","NA","NA","NA","109500","NA","109473","1894","112027","NA","NA","NA","110543","1883","1883","NA","111199","111222","109473","110502","110523","morph21_Oliver/Morris","12","17759","20","yes","1920","7"
"350","57.142857142857146","57.142857142857146","876.8571428571429","876.8571428571429","black","no","xpyriment","legacy","legacy","0","201","NA","uniform","NA","NA","NA","0","undefined","0","0","20","20","20","0","20","20","20","NA","0","20","NA","NA","0","20","NA","20","0","20","NA","NA","NA","20","0","0","NA","20","20","20","20","20","21","/","Fri Oct 20 14:39:04 2023","The main experiment item","yes","m21-ab-lexicalDecision.osexp","C:\Users\ekealey\Desktop","no","mono","no","18","no","white","no","yes","1080","legacy","20","20","C:/Users/ekealey/Desktop/subject-225.csv","xpyriment","Lentiform Loewenfeld","3.3.11","0","z","NA","NA","NA","NA","space","z","655","NA","NA","NA","NA","22393","655","2","legacy","1024","2","48000","-16","AB_m21","225","odd","CW_S","LENDER","1883","116905","113579","115402","24288","NA","NA","NA","NA","NA","114080","NA","NA","NA","113078","NA","113048","1894","117255","NA","NA","NA","114120","1883","1883","NA","114776","114799","113048","114080","114100","morph21_Oliver/Morris","12","18414","21","yes","1920","11"
"300","59.09090909090909","59.09090909090909","863.2727272727273","863.2727272727273","black","no","xpyriment","legacy","legacy","0","202","NA","uniform","NA","NA","NA","1","undefined","1","0","21","21","21","0","21","21","21","NA","0","21","NA","NA","0","21","NA","21","0","21","NA","NA","NA","21","0","0","NA","21","21","21","21","21","22","/","Fri Oct 20 14:39:04 2023","The main experiment item","yes","m21-ab-lexicalDecision.osexp","C:\Users\ekealey\Desktop","no","mono","no","18","no","white","no","yes","1080","legacy","21","21","C:/Users/ekealey/Desktop/subject-225.csv","xpyriment","Lentiform Loewenfeld","3.3.11","0","/","NA","NA","NA","NA","space","/","578","NA","NA","NA","NA","22393","578","2","legacy","1024","2","48000","-16","AB_m21","225","odd","CW_L","MADNESS","1883","120572","118822","115402","24288","NA","NA","NA","NA","NA","119324","NA","NA","NA","118321","NA","118289","1894","120872","NA","NA","NA","119364","1883","1883","NA","119943","119968","118288","119324","119344","morph21_Oliver/Morris","13","18992","22","yes","1920","41"
"200","60.869565217391305","60.869565217391305","848.7391304347826","848.7391304347826","black","no","xpyriment","legacy","legacy","0","207","NA","uniform","NA","NA","NA","1","undefined","1","0","22","22","22","0","22","22","22","NA","0","22","NA","NA","0","22","NA","22","0","22","NA","NA","NA","22","0","0","NA","22","22","22","22","22","23","/","Fri Oct 20 14:39:04 2023","The main experiment item","yes","m21-ab-lexicalDecision.osexp","C:\Users\ekealey\Desktop","no","mono","no","18","no","white","no","yes","1080","legacy","22","22","C:/Users/ekealey/Desktop/subject-225.csv","xpyriment","Lentiform Loewenfeld","3.3.11","0","/","NA","NA","NA","NA","space","/","529","NA","NA","NA","NA","22393","529","2","legacy","1024","2","48000","-16","AB_m21","225","odd","FILL_W","STALK","1883","124153","122456","115402","24288","NA","NA","NA","NA","NA","122956","NA","NA","NA","121956","NA","121931","1894","124353","NA","NA","NA","122997","1883","1883","NA","123527","123550","121931","122956","122977","morph21_Oliver/Morris","14","19521","23","yes","1920","27"
"200","62.5","62.5","852.4166666666666","852.4166666666666","black","no","xpyriment","legacy","legacy","0","201","NA","uniform","NA","NA","NA","1","undefined","1","0","23","23","23","0","23","23","23","NA","0","23","NA","NA","0","23","NA","23","0","23","NA","NA","NA","23","0","0","NA","23","23","23","23","23","24","/","Fri Oct 20 14:39:04 2023","The main experiment item","yes","m21-ab-lexicalDecision.osexp","C:\Users\ekealey\Desktop","no","mono","no","18","no","white","no","yes","1080","legacy","23","23","C:/Users/ekealey/Desktop/subject-225.csv","xpyriment","Lentiform Loewenfeld","3.3.11","0","/","NA","NA","NA","NA","space","/","937","NA","NA","NA","NA","22393","937","2","legacy","1024","2","48000","-16","AB_m21","225","odd","CW_S","THRUSTER","1883","129514","125902","128009","24288","NA","NA","NA","NA","NA","126404","NA","NA","NA","125401","NA","125371","1894","129714","NA","NA","NA","126445","1883","1883","NA","127383","127406","125371","126404","126424","morph21_Oliver/Morris","15","20458","24","yes","1920","24"
"300","64","64","840.36","840.36","black","no","xpyriment","legacy","legacy","0","207","NA","uniform","NA","NA","NA","1","undefined","1","0","24","24","24","0","24","24","24","NA","0","24","NA","NA","0","24","NA","24","0","24","NA","NA","NA","24","0","0","NA","24","24","24","24","24","25","/","Fri Oct 20 14:39:04 2023","The main experiment item","yes","m21-ab-lexicalDecision.osexp","C:\Users\ekealey\Desktop","no","mono","no","18","no","white","no","yes","1080","legacy","24","24","C:/Users/ekealey/Desktop/subject-225.csv","xpyriment","Lentiform Loewenfeld","3.3.11","0","/","NA","NA","NA","NA","space","/","551","NA","NA","NA","NA","22393","551","2","legacy","1024","2","48000","-16","AB_m21","225","odd","FILL_W","BALD","1883","133003","131283","128009","24288","NA","NA","NA","NA","NA","131783","NA","NA","NA","130782","NA","130749","1894","133303","NA","NA","NA","131824","1883","1883","NA","132375","132400","130749","131783","131804","morph21_Oliver/Morris","16","21009","25","yes","1920","3"
"200","61.53846153846154","61.53846153846154","824.2692307692307","824.2692307692307","black","no","xpyriment","legacy","legacy","0","201","NA","uniform","NA","NA","NA","0","undefined","0","0","25","25","25","0","25","25","25","NA","0","25","NA","NA","0","25","NA","25","0","25","NA","NA","NA","25","0","0","NA","25","25","25","25","25","26","/","Fri Oct 20 14:39:04 2023","The main experiment item","yes","m21-ab-lexicalDecision.osexp","C:\Users\ekealey\Desktop","no","mono","no","18","no","white","no","yes","1080","legacy","25","25","C:/Users/ekealey/Desktop/subject-225.csv","xpyriment","Lentiform Loewenfeld","3.3.11","0","z","NA","NA","NA","NA","space","z","422","NA","NA","NA","NA","22393","422","2","legacy","1024","2","48000","-16","AB_m21","225","odd","CW_S","LISTENER","1883","136457","134866","128009","24288","NA","NA","NA","NA","NA","135368","NA","NA","NA","134366","NA","134335","1894","136658","NA","NA","NA","135408","1883","1883","NA","135831","135854","134335","135368","135388","morph21_Oliver/Morris","16","21431","26","yes","1920","18"
"300","62.96296296296296","62.96296296296296","817.4074074074074","817.4074074074074","black","no","xpyriment","legacy","legacy","0","205","NA","uniform","NA","NA","NA","1","undefined","1","0","26","26","26","0","26","26","26","NA","0","26","NA","NA","0","26","NA","26","0","26","NA","NA","NA","26","0","0","NA","26","26","26","26","26","27","z","Fri Oct 20 14:39:04 2023","The main experiment item","yes","m21-ab-lexicalDecision.osexp","C:\Users\ekealey\Desktop","no","mono","no","18","no","white","no","yes","1080","legacy","26","26","C:/Users/ekealey/Desktop/subject-225.csv","xpyriment","Lentiform Loewenfeld","3.3.11","0","z","NA","NA","NA","NA","space","z","639","NA","NA","NA","NA","22393","639","2","legacy","1024","2","48000","-16","AB_m21","225","odd","NW_S_SIMP","WINKIDY","1883","141511","138202","140009","24288","NA","NA","NA","NA","NA","138703","NA","NA","NA","137702","NA","137676","1894","141811","NA","NA","NA","138743","1883","1883","NA","139383","139406","137676","138703","138723","morph21_Oliver/Morris","17","22070","27","yes","1920","21"
"250","64.28571428571429","64.28571428571429","815.9285714285714","815.9285714285714","black","no","xpyriment","legacy","legacy","0","205","NA","uniform","NA","NA","NA","1","undefined","1","0","27","27","27","0","27","27","27","NA","0","27","NA","NA","0","27","NA","27","0","27","NA","NA","NA","27","0","0","NA","27","27","27","27","27","28","z","Fri Oct 20 14:39:04 2023","The main experiment item","yes","m21-ab-lexicalDecision.osexp","C:\Users\ekealey\Desktop","no","mono","no","18","no","white","no","yes","1080","legacy","27","27","C:/Users/ekealey/Desktop/subject-225.csv","xpyriment","Lentiform Loewenfeld","3.3.11","0","z","NA","NA","NA","NA","space","z","776","NA","NA","NA","NA","22393","776","2","legacy","1024","2","48000","-16","AB_m21","225","odd","NW_S_SIMP","ZOOMFIL","1883","145306","143361","140009","24288","NA","NA","NA","NA","NA","143863","NA","NA","NA","142859","NA","142825","1894","145556","NA","NA","NA","143903","1883","1883","NA","144679","144703","142824","143863","143883","morph21_Oliver/Morris","18","22846","28","yes","1920","19"
"200","65.51724137931035","65.51724137931035","811.7586206896551","811.7586206896551","black","no","xpyriment","legacy","legacy","0","208","NA","uniform","NA","NA","NA","1","undefined","1","0","28","28","28","0","28","28","28","NA","0","28","NA","NA","0","28","NA","28","0","28","NA","NA","NA","28","0","0","NA","28","28","28","28","28","29","z","Fri Oct 20 14:39:04 2023","The main experiment item","yes","m21-ab-lexicalDecision.osexp","C:\Users\ekealey\Desktop","no","mono","no","18","no","white","no","yes","1080","legacy","28","28","C:/Users/ekealey/Desktop/subject-225.csv","xpyriment","Lentiform Loewenfeld","3.3.11","0","z","NA","NA","NA","NA","space","z","695","NA","NA","NA","NA","22393","695","2","legacy","1024","2","48000","-16","AB_m21","225","odd","FILL_NW","CINDS","1883","148966","147098","140009","24288","NA","NA","NA","NA","NA","147599","NA","NA","NA","146596","NA","146570","1894","149166","NA","NA","NA","147639","1883","1883","NA","148335","148361","146570","147598","147619","morph21_Oliver/Morris","19","23541","29","yes","1920","6"
"300","66.66666666666667","66.66666666666667","801.5","801.5","black","no","xpyriment","legacy","legacy","0","202","NA","uniform","NA","NA","NA","1","undefined","1","0","29","29","29","0","29","29","29","NA","0","29","NA","NA","0","29","NA","29","0","29","NA","NA","NA","29","0","0","NA","29","29","29","29","29","30","/","Fri Oct 20 14:39:04 2023","The main experiment item","yes","m21-ab-lexicalDecision.osexp","C:\Users\ekealey\Desktop","no","mono","no","18","no","white","no","yes","1080","legacy","29","29","C:/Users/ekealey/Desktop/subject-225.csv","xpyriment","Lentiform Loewenfeld","3.3.11","0","/","NA","NA","NA","NA","space","/","504","NA","NA","NA","NA","22393","504","2","legacy","1024","2","48000","-16","AB_m21","225","odd","CW_L","WEEDY","1883","153905","150727","152401","24288","NA","NA","NA","NA","NA","151229","NA","NA","NA","150225","NA","150200","1894","154205","NA","NA","NA","151270","1883","1883","NA","151775","151798","150200","151229","151250","morph21_Oliver/Morris","20","24045","30","yes","1920","48"
"400","67.74193548387096","67.74193548387096","804.0322580645161","804.0322580645161","black","no","xpyriment","legacy","legacy","0","201","NA","uniform","NA","NA","NA","1","undefined","1","0","30","30","30","0","30","30","30","NA","0","30","NA","NA","0","30","NA","30","0","30","NA","NA","NA","30","0","0","NA","30","30","30","30","30","31","/","Fri Oct 20 14:39:04 2023","The main experiment item","yes","m21-ab-lexicalDecision.osexp","C:\Users\ekealey\Desktop","no","mono","no","18","no","white","no","yes","1080","legacy","30","30","C:/Users/ekealey/Desktop/subject-225.csv","xpyriment","Lentiform Loewenfeld","3.3.11","0","/","NA","NA","NA","NA","space","/","880","NA","NA","NA","NA","22393","880","2","legacy","1024","2","48000","-16","AB_m21","225","odd","CW_S","ALLOWANCE","1883","157827","155776","152401","24288","NA","NA","NA","NA","NA","156277","NA","NA","NA","155275","NA","155245","1894","158227","NA","NA","NA","156318","1883","1883","NA","157199","157223","155245","156277","156297","morph21_Oliver/Morris","21","24925","31","yes","1920","5"
"250","68.75","68.75","798.9375","798.9375","black","no","xpyriment","legacy","legacy","0","204","NA","uniform","NA","NA","NA","1","undefined","1","0","31","31","31","0","31","31","31","NA","0","31","NA","NA","0","31","NA","31","0","31","NA","NA","NA","31","0","0","NA","31","31","31","31","31","32","z","Fri Oct 20 14:39:04 2023","The main experiment item","yes","m21-ab-lexicalDecision.osexp","C:\Users\ekealey\Desktop","no","mono","no","18","no","white","no","yes","1080","legacy","31","31","C:/Users/ekealey/Desktop/subject-225.csv","xpyriment","Lentiform Loewenfeld","3.3.11","0","z","NA","NA","NA","NA","space","z","641","NA","NA","NA","NA","22393","641","2","legacy","1024","2","48000","-16","AB_m21","225","odd","NW_L_COMP","TRIPARY","1883","161597","159785","152401","24288","NA","NA","NA","NA","NA","160286","NA","NA","NA","159285","NA","159256","1894","161847","NA","NA","NA","160326","1883","1883","NA","160967","160992","159256","160286","160306","morph21_Oliver/Morris","22","25566","32","yes","1920","2"
"300","69.6969696969697","69.6969696969697","800","800","black","no","xpyriment","legacy","legacy","0","205","NA","uniform","NA","NA","NA","1","undefined","1","0","32","32","32","0","32","32","32","NA","0","32","NA","NA","0","32","NA","32","0","32","NA","NA","NA","32","0","0","NA","32","32","32","32","32","33","z","Fri Oct 20 14:39:04 2023","The main experiment item","yes","m21-ab-lexicalDecision.osexp","C:\Users\ekealey\Desktop","no","mono","no","18","no","white","no","yes","1080","legacy","32","32","C:/Users/ekealey/Desktop/subject-225.csv","xpyriment","Lentiform Loewenfeld","3.3.11","0","z","NA","NA","NA","NA","space","z","834","NA","NA","NA","NA","22393","834","2","legacy","1024","2","48000","-16","AB_m21","225","odd","NW_S_SIMP","BOLTOES","1883","166933","163423","165427","24288","NA","NA","NA","NA","NA","163923","NA","NA","NA","162923","NA","162897","1894","167233","NA","NA","NA","163964","1883","1883","NA","164799","164822","162897","163923","163944","morph21_Oliver/Morris","23","26400","33","yes","1920","13"
"200","70.58823529411765","70.58823529411765","800.7647058823529","800.7647058823529","black","no","xpyriment","legacy","legacy","0","203","NA","uniform","NA","NA","NA","1","undefined","1","0","33","33","33","0","33","33","33","NA","0","33","NA","NA","0","33","NA","33","0","33","NA","NA","NA","33","0","0","NA","33","33","33","33","33","34","z","Fri Oct 20 14:39:04 2023","The main experiment item","yes","m21-ab-lexicalDecision.osexp","C:\Users\ekealey\Desktop","no","mono","no","18","no","white","no","yes","1080","legacy","33","33","C:/Users/ekealey/Desktop/subject-225.csv","xpyriment","Lentiform Loewenfeld","3.3.11","0","z","NA","NA","NA","NA","space","z","826","NA","NA","NA","NA","22393","826","2","legacy","1024","2","48000","-16","AB_m21","225","odd","NW_S_COMP","FANFUL","1883","170843","168847","165427","24288","NA","NA","NA","NA","NA","169347","NA","NA","NA","168345","NA","168317","1894","171043","NA","NA","NA","169388","1883","1883","NA","170215","170239","168317","169347","169368","morph21_Oliver/Morris","24","27226","34","yes","1920","6"
"200","71.42857142857143","71.42857142857143","794.3428571428572","794.3428571428572","black","no","xpyriment","legacy","legacy","0","208","NA","uniform","NA","NA","NA","1","undefined","1","0","34","34","34","0","34","34","34","NA","0","34","NA","NA","0","34","NA","34","0","34","NA","NA","NA","34","0","0","NA","34","34","34","34","34","35","z","Fri Oct 20 14:39:04 2023","The main experiment item","yes","m21-ab-lexicalDecision.osexp","C:\Users\ekealey\Desktop","no","mono","no","18","no","white","no","yes","1080","legacy","34","34","C:/Users/ekealey/Desktop/subject-225.csv","xpyriment","Lentiform Loewenfeld","3.3.11","0","z","NA","NA","NA","NA","space","z","576","NA","NA","NA","NA","22393","576","2","legacy","1024","2","48000","-16","AB_m21","225","odd","FILL_NW","FROT","1883","174346","172600","165427","24288","NA","NA","NA","NA","NA","173102","NA","NA","NA","172097","NA","172071","1894","174546","NA","NA","NA","173142","1883","1883","NA","173719","173742","172071","173101","173122","morph21_Oliver/Morris","25","27802","35","yes","1920","22"
"200","72.22222222222223","72.22222222222223","778.3055555555555","778.3055555555555","black","no","xpyriment","legacy","legacy","0","203","NA","uniform","NA","NA","NA","1","undefined","1","0","35","35","35","0","35","35","35","NA","0","35","NA","NA","0","35","NA","35","0","35","NA","NA","NA","35","0","0","NA","35","35","35","35","35","36","z","Fri Oct 20 14:39:04 2023","The main experiment item","yes","m21-ab-lexicalDecision.osexp","C:\Users\ekealey\Desktop","no","mono","no","18","no","white","no","yes","1080","legacy","35","35","C:/Users/ekealey/Desktop/subject-225.csv","xpyriment","Lentiform Loewenfeld","3.3.11","0","z","NA","NA","NA","NA","space","z","217","NA","NA","NA","NA","22393","217","2","legacy","1024","2","48000","-16","AB_m21","225","odd","NW_S_COMP","YANKORY","1883","179004","176113","177501","24288","NA","NA","NA","NA","NA","176614","NA","NA","NA","175613","NA","175582","1894","179204","NA","NA","NA","176654","1883","1883","NA","176871","176897","175582","176614","176634","morph21_Oliver/Morris","26","28019","36","yes","1920","23"
"200","72.97297297297297","72.97297297297297","774.0540540540541","774.0540540540541","black","no","xpyriment","legacy","legacy","0","208","NA","uniform","NA","NA","NA","1","undefined","1","0","36","36","36","0","36","36","36","NA","0","36","NA","NA","0","36","NA","36","0","36","NA","NA","NA","36","0","0","NA","36","36","36","36","36","37","z","Fri Oct 20 14:39:04 2023","The main experiment item","yes","m21-ab-lexicalDecision.osexp","C:\Users\ekealey\Desktop","no","mono","no","18","no","white","no","yes","1080","legacy","36","36","C:/Users/ekealey/Desktop/subject-225.csv","xpyriment","Lentiform Loewenfeld","3.3.11","0","z","NA","NA","NA","NA","space","z","621","NA","NA","NA","NA","22393","621","2","legacy","1024","2","48000","-16","AB_m21","225","odd","FILL_NW","HOITS","1883","182577","180788","177501","24288","NA","NA","NA","NA","NA","181289","NA","NA","NA","180288","NA","180263","1894","182777","NA","NA","NA","181329","1883","1883","NA","181951","181974","180263","181288","181309","morph21_Oliver/Morris","27","28640","37","yes","1920","30"
"350","73.6842105263158","73.6842105263158","768.7631578947369","768.7631578947369","black","no","xpyriment","legacy","legacy","0","207","NA","uniform","NA","NA","NA","1","undefined","1","0","37","37","37","0","37","37","37","NA","0","37","NA","NA","0","37","NA","37","0","37","NA","NA","NA","37","0","0","NA","37","37","37","37","37","38","/","Fri Oct 20 14:39:04 2023","The main experiment item","yes","m21-ab-lexicalDecision.osexp","C:\Users\ekealey\Desktop","no","mono","no","18","no","white","no","yes","1080","legacy","37","37","C:/Users/ekealey/Desktop/subject-225.csv","xpyriment","Lentiform Loewenfeld","3.3.11","0","/","NA","NA","NA","NA","space","/","573","NA","NA","NA","NA","22393","573","2","legacy","1024","2","48000","-16","AB_m21","225","odd","FILL_W","FOLLOW","1883","186091","184347","177501","24288","NA","NA","NA","NA","NA","184848","NA","NA","NA","183846","NA","183818","1894","186442","NA","NA","NA","184889","1883","1883","NA","185463","185487","183818","184848","184869","morph21_Oliver/Morris","28","29213","38","yes","1920","17"
"350","74.35897435897436","74.35897435897436","765.1282051282051","765.1282051282051","black","no","xpyriment","legacy","legacy","0","201","NA","uniform","NA","NA","NA","1","undefined","1","0","38","38","38","0","38","38","38","NA","0","38","NA","NA","0","38","NA","38","0","38","NA","NA","NA","38","0","0","NA","38","38","38","38","38","39","/","Fri Oct 20 14:39:04 2023","The main experiment item","yes","m21-ab-lexicalDecision.osexp","C:\Users\ekealey\Desktop","no","mono","no","18","no","white","no","yes","1080","legacy","38","38","C:/Users/ekealey/Desktop/subject-225.csv","xpyriment","Lentiform Loewenfeld","3.3.11","0","/","NA","NA","NA","NA","space","/","627","NA","NA","NA","NA","22393","627","2","legacy","1024","2","48000","-16","AB_m21","225","odd","CW_S","TOASTER","1883","191298","187998","189795","24288","NA","NA","NA","NA","NA","188499","NA","NA","NA","187496","NA","187469","1894","191648","NA","NA","NA","188539","1883","1883","NA","189167","189192","187469","188499","188519","morph21_Oliver/Morris","29","29840","39","yes","1920","10"
"200","75","75","765.375","765.375","black","no","xpyriment","legacy","legacy","0","205","NA","uniform","NA","NA","NA","1","undefined","1","0","39","39","39","0","39","39","39","NA","0","39","NA","NA","0","39","NA","39","0","39","NA","NA","NA","39","0","0","NA","39","39","39","39","39","40","z","Fri Oct 20 14:39:04 2023","The main experiment item","yes","m21-ab-lexicalDecision.osexp","C:\Users\ekealey\Desktop","no","mono","no","18","no","white","no","yes","1080","legacy","39","39","C:/Users/ekealey/Desktop/subject-225.csv","xpyriment","Lentiform Loewenfeld","3.3.11","0","z","NA","NA","NA","NA","space","z","775","NA","NA","NA","NA","22393","775","2","legacy","1024","2","48000","-16","AB_m21","225","odd","NW_S_SIMP","OPPOSEMANT","1883","195185","193241","189795","24288","NA","NA","NA","NA","NA","193742","NA","NA","NA","192739","NA","192711","1894","195385","NA","NA","NA","193783","1883","1883","NA","194558","194582","192711","193742","193763","morph21_Oliver/Morris","30","30615","40","yes","1920","8"
"250","75.60975609756098","75.60975609756098","765.2682926829268","765.2682926829268","black","no","xpyriment","legacy","legacy","0","208","NA","uniform","NA","NA","NA","1","undefined","1","0","40","40","40","0","40","40","40","NA","0","40","NA","NA","0","40","NA","40","0","40","NA","NA","NA","40","0","0","NA","40","40","40","40","40","41","z","Fri Oct 20 14:39:04 2023","The main experiment item","yes","m21-ab-lexicalDecision.osexp","C:\Users\ekealey\Desktop","no","mono","no","18","no","white","no","yes","1080","legacy","40","40","C:/Users/ekealey/Desktop/subject-225.csv","xpyriment","Lentiform Loewenfeld","3.3.11","0","z","NA","NA","NA","NA","space","z","761","NA","NA","NA","NA","22393","761","2","legacy","1024","2","48000","-16","AB_m21","225","odd","FILL_NW","POLT","1883","198881","196952","189795","24288","NA","NA","NA","NA","NA","197453","NA","NA","NA","196451","NA","196420","1894","199131","NA","NA","NA","197493","1883","1883","NA","198255","198278","196419","197453","197473","morph21_Oliver/Morris","31","31376","41","yes","1920","38"
"400","76.19047619047619","76.19047619047619","758.8809523809524","758.8809523809524","black","no","xpyriment","legacy","legacy","0","203","NA","uniform","NA","NA","NA","1","undefined","1","0","41","41","41","0","41","41","41","NA","0","41","NA","NA","0","41","NA","41","0","41","NA","NA","NA","41","0","0","NA","41","41","41","41","41","42","z","Fri Oct 20 14:39:04 2023","The main experiment item","yes","m21-ab-lexicalDecision.osexp","C:\Users\ekealey\Desktop","no","mono","no","18","no","white","no","yes","1080","legacy","41","41","C:/Users/ekealey/Desktop/subject-225.csv","xpyriment","Lentiform Loewenfeld","3.3.11","0","z","NA","NA","NA","NA","space","z","497","NA","NA","NA","NA","22393","497","2","legacy","1024","2","48000","-16","AB_m21","225","odd","NW_S_COMP","ALTARIC","1883","203848","200679","202345","24288","NA","NA","NA","NA","NA","201180","NA","NA","NA","200178","NA","200146","1894","204249","NA","NA","NA","201221","1883","1883","NA","201719","201742","200146","201180","201201","morph21_Oliver/Morris","32","31873","42","yes","1920","7"
"400","76.74418604651163","76.74418604651163","757.0930232558139","757.0930232558139","black","no","xpyriment","legacy","legacy","0","208","NA","uniform","NA","NA","NA","1","undefined","1","0","42","42","42","0","42","42","42","NA","0","42","NA","NA","0","42","NA","42","0","42","NA","NA","NA","42","0","0","NA","42","42","42","42","42","43","z","Fri Oct 20 14:39:04 2023","The main experiment item","yes","m21-ab-lexicalDecision.osexp","C:\Users\ekealey\Desktop","no","mono","no","18","no","white","no","yes","1080","legacy","42","42","C:/Users/ekealey/Desktop/subject-225.csv","xpyriment","Lentiform Loewenfeld","3.3.11","0","z","NA","NA","NA","NA","space","z","682","NA","NA","NA","NA","22393","682","2","legacy","1024","2","48000","-16","AB_m21","225","odd","FILL_NW","BALFS","1883","207669","205815","202345","24288","NA","NA","NA","NA","NA","206315","NA","NA","NA","205314","NA","205283","1894","208069","NA","NA","NA","206356","1883","1883","NA","207038","207064","205283","206315","206336","morph21_Oliver/Morris","33","32555","43","yes","1920","2"
"350","77.27272727272727","77.27272727272727","760","760","black","no","xpyriment","legacy","legacy","0","208","NA","uniform","NA","NA","NA","1","undefined","1","0","43","43","43","0","43","43","43","NA","0","43","NA","NA","0","43","NA","43","0","43","NA","NA","NA","43","0","0","NA","43","43","43","43","43","44","z","Fri Oct 20 14:39:04 2023","The main experiment item","yes","m21-ab-lexicalDecision.osexp","C:\Users\ekealey\Desktop","no","mono","no","18","no","white","no","yes","1080","legacy","43","43","C:/Users/ekealey/Desktop/subject-225.csv","xpyriment","Lentiform Loewenfeld","3.3.11","0","z","NA","NA","NA","NA","space","z","885","NA","NA","NA","NA","22393","885","2","legacy","1024","2","48000","-16","AB_m21","225","odd","FILL_NW","DARF","1883","211706","209651","202345","24288","NA","NA","NA","NA","NA","210152","NA","NA","NA","209151","NA","209122","1894","212056","NA","NA","NA","210193","1883","1883","NA","211079","211103","209122","210152","210173","morph21_Oliver/Morris","34","33440","44","yes","1920","10"
"200","77.77777777777777","77.77777777777777","767.6","767.6","black","no","xpyriment","legacy","legacy","0","208","NA","uniform","NA","NA","NA","1","undefined","1","0","44","44","44","0","44","44","44","NA","0","44","NA","NA","0","44","NA","44","0","44","NA","NA","NA","44","0","0","NA","44","44","44","44","44","45","z","Fri Oct 20 14:39:04 2023","The main experiment item","yes","m21-ab-lexicalDecision.osexp","C:\Users\ekealey\Desktop","no","mono","no","18","no","white","no","yes","1080","legacy","44","44","C:/Users/ekealey/Desktop/subject-225.csv","xpyriment","Lentiform Loewenfeld","3.3.11","0","z","NA","NA","NA","NA","space","z","1102","NA","NA","NA","NA","22393","1102","2","legacy","1024","2","48000","-16","AB_m21","225","odd","FILL_NW","DARM","1883","217380","213602","215875","24288","NA","NA","NA","NA","NA","214104","NA","NA","NA","213101","NA","213071","1894","217580","NA","NA","NA","214144","1883","1883","NA","215247","215272","213071","214103","214124","morph21_Oliver/Morris","35","34542","45","yes","1920","11"
"250","78.26086956521739","78.26086956521739","763.6521739130435","763.6521739130435","black","no","xpyriment","legacy","legacy","0","203","NA","uniform","NA","NA","NA","1","undefined","1","0","45","45","45","0","45","45","45","NA","0","45","NA","NA","0","45","NA","45","0","45","NA","NA","NA","45","0","0","NA","45","45","45","45","45","46","z","Fri Oct 20 14:39:04 2023","The main experiment item","yes","m21-ab-lexicalDecision.osexp","C:\Users\ekealey\Desktop","no","mono","no","18","no","white","no","yes","1080","legacy","45","45","C:/Users/ekealey/Desktop/subject-225.csv","xpyriment","Lentiform Loewenfeld","3.3.11","0","z","NA","NA","NA","NA","space","z","586","NA","NA","NA","NA","22393","586","2","legacy","1024","2","48000","-16","AB_m21","225","odd","NW_S_COMP","LIDARY","1883","220905","219151","215875","24288","NA","NA","NA","NA","NA","219651","NA","NA","NA","218651","NA","218619","1894","221156","NA","NA","NA","219692","1883","1883","NA","220278","220302","218619","219651","219672","morph21_Oliver/Morris","36","35128","46","yes","1920","3"
"250","78.72340425531915","78.72340425531915","762.4042553191489","762.4042553191489","black","no","xpyriment","legacy","legacy","0","206","NA","uniform","NA","NA","NA","1","undefined","1","0","46","46","46","0","46","46","46","NA","0","46","NA","NA","0","46","NA","46","0","46","NA","NA","NA","46","0","0","NA","46","46","46","46","46","47","z","Fri Oct 20 14:39:04 2023","The main experiment item","yes","m21-ab-lexicalDecision.osexp","C:\Users\ekealey\Desktop","no","mono","no","18","no","white","no","yes","1080","legacy","46","46","C:/Users/ekealey/Desktop/subject-225.csv","xpyriment","Lentiform Loewenfeld","3.3.11","0","z","NA","NA","NA","NA","space","z","705","NA","NA","NA","NA","22393","705","2","legacy","1024","2","48000","-16","AB_m21","225","odd","NW_L_SIMP","BEARILT","1883","224585","222711","215875","24288","NA","NA","NA","NA","NA","223213","NA","NA","NA","222211","NA","222182","1894","224835","NA","NA","NA","223253","1883","1883","NA","223959","223982","222182","223213","223233","morph21_Oliver/Morris","37","35833","47","yes","1920","25"
"350","79.16666666666667","79.16666666666667","758.5208333333334","758.5208333333334","black","no","xpyriment","legacy","legacy","0","201","NA","uniform","NA","NA","NA","1","undefined","1","0","47","47","47","0","47","47","47","NA","0","47","NA","NA","0","47","NA","47","0","47","NA","NA","NA","47","0","0","NA","47","47","47","47","47","48","/","Fri Oct 20 14:39:04 2023","The main experiment item","yes","m21-ab-lexicalDecision.osexp","C:\Users\ekealey\Desktop","no","mono","no","18","no","white","no","yes","1080","legacy","47","47","C:/Users/ekealey/Desktop/subject-225.csv","xpyriment","Lentiform Loewenfeld","3.3.11","0","/","NA","NA","NA","NA","space","/","576","NA","NA","NA","NA","22393","576","2","legacy","1024","2","48000","-16","AB_m21","225","odd","CW_S","BOSSY","1883","229635","226385","228130","24288","NA","NA","NA","NA","NA","226885","NA","NA","NA","225884","NA","225851","1894","229985","NA","NA","NA","226926","1883","1883","NA","227503","227526","225851","226885","226906","morph21_Oliver/Morris","38","36409","48","yes","1920","49"
"250","79.59183673469387","79.59183673469387","753.3877551020408","753.3877551020408","black","no","xpyriment","legacy","legacy","0","207","NA","uniform","NA","NA","NA","1","undefined","1","0","48","48","48","0","48","48","48","NA","0","48","NA","NA","0","48","NA","48","0","48","NA","NA","NA","48","0","0","NA","48","48","48","48","48","49","/","Fri Oct 20 14:39:04 2023","The main experiment item","yes","m21-ab-lexicalDecision.osexp","C:\Users\ekealey\Desktop","no","mono","no","18","no","white","no","yes","1080","legacy","48","48","C:/Users/ekealey/Desktop/subject-225.csv","xpyriment","Lentiform Loewenfeld","3.3.11","0","/","NA","NA","NA","NA","space","/","507","NA","NA","NA","NA","22393","507","2","legacy","1024","2","48000","-16","AB_m21","225","odd","FILL_W","TREAT","1883","233228","231550","228130","24288","NA","NA","NA","NA","NA","232050","NA","NA","NA","231050","NA","231016","1894","233478","NA","NA","NA","232091","1883","1883","NA","232599","232623","231015","232050","232071","morph21_Oliver/Morris","39","36916","49","yes","1920","48"
"300","80","80","755.38","755.38","black","no","xpyriment","legacy","legacy","0","208","NA","uniform","NA","NA","NA","1","undefined","1","0","49","49","49","0","49","49","49","NA","0","49","NA","NA","0","49","NA","49","0","49","NA","NA","NA","49","0","0","NA","49","49","49","49","49","50","z","Fri Oct 20 14:39:04 2023","The main experiment item","yes","m21-ab-lexicalDecision.osexp","C:\Users\ekealey\Desktop","no","mono","no","18","no","white","no","yes","1080","legacy","49","49","C:/Users/ekealey/Desktop/subject-225.csv","xpyriment","Lentiform Loewenfeld","3.3.11","0","z","NA","NA","NA","NA","space","z","853","NA","NA","NA","NA","22393","853","2","legacy","1024","2","48000","-16","AB_m21","225","odd","FILL_NW","HEEM","1883","237107","235084","228130","24288","NA","NA","NA","NA","NA","235584","NA","NA","NA","234584","NA","234556","1894","237407","NA","NA","NA","235625","1883","1883","NA","236479","236504","234556","235584","235605","morph21_Oliver/Morris","40","37769","50","yes","1920","27"
"300","80.3921568627451","80.3921568627451","750.4117647058823","750.4117647058823","black","no","xpyriment","legacy","legacy","0","208","NA","uniform","NA","NA","NA","1","undefined","1","0","50","50","50","0","50","50","50","NA","0","50","NA","NA","0","50","NA","50","0","50","NA","NA","NA","50","0","0","NA","50","50","50","50","50","51","z","Fri Oct 20 14:39:04 2023","The main experiment item","yes","m21-ab-lexicalDecision.osexp","C:\Users\ekealey\Desktop","no","mono","no","18","no","white","no","yes","1080","legacy","50","50","C:/Users/ekealey/Desktop/subject-225.csv","xpyriment","Lentiform Loewenfeld","3.3.11","0","z","NA","NA","NA","NA","space","z","502","NA","NA","NA","NA","22393","502","2","legacy","1024","2","48000","-16","AB_m21","225","odd","FILL_NW","BAFED","1883","242144","238970","240641","24288","NA","NA","NA","NA","NA","239471","NA","NA","NA","238470","NA","238442","1894","242444","NA","NA","NA","239512","1883","1883","NA","240015","240038","238442","239471","239492","morph21_Oliver/Morris","41","38271","51","yes","1920","1"
"250","80.76923076923077","80.76923076923077","746.7692307692307","746.7692307692307","black","no","xpyriment","legacy","legacy","0","201","NA","uniform","NA","NA","NA","1","undefined","1","0","51","51","51","0","51","51","51","NA","0","51","NA","NA","0","51","NA","51","0","51","NA","NA","NA","51","0","0","NA","51","51","51","51","51","52","/","Fri Oct 20 14:39:04 2023","The main experiment item","yes","m21-ab-lexicalDecision.osexp","C:\Users\ekealey\Desktop","no","mono","no","18","no","white","no","yes","1080","legacy","51","51","C:/Users/ekealey/Desktop/subject-225.csv","xpyriment","Lentiform Loewenfeld","3.3.11","0","/","NA","NA","NA","NA","space","/","561","NA","NA","NA","NA","22393","561","2","legacy","1024","2","48000","-16","AB_m21","225","odd","CW_S","NOTICEABLE","1883","245740","244006","240641","24288","NA","NA","NA","NA","NA","244507","NA","NA","NA","243506","NA","243477","1894","245990","NA","NA","NA","244549","1883","1883","NA","245110","245137","243477","244507","244528","morph21_Oliver/Morris","42","38832","52","yes","1920","3"
"200","81.13207547169812","81.13207547169812","743.622641509434","743.622641509434","black","no","xpyriment","legacy","legacy","0","208","NA","uniform","NA","NA","NA","1","undefined","1","0","52","52","52","0","52","52","52","NA","0","52","NA","NA","0","52","NA","52","0","52","NA","NA","NA","52","0","0","NA","52","52","52","52","52","53","z","Fri Oct 20 14:39:04 2023","The main experiment item","yes","m21-ab-lexicalDecision.osexp","C:\Users\ekealey\Desktop","no","mono","no","18","no","white","no","yes","1080","legacy","52","52","C:/Users/ekealey/Desktop/subject-225.csv","xpyriment","Lentiform Loewenfeld","3.3.11","0","z","NA","NA","NA","NA","space","z","580","NA","NA","NA","NA","22393","580","2","legacy","1024","2","48000","-16","AB_m21","225","odd","FILL_NW","VUNKS","1883","249283","247533","240641","24288","NA","NA","NA","NA","NA","248034","NA","NA","NA","247032","NA","247006","1894","249483","NA","NA","NA","248074","1883","1883","NA","248654","248679","247006","248034","248054","morph21_Oliver/Morris","43","39412","53","yes","1920","49"
"400","81.48148148148148","81.48148148148148","741.2962962962963","741.2962962962963","black","no","xpyriment","legacy","legacy","0","201","NA","uniform","NA","NA","NA","1","undefined","1","0","53","53","53","0","53","53","53","NA","0","53","NA","NA","0","53","NA","53","0","53","NA","NA","NA","53","0","0","NA","53","53","53","53","53","54","/","Fri Oct 20 14:39:04 2023","The main experiment item","yes","m21-ab-lexicalDecision.osexp","C:\Users\ekealey\Desktop","no","mono","no","18","no","white","no","yes","1080","legacy","53","53","C:/Users/ekealey/Desktop/subject-225.csv","xpyriment","Lentiform Loewenfeld","3.3.11","0","/","NA","NA","NA","NA","space","/","618","NA","NA","NA","NA","22393","618","2","legacy","1024","2","48000","-16","AB_m21","225","odd","CW_S","DIETARY","1883","254346","251055","252843","24288","NA","NA","NA","NA","NA","251555","NA","NA","NA","250554","NA","250529","1894","254746","NA","NA","NA","251596","1883","1883","NA","252215","252239","250529","251555","251576","morph21_Oliver/Morris","44","40030","54","yes","1920","6"
"400","81.81818181818181","81.81818181818181","738.4545454545455","738.4545454545455","black","no","xpyriment","legacy","legacy","0","208","NA","uniform","NA","NA","NA","1","undefined","1","0","54","54","54","0","54","54","54","NA","0","54","NA","NA","0","54","NA","54","0","54","NA","NA","NA","54","0","0","NA","54","54","54","54","54","55","z","Fri Oct 20 14:39:04 2023","The main experiment item","yes","m21-ab-lexicalDecision.osexp","C:\Users\ekealey\Desktop","no","mono","no","18","no","white","no","yes","1080","legacy","54","54","C:/Users/ekealey/Desktop/subject-225.csv","xpyriment","Lentiform Loewenfeld","3.3.11","0","z","NA","NA","NA","NA","space","z","585","NA","NA","NA","NA","22393","585","2","legacy","1024","2","48000","-16","AB_m21","225","odd","FILL_NW","BORMS","1883","258060","256305","252843","24288","NA","NA","NA","NA","NA","256805","NA","NA","NA","255805","NA","255772","1894","258460","NA","NA","NA","256845","1883","1883","NA","257431","257455","255772","256805","256825","morph21_Oliver/Morris","45","40615","55","yes","1920","50"
"350","82.14285714285714","82.14285714285714","736.2857142857143","736.2857142857143","black","no","xpyriment","legacy","legacy","0","202","NA","uniform","NA","NA","NA","1","undefined","1","0","55","55","55","0","55","55","55","NA","0","55","NA","NA","0","55","NA","55","0","55","NA","NA","NA","55","0","0","NA","55","55","55","55","55","56","/","Fri Oct 20 14:39:04 2023","The main experiment item","yes","m21-ab-lexicalDecision.osexp","C:\Users\ekealey\Desktop","no","mono","no","18","no","white","no","yes","1080","legacy","55","55","C:/Users/ekealey/Desktop/subject-225.csv","xpyriment","Lentiform Loewenfeld","3.3.11","0","/","NA","NA","NA","NA","space","/","617","NA","NA","NA","NA","22393","617","2","legacy","1024","2","48000","-16","AB_m21","225","odd","CW_L","PARKING","1883","261827","260040","252843","24288","NA","NA","NA","NA","NA","260540","NA","NA","NA","259540","NA","259514","1894","262177","NA","NA","NA","260581","1883","1883","NA","261199","261223","259514","260540","260561","morph21_Oliver/Morris","46","41232","56","yes","1920","25"
"250","80.70175438596492","80.70175438596492","736.719298245614","736.719298245614","black","no","xpyriment","legacy","legacy","0","201","NA","uniform","NA","NA","NA","0","undefined","0","0","56","56","56","0","56","56","56","NA","0","56","NA","NA","0","56","NA","56","0","56","NA","NA","NA","56","0","0","NA","56","56","56","56","56","57","/","Fri Oct 20 14:39:04 2023","The main experiment item","yes","m21-ab-lexicalDecision.osexp","C:\Users\ekealey\Desktop","no","mono","no","18","no","white","no","yes","1080","legacy","56","56","C:/Users/ekealey/Desktop/subject-225.csv","xpyriment","Lentiform Loewenfeld","3.3.11","0","z","NA","NA","NA","NA","space","z","761","NA","NA","NA","NA","22393","761","2","legacy","1024","2","48000","-16","AB_m21","225","odd","CW_S","GRIMLY","1883","267178","263744","265674","24288","NA","NA","NA","NA","NA","264244","NA","NA","NA","263243","NA","263216","1894","267428","NA","NA","NA","264285","1883","1883","NA","265047","265071","263216","264244","264265","morph21_Oliver/Morris","46","41993","57","yes","1920","31"
"250","81.03448275862068","81.03448275862068","733.1206896551724","733.1206896551724","black","no","xpyriment","legacy","legacy","0","201","NA","uniform","NA","NA","NA","1","undefined","1","0","57","57","57","0","57","57","57","NA","0","57","NA","NA","0","57","NA","57","0","57","NA","NA","NA","57","0","0","NA","57","57","57","57","57","58","/","Fri Oct 20 14:39:04 2023","The main experiment item","yes","m21-ab-lexicalDecision.osexp","C:\Users\ekealey\Desktop","no","mono","no","18","no","white","no","yes","1080","legacy","57","57","C:/Users/ekealey/Desktop/subject-225.csv","xpyriment","Lentiform Loewenfeld","3.3.11","0","/","NA","NA","NA","NA","space","/","528","NA","NA","NA","NA","22393","528","2","legacy","1024","2","48000","-16","AB_m21","225","odd","CW_S","PLANNER","1883","270693","268992","265674","24288","NA","NA","NA","NA","NA","269493","NA","NA","NA","268490","NA","268458","1894","270943","NA","NA","NA","269534","1883","1883","NA","270063","270088","268458","269493","269514","morph21_Oliver/Morris","47","42521","58","yes","1920","22"
"400","79.66101694915254","79.66101694915254","737.2881355932203","737.2881355932203","black","no","xpyriment","legacy","legacy","0","204","NA","uniform","NA","NA","NA","0","undefined","0","0","58","58","58","0","58","58","58","NA","0","58","NA","NA","0","58","NA","58","0","58","NA","NA","NA","58","0","0","NA","58","58","58","58","58","59","z","Fri Oct 20 14:39:04 2023","The main experiment item","yes","m21-ab-lexicalDecision.osexp","C:\Users\ekealey\Desktop","no","mono","no","18","no","white","no","yes","1080","legacy","58","58","C:/Users/ekealey/Desktop/subject-225.csv","xpyriment","Lentiform Loewenfeld","3.3.11","0","/","NA","NA","NA","NA","space","/","979","NA","NA","NA","NA","22393","979","2","legacy","1024","2","48000","-16","AB_m21","225","odd","NW_L_COMP","ANGELISH","1883","274641","272493","265674","24288","NA","NA","NA","NA","NA","272995","NA","NA","NA","271992","NA","271967","1894","275041","NA","NA","NA","273035","1883","1883","NA","274015","274038","271967","272994","273015","morph21_Oliver/Morris","47","43500","59","yes","1920","7"
"200","80","80","738.8333333333334","738.8333333333334","black","no","xpyriment","legacy","legacy","0","203","NA","uniform","NA","NA","NA","1","undefined","1","0","59","59","59","0","59","59","59","NA","0","59","NA","NA","0","59","NA","59","0","59","NA","NA","NA","59","0","0","NA","59","59","59","59","59","60","z","Fri Oct 20 14:39:04 2023","The main experiment item","yes","m21-ab-lexicalDecision.osexp","C:\Users\ekealey\Desktop","no","mono","no","18","no","white","no","yes","1080","legacy","59","59","C:/Users/ekealey/Desktop/subject-225.csv","xpyriment","Lentiform Loewenfeld","3.3.11","0","z","NA","NA","NA","NA","space","z","830","NA","NA","NA","NA","22393","830","2","legacy","1024","2","48000","-16","AB_m21","225","odd","NW_S_COMP","ANTISM","1883","280189","276681","278684","24288","NA","NA","NA","NA","NA","277182","NA","NA","NA","276181","NA","276153","1894","280389","NA","NA","NA","277224","1883","1883","NA","278055","278080","276153","277182","277204","morph21_Oliver/Morris","48","44330","60","yes","1920","8"
"250","80.32786885245902","80.32786885245902","734.8032786885246","734.8032786885246","black","no","xpyriment","legacy","legacy","0","207","NA","uniform","NA","NA","NA","1","undefined","1","0","60","60","60","0","60","60","60","NA","0","60","NA","NA","0","60","NA","60","0","60","NA","NA","NA","60","0","0","NA","60","60","60","60","60","61","/","Fri Oct 20 14:39:04 2023","The main experiment item","yes","m21-ab-lexicalDecision.osexp","C:\Users\ekealey\Desktop","no","mono","no","18","no","white","no","yes","1080","legacy","60","60","C:/Users/ekealey/Desktop/subject-225.csv","xpyriment","Lentiform Loewenfeld","3.3.11","0","/","NA","NA","NA","NA","space","/","493","NA","NA","NA","NA","22393","493","2","legacy","1024","2","48000","-16","AB_m21","225","odd","FILL_W","SUIT","1883","283618","281955","278684","24288","NA","NA","NA","NA","NA","282456","NA","NA","NA","281453","NA","281419","1894","283868","NA","NA","NA","282496","1883","1883","NA","282990","283014","281419","282456","282476","morph21_Oliver/Morris","49","44823","61","yes","1920","49"
"300","80.64516129032258","80.64516129032258","731.9193548387096","731.9193548387096","black","no","xpyriment","legacy","legacy","0","208","NA","uniform","NA","NA","NA","1","undefined","1","0","61","61","61","0","61","61","61","NA","0","61","NA","NA","0","61","NA","61","0","61","NA","NA","NA","61","0","0","NA","61","61","61","61","61","62","z","Fri Oct 20 14:39:04 2023","The main experiment item","yes","m21-ab-lexicalDecision.osexp","C:\Users\ekealey\Desktop","no","mono","no","18","no","white","no","yes","1080","legacy","61","61","C:/Users/ekealey/Desktop/subject-225.csv","xpyriment","Lentiform Loewenfeld","3.3.11","0","z","NA","NA","NA","NA","space","z","556","NA","NA","NA","NA","22393","556","2","legacy","1024","2","48000","-16","AB_m21","225","odd","FILL_NW","VOOFS","1883","287163","285437","278684","24288","NA","NA","NA","NA","NA","285937","NA","NA","NA","284937","NA","284910","1894","287463","NA","NA","NA","285978","1883","1883","NA","286534","286559","284909","285937","285958","morph21_Oliver/Morris","50","45379","62","yes","1920","48"
"350","80.95238095238095","80.95238095238095","731.2857142857143","731.2857142857143","black","no","xpyriment","legacy","legacy","0","202","NA","uniform","NA","NA","NA","1","undefined","1","0","62","62","62","0","62","62","62","NA","0","62","NA","NA","0","62","NA","62","0","62","NA","NA","NA","62","0","0","NA","62","62","62","62","62","63","/","Fri Oct 20 14:39:04 2023","The main experiment item","yes","m21-ab-lexicalDecision.osexp","C:\Users\ekealey\Desktop","no","mono","no","18","no","white","no","yes","1080","legacy","62","62","C:/Users/ekealey/Desktop/subject-225.csv","xpyriment","Lentiform Loewenfeld","3.3.11","0","/","NA","NA","NA","NA","space","/","692","NA","NA","NA","NA","22393","692","2","legacy","1024","2","48000","-16","AB_m21","225","odd","CW_L","JUMPING","1883","292405","289036","290901","24288","NA","NA","NA","NA","NA","289537","NA","NA","NA","288535","NA","288508","1894","292755","NA","NA","NA","289577","1883","1883","NA","290270","290296","288508","289537","289557","morph21_Oliver/Morris","51","46071","63","yes","1920","30"
"350","81.25","81.25","730.59375","730.59375","black","no","xpyriment","legacy","legacy","0","208","NA","uniform","NA","NA","NA","1","undefined","1","0","63","63","63","0","63","63","63","NA","0","63","NA","NA","0","63","NA","63","0","63","NA","NA","NA","63","0","0","NA","63","63","63","63","63","64","z","Fri Oct 20 14:39:04 2023","The main experiment item","yes","m21-ab-lexicalDecision.osexp","C:\Users\ekealey\Desktop","no","mono","no","18","no","white","no","yes","1080","legacy","63","63","C:/Users/ekealey/Desktop/subject-225.csv","xpyriment","Lentiform Loewenfeld","3.3.11","0","z","NA","NA","NA","NA","space","z","687","NA","NA","NA","NA","22393","687","2","legacy","1024","2","48000","-16","AB_m21","225","odd","FILL_NW","KRAISE","1883","296172","294313","290901","24288","NA","NA","NA","NA","NA","294814","NA","NA","NA","293811","NA","293780","1894","296522","NA","NA","NA","294855","1883","1883","NA","295543","295568","293780","294814","294835","morph21_Oliver/Morris","52","46758","64","yes","1920","33"
"300","81.53846153846153","81.53846153846153","727.5384615384615","727.5384615384615","black","no","xpyriment","legacy","legacy","0","207","NA","uniform","NA","NA","NA","1","undefined","1","0","64","64","64","0","64","64","64","NA","0","64","NA","NA","0","64","NA","64","0","64","NA","NA","NA","64","0","0","NA","64","64","64","64","64","65","/","Fri Oct 20 14:39:04 2023","The main experiment item","yes","m21-ab-lexicalDecision.osexp","C:\Users\ekealey\Desktop","no","mono","no","18","no","white","no","yes","1080","legacy","64","64","C:/Users/ekealey/Desktop/subject-225.csv","xpyriment","Lentiform Loewenfeld","3.3.11","0","/","NA","NA","NA","NA","space","/","532","NA","NA","NA","NA","22393","532","2","legacy","1024","2","48000","-16","AB_m21","225","odd","FILL_W","BLUNT","1883","299803","298101","290901","24288","NA","NA","NA","NA","NA","298601","NA","NA","NA","297601","NA","297574","1894","300103","NA","NA","NA","298642","1883","1883","NA","299175","299200","297574","298601","298622","morph21_Oliver/Morris","53","47290","65","yes","1920","4"
"300","81.81818181818181","81.81818181818181","728.3030303030303","728.3030303030303","black","no","xpyriment","legacy","legacy","0","207","NA","uniform","NA","NA","NA","1","undefined","1","0","65","65","65","0","65","65","65","NA","0","65","NA","NA","0","65","NA","65","0","65","NA","NA","NA","65","0","0","NA","65","65","65","65","65","66","/","Fri Oct 20 14:39:04 2023","The main experiment item","yes","m21-ab-lexicalDecision.osexp","C:\Users\ekealey\Desktop","no","mono","no","18","no","white","no","yes","1080","legacy","65","65","C:/Users/ekealey/Desktop/subject-225.csv","xpyriment","Lentiform Loewenfeld","3.3.11","0","/","NA","NA","NA","NA","space","/","778","NA","NA","NA","NA","22393","778","2","legacy","1024","2","48000","-16","AB_m21","225","odd","FILL_W","BOX","1883","305107","301655","303603","24288","NA","NA","NA","NA","NA","302155","NA","NA","NA","301155","NA","301118","1894","305407","NA","NA","NA","302196","1883","1883","NA","302975","302999","301118","302155","302176","morph21_Oliver/Morris","54","48068","66","yes","1920","42"
"350","82.08955223880596","82.08955223880596","725.2089552238806","725.2089552238806","black","no","xpyriment","legacy","legacy","0","201","NA","uniform","NA","NA","NA","1","undefined","1","0","66","66","66","0","66","66","66","NA","0","66","NA","NA","0","66","NA","66","0","66","NA","NA","NA","66","0","0","NA","66","66","66","66","66","67","/","Fri Oct 20 14:39:04 2023","The main experiment item","yes","m21-ab-lexicalDecision.osexp","C:\Users\ekealey\Desktop","no","mono","no","18","no","white","no","yes","1080","legacy","66","66","C:/Users/ekealey/Desktop/subject-225.csv","xpyriment","Lentiform Loewenfeld","3.3.11","0","/","NA","NA","NA","NA","space","/","521","NA","NA","NA","NA","22393","521","2","legacy","1024","2","48000","-16","AB_m21","225","odd","CW_S","SINGER","1883","308681","306990","303603","24288","NA","NA","NA","NA","NA","307492","NA","NA","NA","306489","NA","306463","1894","309031","NA","NA","NA","307532","1883","1883","NA","308054","308078","306463","307491","307512","morph21_Oliver/Morris","55","48589","67","yes","1920","17"
"350","82.3529411764706","82.3529411764706","722.4558823529412","722.4558823529412","black","no","xpyriment","legacy","legacy","0","202","NA","uniform","NA","NA","NA","1","undefined","1","0","67","67","67","0","67","67","67","NA","0","67","NA","NA","0","67","NA","67","0","67","NA","NA","NA","67","0","0","NA","67","67","67","67","67","68","/","Fri Oct 20 14:39:04 2023","The main experiment item","yes","m21-ab-lexicalDecision.osexp","C:\Users\ekealey\Desktop","no","mono","no","18","no","white","no","yes","1080","legacy","67","67","C:/Users/ekealey/Desktop/subject-225.csv","xpyriment","Lentiform Loewenfeld","3.3.11","0","/","NA","NA","NA","NA","space","/","538","NA","NA","NA","NA","22393","538","2","legacy","1024","2","48000","-16","AB_m21","225","odd","CW_L","EDITOR","1883","312300","310590","303603","24288","NA","NA","NA","NA","NA","311090","NA","NA","NA","310089","NA","310065","1894","312650","NA","NA","NA","311131","1883","1883","NA","311670","311695","310065","311090","311111","morph21_Oliver/Morris","56","49127","68","yes","1920","45"
"400","82.6086956521739","82.6086956521739","720.4347826086956","720.4347826086956","black","no","xpyriment","legacy","legacy","0","207","NA","uniform","NA","NA","NA","1","undefined","1","0","68","68","68","0","68","68","68","NA","0","68","NA","NA","0","68","NA","68","0","68","NA","NA","NA","68","0","0","NA","68","68","68","68","68","69","/","Fri Oct 20 14:39:04 2023","The main experiment item","yes","m21-ab-lexicalDecision.osexp","C:\Users\ekealey\Desktop","no","mono","no","18","no","white","no","yes","1080","legacy","68","68","C:/Users/ekealey/Desktop/subject-225.csv","xpyriment","Lentiform Loewenfeld","3.3.11","0","/","NA","NA","NA","NA","space","/","583","NA","NA","NA","NA","22393","583","2","legacy","1024","2","48000","-16","AB_m21","225","odd","FILL_W","CRUNCH","1883","317457","314202","315953","24288","NA","NA","NA","NA","NA","314703","NA","NA","NA","313701","NA","313671","1894","317857","NA","NA","NA","314743","1883","1883","NA","315327","315350","313671","314703","314723","morph21_Oliver/Morris","57","49710","69","yes","1920","20"
"200","82.85714285714286","82.85714285714286","722.6571428571428","722.6571428571428","black","no","xpyriment","legacy","legacy","0","208","NA","uniform","NA","NA","NA","1","undefined","1","0","69","69","69","0","69","69","69","NA","0","69","NA","NA","0","69","NA","69","0","69","NA","NA","NA","69","0","0","NA","69","69","69","69","69","70","z","Fri Oct 20 14:39:04 2023","The main experiment item","yes","m21-ab-lexicalDecision.osexp","C:\Users\ekealey\Desktop","no","mono","no","18","no","white","no","yes","1080","legacy","69","69","C:/Users/ekealey/Desktop/subject-225.csv","xpyriment","Lentiform Loewenfeld","3.3.11","0","z","NA","NA","NA","NA","space","z","876","NA","NA","NA","NA","22393","876","2","legacy","1024","2","48000","-16","AB_m21","225","odd","FILL_NW","FALONS","1883","321441","319395","315953","24288","NA","NA","NA","NA","NA","319897","NA","NA","NA","318894","NA","318862","1894","321641","NA","NA","NA","319938","1883","1883","NA","320814","320838","318862","319897","319918","morph21_Oliver/Morris","58","50586","70","yes","1920","19"
"200","83.09859154929578","83.09859154929578","720.5070422535211","720.5070422535211","black","no","xpyriment","legacy","legacy","0","207","NA","uniform","NA","NA","NA","1","undefined","1","0","70","70","70","0","70","70","70","NA","0","70","NA","NA","0","70","NA","70","0","70","NA","NA","NA","70","0","0","NA","70","70","70","70","70","71","/","Fri Oct 20 14:39:04 2023","The main experiment item","yes","m21-ab-lexicalDecision.osexp","C:\Users\ekealey\Desktop","no","mono","no","18","no","white","no","yes","1080","legacy","70","70","C:/Users/ekealey/Desktop/subject-225.csv","xpyriment","Lentiform Loewenfeld","3.3.11","0","/","NA","NA","NA","NA","space","/","570","NA","NA","NA","NA","22393","570","2","legacy","1024","2","48000","-16","AB_m21","225","odd","FILL_W","TEST","1883","324933","323190","315953","24288","NA","NA","NA","NA","NA","323692","NA","NA","NA","322689","NA","322663","1894","325133","NA","NA","NA","323732","1883","1883","NA","324303","324328","322663","323692","323712","morph21_Oliver/Morris","59","51156","71","yes","1920","47"
"300","83.33333333333333","83.33333333333333","717.2083333333334","717.2083333333334","black","no","xpyriment","legacy","legacy","0","201","NA","uniform","NA","NA","NA","1","undefined","1","0","71","71","71","0","71","71","71","NA","0","71","NA","NA","0","71","NA","71","0","71","NA","NA","NA","71","0","0","NA","71","71","71","71","71","72","/","Fri Oct 20 14:39:04 2023","The main experiment item","yes","m21-ab-lexicalDecision.osexp","C:\Users\ekealey\Desktop","no","mono","no","18","no","white","no","yes","1080","legacy","71","71","C:/Users/ekealey/Desktop/subject-225.csv","xpyriment","Lentiform Loewenfeld","3.3.11","0","/","NA","NA","NA","NA","space","/","483","NA","NA","NA","NA","22393","483","2","legacy","1024","2","48000","-16","AB_m21","225","odd","CW_S","RISKY","1883","329881","326724","328378","24288","NA","NA","NA","NA","NA","327225","NA","NA","NA","326223","NA","326198","1894","330181","NA","NA","NA","327266","1883","1883","NA","327750","327774","326198","327225","327246","morph21_Oliver/Morris","60","51639","72","yes","1920","50"
"300","83.56164383561644","83.56164383561644","714.8493150684932","714.8493150684932","black","no","xpyriment","legacy","legacy","0","204","NA","uniform","NA","NA","NA","1","undefined","1","0","72","72","72","0","72","72","72","NA","0","72","NA","NA","0","72","NA","72","0","72","NA","NA","NA","72","0","0","NA","72","72","72","72","72","73","z","Fri Oct 20 14:39:04 2023","The main experiment item","yes","m21-ab-lexicalDecision.osexp","C:\Users\ekealey\Desktop","no","mono","no","18","no","white","no","yes","1080","legacy","72","72","C:/Users/ekealey/Desktop/subject-225.csv","xpyriment","Lentiform Loewenfeld","3.3.11","0","z","NA","NA","NA","NA","space","z","545","NA","NA","NA","NA","22393","545","2","legacy","1024","2","48000","-16","AB_m21","225","odd","NW_L_COMP","BINDIC","1883","333458","331743","328378","24288","NA","NA","NA","NA","NA","332243","NA","NA","NA","331242","NA","331211","1894","333758","NA","NA","NA","332284","1883","1883","NA","332830","332854","331211","332243","332264","morph21_Oliver/Morris","61","52184","73","yes","1920","22"
"350","83.78378378378379","83.78378378378379","712","712","black","no","xpyriment","legacy","legacy","0","201","NA","uniform","NA","NA","NA","1","undefined","1","0","73","73","73","0","73","73","73","NA","0","73","NA","NA","0","73","NA","73","0","73","NA","NA","NA","73","0","0","NA","73","73","73","73","73","74","/","Fri Oct 20 14:39:04 2023","The main experiment item","yes","m21-ab-lexicalDecision.osexp","C:\Users\ekealey\Desktop","no","mono","no","18","no","white","no","yes","1080","legacy","73","73","C:/Users/ekealey/Desktop/subject-225.csv","xpyriment","Lentiform Loewenfeld","3.3.11","0","/","NA","NA","NA","NA","space","/","504","NA","NA","NA","NA","22393","504","2","legacy","1024","2","48000","-16","AB_m21","225","odd","CW_S","STRANGENESS","1883","336977","335305","328378","24288","NA","NA","NA","NA","NA","335805","NA","NA","NA","334805","NA","334775","1894","337327","NA","NA","NA","335845","1883","1883","NA","336350","336374","334775","335805","335825","morph21_Oliver/Morris","62","52688","74","yes","1920","46"
"200","84","84","712.5333333333333","712.5333333333333","black","no","xpyriment","legacy","legacy","0","207","NA","uniform","NA","NA","NA","undefined","undefined","1","0","74","74","74","0","74","74","74","NA","0","74","NA","NA","0","74","NA","74","0","74","NA","NA","NA","74","0","0","NA","74","74","74","74","74","75","/","Fri Oct 20 14:39:04 2023","The main experiment item","yes","m21-ab-lexicalDecision.osexp","C:\Users\ekealey\Desktop","no","mono","no","18","no","white","no","yes","1080","legacy","74","74","C:/Users/ekealey/Desktop/subject-225.csv","xpyriment","Lentiform Loewenfeld","3.3.11","0","space","space","NA","NA","NA","space","/","13286","13286","NA","NA","NA","22393","752","2","legacy","1024","2","48000","-16","AB_m21","225","odd","FILL_W","SAVE","1883","342299","338872","340795","24288","342504","NA","NA","NA","NA","339372","NA","NA","NA","338372","NA","338344","1894","355791","NA","NA","NA","339413","1883","1883","NA","340166","340191","338344","339372","339393","morph21_Oliver/Morris","63","53440","75","yes","1920","46"
"200","84.21052631578948","84.21052631578948","718.3157894736842","718.3157894736842","black","no","xpyriment","legacy","legacy","0","201","NA","uniform","NA","NA","NA","1","undefined","1","0","75","75","75","0","75","75","75","NA","0","75","NA","NA","0","75","NA","75","0","75","NA","NA","NA","75","0","0","NA","75","75","75","75","75","76","/","Fri Oct 20 14:39:04 2023","The main experiment item","yes","m21-ab-lexicalDecision.osexp","C:\Users\ekealey\Desktop","no","mono","no","18","no","white","no","yes","1080","legacy","75","75","C:/Users/ekealey/Desktop/subject-225.csv","xpyriment","Lentiform Loewenfeld","3.3.11","0","/","space","NA","NA","NA","space","/","1152","13286","NA","NA","NA","22393","1152","2","legacy","1024","2","48000","-16","AB_m21","225","odd","CW_S","BOLDNESS","1883","359690","357368","340795","24288","342504","NA","NA","NA","NA","357868","NA","NA","NA","356868","NA","356841","1894","359890","NA","NA","NA","357909","1883","1883","NA","359062","359086","356841","357868","357889","morph21_Oliver/Morris","64","54592","76","yes","1920","41"
"350","83.11688311688312","83.11688311688312","718.9350649350649","718.9350649350649","black","no","xpyriment","legacy","legacy","0","203","NA","uniform","NA","NA","NA","0","undefined","0","0","76","76","76","0","76","76","76","NA","0","76","NA","NA","0","76","NA","76","0","76","NA","NA","NA","76","0","0","NA","76","76","76","76","76","77","z","Fri Oct 20 14:39:04 2023","The main experiment item","yes","m21-ab-lexicalDecision.osexp","C:\Users\ekealey\Desktop","no","mono","no","18","no","white","no","yes","1080","legacy","76","76","C:/Users/ekealey/Desktop/subject-225.csv","xpyriment","Lentiform Loewenfeld","3.3.11","0","/","space","NA","NA","NA","space","/","766","13286","NA","NA","NA","22393","766","2","legacy","1024","2","48000","-16","AB_m21","225","odd","NW_S_COMP","PRINCEMENT","1883","363372","361433","340795","24288","342504","NA","NA","NA","NA","361935","NA","NA","NA","360932","NA","360902","1894","363722","NA","NA","NA","361976","1883","1883","NA","362742","362766","360902","361935","361956","morph21_Oliver/Morris","64","55358","77","yes","1920","17"
"300","82.05128205128206","82.05128205128206","719.9102564102565","719.9102564102565","black","no","xpyriment","legacy","legacy","0","204","NA","uniform","NA","NA","NA","0","undefined","0","0","77","77","77","0","77","77","77","NA","0","77","NA","NA","0","77","NA","77","0","77","NA","NA","NA","77","0","0","NA","77","77","77","77","77","78","z","Fri Oct 20 14:39:04 2023","The main experiment item","yes","m21-ab-lexicalDecision.osexp","C:\Users\ekealey\Desktop","no","mono","no","18","no","white","no","yes","1080","legacy","77","77","C:/Users/ekealey/Desktop/subject-225.csv","xpyriment","Lentiform Loewenfeld","3.3.11","0","/","space","NA","NA","NA","space","/","795","13286","NA","NA","NA","22393","795","2","legacy","1024","2","48000","-16","AB_m21","225","odd","NW_L_COMP","EMPLOYNESS","1883","368738","365270","367235","24288","342504","NA","NA","NA","NA","365771","NA","NA","NA","364768","NA","364741","1894","369038","NA","NA","NA","365811","1883","1883","NA","366606","366631","364741","365771","365791","morph21_Oliver/Morris","64","56153","78","yes","1920","21"
"250","82.27848101265823","82.27848101265823","716.9367088607595","716.9367088607595","black","no","xpyriment","legacy","legacy","0","201","NA","uniform","NA","NA","NA","1","undefined","1","0","78","78","78","0","78","78","78","NA","0","78","NA","NA","0","78","NA","78","0","78","NA","NA","NA","78","0","0","NA","78","78","78","78","78","79","/","Fri Oct 20 14:39:04 2023","The main experiment item","yes","m21-ab-lexicalDecision.osexp","C:\Users\ekealey\Desktop","no","mono","no","18","no","white","no","yes","1080","legacy","78","78","C:/Users/ekealey/Desktop/subject-225.csv","xpyriment","Lentiform Loewenfeld","3.3.11","0","/","space","NA","NA","NA","space","/","485","13286","NA","NA","NA","22393","485","2","legacy","1024","2","48000","-16","AB_m21","225","odd","CW_S","COSTLY","1883","372258","370603","367235","24288","342504","NA","NA","NA","NA","371103","NA","NA","NA","370103","NA","370076","1894","372508","NA","NA","NA","371144","1883","1883","NA","371630","371654","370076","371103","371124","morph21_Oliver/Morris","65","56638","79","yes","1920","36"
"300","82.5","82.5","715.3","715.3","black","no","xpyriment","legacy","legacy","0","208","NA","uniform","NA","NA","NA","1","undefined","1","0","79","79","79","0","79","79","79","NA","0","79","NA","NA","0","79","NA","79","0","79","NA","NA","NA","79","0","0","NA","79","79","79","79","79","80","z","Fri Oct 20 14:39:04 2023","The main experiment item","yes","m21-ab-lexicalDecision.osexp","C:\Users\ekealey\Desktop","no","mono","no","18","no","white","no","yes","1080","legacy","79","79","C:/Users/ekealey/Desktop/subject-225.csv","xpyriment","Lentiform Loewenfeld","3.3.11","0","z","space","NA","NA","NA","space","z","586","13286","NA","NA","NA","22393","586","2","legacy","1024","2","48000","-16","AB_m21","225","odd","FILL_NW","VOGS","1883","375804","374046","367235","24288","342504","NA","NA","NA","NA","374547","NA","NA","NA","373545","NA","373517","1894","376104","NA","NA","NA","374587","1883","1883","NA","375174","375199","373517","374546","374567","morph21_Oliver/Morris","66","57224","80","yes","1920","47"
"350","81.48148148148148","81.48148148148148","714.9135802469136","714.9135802469136","black","no","xpyriment","legacy","legacy","0","203","NA","uniform","NA","NA","NA","0","undefined","0","0","80","80","80","0","80","80","80","NA","0","80","NA","NA","0","80","NA","80","0","80","NA","NA","NA","80","0","0","NA","80","80","80","80","80","81","z","Fri Oct 20 14:39:04 2023","The main experiment item","yes","m21-ab-lexicalDecision.osexp","C:\Users\ekealey\Desktop","no","mono","no","18","no","white","no","yes","1080","legacy","80","80","C:/Users/ekealey/Desktop/subject-225.csv","xpyriment","Lentiform Loewenfeld","3.3.11","0","/","space","NA","NA","NA","space","/","684","13286","NA","NA","NA","22393","684","2","legacy","1024","2","48000","-16","AB_m21","225","odd","NW_S_COMP","HUMIDOUS","1883","381010","377652","379507","24288","342504","NA","NA","NA","NA","378152","NA","NA","NA","377152","NA","377119","1894","381360","NA","NA","NA","378193","1883","1883","NA","378878","378903","377119","378152","378173","morph21_Oliver/Morris","66","57908","81","yes","1920","25"
"200","81.70731707317073","81.70731707317073","713.4634146341464","713.4634146341464","black","no","xpyriment","legacy","legacy","0","208","NA","uniform","NA","NA","NA","1","undefined","1","0","81","81","81","0","81","81","81","NA","0","81","NA","NA","0","81","NA","81","0","81","NA","NA","NA","81","0","0","NA","81","81","81","81","81","82","z","Fri Oct 20 14:39:04 2023","The main experiment item","yes","m21-ab-lexicalDecision.osexp","C:\Users\ekealey\Desktop","no","mono","no","18","no","white","no","yes","1080","legacy","81","81","C:/Users/ekealey/Desktop/subject-225.csv","xpyriment","Lentiform Loewenfeld","3.3.11","0","z","space","NA","NA","NA","space","z","596","13286","NA","NA","NA","22393","596","2","legacy","1024","2","48000","-16","AB_m21","225","odd","FILL_NW","BLAYS","1883","384673","382907","379507","24288","342504","NA","NA","NA","NA","383407","NA","NA","NA","382407","NA","382374","1894","384874","NA","NA","NA","383449","1883","1883","NA","384046","384070","382374","383407","383428","morph21_Oliver/Morris","67","58504","82","yes","1920","8"
"400","81.92771084337349","81.92771084337349","711.6626506024096","711.6626506024096","black","no","xpyriment","legacy","legacy","0","202","NA","uniform","NA","NA","NA","1","undefined","1","0","82","82","82","0","82","82","82","NA","0","82","NA","NA","0","82","NA","82","0","82","NA","NA","NA","82","0","0","NA","82","82","82","82","82","83","/","Fri Oct 20 14:39:04 2023","The main experiment item","yes","m21-ab-lexicalDecision.osexp","C:\Users\ekealey\Desktop","no","mono","no","18","no","white","no","yes","1080","legacy","82","82","C:/Users/ekealey/Desktop/subject-225.csv","xpyriment","Lentiform Loewenfeld","3.3.11","0","/","space","NA","NA","NA","space","/","564","13286","NA","NA","NA","22393","564","2","legacy","1024","2","48000","-16","AB_m21","225","odd","CW_L","SPELLER","1883","388171","386435","379507","24288","342504","NA","NA","NA","NA","386937","NA","NA","NA","385934","NA","385907","1894","388571","NA","NA","NA","386978","1883","1883","NA","387543","387568","385907","386937","386958","morph21_Oliver/Morris","68","59068","83","yes","1920","3"
"350","82.14285714285714","82.14285714285714","711.0714285714286","711.0714285714286","black","no","xpyriment","legacy","legacy","0","203","NA","uniform","NA","NA","NA","1","undefined","1","0","83","83","83","0","83","83","83","NA","0","83","NA","NA","0","83","NA","83","0","83","NA","NA","NA","83","0","0","NA","83","83","83","83","83","84","z","Fri Oct 20 14:39:04 2023","The main experiment item","yes","m21-ab-lexicalDecision.osexp","C:\Users\ekealey\Desktop","no","mono","no","18","no","white","no","yes","1080","legacy","83","83","C:/Users/ekealey/Desktop/subject-225.csv","xpyriment","Lentiform Loewenfeld","3.3.11","0","z","space","NA","NA","NA","space","z","662","13286","NA","NA","NA","22393","662","2","legacy","1024","2","48000","-16","AB_m21","225","odd","NW_S_COMP","DEBTISH","1883","393448","390114","391945","24288","342504","NA","NA","NA","NA","390614","NA","NA","NA","389614","NA","389582","1894","393798","NA","NA","NA","390655","1883","1883","NA","391318","391341","389582","390614","390635","morph21_Oliver/Morris","69","59730","84","yes","1920","22"
"400","82.3529411764706","82.3529411764706","710.0235294117647","710.0235294117647","black","no","xpyriment","legacy","legacy","0","208","NA","uniform","NA","NA","NA","1","undefined","1","0","84","84","84","0","84","84","84","NA","0","84","NA","NA","0","84","NA","84","0","84","NA","NA","NA","84","0","0","NA","84","84","84","84","84","85","z","Fri Oct 20 14:39:04 2023","The main experiment item","yes","m21-ab-lexicalDecision.osexp","C:\Users\ekealey\Desktop","no","mono","no","18","no","white","no","yes","1080","legacy","84","84","C:/Users/ekealey/Desktop/subject-225.csv","xpyriment","Lentiform Loewenfeld","3.3.11","0","z","space","NA","NA","NA","space","z","622","13286","NA","NA","NA","22393","622","2","legacy","1024","2","48000","-16","AB_m21","225","odd","FILL_NW","ULNS","1883","397171","395380","391945","24288","342504","NA","NA","NA","NA","395880","NA","NA","NA","394880","NA","394844","1894","397571","NA","NA","NA","395920","1883","1883","NA","396542","396567","394844","395880","395900","morph21_Oliver/Morris","70","60352","85","yes","1920","45"
"250","82.55813953488372","82.55813953488372","707.2906976744187","707.2906976744187","black","no","xpyriment","legacy","legacy","0","202","NA","uniform","NA","NA","NA","1","undefined","1","0","85","85","85","0","85","85","85","NA","0","85","NA","NA","0","85","NA","85","0","85","NA","NA","NA","85","0","0","NA","85","85","85","85","85","86","/","Fri Oct 20 14:39:04 2023","The main experiment item","yes","m21-ab-lexicalDecision.osexp","C:\Users\ekealey\Desktop","no","mono","no","18","no","white","no","yes","1080","legacy","85","85","C:/Users/ekealey/Desktop/subject-225.csv","xpyriment","Lentiform Loewenfeld","3.3.11","0","/","space","NA","NA","NA","space","/","475","13286","NA","NA","NA","22393","475","2","legacy","1024","2","48000","-16","AB_m21","225","odd","CW_L","CREAMY","1883","400778","399132","391945","24288","342504","NA","NA","NA","NA","399634","NA","NA","NA","398631","NA","398606","1894","401028","NA","NA","NA","399674","1883","1883","NA","400150","400175","398606","399634","399654","morph21_Oliver/Morris","71","60827","86","yes","1920","49"
"300","82.75862068965517","82.75862068965517","708.0919540229885","708.0919540229885","black","no","xpyriment","legacy","legacy","0","204","NA","uniform","NA","NA","NA","1","undefined","1","0","86","86","86","0","86","86","86","NA","0","86","NA","NA","0","86","NA","86","0","86","NA","NA","NA","86","0","0","NA","86","86","86","86","86","87","z","Fri Oct 20 14:39:04 2023","The main experiment item","yes","m21-ab-lexicalDecision.osexp","C:\Users\ekealey\Desktop","no","mono","no","18","no","white","no","yes","1080","legacy","86","86","C:/Users/ekealey/Desktop/subject-225.csv","xpyriment","Lentiform Loewenfeld","3.3.11","0","z","space","NA","NA","NA","space","z","777","13286","NA","NA","NA","22393","777","2","legacy","1024","2","48000","-16","AB_m21","225","odd","NW_L_COMP","NORTHIZE","1883","406035","402583","404532","24288","342504","NA","NA","NA","NA","403083","NA","NA","NA","402083","NA","402055","1894","406335","NA","NA","NA","403124","1883","1883","NA","403902","403927","402055","403083","403104","morph21_Oliver/Morris","72","61604","87","yes","1920","20"
"250","81.81818181818181","81.81818181818181","707.0454545454545","707.0454545454545","black","no","xpyriment","legacy","legacy","0","208","NA","uniform","NA","NA","NA","0","undefined","0","0","87","87","87","0","87","87","87","NA","0","87","NA","NA","0","87","NA","87","0","87","NA","NA","NA","87","0","0","NA","87","87","87","87","87","88","z","Fri Oct 20 14:39:04 2023","The main experiment item","yes","m21-ab-lexicalDecision.osexp","C:\Users\ekealey\Desktop","no","mono","no","18","no","white","no","yes","1080","legacy","87","87","C:/Users/ekealey/Desktop/subject-225.csv","xpyriment","Lentiform Loewenfeld","3.3.11","0","/","space","NA","NA","NA","space","/","616","13286","NA","NA","NA","22393","616","2","legacy","1024","2","48000","-16","AB_m21","225","odd","FILL_NW","DOWED","1883","409681","407896","404532","24288","342504","NA","NA","NA","NA","408397","NA","NA","NA","407393","NA","407364","1894","409931","NA","NA","NA","408437","1883","1883","NA","409054","409078","407364","408397","408417","morph21_Oliver/Morris","72","62220","88","yes","1920","16"
"350","82.02247191011236","82.02247191011236","706.9101123595506","706.9101123595506","black","no","xpyriment","legacy","legacy","0","206","NA","uniform","NA","NA","NA","1","undefined","1","0","88","88","88","0","88","88","88","NA","0","88","NA","NA","0","88","NA","88","0","88","NA","NA","NA","88","0","0","NA","88","88","88","88","88","89","z","Fri Oct 20 14:39:04 2023","The main experiment item","yes","m21-ab-lexicalDecision.osexp","C:\Users\ekealey\Desktop","no","mono","no","18","no","white","no","yes","1080","legacy","88","88","C:/Users/ekealey/Desktop/subject-225.csv","xpyriment","Lentiform Loewenfeld","3.3.11","0","z","space","NA","NA","NA","space","z","695","13286","NA","NA","NA","22393","695","2","legacy","1024","2","48000","-16","AB_m21","225","odd","NW_L_SIMP","WIGITH","1883","413345","411482","404532","24288","342504","NA","NA","NA","NA","411982","NA","NA","NA","410981","NA","410949","1894","413695","NA","NA","NA","412023","1883","1883","NA","412719","412742","410949","411982","412003","morph21_Oliver/Morris","73","62915","89","yes","1920","9"
"350","82.22222222222223","82.22222222222223","705.8555555555556","705.8555555555556","black","no","xpyriment","legacy","legacy","0","207","NA","uniform","NA","NA","NA","1","undefined","1","0","89","89","89","0","89","89","89","NA","0","89","NA","NA","0","89","NA","89","0","89","NA","NA","NA","89","0","0","NA","89","89","89","89","89","90","/","Fri Oct 20 14:39:04 2023","The main experiment item","yes","m21-ab-lexicalDecision.osexp","C:\Users\ekealey\Desktop","no","mono","no","18","no","white","no","yes","1080","legacy","89","89","C:/Users/ekealey/Desktop/subject-225.csv","xpyriment","Lentiform Loewenfeld","3.3.11","0","/","space","NA","NA","NA","space","/","612","13286","NA","NA","NA","22393","612","2","legacy","1024","2","48000","-16","AB_m21","225","odd","FILL_W","WEIRD","1883","418539","415252","417035","24288","342504","NA","NA","NA","NA","415752","NA","NA","NA","414751","NA","414727","1894","418889","NA","NA","NA","415793","1883","1883","NA","416406","416432","414727","415752","415773","morph21_Oliver/Morris","74","63527","90","yes","1920","2"
"300","82.41758241758242","82.41758241758242","709.4285714285714","709.4285714285714","black","no","xpyriment","legacy","legacy","0","205","NA","uniform","NA","NA","NA","1","undefined","1","0","90","90","90","0","90","90","90","NA","0","90","NA","NA","0","90","NA","90","0","90","NA","NA","NA","90","0","0","NA","90","90","90","90","90","91","z","Fri Oct 20 14:39:04 2023","The main experiment item","yes","m21-ab-lexicalDecision.osexp","C:\Users\ekealey\Desktop","no","mono","no","18","no","white","no","yes","1080","legacy","90","90","C:/Users/ekealey/Desktop/subject-225.csv","xpyriment","Lentiform Loewenfeld","3.3.11","0","z","space","NA","NA","NA","space","z","1031","13286","NA","NA","NA","22393","1031","2","legacy","1024","2","48000","-16","AB_m21","225","odd","NW_S_SIMP","FEVERIME","1883","422667","420464","417035","24288","342504","NA","NA","NA","NA","420965","NA","NA","NA","419962","NA","419926","1894","422967","NA","NA","NA","421006","1883","1883","NA","422038","422064","419926","420965","420986","morph21_Oliver/Morris","75","64558","91","yes","1920","24"
"400","82.6086956521739","82.6086956521739","708.5108695652174","708.5108695652174","black","no","xpyriment","legacy","legacy","0","205","NA","uniform","NA","NA","NA","1","undefined","1","0","91","91","91","0","91","91","91","NA","0","91","NA","NA","0","91","NA","91","0","91","NA","NA","NA","91","0","0","NA","91","91","91","91","91","92","z","Fri Oct 20 14:39:04 2023","The main experiment item","yes","m21-ab-lexicalDecision.osexp","C:\Users\ekealey\Desktop","no","mono","no","18","no","white","no","yes","1080","legacy","91","91","C:/Users/ekealey/Desktop/subject-225.csv","xpyriment","Lentiform Loewenfeld","3.3.11","0","z","space","NA","NA","NA","space","z","625","13286","NA","NA","NA","22393","625","2","legacy","1024","2","48000","-16","AB_m21","225","odd","NW_S_SIMP","AIDIG","1883","426323","424525","417035","24288","342504","NA","NA","NA","NA","425028","NA","NA","NA","424024","NA","423999","1894","426723","NA","NA","NA","425068","1883","1883","NA","425694","425719","423999","425027","425048","morph21_Oliver/Morris","76","65183","92","yes","1920","4"
"250","81.72043010752688","81.72043010752688","709.8387096774194","709.8387096774194","black","no","xpyriment","legacy","legacy","0","203","NA","uniform","NA","NA","NA","0","undefined","0","0","92","92","92","0","92","92","92","NA","0","92","NA","NA","0","92","NA","92","0","92","NA","NA","NA","92","0","0","NA","92","92","92","92","92","93","z","Fri Oct 20 14:39:04 2023","The main experiment item","yes","m21-ab-lexicalDecision.osexp","C:\Users\ekealey\Desktop","no","mono","no","18","no","white","no","yes","1080","legacy","92","92","C:/Users/ekealey/Desktop/subject-225.csv","xpyriment","Lentiform Loewenfeld","3.3.11","0","/","space","NA","NA","NA","space","/","832","13286","NA","NA","NA","22393","832","2","legacy","1024","2","48000","-16","AB_m21","225","odd","NW_S_COMP","BRANCHER","1883","431804","428296","430299","24288","342504","NA","NA","NA","NA","428797","NA","NA","NA","427795","NA","427770","1894","432054","NA","NA","NA","428838","1883","1883","NA","429671","429696","427770","428797","428818","morph21_Oliver/Morris","76","66015","93","yes","1920","16"
