"ITI","acc","accuracy","average_response_time","avg_rt","background","bidi","canvas_backend","clock_backend","color_backend","compensation","cond_trig","condtrigtime","coordinates","coroutines_cycles","coroutines_duration","coroutines_mean_cycle_duration","correct","correct_instructions_1","correct_new_keyboard_response_1","count_BA_m21","count_ITI","count_blank_screen","count_blink_screen","count_block1","count_break1","count_break2","count_break3_1","count_canvas","count_correct_trigger","count_def_chain","count_end_screen","count_fixation_1","count_getting_started","count_inc_counter","count_incorrect_trigger","count_instructions_1","count_logger","count_logscript","count_new_coroutines","count_new_inline_script","count_new_keyboard_response_1","count_reset_counter_prep","count_reset_counter_run","count_responsescreen","count_sequence","count_start_trigger","count_target_present","count_word_trigger","counter","cresp","datetime","description","disable_garbage_collection","experiment_file","experiment_path","font_bold","font_family","font_italic","font_size","font_underline","foreground","form_clicks","fullscreen","height","keyboard_backend","live_row","live_row_block1","logfile","mouse_backend","opensesame_codename","opensesame_version","repeat_cycle","response","response_break1","response_break2","response_break3_1","response_end_screen","response_instructions_1","response_new_keyboard_response_1","response_time","response_time_break1","response_time_break2","response_time_break3_1","response_time_end_screen","response_time_instructions_1","response_time_new_keyboard_response_1","round_decimals","sampler_backend","sound_buf_size","sound_channels","sound_freq","sound_sample_size","start","subject_nr","subject_parity","targ_type","target","time_BA_m21","time_ITI","time_blank_screen","time_blink_screen","time_block1","time_break1","time_break2","time_break3_1","time_canvas","time_correct_trigger","time_def_chain","time_end_screen","time_fixation_1","time_getting_started","time_inc_counter","time_incorrect_trigger","time_instructions_1","time_logger","time_logscript","time_new_inline_script","time_new_keyboard_response_1","time_reset_counter_prep","time_reset_counter_run","time_responsescreen","time_sequence","time_start_trigger","time_target_present","time_word_trigger","title","total_correct","total_response_time","total_responses","uniform_coordinates","width","word_trig"
"250","0","0","990","990","black","no","xpyriment","legacy","legacy","0","203","NA","uniform","50582","1000","0.0197698786129","0","undefined","0","0","0","0","0","0","0","0","0","NA","0","0","0","0","NA","0","0","0","0","NA","0","NA","0","0","0","0","0","0","0","0","1","z","11/14/18 16:26:37","The main experiment item","yes","FIN__BA__M21__7%3A10%3A17.osexp","C:\Users\ERP Testing Room\Desktop\Joanna\morph21","no","mono","no","18","no","white","no","yes","1080","legacy","0","0","C:/Users/ERP Testing Room/Desktop/Joanna/morph21/subject-153.csv","xpyriment","Kafkaesque Koffka","3.2.5","0","None","NA","NA","NA","NA","right shift","None","990","NA","NA","NA","NA","197719","990","2","legacy","1024","2","48000","-16","BA_m21","153","odd","NW_S_COMP","TREASONIME","1169","201735","200035","NA","198903","NA","NA","NA","NA","NA","200532","NA","199534","NA","199462","201726","1183","201985","NA","NA","200735","1169","1169","201126","199461","1169","200734","201985","morph21_Oliver/Morris","0","990","1","yes","1280","14"
"400","50","50","926","926","black","no","xpyriment","legacy","legacy","0","202","NA","uniform","61861","1000","0.0161652737589","1","undefined","1","0","1","1","1","0","1","1","1","NA","1","1","0","1","NA","1","1","0","1","NA","1","NA","1","0","0","1","1","0","1","1","2","/","11/14/18 16:26:37","The main experiment item","yes","FIN__BA__M21__7%3A10%3A17.osexp","C:\Users\ERP Testing Room\Desktop\Joanna\morph21","no","mono","no","18","no","white","no","yes","1080","legacy","1","1","C:/Users/ERP Testing Room/Desktop/Joanna/morph21/subject-153.csv","xpyriment","Kafkaesque Koffka","3.2.5","0","/","NA","NA","NA","NA","right shift","/","862","NA","NA","NA","NA","197719","862","2","legacy","1024","2","48000","-16","BA_m21","153","odd","CW_L","QUIETLY","1169","204801","203135","NA","198903","NA","NA","NA","NA","204795","203632","NA","202635","NA","202625","204795","1183","205201","NA","NA","203801","1169","1169","204193","202625","1169","203801","205201","morph21_Oliver/Morris","1","1852","2","yes","1280","36"
"250","66.6666666667","66.6666666667","816","816","black","no","xpyriment","legacy","legacy","0","202","NA","uniform","66388","1000","0.0150629631861","1","undefined","1","0","2","2","2","0","2","2","2","NA","2","2","0","2","NA","2","2","0","2","NA","2","NA","2","0","0","2","2","0","2","2","3","/","11/14/18 16:26:37","The main experiment item","yes","FIN__BA__M21__7%3A10%3A17.osexp","C:\Users\ERP Testing Room\Desktop\Joanna\morph21","no","mono","no","18","no","white","no","yes","1080","legacy","2","2","C:/Users/ERP Testing Room/Desktop/Joanna/morph21/subject-153.csv","xpyriment","Kafkaesque Koffka","3.2.5","0","/","NA","NA","NA","NA","right shift","/","596","NA","NA","NA","NA","197719","596","2","legacy","1024","2","48000","-16","BA_m21","153","odd","CW_L","EXCITEMENT","1169","209560","206393","208052","198903","NA","NA","NA","NA","208043","206890","NA","205893","NA","205890","208043","1183","209810","NA","NA","207051","1169","1169","207443","205889","1169","207051","209810","morph21_Oliver/Morris","2","2448","3","yes","1280","38"
"400","75","75","853.25","853.25","black","no","xpyriment","legacy","legacy","0","204","NA","uniform","50986","1000","0.0196132271604","1","undefined","1","0","3","3","3","0","3","3","3","NA","3","3","0","3","NA","3","3","0","3","NA","3","NA","3","0","0","3","3","0","3","3","4","z","11/14/18 16:26:37","The main experiment item","yes","FIN__BA__M21__7%3A10%3A17.osexp","C:\Users\ERP Testing Room\Desktop\Joanna\morph21","no","mono","no","18","no","white","no","yes","1080","legacy","3","3","C:/Users/ERP Testing Room/Desktop/Joanna/morph21/subject-153.csv","xpyriment","Kafkaesque Koffka","3.2.5","0","z","NA","NA","NA","NA","right shift","z","965","NA","NA","NA","NA","197719","965","2","legacy","1024","2","48000","-16","BA_m21","153","odd","NW_L_COMP","RIPENGE","1169","212593","210935","208052","198903","NA","NA","NA","NA","212589","211432","NA","210435","NA","210428","212589","1183","212993","NA","NA","211602","1169","1169","211993","210428","1169","211602","212993","morph21_Oliver/Morris","3","3413","4","yes","1280","4"
"250","80","80","792.4","792.4","black","no","xpyriment","legacy","legacy","0","207","NA","uniform","66367","1000","0.0150677294439","1","undefined","1","0","4","4","4","0","4","4","4","NA","4","4","0","4","NA","4","4","0","4","NA","4","NA","4","0","0","4","4","0","4","4","5","/","11/14/18 16:26:37","The main experiment item","yes","FIN__BA__M21__7%3A10%3A17.osexp","C:\Users\ERP Testing Room\Desktop\Joanna\morph21","no","mono","no","18","no","white","no","yes","1080","legacy","4","4","C:/Users/ERP Testing Room/Desktop/Joanna/morph21/subject-153.csv","xpyriment","Kafkaesque Koffka","3.2.5","0","/","NA","NA","NA","NA","right shift","/","549","NA","NA","NA","NA","197719","549","2","legacy","1024","2","48000","-16","BA_m21","153","odd","FILL_W","SOUGHT","1169","215810","214118","208052","198903","NA","NA","NA","NA","215801","214616","NA","213618","NA","213613","215801","1183","216060","NA","NA","214810","1169","1169","215202","213613","1169","214810","216060","morph21_Oliver/Morris","4","3962","5","yes","1280","40"
"300","66.6666666667","66.6666666667","826.333333333","826.333333333","black","no","xpyriment","legacy","legacy","0","205","NA","uniform","51501","1000","0.0194170986971","0","undefined","0","0","5","5","5","0","5","5","5","NA","5","5","0","5","NA","5","5","0","5","NA","5","NA","5","0","0","5","5","0","5","5","6","z","11/14/18 16:26:37","The main experiment item","yes","FIN__BA__M21__7%3A10%3A17.osexp","C:\Users\ERP Testing Room\Desktop\Joanna\morph21","no","mono","no","18","no","white","no","yes","1080","legacy","5","5","C:/Users/ERP Testing Room/Desktop/Joanna/morph21/subject-153.csv","xpyriment","Kafkaesque Koffka","3.2.5","0","None","NA","NA","NA","NA","right shift","None","996","NA","NA","NA","NA","197719","996","2","legacy","1024","2","48000","-16","BA_m21","153","odd","NW_S_SIMP","TILTARY","1169","220420","217261","218911","198903","NA","NA","NA","NA","215801","217758","NA","216761","NA","216749","218907","1183","220720","NA","NA","217911","1169","1169","218311","216749","1169","217911","220720","morph21_Oliver/Morris","4","4958","6","yes","1280","17"
"300","57.1428571429","57.1428571429","827.285714286","827.285714286","black","no","xpyriment","legacy","legacy","0","208","NA","uniform","56758","1000","0.0176186616865","0","undefined","0","0","6","6","6","0","6","6","6","NA","6","6","0","6","NA","6","6","0","6","NA","6","NA","6","0","0","6","6","0","6","6","7","z","11/14/18 16:26:37","The main experiment item","yes","FIN__BA__M21__7%3A10%3A17.osexp","C:\Users\ERP Testing Room\Desktop\Joanna\morph21","no","mono","no","18","no","white","no","yes","1080","legacy","6","6","C:/Users/ERP Testing Room/Desktop/Joanna/morph21/subject-153.csv","xpyriment","Kafkaesque Koffka","3.2.5","0","/","NA","NA","NA","NA","right shift","/","833","NA","NA","NA","NA","197719","833","2","legacy","1024","2","48000","-16","BA_m21","153","odd","FILL_NW","KEMT","1169","223461","221820","218911","198903","NA","NA","NA","NA","215801","222317","NA","221320","NA","221309","223455","1183","223762","NA","NA","222462","1169","1169","222853","221309","1169","222461","223762","morph21_Oliver/Morris","4","5791","7","yes","1280","32"
"350","62.5","62.5","800","800","black","no","xpyriment","legacy","legacy","0","207","NA","uniform","69116","1000","0.014468429886","1","undefined","1","0","7","7","7","0","7","7","7","NA","7","7","0","7","NA","7","7","0","7","NA","7","NA","7","0","0","7","7","0","7","7","8","/","11/14/18 16:26:37","The main experiment item","yes","FIN__BA__M21__7%3A10%3A17.osexp","C:\Users\ERP Testing Room\Desktop\Joanna\morph21","no","mono","no","18","no","white","no","yes","1080","legacy","7","7","C:/Users/ERP Testing Room/Desktop/Joanna/morph21/subject-153.csv","xpyriment","Kafkaesque Koffka","3.2.5","0","/","NA","NA","NA","NA","right shift","/","609","NA","NA","NA","NA","197719","609","2","legacy","1024","2","48000","-16","BA_m21","153","odd","FILL_W","BRISK","1169","226670","224962","218911","198903","NA","NA","NA","NA","226666","225459","NA","224462","NA","224452","226666","1183","227020","NA","NA","225678","1169","1169","226070","224451","1169","225678","227020","morph21_Oliver/Morris","5","6400","8","yes","1280","8"
"400","66.6666666667","66.6666666667","803.444444444","803.444444444","black","no","xpyriment","legacy","legacy","0","202","NA","uniform","56537","1000","0.0176875320587","1","undefined","1","0","8","8","8","0","8","8","8","NA","8","8","0","8","NA","8","8","0","8","NA","8","NA","8","0","0","8","8","0","8","8","9","/","11/14/18 16:26:37","The main experiment item","yes","FIN__BA__M21__7%3A10%3A17.osexp","C:\Users\ERP Testing Room\Desktop\Joanna\morph21","no","mono","no","18","no","white","no","yes","1080","legacy","8","8","C:/Users/ERP Testing Room/Desktop/Joanna/morph21/subject-153.csv","xpyriment","Kafkaesque Koffka","3.2.5","0","/","NA","NA","NA","NA","right shift","/","831","NA","NA","NA","NA","197719","831","2","legacy","1024","2","48000","-16","BA_m21","153","odd","CW_L","CLOUDLESS","1169","231428","228270","229920","198903","NA","NA","NA","NA","229916","228767","NA","227770","NA","227765","229916","1183","231829","NA","NA","228920","1169","1169","229320","227765","1169","228920","231829","morph21_Oliver/Morris","6","7231","9","yes","1280","33"
"250","70","70","783.1","783.1","black","no","xpyriment","legacy","legacy","0","207","NA","uniform","62995","1000","0.0158742757362","1","undefined","1","0","9","9","9","0","9","9","9","NA","9","9","0","9","NA","9","9","0","9","NA","9","NA","9","0","0","9","9","0","9","9","10","/","11/14/18 16:26:37","The main experiment item","yes","FIN__BA__M21__7%3A10%3A17.osexp","C:\Users\ERP Testing Room\Desktop\Joanna\morph21","no","mono","no","18","no","white","no","yes","1080","legacy","9","9","C:/Users/ERP Testing Room/Desktop/Joanna/morph21/subject-153.csv","xpyriment","Kafkaesque Koffka","3.2.5","0","/","NA","NA","NA","NA","right shift","/","600","NA","NA","NA","NA","197719","600","2","legacy","1024","2","48000","-16","BA_m21","153","odd","FILL_W","FIERCE","1169","234696","233037","229920","198903","NA","NA","NA","NA","234686","233534","NA","232537","NA","232528","234686","1183","234946","NA","NA","233695","1169","1169","234087","232528","1169","233695","234946","morph21_Oliver/Morris","7","7831","10","yes","1280","24"
"300","63.6363636364","63.6363636364","802.090909091","802.090909091","black","no","xpyriment","legacy","legacy","0","206","NA","uniform","48538","1000","0.020602414603","0","undefined","0","0","10","10","10","0","10","10","10","NA","10","10","0","10","NA","10","10","0","10","NA","10","NA","10","0","0","10","10","0","10","10","11","z","11/14/18 16:26:37","The main experiment item","yes","FIN__BA__M21__7%3A10%3A17.osexp","C:\Users\ERP Testing Room\Desktop\Joanna\morph21","no","mono","no","18","no","white","no","yes","1080","legacy","10","10","C:/Users/ERP Testing Room/Desktop/Joanna/morph21/subject-153.csv","xpyriment","Kafkaesque Koffka","3.2.5","0","None","NA","NA","NA","NA","right shift","None","992","NA","NA","NA","NA","197719","992","2","legacy","1024","2","48000","-16","BA_m21","153","odd","NW_L_SIMP","BEANISH","1169","237880","236196","229920","198903","NA","NA","NA","NA","234686","236694","NA","235696","NA","235686","237872","1183","238180","NA","NA","236880","1169","1169","237271","235686","1169","236880","238180","morph21_Oliver/Morris","7","8823","11","yes","1280","8"
"350","66.6666666667","66.6666666667","791.25","791.25","black","no","xpyriment","legacy","legacy","0","204","NA","uniform","62299","1000","0.0160516220164","1","undefined","1","0","11","11","11","0","11","11","11","NA","11","11","0","11","NA","11","11","0","11","NA","11","NA","11","0","0","11","11","0","11","11","12","z","11/14/18 16:26:37","The main experiment item","yes","FIN__BA__M21__7%3A10%3A17.osexp","C:\Users\ERP Testing Room\Desktop\Joanna\morph21","no","mono","no","18","no","white","no","yes","1080","legacy","11","11","C:/Users/ERP Testing Room/Desktop/Joanna/morph21/subject-153.csv","xpyriment","Kafkaesque Koffka","3.2.5","0","z","NA","NA","NA","NA","right shift","z","672","NA","NA","NA","NA","197719","672","2","legacy","1024","2","48000","-16","BA_m21","153","odd","NW_L_COMP","AGREELA","1169","242555","239396","241047","198903","NA","NA","NA","NA","241039","239894","NA","238896","NA","238886","241039","1183","242905","NA","NA","240047","1169","1169","240438","238886","1169","240047","242905","morph21_Oliver/Morris","8","9495","12","yes","1280","24"
"250","69.2307692308","69.2307692308","783.538461538","783.538461538","black","no","xpyriment","legacy","legacy","0","204","NA","uniform","60548","1000","0.0165158221576","1","undefined","1","0","12","12","12","0","12","12","12","NA","12","12","0","12","NA","12","12","0","12","NA","12","NA","12","0","0","12","12","0","12","12","13","z","11/14/18 16:26:37","The main experiment item","yes","FIN__BA__M21__7%3A10%3A17.osexp","C:\Users\ERP Testing Room\Desktop\Joanna\morph21","no","mono","no","18","no","white","no","yes","1080","legacy","12","12","C:/Users/ERP Testing Room/Desktop/Joanna/morph21/subject-153.csv","xpyriment","Kafkaesque Koffka","3.2.5","0","z","NA","NA","NA","NA","right shift","z","691","NA","NA","NA","NA","197719","691","2","legacy","1024","2","48000","-16","BA_m21","153","odd","NW_L_COMP","BREAKIDY","1169","245788","244105","241047","198903","NA","NA","NA","NA","245781","244602","NA","243605","NA","243598","245781","1183","246038","NA","NA","244788","1169","1169","245180","243598","1169","244788","246038","morph21_Oliver/Morris","9","10186","13","yes","1280","23"
"400","71.4285714286","71.4285714286","777.214285714","777.214285714","black","no","xpyriment","legacy","legacy","0","204","NA","uniform","57616","1000","0.0173562899195","1","undefined","1","0","13","13","13","0","13","13","13","NA","13","13","0","13","NA","13","13","0","13","NA","13","NA","13","0","0","13","13","0","13","13","14","z","11/14/18 16:26:37","The main experiment item","yes","FIN__BA__M21__7%3A10%3A17.osexp","C:\Users\ERP Testing Room\Desktop\Joanna\morph21","no","mono","no","18","no","white","no","yes","1080","legacy","13","13","C:/Users/ERP Testing Room/Desktop/Joanna/morph21/subject-153.csv","xpyriment","Kafkaesque Koffka","3.2.5","0","z","NA","NA","NA","NA","right shift","z","695","NA","NA","NA","NA","197719","695","2","legacy","1024","2","48000","-16","BA_m21","153","odd","NW_L_COMP","PASSMANT","1169","248880","247147","241047","198903","NA","NA","NA","NA","248871","247644","NA","246647","NA","246636","248871","1183","249280","NA","NA","247880","1169","1169","248272","246636","1169","247880","249280","morph21_Oliver/Morris","10","10881","14","yes","1280","14"
"250","66.6666666667","66.6666666667","756.533333333","756.533333333","black","no","xpyriment","legacy","legacy","0","204","NA","uniform","67987","1000","0.0147086943092","0","undefined","0","0","14","14","14","0","14","14","14","NA","14","14","0","14","NA","14","14","0","14","NA","14","NA","14","0","0","14","14","0","14","14","15","z","11/14/18 16:26:37","The main experiment item","yes","FIN__BA__M21__7%3A10%3A17.osexp","C:\Users\ERP Testing Room\Desktop\Joanna\morph21","no","mono","no","18","no","white","no","yes","1080","legacy","14","14","C:/Users/ERP Testing Room/Desktop/Joanna/morph21/subject-153.csv","xpyriment","Kafkaesque Koffka","3.2.5","0","/","NA","NA","NA","NA","right shift","/","467","NA","NA","NA","NA","197719","467","2","legacy","1024","2","48000","-16","BA_m21","153","odd","NW_L_COMP","STIRANGE","1169","253657","250497","252148","198903","NA","NA","NA","NA","248871","250994","NA","249997","NA","249985","252145","1183","253907","NA","NA","251155","1169","1169","251547","249985","1169","251155","253907","morph21_Oliver/Morris","10","11348","15","yes","1280","1"
"250","62.5","62.5","771.375","771.375","black","no","xpyriment","legacy","legacy","0","202","NA","uniform","45630","1000","0.0219154065308","0","undefined","0","0","15","15","15","0","15","15","15","NA","15","15","0","15","NA","15","15","0","15","NA","15","NA","15","0","0","15","15","0","15","15","16","/","11/14/18 16:26:37","The main experiment item","yes","FIN__BA__M21__7%3A10%3A17.osexp","C:\Users\ERP Testing Room\Desktop\Joanna\morph21","no","mono","no","18","no","white","no","yes","1080","legacy","15","15","C:/Users/ERP Testing Room/Desktop/Joanna/morph21/subject-153.csv","xpyriment","Kafkaesque Koffka","3.2.5","0","None","NA","NA","NA","NA","right shift","None","994","NA","NA","NA","NA","197719","994","2","legacy","1024","2","48000","-16","BA_m21","153","odd","CW_L","DEAFNESS","1169","256748","255065","252148","198903","NA","NA","NA","NA","248871","255562","NA","254565","NA","254558","256742","1183","256998","NA","NA","255748","1169","1169","256140","254558","1169","255748","256998","morph21_Oliver/Morris","10","12342","16","yes","1280","39"
"400","58.8235294118","58.8235294118","784.588235294","784.588235294","black","no","xpyriment","legacy","legacy","0","208","NA","uniform","54674","1000","0.0182902293595","0","undefined","0","0","16","16","16","0","16","16","16","NA","16","16","0","16","NA","16","16","0","16","NA","16","NA","16","0","0","16","16","0","16","16","17","z","11/14/18 16:26:37","The main experiment item","yes","FIN__BA__M21__7%3A10%3A17.osexp","C:\Users\ERP Testing Room\Desktop\Joanna\morph21","no","mono","no","18","no","white","no","yes","1080","legacy","16","16","C:/Users/ERP Testing Room/Desktop/Joanna/morph21/subject-153.csv","xpyriment","Kafkaesque Koffka","3.2.5","0","None","NA","NA","NA","NA","right shift","None","996","NA","NA","NA","NA","197719","996","2","legacy","1024","2","48000","-16","BA_m21","153","odd","FILL_NW","BALFS","1169","259798","258157","252148","198903","NA","NA","NA","NA","248871","258654","NA","257657","NA","257645","259794","1183","260198","NA","NA","258798","1169","1169","259198","257645","1169","258798","260198","morph21_Oliver/Morris","10","13338","17","yes","1280","2"
"400","55.5555555556","55.5555555556","796.166666667","796.166666667","black","no","xpyriment","legacy","legacy","0","208","NA","uniform","49632","1000","0.0201482914249","0","undefined","0","0","17","17","17","0","17","17","17","NA","17","17","0","17","NA","17","17","0","17","NA","17","NA","17","0","0","17","17","0","17","17","18","z","11/14/18 16:26:37","The main experiment item","yes","FIN__BA__M21__7%3A10%3A17.osexp","C:\Users\ERP Testing Room\Desktop\Joanna\morph21","no","mono","no","18","no","white","no","yes","1080","legacy","17","17","C:/Users/ERP Testing Room/Desktop/Joanna/morph21/subject-153.csv","xpyriment","Kafkaesque Koffka","3.2.5","0","None","NA","NA","NA","NA","right shift","None","993","NA","NA","NA","NA","197719","993","2","legacy","1024","2","48000","-16","BA_m21","153","odd","FILL_NW","VELT","1169","264565","261407","263057","198903","NA","NA","NA","NA","248871","261904","NA","260898","NA","260892","263050","1183","264965","NA","NA","262057","1169","1169","262448","260892","1169","262057","264965","morph21_Oliver/Morris","10","14331","18","yes","1280","46"
"250","52.6315789474","52.6315789474","806.315789474","806.315789474","black","no","xpyriment","legacy","legacy","0","208","NA","uniform","50281","1000","0.0198882281578","0","undefined","0","0","18","18","18","0","18","18","18","NA","18","18","0","18","NA","18","18","0","18","NA","18","NA","18","0","0","18","18","0","18","18","19","z","11/14/18 16:26:37","The main experiment item","yes","FIN__BA__M21__7%3A10%3A17.osexp","C:\Users\ERP Testing Room\Desktop\Joanna\morph21","no","mono","no","18","no","white","no","yes","1080","legacy","18","18","C:/Users/ERP Testing Room/Desktop/Joanna/morph21/subject-153.csv","xpyriment","Kafkaesque Koffka","3.2.5","0","None","NA","NA","NA","NA","right shift","None","989","NA","NA","NA","NA","197719","989","2","legacy","1024","2","48000","-16","BA_m21","153","odd","FILL_NW","DOWED","1169","267757","266057","263057","198903","NA","NA","NA","NA","248871","266554","NA","265557","NA","265552","267747","1183","268007","NA","NA","266757","1169","1169","267149","265552","1169","266757","268007","morph21_Oliver/Morris","10","15320","19","yes","1280","16"
"400","55","55","795.25","795.25","black","no","xpyriment","legacy","legacy","0","202","NA","uniform","66891","1000","0.0149496942788","1","undefined","1","0","19","19","19","0","19","19","19","NA","19","19","0","19","NA","19","19","0","19","NA","19","NA","19","0","0","19","19","0","19","19","20","/","11/14/18 16:26:37","The main experiment item","yes","FIN__BA__M21__7%3A10%3A17.osexp","C:\Users\ERP Testing Room\Desktop\Joanna\morph21","no","mono","no","18","no","white","no","yes","1080","legacy","19","19","C:/Users/ERP Testing Room/Desktop/Joanna/morph21/subject-153.csv","xpyriment","Kafkaesque Koffka","3.2.5","0","/","NA","NA","NA","NA","right shift","/","585","NA","NA","NA","NA","197719","585","2","legacy","1024","2","48000","-16","BA_m21","153","odd","CW_L","BLINDNESS","1169","270966","269283","263057","198903","NA","NA","NA","NA","270961","269780","NA","268782","NA","268775","270961","1183","271367","NA","NA","269966","1169","1169","270358","268775","1169","269966","271367","morph21_Oliver/Morris","11","15905","20","yes","1280","40"
"350","57.1428571429","57.1428571429","795.523809524","795.523809524","black","no","xpyriment","legacy","legacy","0","208","NA","uniform","61191","1000","0.0163422725564","1","undefined","1","0","20","20","20","0","20","20","20","NA","20","20","0","20","NA","20","20","0","20","NA","20","NA","20","0","0","20","20","0","20","20","21","z","11/14/18 16:26:37","The main experiment item","yes","FIN__BA__M21__7%3A10%3A17.osexp","C:\Users\ERP Testing Room\Desktop\Joanna\morph21","no","mono","no","18","no","white","no","yes","1080","legacy","20","20","C:/Users/ERP Testing Room/Desktop/Joanna/morph21/subject-153.csv","xpyriment","Kafkaesque Koffka","3.2.5","0","z","NA","NA","NA","NA","right shift","z","801","NA","NA","NA","NA","197719","801","2","legacy","1024","2","48000","-16","BA_m21","153","odd","FILL_NW","DARF","1169","275650","272475","274142","198903","NA","NA","NA","NA","274138","272972","NA","271967","NA","271955","274138","1183","276000","NA","NA","273142","1169","1169","273542","271955","1169","273142","276000","morph21_Oliver/Morris","12","16706","21","yes","1280","10"
"200","59.0909090909","59.0909090909","793.954545455","793.954545455","black","no","xpyriment","legacy","legacy","0","205","NA","uniform","60677","1000","0.0164807093297","1","undefined","1","0","21","21","21","0","21","21","21","NA","21","21","0","21","NA","21","21","0","21","NA","21","NA","21","0","0","21","21","0","21","21","22","z","11/14/18 16:26:37","The main experiment item","yes","FIN__BA__M21__7%3A10%3A17.osexp","C:\Users\ERP Testing Room\Desktop\Joanna\morph21","no","mono","no","18","no","white","no","yes","1080","legacy","21","21","C:/Users/ERP Testing Room/Desktop/Joanna/morph21/subject-153.csv","xpyriment","Kafkaesque Koffka","3.2.5","0","z","NA","NA","NA","NA","right shift","z","761","NA","NA","NA","NA","197719","761","2","legacy","1024","2","48000","-16","BA_m21","153","odd","NW_S_SIMP","JAWLY","1169","278742","277092","274142","198903","NA","NA","NA","NA","278734","277589","NA","276592","NA","276586","278734","1183","278942","NA","NA","277742","1169","1169","278133","276586","1169","277742","278942","morph21_Oliver/Morris","13","17467","22","yes","1280","7"
"350","56.5217391304","56.5217391304","802.47826087","802.47826087","black","no","xpyriment","legacy","legacy","0","202","NA","uniform","54290","1000","0.0184195984528","0","undefined","0","0","22","22","22","0","22","22","22","NA","22","22","0","22","NA","22","22","0","22","NA","22","NA","22","0","0","22","22","0","22","22","23","/","11/14/18 16:26:37","The main experiment item","yes","FIN__BA__M21__7%3A10%3A17.osexp","C:\Users\ERP Testing Room\Desktop\Joanna\morph21","no","mono","no","18","no","white","no","yes","1080","legacy","22","22","C:/Users/ERP Testing Room/Desktop/Joanna/morph21/subject-153.csv","xpyriment","Kafkaesque Koffka","3.2.5","0","None","NA","NA","NA","NA","right shift","None","990","NA","NA","NA","NA","197719","990","2","legacy","1024","2","48000","-16","BA_m21","153","odd","CW_L","GUILELESS","1169","281750","280067","274142","198903","NA","NA","NA","NA","278734","280564","NA","279567","NA","279556","281741","1183","282100","NA","NA","280750","1169","1169","281142","279556","1169","280750","282100","morph21_Oliver/Morris","13","18457","23","yes","1280","31"
"350","58.3333333333","58.3333333333","795.166666667","795.166666667","black","no","xpyriment","legacy","legacy","0","201","NA","uniform","55407","1000","0.01804826105","1","undefined","1","0","23","23","23","0","23","23","23","NA","23","23","0","23","NA","23","23","0","23","NA","23","NA","23","0","0","23","23","0","23","23","24","/","11/14/18 16:26:37","The main experiment item","yes","FIN__BA__M21__7%3A10%3A17.osexp","C:\Users\ERP Testing Room\Desktop\Joanna\morph21","no","mono","no","18","no","white","no","yes","1080","legacy","23","23","C:/Users/ERP Testing Room/Desktop/Joanna/morph21/subject-153.csv","xpyriment","Kafkaesque Koffka","3.2.5","0","/","NA","NA","NA","NA","right shift","/","627","NA","NA","NA","NA","197719","627","2","legacy","1024","2","48000","-16","BA_m21","153","odd","CW_S","DULLNESS","1169","286392","283225","284884","198903","NA","NA","NA","NA","284878","283723","NA","282725","NA","282716","284878","1183","286742","NA","NA","283884","1169","1169","284275","282716","1169","283884","286742","morph21_Oliver/Morris","14","19084","24","yes","1280","43"
"300","56","56","803.04","803.04","black","no","xpyriment","legacy","legacy","0","202","NA","uniform","53136","1000","0.0188196326408","0","undefined","0","0","24","24","24","0","24","24","24","NA","24","24","0","24","NA","24","24","0","24","NA","24","NA","24","0","0","24","24","0","24","24","25","/","11/14/18 16:26:37","The main experiment item","yes","FIN__BA__M21__7%3A10%3A17.osexp","C:\Users\ERP Testing Room\Desktop\Joanna\morph21","no","mono","no","18","no","white","no","yes","1080","legacy","24","24","C:/Users/ERP Testing Room/Desktop/Joanna/morph21/subject-153.csv","xpyriment","Kafkaesque Koffka","3.2.5","0","None","NA","NA","NA","NA","right shift","None","992","NA","NA","NA","NA","197719","992","2","legacy","1024","2","48000","-16","BA_m21","153","odd","CW_L","KNOCKER","1169","289485","287835","284884","198903","NA","NA","NA","NA","284878","288332","NA","287335","NA","287329","289477","1183","289785","NA","NA","288485","1169","1169","288877","287329","1169","288485","289785","morph21_Oliver/Morris","14","20076","25","yes","1280","4"
"350","57.6923076923","57.6923076923","798.538461538","798.538461538","black","no","xpyriment","legacy","legacy","0","207","NA","uniform","58543","1000","0.0170814614898","1","undefined","1","0","25","25","25","0","25","25","25","NA","25","25","0","25","NA","25","25","0","25","NA","25","NA","25","0","0","25","25","0","25","25","26","/","11/14/18 16:26:37","The main experiment item","yes","FIN__BA__M21__7%3A10%3A17.osexp","C:\Users\ERP Testing Room\Desktop\Joanna\morph21","no","mono","no","18","no","white","no","yes","1080","legacy","25","25","C:/Users/ERP Testing Room/Desktop/Joanna/morph21/subject-153.csv","xpyriment","Kafkaesque Koffka","3.2.5","0","/","NA","NA","NA","NA","right shift","/","686","NA","NA","NA","NA","197719","686","2","legacy","1024","2","48000","-16","BA_m21","153","odd","FILL_W","GLOOM","1169","292593","290943","284884","198903","NA","NA","NA","NA","292587","291441","NA","290443","NA","290435","292587","1183","292943","NA","NA","291593","1169","1169","291985","290435","1169","291593","292943","morph21_Oliver/Morris","15","20762","26","yes","1280","14"
"300","59.2592592593","59.2592592593","793.222222222","793.222222222","black","no","xpyriment","legacy","legacy","0","208","NA","uniform","63444","1000","0.0157619317824","1","undefined","1","0","26","26","26","0","26","26","26","NA","26","26","0","26","NA","26","26","0","26","NA","26","NA","26","0","0","26","26","0","26","26","27","z","11/14/18 16:26:37","The main experiment item","yes","FIN__BA__M21__7%3A10%3A17.osexp","C:\Users\ERP Testing Room\Desktop\Joanna\morph21","no","mono","no","18","no","white","no","yes","1080","legacy","26","26","C:/Users/ERP Testing Room/Desktop/Joanna/morph21/subject-153.csv","xpyriment","Kafkaesque Koffka","3.2.5","0","z","NA","NA","NA","NA","right shift","z","655","NA","NA","NA","NA","197719","655","2","legacy","1024","2","48000","-16","BA_m21","153","odd","FILL_NW","VOGS","1169","297260","294077","295752","198903","NA","NA","NA","NA","295743","294574","NA","293577","NA","293567","295743","1183","297561","NA","NA","294752","1169","1169","295144","293567","1169","294752","297561","morph21_Oliver/Morris","16","21417","27","yes","1280","47"
"300","60.7142857143","60.7142857143","799.428571429","799.428571429","black","no","xpyriment","legacy","legacy","0","206","NA","uniform","50340","1000","0.0198649185538","1","undefined","1","0","27","27","27","0","27","27","27","NA","27","27","0","27","NA","27","27","0","27","NA","27","NA","27","0","0","27","27","0","27","27","28","z","11/14/18 16:26:37","The main experiment item","yes","FIN__BA__M21__7%3A10%3A17.osexp","C:\Users\ERP Testing Room\Desktop\Joanna\morph21","no","mono","no","18","no","white","no","yes","1080","legacy","27","27","C:/Users/ERP Testing Room/Desktop/Joanna/morph21/subject-153.csv","xpyriment","Kafkaesque Koffka","3.2.5","0","z","NA","NA","NA","NA","right shift","z","967","NA","NA","NA","NA","197719","967","2","legacy","1024","2","48000","-16","BA_m21","153","odd","NW_L_SIMP","ELBOWISM","1169","300352","298677","295752","198903","NA","NA","NA","NA","300344","299174","NA","298177","NA","298168","300344","1183","300652","NA","NA","299352","1169","1169","299744","298168","1169","299352","300652","morph21_Oliver/Morris","17","22384","28","yes","1280","10"
"250","62.0689655172","62.0689655172","793.724137931","793.724137931","black","no","xpyriment","legacy","legacy","0","202","NA","uniform","62951","1000","0.0158853711617","1","undefined","1","0","28","28","28","0","28","28","28","NA","28","28","0","28","NA","28","28","0","28","NA","28","NA","28","0","0","28","28","0","28","28","29","/","11/14/18 16:26:37","The main experiment item","yes","FIN__BA__M21__7%3A10%3A17.osexp","C:\Users\ERP Testing Room\Desktop\Joanna\morph21","no","mono","no","18","no","white","no","yes","1080","legacy","28","28","C:/Users/ERP Testing Room/Desktop/Joanna/morph21/subject-153.csv","xpyriment","Kafkaesque Koffka","3.2.5","0","/","NA","NA","NA","NA","right shift","/","634","NA","NA","NA","NA","197719","634","2","legacy","1024","2","48000","-16","BA_m21","153","odd","CW_L","STRIKER","1169","303469","301811","295752","198903","NA","NA","NA","NA","303459","302308","NA","301311","NA","301303","303459","1183","303719","NA","NA","302469","1169","1169","302861","301302","1169","302469","303719","morph21_Oliver/Morris","18","23018","29","yes","1280","17"
"200","63.3333333333","63.3333333333","794.2","794.2","black","no","xpyriment","legacy","legacy","0","208","NA","uniform","60962","1000","0.0164036612972","1","undefined","1","0","29","29","29","0","29","29","29","NA","29","29","0","29","NA","29","29","0","29","NA","29","NA","29","0","0","29","29","0","29","29","30","z","11/14/18 16:26:37","The main experiment item","yes","FIN__BA__M21__7%3A10%3A17.osexp","C:\Users\ERP Testing Room\Desktop\Joanna\morph21","no","mono","no","18","no","white","no","yes","1080","legacy","29","29","C:/Users/ERP Testing Room/Desktop/Joanna/morph21/subject-153.csv","xpyriment","Kafkaesque Koffka","3.2.5","0","z","NA","NA","NA","NA","right shift","z","808","NA","NA","NA","NA","197719","808","2","legacy","1024","2","48000","-16","BA_m21","153","odd","FILL_NW","BROUPS","1169","308012","304853","306503","198903","NA","NA","NA","NA","306495","305350","NA","304353","NA","304343","306495","1183","308212","NA","NA","305503","1169","1169","305895","304342","1169","305503","308212","morph21_Oliver/Morris","19","23826","30","yes","1280","4"
"350","61.2903225806","61.2903225806","800.451612903","800.451612903","black","no","xpyriment","legacy","legacy","0","206","NA","uniform","49995","1000","0.0200020002","0","undefined","0","0","30","30","30","0","30","30","30","NA","30","30","0","30","NA","30","30","0","30","NA","30","NA","30","0","0","30","30","0","30","30","31","z","11/14/18 16:26:37","The main experiment item","yes","FIN__BA__M21__7%3A10%3A17.osexp","C:\Users\ERP Testing Room\Desktop\Joanna\morph21","no","mono","no","18","no","white","no","yes","1080","legacy","30","30","C:/Users/ERP Testing Room/Desktop/Joanna/morph21/subject-153.csv","xpyriment","Kafkaesque Koffka","3.2.5","0","None","NA","NA","NA","NA","right shift","None","988","NA","NA","NA","NA","197719","988","2","legacy","1024","2","48000","-16","BA_m21","153","odd","NW_L_SIMP","WITCHISH","1169","311012","309370","306503","198903","NA","NA","NA","NA","306495","309867","NA","308870","NA","308865","311009","1183","311362","NA","NA","310020","1169","1169","310412","308865","1169","310020","311362","morph21_Oliver/Morris","19","24814","31","yes","1280","11"
"350","62.5","62.5","795.28125","795.28125","black","no","xpyriment","legacy","legacy","0","201","NA","uniform","67069","1000","0.0149100180411","1","undefined","1","0","31","31","31","0","31","31","31","NA","31","31","0","31","NA","31","31","0","31","NA","31","NA","31","0","0","31","31","0","31","31","32","/","11/14/18 16:26:37","The main experiment item","yes","FIN__BA__M21__7%3A10%3A17.osexp","C:\Users\ERP Testing Room\Desktop\Joanna\morph21","no","mono","no","18","no","white","no","yes","1080","legacy","31","31","C:/Users/ERP Testing Room/Desktop/Joanna/morph21/subject-153.csv","xpyriment","Kafkaesque Koffka","3.2.5","0","/","NA","NA","NA","NA","right shift","/","635","NA","NA","NA","NA","197719","635","2","legacy","1024","2","48000","-16","BA_m21","153","odd","CW_S","AMAZEMENT","1169","314220","312512","306503","198903","NA","NA","NA","NA","314214","313009","NA","312012","NA","312002","314214","1183","314570","NA","NA","313220","1169","1169","313612","312002","1169","313220","314570","morph21_Oliver/Morris","20","25449","32","yes","1280","39"
"350","63.6363636364","63.6363636364","790.727272727","790.727272727","black","no","xpyriment","legacy","legacy","0","202","NA","uniform","63615","1000","0.0157195629961","1","undefined","1","0","32","32","32","0","32","32","32","NA","32","32","0","32","NA","32","32","0","32","NA","32","NA","32","0","0","32","32","0","32","32","33","/","11/14/18 16:26:37","The main experiment item","yes","FIN__BA__M21__7%3A10%3A17.osexp","C:\Users\ERP Testing Room\Desktop\Joanna\morph21","no","mono","no","18","no","white","no","yes","1080","legacy","32","32","C:/Users/ERP Testing Room/Desktop/Joanna/morph21/subject-153.csv","xpyriment","Kafkaesque Koffka","3.2.5","0","/","NA","NA","NA","NA","right shift","/","645","NA","NA","NA","NA","197719","645","2","legacy","1024","2","48000","-16","BA_m21","153","odd","CW_L","EDITOR","1169","318854","315687","317345","198903","NA","NA","NA","NA","317335","316184","NA","315187","NA","315176","317335","1183","319204","NA","NA","316346","1169","1169","316737","315176","1169","316345","319204","morph21_Oliver/Morris","21","26094","33","yes","1280","45"
"250","64.7058823529","64.7058823529","790.117647059","790.117647059","black","no","xpyriment","legacy","legacy","0","208","NA","uniform","57685","1000","0.017335529167","1","undefined","1","0","33","33","33","0","33","33","33","NA","33","33","0","33","NA","33","33","0","33","NA","33","NA","33","0","0","33","33","0","33","33","34","z","11/14/18 16:26:37","The main experiment item","yes","FIN__BA__M21__7%3A10%3A17.osexp","C:\Users\ERP Testing Room\Desktop\Joanna\morph21","no","mono","no","18","no","white","no","yes","1080","legacy","33","33","C:/Users/ERP Testing Room/Desktop/Joanna/morph21/subject-153.csv","xpyriment","Kafkaesque Koffka","3.2.5","0","z","NA","NA","NA","NA","right shift","z","770","NA","NA","NA","NA","197719","770","2","legacy","1024","2","48000","-16","BA_m21","153","odd","FILL_NW","BUWL","1169","322055","320404","317345","198903","NA","NA","NA","NA","322047","320901","NA","319904","NA","319899","322047","1183","322305","NA","NA","321054","1169","1169","321446","319899","1169","321054","322305","morph21_Oliver/Morris","22","26864","34","yes","1280","9"
"200","65.7142857143","65.7142857143","783.771428571","783.771428571","black","no","xpyriment","legacy","legacy","0","201","NA","uniform","60629","1000","0.0164937571129","1","undefined","1","0","34","34","34","0","34","34","34","NA","34","34","0","34","NA","34","34","0","34","NA","34","NA","34","0","0","34","34","0","34","34","35","/","11/14/18 16:26:37","The main experiment item","yes","FIN__BA__M21__7%3A10%3A17.osexp","C:\Users\ERP Testing Room\Desktop\Joanna\morph21","no","mono","no","18","no","white","no","yes","1080","legacy","34","34","C:/Users/ERP Testing Room/Desktop/Joanna/morph21/subject-153.csv","xpyriment","Kafkaesque Koffka","3.2.5","0","/","NA","NA","NA","NA","right shift","/","568","NA","NA","NA","NA","197719","568","2","legacy","1024","2","48000","-16","BA_m21","153","odd","CW_S","ANGELIC","1169","325055","323405","317345","198903","NA","NA","NA","NA","325048","323902","NA","322905","NA","322894","325048","1183","325255","NA","NA","324055","1169","1169","324447","322894","1169","324055","325255","morph21_Oliver/Morris","23","27432","35","yes","1280","25"
"200","66.6666666667","66.6666666667","778.305555556","778.305555556","black","no","xpyriment","legacy","legacy","0","208","NA","uniform","66517","1000","0.0150337507705","1","undefined","1","0","35","35","35","0","35","35","35","NA","35","35","0","35","NA","35","35","0","35","NA","35","NA","35","0","0","35","35","0","35","35","36","z","11/14/18 16:26:37","The main experiment item","yes","FIN__BA__M21__7%3A10%3A17.osexp","C:\Users\ERP Testing Room\Desktop\Joanna\morph21","no","mono","no","18","no","white","no","yes","1080","legacy","35","35","C:/Users/ERP Testing Room/Desktop/Joanna/morph21/subject-153.csv","xpyriment","Kafkaesque Koffka","3.2.5","0","z","NA","NA","NA","NA","right shift","z","587","NA","NA","NA","NA","197719","587","2","legacy","1024","2","48000","-16","BA_m21","153","odd","FILL_NW","TUEER","1169","329689","326455","328180","198903","NA","NA","NA","NA","328170","326952","NA","325955","NA","325950","328170","1183","329889","NA","NA","327180","1169","1169","327572","325950","1169","327180","329889","morph21_Oliver/Morris","24","28019","36","yes","1280","44"
"300","67.5675675676","67.5675675676","774.108108108","774.108108108","black","no","xpyriment","legacy","legacy","0","203","NA","uniform","69716","1000","0.014343909576","1","undefined","1","0","36","36","36","0","36","36","36","NA","36","36","0","36","NA","36","36","0","36","NA","36","NA","36","0","0","36","36","0","36","36","37","z","11/14/18 16:26:37","The main experiment item","yes","FIN__BA__M21__7%3A10%3A17.osexp","C:\Users\ERP Testing Room\Desktop\Joanna\morph21","no","mono","no","18","no","white","no","yes","1080","legacy","36","36","C:/Users/ERP Testing Room/Desktop/Joanna/morph21/subject-153.csv","xpyriment","Kafkaesque Koffka","3.2.5","0","z","NA","NA","NA","NA","right shift","z","623","NA","NA","NA","NA","197719","623","2","legacy","1024","2","48000","-16","BA_m21","153","odd","NW_S_COMP","FIGEL","1169","332664","330989","328180","198903","NA","NA","NA","NA","332656","331486","NA","330489","NA","330477","332656","1183","332964","NA","NA","331664","1169","1169","332055","330477","1169","331664","332964","morph21_Oliver/Morris","25","28642","37","yes","1280","4"
"350","68.4210526316","68.4210526316","768.368421053","768.368421053","black","no","xpyriment","legacy","legacy","0","202","NA","uniform","66894","1000","0.0149490238287","1","undefined","1","0","37","37","37","0","37","37","37","NA","37","37","0","37","NA","37","37","0","37","NA","37","NA","37","0","0","37","37","0","37","37","38","/","11/14/18 16:26:37","The main experiment item","yes","FIN__BA__M21__7%3A10%3A17.osexp","C:\Users\ERP Testing Room\Desktop\Joanna\morph21","no","mono","no","18","no","white","no","yes","1080","legacy","37","37","C:/Users/ERP Testing Room/Desktop/Joanna/morph21/subject-153.csv","xpyriment","Kafkaesque Koffka","3.2.5","0","/","NA","NA","NA","NA","right shift","/","556","NA","NA","NA","NA","197719","556","2","legacy","1024","2","48000","-16","BA_m21","153","odd","CW_L","PARKING","1169","335731","334056","328180","198903","NA","NA","NA","NA","335722","334553","NA","333556","NA","333546","335722","1183","336081","NA","NA","334731","1169","1169","335122","333546","1169","334731","336081","morph21_Oliver/Morris","26","29198","38","yes","1280","25"
"300","69.2307692308","69.2307692308","763.794871795","763.794871795","black","no","xpyriment","legacy","legacy","0","207","NA","uniform","68001","1000","0.0147056660931","1","undefined","1","0","38","38","38","0","38","38","38","NA","38","38","0","38","NA","38","38","0","38","NA","38","NA","38","0","0","38","38","0","38","38","39","/","11/14/18 16:26:37","The main experiment item","yes","FIN__BA__M21__7%3A10%3A17.osexp","C:\Users\ERP Testing Room\Desktop\Joanna\morph21","no","mono","no","18","no","white","no","yes","1080","legacy","38","38","C:/Users/ERP Testing Room/Desktop/Joanna/morph21/subject-153.csv","xpyriment","Kafkaesque Koffka","3.2.5","0","/","NA","NA","NA","NA","right shift","/","590","NA","NA","NA","NA","197719","590","2","legacy","1024","2","48000","-16","BA_m21","153","odd","FILL_W","BAKE","1169","340390","337206","338881","198903","NA","NA","NA","NA","338875","337703","NA","336706","NA","336694","338875","1183","340690","NA","NA","337881","1169","1169","338272","336694","1169","337881","340690","morph21_Oliver/Morris","27","29788","39","yes","1280","29"
"200","67.5","67.5","769.55","769.55","black","no","xpyriment","legacy","legacy","0","208","NA","uniform","50125","1000","0.0199501246883","0","undefined","0","0","39","39","39","0","39","39","39","NA","39","39","0","39","NA","39","39","0","39","NA","39","NA","39","0","0","39","39","0","39","39","40","z","11/14/18 16:26:37","The main experiment item","yes","FIN__BA__M21__7%3A10%3A17.osexp","C:\Users\ERP Testing Room\Desktop\Joanna\morph21","no","mono","no","18","no","white","no","yes","1080","legacy","39","39","C:/Users/ERP Testing Room/Desktop/Joanna/morph21/subject-153.csv","xpyriment","Kafkaesque Koffka","3.2.5","0","None","NA","NA","NA","NA","right shift","None","994","NA","NA","NA","NA","197719","994","2","legacy","1024","2","48000","-16","BA_m21","153","odd","FILL_NW","DARM","1169","343565","341907","338881","198903","NA","NA","NA","NA","338875","342404","NA","341407","NA","341400","343559","1183","343765","NA","NA","342565","1169","1169","342957","341400","1169","342565","343765","morph21_Oliver/Morris","27","30782","40","yes","1280","11"
"400","68.2926829268","68.2926829268","763.682926829","763.682926829","black","no","xpyriment","legacy","legacy","0","207","NA","uniform","67279","1000","0.0148634789459","1","undefined","1","0","40","40","40","0","40","40","40","NA","40","40","0","40","NA","40","40","0","40","NA","40","NA","40","0","0","40","40","0","40","40","41","/","11/14/18 16:26:37","The main experiment item","yes","FIN__BA__M21__7%3A10%3A17.osexp","C:\Users\ERP Testing Room\Desktop\Joanna\morph21","no","mono","no","18","no","white","no","yes","1080","legacy","40","40","C:/Users/ERP Testing Room/Desktop/Joanna/morph21/subject-153.csv","xpyriment","Kafkaesque Koffka","3.2.5","0","/","NA","NA","NA","NA","right shift","/","529","NA","NA","NA","NA","197719","529","2","legacy","1024","2","48000","-16","BA_m21","153","odd","FILL_W","DRUNK","1169","346590","344932","338881","198903","NA","NA","NA","NA","346583","345429","NA","344432","NA","344420","346583","1183","346991","NA","NA","345590","1169","1169","345982","344420","1169","345590","346991","morph21_Oliver/Morris","28","31311","41","yes","1280","19"
"300","69.0476190476","69.0476190476","764.619047619","764.619047619","black","no","xpyriment","legacy","legacy","0","206","NA","uniform","55162","1000","0.0181284217396","1","undefined","1","0","41","41","41","0","41","41","41","NA","41","41","0","41","NA","41","41","0","41","NA","41","NA","41","0","0","41","41","0","41","41","42","z","11/14/18 16:26:37","The main experiment item","yes","FIN__BA__M21__7%3A10%3A17.osexp","C:\Users\ERP Testing Room\Desktop\Joanna\morph21","no","mono","no","18","no","white","no","yes","1080","legacy","41","41","C:/Users/ERP Testing Room/Desktop/Joanna/morph21/subject-153.csv","xpyriment","Kafkaesque Koffka","3.2.5","0","z","NA","NA","NA","NA","right shift","z","803","NA","NA","NA","NA","197719","803","2","legacy","1024","2","48000","-16","BA_m21","153","odd","NW_L_SIMP","EARIST","1169","351441","348224","349932","198903","NA","NA","NA","NA","349926","348721","NA","347716","NA","347704","349926","1183","351741","NA","NA","348932","1169","1169","349324","347704","1169","348932","351741","morph21_Oliver/Morris","29","32114","42","yes","1280","12"
"250","69.7674418605","69.7674418605","765.209302326","765.209302326","black","no","xpyriment","legacy","legacy","0","205","NA","uniform","59398","1000","0.0168355836897","1","undefined","1","0","42","42","42","0","42","42","42","NA","42","42","0","42","NA","42","42","0","42","NA","42","NA","42","0","0","42","42","0","42","42","43","z","11/14/18 16:26:37","The main experiment item","yes","FIN__BA__M21__7%3A10%3A17.osexp","C:\Users\ERP Testing Room\Desktop\Joanna\morph21","no","mono","no","18","no","white","no","yes","1080","legacy","42","42","C:/Users/ERP Testing Room/Desktop/Joanna/morph21/subject-153.csv","xpyriment","Kafkaesque Koffka","3.2.5","0","z","NA","NA","NA","NA","right shift","z","790","NA","NA","NA","NA","197719","790","2","legacy","1024","2","48000","-16","BA_m21","153","odd","NW_S_SIMP","ZOOMFUL","1169","354641","352949","349932","198903","NA","NA","NA","NA","354634","353446","NA","352449","NA","352444","354634","1183","354891","NA","NA","353641","1169","1169","354032","352444","1169","353641","354891","morph21_Oliver/Morris","30","32904","43","yes","1280","19"
"350","70.4545454545","70.4545454545","760","760","black","no","xpyriment","legacy","legacy","0","201","NA","uniform","66206","1000","0.015104371205","1","undefined","1","0","43","43","43","0","43","43","43","NA","43","43","0","43","NA","43","43","0","43","NA","43","NA","43","0","0","43","43","0","43","43","44","/","11/14/18 16:26:37","The main experiment item","yes","FIN__BA__M21__7%3A10%3A17.osexp","C:\Users\ERP Testing Room\Desktop\Joanna\morph21","no","mono","no","18","no","white","no","yes","1080","legacy","43","43","C:/Users/ERP Testing Room/Desktop/Joanna/morph21/subject-153.csv","xpyriment","Kafkaesque Koffka","3.2.5","0","/","NA","NA","NA","NA","right shift","/","536","NA","NA","NA","NA","197719","536","2","legacy","1024","2","48000","-16","BA_m21","153","odd","CW_S","BEARDED","1169","357775","356066","349932","198903","NA","NA","NA","NA","357772","356563","NA","355566","NA","355561","357772","1183","358125","NA","NA","356784","1169","1169","357175","355561","1169","356784","358125","morph21_Oliver/Morris","31","33440","44","yes","1280","8"
"250","71.1111111111","71.1111111111","755.177777778","755.177777778","black","no","xpyriment","legacy","legacy","0","207","NA","uniform","65979","1000","0.0151563376226","1","undefined","1","0","44","44","44","0","44","44","44","NA","44","44","0","44","NA","44","44","0","44","NA","44","NA","44","0","0","44","44","0","44","44","45","/","11/14/18 16:26:37","The main experiment item","yes","FIN__BA__M21__7%3A10%3A17.osexp","C:\Users\ERP Testing Room\Desktop\Joanna\morph21","no","mono","no","18","no","white","no","yes","1080","legacy","44","44","C:/Users/ERP Testing Room/Desktop/Joanna/morph21/subject-153.csv","xpyriment","Kafkaesque Koffka","3.2.5","0","/","NA","NA","NA","NA","right shift","/","543","NA","NA","NA","NA","197719","543","2","legacy","1024","2","48000","-16","BA_m21","153","odd","FILL_W","PREACH","1169","362500","359334","360992","198903","NA","NA","NA","NA","360985","359831","NA","358834","NA","358824","360985","1183","362751","NA","NA","359992","1169","1169","360384","358824","1169","359992","362751","morph21_Oliver/Morris","32","33983","45","yes","1280","7"
"200","71.7391304348","71.7391304348","760","760","black","no","xpyriment","legacy","legacy","0","203","NA","uniform","48827","1000","0.0204804718701","1","undefined","1","0","45","45","45","0","45","45","45","NA","45","45","0","45","NA","45","45","0","45","NA","45","NA","45","0","0","45","45","0","45","45","46","z","11/14/18 16:26:37","The main experiment item","yes","FIN__BA__M21__7%3A10%3A17.osexp","C:\Users\ERP Testing Room\Desktop\Joanna\morph21","no","mono","no","18","no","white","no","yes","1080","legacy","45","45","C:/Users/ERP Testing Room/Desktop/Joanna/morph21/subject-153.csv","xpyriment","Kafkaesque Koffka","3.2.5","0","z","NA","NA","NA","NA","right shift","z","977","NA","NA","NA","NA","197719","977","2","legacy","1024","2","48000","-16","BA_m21","153","odd","NW_S_COMP","PILLIME","1169","365526","363867","360992","198903","NA","NA","NA","NA","365516","364364","NA","363367","NA","363362","365516","1183","365726","NA","NA","364526","1169","1169","364917","363362","1169","364525","365726","morph21_Oliver/Morris","33","34960","46","yes","1280","13"
"350","72.3404255319","72.3404255319","754.893617021","754.893617021","black","no","xpyriment","legacy","legacy","0","202","NA","uniform","58271","1000","0.0171611951056","1","undefined","1","0","46","46","46","0","46","46","46","NA","46","46","0","46","NA","46","46","0","46","NA","46","NA","46","0","0","46","46","0","46","46","47","/","11/14/18 16:26:37","The main experiment item","yes","FIN__BA__M21__7%3A10%3A17.osexp","C:\Users\ERP Testing Room\Desktop\Joanna\morph21","no","mono","no","18","no","white","no","yes","1080","legacy","46","46","C:/Users/ERP Testing Room/Desktop/Joanna/morph21/subject-153.csv","xpyriment","Kafkaesque Koffka","3.2.5","0","/","NA","NA","NA","NA","right shift","/","520","NA","NA","NA","NA","197719","520","2","legacy","1024","2","48000","-16","BA_m21","153","odd","CW_L","PUNCHER","1169","368559","366884","360992","198903","NA","NA","NA","NA","368553","367381","NA","366384","NA","366377","368553","1183","368909","NA","NA","367559","1169","1169","367951","366377","1169","367559","368909","morph21_Oliver/Morris","34","35480","47","yes","1280","1"
"200","72.9166666667","72.9166666667","753.333333333","753.333333333","black","no","xpyriment","legacy","legacy","0","208","NA","uniform","58118","1000","0.0172063732406","1","undefined","1","0","47","47","47","0","47","47","47","NA","47","47","0","47","NA","47","47","0","47","NA","47","NA","47","0","0","47","47","0","47","47","48","z","11/14/18 16:26:37","The main experiment item","yes","FIN__BA__M21__7%3A10%3A17.osexp","C:\Users\ERP Testing Room\Desktop\Joanna\morph21","no","mono","no","18","no","white","no","yes","1080","legacy","47","47","C:/Users/ERP Testing Room/Desktop/Joanna/morph21/subject-153.csv","xpyriment","Kafkaesque Koffka","3.2.5","0","z","NA","NA","NA","NA","right shift","z","680","NA","NA","NA","NA","197719","680","2","legacy","1024","2","48000","-16","BA_m21","153","odd","FILL_NW","PORDS","1169","373268","370051","371759","198903","NA","NA","NA","NA","371751","370548","NA","369551","NA","369547","371751","1183","373468","NA","NA","370759","1169","1169","371151","369547","1169","370759","373468","morph21_Oliver/Morris","35","36160","48","yes","1280","39"
"350","73.4693877551","73.4693877551","751.224489796","751.224489796","black","no","xpyriment","legacy","legacy","0","208","NA","uniform","69255","1000","0.0144393906577","1","undefined","1","0","48","48","48","0","48","48","48","NA","48","48","0","48","NA","48","48","0","48","NA","48","NA","48","0","0","48","48","0","48","48","49","z","11/14/18 16:26:37","The main experiment item","yes","FIN__BA__M21__7%3A10%3A17.osexp","C:\Users\ERP Testing Room\Desktop\Joanna\morph21","no","mono","no","18","no","white","no","yes","1080","legacy","48","48","C:/Users/ERP Testing Room/Desktop/Joanna/morph21/subject-153.csv","xpyriment","Kafkaesque Koffka","3.2.5","0","z","NA","NA","NA","NA","right shift","z","650","NA","NA","NA","NA","197719","650","2","legacy","1024","2","48000","-16","BA_m21","153","odd","FILL_NW","BLANTH","1169","376269","374585","371759","198903","NA","NA","NA","NA","376261","375082","NA","374084","NA","374078","376261","1183","376619","NA","NA","375269","1169","1169","375660","374078","1169","375269","376619","morph21_Oliver/Morris","36","36810","49","yes","1280","3"
"400","74","74","750.3","750.3","black","no","xpyriment","legacy","legacy","0","205","NA","uniform","61247","1000","0.0163273303182","1","undefined","1","0","49","49","49","0","49","49","49","NA","49","49","0","49","NA","49","49","0","49","NA","49","NA","49","0","0","49","49","0","49","49","50","z","11/14/18 16:26:37","The main experiment item","yes","FIN__BA__M21__7%3A10%3A17.osexp","C:\Users\ERP Testing Room\Desktop\Joanna\morph21","no","mono","no","18","no","white","no","yes","1080","legacy","49","49","C:/Users/ERP Testing Room/Desktop/Joanna/morph21/subject-153.csv","xpyriment","Kafkaesque Koffka","3.2.5","0","z","NA","NA","NA","NA","right shift","z","705","NA","NA","NA","NA","197719","705","2","legacy","1024","2","48000","-16","BA_m21","153","odd","NW_S_SIMP","RAMPIZE","1169","379494","377819","371759","198903","NA","NA","NA","NA","379484","378316","NA","377310","NA","377303","379484","1183","379894","NA","NA","378494","1169","1169","378886","377303","1169","378494","379894","morph21_Oliver/Morris","37","37515","50","yes","1280","6"
"200","74.5098039216","74.5098039216","746.254901961","746.254901961","black","no","xpyriment","legacy","legacy","0","207","NA","uniform","65320","1000","0.0153092467851","1","undefined","1","0","50","50","50","0","50","50","50","NA","50","50","0","50","NA","50","50","0","50","NA","50","NA","50","0","0","50","50","0","50","50","51","/","11/14/18 16:26:37","The main experiment item","yes","FIN__BA__M21__7%3A10%3A17.osexp","C:\Users\ERP Testing Room\Desktop\Joanna\morph21","no","mono","no","18","no","white","no","yes","1080","legacy","50","50","C:/Users/ERP Testing Room/Desktop/Joanna/morph21/subject-153.csv","xpyriment","Kafkaesque Koffka","3.2.5","0","/","NA","NA","NA","NA","right shift","/","544","NA","NA","NA","NA","197719","544","2","legacy","1024","2","48000","-16","BA_m21","153","odd","FILL_W","GOLF","1169","384219","381027","382711","198903","NA","NA","NA","NA","382703","381524","NA","380527","NA","380521","382703","1183","384419","NA","NA","381711","1169","1169","382102","380521","1169","381711","384419","morph21_Oliver/Morris","38","38059","51","yes","1280","28"
"400","75","75","742.423076923","742.423076923","black","no","xpyriment","legacy","legacy","0","207","NA","uniform","65129","1000","0.0153541433156","1","undefined","1","0","51","51","51","0","51","51","51","NA","51","51","0","51","NA","51","51","0","51","NA","51","NA","51","0","0","51","51","0","51","51","52","/","11/14/18 16:26:37","The main experiment item","yes","FIN__BA__M21__7%3A10%3A17.osexp","C:\Users\ERP Testing Room\Desktop\Joanna\morph21","no","mono","no","18","no","white","no","yes","1080","legacy","51","51","C:/Users/ERP Testing Room/Desktop/Joanna/morph21/subject-153.csv","xpyriment","Kafkaesque Koffka","3.2.5","0","/","NA","NA","NA","NA","right shift","/","547","NA","NA","NA","NA","197719","547","2","legacy","1024","2","48000","-16","BA_m21","153","odd","FILL_W","CRUNCH","1169","387236","385528","382711","198903","NA","NA","NA","NA","387233","386025","NA","385027","NA","385021","387233","1183","387636","NA","NA","386244","1169","1169","386636","385021","1169","386244","387636","morph21_Oliver/Morris","39","38606","52","yes","1280","20"
"200","75.4716981132","75.4716981132","743.490566038","743.490566038","black","no","xpyriment","legacy","legacy","0","206","NA","uniform","63909","1000","0.0156472484314","1","undefined","1","0","52","52","52","0","52","52","52","NA","52","52","0","52","NA","52","52","0","52","NA","52","NA","52","0","0","52","52","0","52","52","53","z","11/14/18 16:26:37","The main experiment item","yes","FIN__BA__M21__7%3A10%3A17.osexp","C:\Users\ERP Testing Room\Desktop\Joanna\morph21","no","mono","no","18","no","white","no","yes","1080","legacy","52","52","C:/Users/ERP Testing Room/Desktop/Joanna/morph21/subject-153.csv","xpyriment","Kafkaesque Koffka","3.2.5","0","z","NA","NA","NA","NA","right shift","z","799","NA","NA","NA","NA","197719","799","2","legacy","1024","2","48000","-16","BA_m21","153","odd","NW_L_SIMP","GROWIST","1169","390544","388886","382711","198903","NA","NA","NA","NA","390535","389383","NA","388386","NA","388376","390535","1183","390744","NA","NA","389544","1169","1169","389936","388376","1169","389544","390744","morph21_Oliver/Morris","40","39405","53","yes","1280","20"
"200","75.9259259259","75.9259259259","740.62962963","740.62962963","black","no","xpyriment","legacy","legacy","0","207","NA","uniform","58546","1000","0.0170805862057","1","undefined","1","0","53","53","53","0","53","53","53","NA","53","53","0","53","NA","53","53","0","53","NA","53","NA","53","0","0","53","53","0","53","53","54","/","11/14/18 16:26:37","The main experiment item","yes","FIN__BA__M21__7%3A10%3A17.osexp","C:\Users\ERP Testing Room\Desktop\Joanna\morph21","no","mono","no","18","no","white","no","yes","1080","legacy","53","53","C:/Users/ERP Testing Room/Desktop/Joanna/morph21/subject-153.csv","xpyriment","Kafkaesque Koffka","3.2.5","0","/","NA","NA","NA","NA","right shift","/","589","NA","NA","NA","NA","197719","589","2","legacy","1024","2","48000","-16","BA_m21","153","odd","FILL_W","FLOAT","1169","395071","391854","393562","198903","NA","NA","NA","NA","393553","392351","NA","391353","NA","391343","393553","1183","395271","NA","NA","392562","1169","1169","392954","391343","1169","392562","395271","morph21_Oliver/Morris","41","39994","54","yes","1280","30"
"300","76.3636363636","76.3636363636","738.872727273","738.872727273","black","no","xpyriment","legacy","legacy","0","208","NA","uniform","68931","1000","0.0145072608841","1","undefined","1","0","54","54","54","0","54","54","54","NA","54","54","0","54","NA","54","54","0","54","NA","54","NA","54","0","0","54","54","0","54","54","55","z","11/14/18 16:26:37","The main experiment item","yes","FIN__BA__M21__7%3A10%3A17.osexp","C:\Users\ERP Testing Room\Desktop\Joanna\morph21","no","mono","no","18","no","white","no","yes","1080","legacy","54","54","C:/Users/ERP Testing Room/Desktop/Joanna/morph21/subject-153.csv","xpyriment","Kafkaesque Koffka","3.2.5","0","z","NA","NA","NA","NA","right shift","z","644","NA","NA","NA","NA","197719","644","2","legacy","1024","2","48000","-16","BA_m21","153","odd","FILL_NW","HEEM","1169","398171","396471","393562","198903","NA","NA","NA","NA","398162","396968","NA","395971","NA","395966","398162","1183","398471","NA","NA","397171","1169","1169","397562","395966","1169","397171","398471","morph21_Oliver/Morris","42","40638","55","yes","1280","27"
"350","76.7857142857","76.7857142857","734.803571429","734.803571429","black","no","xpyriment","legacy","legacy","0","207","NA","uniform","62565","1000","0.0159833772876","1","undefined","1","0","55","55","55","0","55","55","55","NA","55","55","0","55","NA","55","55","0","55","NA","55","NA","55","0","0","55","55","0","55","55","56","/","11/14/18 16:26:37","The main experiment item","yes","FIN__BA__M21__7%3A10%3A17.osexp","C:\Users\ERP Testing Room\Desktop\Joanna\morph21","no","mono","no","18","no","white","no","yes","1080","legacy","55","55","C:/Users/ERP Testing Room/Desktop/Joanna/morph21/subject-153.csv","xpyriment","Kafkaesque Koffka","3.2.5","0","/","NA","NA","NA","NA","right shift","/","511","NA","NA","NA","NA","197719","511","2","legacy","1024","2","48000","-16","BA_m21","153","odd","FILL_W","FAINT","1169","401296","399629","393562","198903","NA","NA","NA","NA","401290","400126","NA","399129","NA","399121","401290","1183","401646","NA","NA","400296","1169","1169","400687","399121","1169","400296","401646","morph21_Oliver/Morris","43","41149","56","yes","1280","31"
"350","77.1929824561","77.1929824561","735.140350877","735.140350877","black","no","xpyriment","legacy","legacy","0","202","NA","uniform","55373","1000","0.0180593430011","1","undefined","1","0","56","56","56","0","56","56","56","NA","56","56","0","56","NA","56","56","0","56","NA","56","NA","56","0","0","56","56","0","56","56","57","/","11/14/18 16:26:37","The main experiment item","yes","FIN__BA__M21__7%3A10%3A17.osexp","C:\Users\ERP Testing Room\Desktop\Joanna\morph21","no","mono","no","18","no","white","no","yes","1080","legacy","56","56","C:/Users/ERP Testing Room/Desktop/Joanna/morph21/subject-153.csv","xpyriment","Kafkaesque Koffka","3.2.5","0","/","NA","NA","NA","NA","right shift","/","754","NA","NA","NA","NA","197719","754","2","legacy","1024","2","48000","-16","BA_m21","153","odd","CW_L","FEEDER","1169","406129","402896","404621","198903","NA","NA","NA","NA","404612","403393","NA","402396","NA","402386","404612","1183","406480","NA","NA","403621","1169","1169","404013","402386","1169","403621","406480","morph21_Oliver/Morris","44","41903","57","yes","1280","14"
"250","77.5862068966","77.5862068966","733.482758621","733.482758621","black","no","xpyriment","legacy","legacy","0","208","NA","uniform","55352","1000","0.0180661945368","1","undefined","1","0","57","57","57","0","57","57","57","NA","57","57","0","57","NA","57","57","0","57","NA","57","NA","57","0","0","57","57","0","57","57","58","z","11/14/18 16:26:37","The main experiment item","yes","FIN__BA__M21__7%3A10%3A17.osexp","C:\Users\ERP Testing Room\Desktop\Joanna\morph21","no","mono","no","18","no","white","no","yes","1080","legacy","57","57","C:/Users/ERP Testing Room/Desktop/Joanna/morph21/subject-153.csv","xpyriment","Kafkaesque Koffka","3.2.5","0","z","NA","NA","NA","NA","right shift","z","639","NA","NA","NA","NA","197719","639","2","legacy","1024","2","48000","-16","BA_m21","153","odd","FILL_NW","POLT","1169","409289","407629","404621","198903","NA","NA","NA","NA","409286","408127","NA","407129","NA","407120","409286","1183","409539","NA","NA","408296","1169","1169","408688","407120","1169","408296","409539","morph21_Oliver/Morris","45","42542","58","yes","1280","38"
"300","77.9661016949","77.9661016949","729.779661017","729.779661017","black","no","xpyriment","legacy","legacy","0","202","NA","uniform","67044","1000","0.0149155778295","1","undefined","1","0","58","58","58","0","58","58","58","NA","58","58","0","58","NA","58","58","0","58","NA","58","NA","58","0","0","58","58","0","58","58","59","/","11/14/18 16:26:37","The main experiment item","yes","FIN__BA__M21__7%3A10%3A17.osexp","C:\Users\ERP Testing Room\Desktop\Joanna\morph21","no","mono","no","18","no","white","no","yes","1080","legacy","58","58","C:/Users/ERP Testing Room/Desktop/Joanna/morph21/subject-153.csv","xpyriment","Kafkaesque Koffka","3.2.5","0","/","NA","NA","NA","NA","right shift","/","515","NA","NA","NA","NA","197719","515","2","legacy","1024","2","48000","-16","BA_m21","153","odd","CW_L","PROFESSOR","1169","412347","410656","404621","198903","NA","NA","NA","NA","412344","411153","NA","410156","NA","410148","412344","1183","412647","NA","NA","411356","1169","1169","411747","410148","1169","411356","412647","morph21_Oliver/Morris","46","43057","59","yes","1280","47"
"300","78.3333333333","78.3333333333","727.35","727.35","black","no","xpyriment","legacy","legacy","0","207","NA","uniform","72141","1000","0.0138617429756","1","undefined","1","0","59","59","59","0","59","59","59","NA","59","59","0","59","NA","59","59","0","59","NA","59","NA","59","0","0","59","59","0","59","59","60","/","11/14/18 16:26:37","The main experiment item","yes","FIN__BA__M21__7%3A10%3A17.osexp","C:\Users\ERP Testing Room\Desktop\Joanna\morph21","no","mono","no","18","no","white","no","yes","1080","legacy","59","59","C:/Users/ERP Testing Room/Desktop/Joanna/morph21/subject-153.csv","xpyriment","Kafkaesque Koffka","3.2.5","0","/","NA","NA","NA","NA","right shift","/","584","NA","NA","NA","NA","197719","584","2","legacy","1024","2","48000","-16","BA_m21","153","odd","FILL_W","BALD","1169","416947","413789","415439","198903","NA","NA","NA","NA","415434","414286","NA","413289","NA","413284","415434","1183","417248","NA","NA","414439","1169","1169","414839","413284","1169","414439","417248","morph21_Oliver/Morris","47","43641","60","yes","1280","3"
"250","78.6885245902","78.6885245902","724.491803279","724.491803279","black","no","xpyriment","legacy","legacy","0","202","NA","uniform","71375","1000","0.0140105078809","1","undefined","1","0","60","60","60","0","60","60","60","NA","60","60","0","60","NA","60","60","0","60","NA","60","NA","60","0","0","60","60","0","60","60","61","/","11/14/18 16:26:37","The main experiment item","yes","FIN__BA__M21__7%3A10%3A17.osexp","C:\Users\ERP Testing Room\Desktop\Joanna\morph21","no","mono","no","18","no","white","no","yes","1080","legacy","60","60","C:/Users/ERP Testing Room/Desktop/Joanna/morph21/subject-153.csv","xpyriment","Kafkaesque Koffka","3.2.5","0","/","NA","NA","NA","NA","right shift","/","553","NA","NA","NA","NA","197719","553","2","legacy","1024","2","48000","-16","BA_m21","153","odd","CW_L","DREAMER","1169","420206","418531","415439","198903","NA","NA","NA","NA","420203","419028","NA","418031","NA","418019","420203","1183","420456","NA","NA","419206","1169","1169","419606","418019","1169","419206","420456","morph21_Oliver/Morris","48","44194","61","yes","1280","12"
"200","79.0322580645","79.0322580645","724.516129032","724.516129032","black","no","xpyriment","legacy","legacy","0","203","NA","uniform","60657","1000","0.0164861433965","1","undefined","1","0","61","61","61","0","61","61","61","NA","61","61","0","61","NA","61","61","0","61","NA","61","NA","61","0","0","61","61","0","61","61","62","z","11/14/18 16:26:37","The main experiment item","yes","FIN__BA__M21__7%3A10%3A17.osexp","C:\Users\ERP Testing Room\Desktop\Joanna\morph21","no","mono","no","18","no","white","no","yes","1080","legacy","61","61","C:/Users/ERP Testing Room/Desktop/Joanna/morph21/subject-153.csv","xpyriment","Kafkaesque Koffka","3.2.5","0","z","NA","NA","NA","NA","right shift","z","726","NA","NA","NA","NA","197719","726","2","legacy","1024","2","48000","-16","BA_m21","153","odd","NW_S_COMP","HAPPENANGE","1169","423281","421614","415439","198903","NA","NA","NA","NA","423276","422111","NA","421114","NA","421107","423276","1183","423481","NA","NA","422281","1169","1169","422681","421107","1169","422281","423481","morph21_Oliver/Morris","49","44920","62","yes","1280","2"
"400","79.3650793651","79.3650793651","723.857142857","723.857142857","black","no","xpyriment","legacy","legacy","0","208","NA","uniform","60211","1000","0.016608260949","1","undefined","1","0","62","62","62","0","62","62","62","NA","62","62","0","62","NA","62","62","0","62","NA","62","NA","62","0","0","62","62","0","62","62","63","z","11/14/18 16:26:37","The main experiment item","yes","FIN__BA__M21__7%3A10%3A17.osexp","C:\Users\ERP Testing Room\Desktop\Joanna\morph21","no","mono","no","18","no","white","no","yes","1080","legacy","62","62","C:/Users/ERP Testing Room/Desktop/Joanna/morph21/subject-153.csv","xpyriment","Kafkaesque Koffka","3.2.5","0","z","NA","NA","NA","NA","right shift","z","683","NA","NA","NA","NA","197719","683","2","legacy","1024","2","48000","-16","BA_m21","153","odd","FILL_NW","HEND","1169","427866","424698","426356","198903","NA","NA","NA","NA","426353","425195","NA","424198","NA","424191","426353","1183","428266","NA","NA","425364","1169","1169","425756","424191","1169","425364","428266","morph21_Oliver/Morris","50","45603","63","yes","1280","28"
"400","79.6875","79.6875","725.40625","725.40625","black","no","xpyriment","legacy","legacy","0","205","NA","uniform","51457","1000","0.0194337019259","1","undefined","1","0","63","63","63","0","63","63","63","NA","63","63","0","63","NA","63","63","0","63","NA","63","NA","63","0","0","63","63","0","63","63","64","z","11/14/18 16:26:37","The main experiment item","yes","FIN__BA__M21__7%3A10%3A17.osexp","C:\Users\ERP Testing Room\Desktop\Joanna\morph21","no","mono","no","18","no","white","no","yes","1080","legacy","63","63","C:/Users/ERP Testing Room/Desktop/Joanna/morph21/subject-153.csv","xpyriment","Kafkaesque Koffka","3.2.5","0","z","NA","NA","NA","NA","right shift","z","823","NA","NA","NA","NA","197719","823","2","legacy","1024","2","48000","-16","BA_m21","153","odd","NW_S_SIMP","AIDIC","1169","431016","429341","426356","198903","NA","NA","NA","NA","431009","429838","NA","428841","NA","428836","431009","1183","431416","NA","NA","430016","1169","1169","430407","428836","1169","430016","431416","morph21_Oliver/Morris","51","46426","64","yes","1280","4"
"350","80","80","722.569230769","722.569230769","black","no","xpyriment","legacy","legacy","0","201","NA","uniform","63166","1000","0.0158313016496","1","undefined","1","0","64","64","64","0","64","64","64","NA","64","64","0","64","NA","64","64","0","64","NA","64","NA","64","0","0","64","64","0","64","64","65","/","11/14/18 16:26:37","The main experiment item","yes","FIN__BA__M21__7%3A10%3A17.osexp","C:\Users\ERP Testing Room\Desktop\Joanna\morph21","no","mono","no","18","no","white","no","yes","1080","legacy","64","64","C:/Users/ERP Testing Room/Desktop/Joanna/morph21/subject-153.csv","xpyriment","Kafkaesque Koffka","3.2.5","0","/","NA","NA","NA","NA","right shift","/","541","NA","NA","NA","NA","197719","541","2","legacy","1024","2","48000","-16","BA_m21","153","odd","CW_S","RICHNESS","1169","434274","432607","426356","198903","NA","NA","NA","NA","434265","433105","NA","432107","NA","432098","434265","1183","434624","NA","NA","433274","1169","1169","433666","432098","1169","433274","434624","morph21_Oliver/Morris","52","46967","65","yes","1280","45"
"200","80.303030303","80.303030303","718.878787879","718.878787879","black","no","xpyriment","legacy","legacy","0","208","NA","uniform","73163","1000","0.0136681109304","1","undefined","1","0","65","65","65","0","65","65","65","NA","65","65","0","65","NA","65","65","0","65","NA","65","NA","65","0","0","65","65","0","65","65","66","z","11/14/18 16:26:37","The main experiment item","yes","FIN__BA__M21__7%3A10%3A17.osexp","C:\Users\ERP Testing Room\Desktop\Joanna\morph21","no","mono","no","18","no","white","no","yes","1080","legacy","65","65","C:/Users/ERP Testing Room/Desktop/Joanna/morph21/subject-153.csv","xpyriment","Kafkaesque Koffka","3.2.5","0","z","NA","NA","NA","NA","right shift","z","479","NA","NA","NA","NA","197719","479","2","legacy","1024","2","48000","-16","BA_m21","153","odd","FILL_NW","VUNKS","1169","438916","435708","437408","198903","NA","NA","NA","NA","437400","436205","NA","435208","NA","435202","437400","1183","439116","NA","NA","436408","1169","1169","436799","435202","1169","436408","439116","morph21_Oliver/Morris","53","47446","66","yes","1280","49"
"200","80.5970149254","80.5970149254","715.865671642","715.865671642","black","no","xpyriment","legacy","legacy","0","207","NA","uniform","69154","1000","0.0144604795095","1","undefined","1","0","66","66","66","0","66","66","66","NA","66","66","0","66","NA","66","66","0","66","NA","66","NA","66","0","0","66","66","0","66","66","67","/","11/14/18 16:26:37","The main experiment item","yes","FIN__BA__M21__7%3A10%3A17.osexp","C:\Users\ERP Testing Room\Desktop\Joanna\morph21","no","mono","no","18","no","white","no","yes","1080","legacy","66","66","C:/Users/ERP Testing Room/Desktop/Joanna/morph21/subject-153.csv","xpyriment","Kafkaesque Koffka","3.2.5","0","/","NA","NA","NA","NA","right shift","/","517","NA","NA","NA","NA","197719","517","2","legacy","1024","2","48000","-16","BA_m21","153","odd","FILL_W","FLESH","1169","441866","440216","437408","198903","NA","NA","NA","NA","441860","440713","NA","439716","NA","439711","441860","1183","442066","NA","NA","440866","1169","1169","441258","439711","1169","440866","442066","morph21_Oliver/Morris","54","47963","67","yes","1280","32"
"200","80.8823529412","80.8823529412","715.411764706","715.411764706","black","no","xpyriment","legacy","legacy","0","203","NA","uniform","59113","1000","0.0169167526602","1","undefined","1","0","67","67","67","0","67","67","67","NA","67","67","0","67","NA","67","67","0","67","NA","67","NA","67","0","0","67","67","0","67","67","68","z","11/14/18 16:26:37","The main experiment item","yes","FIN__BA__M21__7%3A10%3A17.osexp","C:\Users\ERP Testing Room\Desktop\Joanna\morph21","no","mono","no","18","no","white","no","yes","1080","legacy","67","67","C:/Users/ERP Testing Room/Desktop/Joanna/morph21/subject-153.csv","xpyriment","Kafkaesque Koffka","3.2.5","0","z","NA","NA","NA","NA","right shift","z","685","NA","NA","NA","NA","197719","685","2","legacy","1024","2","48000","-16","BA_m21","153","odd","NW_S_COMP","ADOPTISH","1169","444884","443216","437408","198903","NA","NA","NA","NA","444874","443713","NA","442716","NA","442709","444874","1183","445084","NA","NA","443883","1169","1169","444276","442709","1169","443883","445084","morph21_Oliver/Morris","55","48648","68","yes","1280","19"
"400","81.1594202899","81.1594202899","714.565217391","714.565217391","black","no","xpyriment","legacy","legacy","0","206","NA","uniform","64433","1000","0.0155199975168","1","undefined","1","0","68","68","68","0","68","68","68","NA","68","68","0","68","NA","68","68","0","68","NA","68","NA","68","0","0","68","68","0","68","68","69","z","11/14/18 16:26:37","The main experiment item","yes","FIN__BA__M21__7%3A10%3A17.osexp","C:\Users\ERP Testing Room\Desktop\Joanna\morph21","no","mono","no","18","no","white","no","yes","1080","legacy","68","68","C:/Users/ERP Testing Room/Desktop/Joanna/morph21/subject-153.csv","xpyriment","Kafkaesque Koffka","3.2.5","0","z","NA","NA","NA","NA","right shift","z","657","NA","NA","NA","NA","197719","657","2","legacy","1024","2","48000","-16","BA_m21","153","odd","NW_L_SIMP","CLASSOUS","1169","449451","446292","447942","198903","NA","NA","NA","NA","447938","446790","NA","445792","NA","445785","447938","1183","449851","NA","NA","446942","1169","1169","447342","445785","1169","446942","449851","morph21_Oliver/Morris","56","49305","69","yes","1280","18"
"300","81.4285714286","81.4285714286","710.714285714","710.714285714","black","no","xpyriment","legacy","legacy","0","201","NA","uniform","72984","1000","0.0137016332347","1","undefined","1","0","69","69","69","0","69","69","69","NA","69","69","0","69","NA","69","69","0","69","NA","69","NA","69","0","0","69","69","0","69","69","70","/","11/14/18 16:26:37","The main experiment item","yes","FIN__BA__M21__7%3A10%3A17.osexp","C:\Users\ERP Testing Room\Desktop\Joanna\morph21","no","mono","no","18","no","white","no","yes","1080","legacy","69","69","C:/Users/ERP Testing Room/Desktop/Joanna/morph21/subject-153.csv","xpyriment","Kafkaesque Koffka","3.2.5","0","/","NA","NA","NA","NA","right shift","/","445","NA","NA","NA","NA","197719","445","2","legacy","1024","2","48000","-16","BA_m21","153","odd","CW_S","MAGICAL","1169","452634","450951","447942","198903","NA","NA","NA","NA","452625","451448","NA","450443","NA","450438","452625","1183","452934","NA","NA","451634","1169","1169","452026","450438","1169","451634","452934","morph21_Oliver/Morris","57","49750","70","yes","1280","4"
"350","81.6901408451","81.6901408451","708.690140845","708.690140845","black","no","xpyriment","legacy","legacy","0","201","NA","uniform","63612","1000","0.0157203043451","1","undefined","1","0","70","70","70","0","70","70","70","NA","70","70","0","70","NA","70","70","0","70","NA","70","NA","70","0","0","70","70","0","70","70","71","/","11/14/18 16:26:37","The main experiment item","yes","FIN__BA__M21__7%3A10%3A17.osexp","C:\Users\ERP Testing Room\Desktop\Joanna\morph21","no","mono","no","18","no","white","no","yes","1080","legacy","70","70","C:/Users/ERP Testing Room/Desktop/Joanna/morph21/subject-153.csv","xpyriment","Kafkaesque Koffka","3.2.5","0","/","NA","NA","NA","NA","right shift","/","567","NA","NA","NA","NA","197719","567","2","legacy","1024","2","48000","-16","BA_m21","153","odd","CW_S","TEACHER","1169","455768","454093","447942","198903","NA","NA","NA","NA","455762","454590","NA","453593","NA","453582","455762","1183","456118","NA","NA","454768","1169","1169","455159","453581","1169","454768","456118","morph21_Oliver/Morris","58","50317","71","yes","1280","23"
"300","81.9444444444","81.9444444444","707.75","707.75","black","no","xpyriment","legacy","legacy","0","204","NA","uniform","59955","1000","0.0166791760487","1","undefined","1","0","71","71","71","0","71","71","71","NA","71","71","0","71","NA","71","71","0","71","NA","71","NA","71","0","0","71","71","0","71","71","72","z","11/14/18 16:26:37","The main experiment item","yes","FIN__BA__M21__7%3A10%3A17.osexp","C:\Users\ERP Testing Room\Desktop\Joanna\morph21","no","mono","no","18","no","white","no","yes","1080","legacy","71","71","C:/Users/ERP Testing Room/Desktop/Joanna/morph21/subject-153.csv","xpyriment","Kafkaesque Koffka","3.2.5","0","z","NA","NA","NA","NA","right shift","z","641","NA","NA","NA","NA","197719","641","2","legacy","1024","2","48000","-16","BA_m21","153","odd","NW_L_COMP","EMPLOYNELS","1169","460426","457218","458918","198903","NA","NA","NA","NA","458915","457715","NA","456718","NA","456711","458915","1183","460726","NA","NA","457926","1169","1169","458318","456711","1169","457926","460726","morph21_Oliver/Morris","59","50958","72","yes","1280","21"
"400","82.1917808219","82.1917808219","707.356164384","707.356164384","black","no","xpyriment","legacy","legacy","0","204","NA","uniform","61594","1000","0.0162353475988","1","undefined","1","0","72","72","72","0","72","72","72","NA","72","72","0","72","NA","72","72","0","72","NA","72","NA","72","0","0","72","72","0","72","72","73","z","11/14/18 16:26:37","The main experiment item","yes","FIN__BA__M21__7%3A10%3A17.osexp","C:\Users\ERP Testing Room\Desktop\Joanna\morph21","no","mono","no","18","no","white","no","yes","1080","legacy","72","72","C:/Users/ERP Testing Room/Desktop/Joanna/morph21/subject-153.csv","xpyriment","Kafkaesque Koffka","3.2.5","0","z","NA","NA","NA","NA","right shift","z","679","NA","NA","NA","NA","197719","679","2","legacy","1024","2","48000","-16","BA_m21","153","odd","NW_L_COMP","COLDIDY","1169","463561","461902","458918","198903","NA","NA","NA","NA","463556","462400","NA","461401","NA","461395","463556","1183","463961","NA","NA","462561","1169","1169","462961","461395","1169","462561","463961","morph21_Oliver/Morris","60","51637","73","yes","1280","10"
"250","82.4324324324","82.4324324324","706.189189189","706.189189189","black","no","xpyriment","legacy","legacy","0","206","NA","uniform","62036","1000","0.0161196724483","1","undefined","1","0","73","73","73","0","73","73","73","NA","73","73","0","73","NA","73","73","0","73","NA","73","NA","73","0","0","73","73","0","73","73","74","z","11/14/18 16:26:37","The main experiment item","yes","FIN__BA__M21__7%3A10%3A17.osexp","C:\Users\ERP Testing Room\Desktop\Joanna\morph21","no","mono","no","18","no","white","no","yes","1080","legacy","73","73","C:/Users/ERP Testing Room/Desktop/Joanna/morph21/subject-153.csv","xpyriment","Kafkaesque Koffka","3.2.5","0","z","NA","NA","NA","NA","right shift","z","621","NA","NA","NA","NA","197719","621","2","legacy","1024","2","48000","-16","BA_m21","153","odd","NW_L_SIMP","SHOOTMENT","1169","466786","465111","458918","198903","NA","NA","NA","NA","466783","465608","NA","464611","NA","464606","466783","1183","467036","NA","NA","465786","1169","1169","466186","464606","1169","465786","467036","morph21_Oliver/Morris","61","52258","74","yes","1280","16"
"300","82.6666666667","82.6666666667","704.96","704.96","black","no","xpyriment","legacy","legacy","0","208","NA","uniform","68351","1000","0.0146303638571","undefined","undefined","1","0","74","74","74","0","74","74","74","NA","74","74","0","74","NA","74","74","0","74","NA","74","NA","74","0","0","74","74","0","74","74","75","z","11/14/18 16:26:37","The main experiment item","yes","FIN__BA__M21__7%3A10%3A17.osexp","C:\Users\ERP Testing Room\Desktop\Joanna\morph21","no","mono","no","18","no","white","no","yes","1080","legacy","74","74","C:/Users/ERP Testing Room/Desktop/Joanna/morph21/subject-153.csv","xpyriment","Kafkaesque Koffka","3.2.5","0","space","space","NA","NA","NA","right shift","z","15653","15653","NA","NA","NA","197719","614","2","legacy","1024","2","48000","-16","BA_m21","153","odd","FILL_NW","TREMP","1169","471469","468278","469961","198903","471778","NA","NA","NA","469956","468775","NA","467778","NA","467770","469956","1183","487432","NA","NA","468961","1169","1169","469361","467770","1169","468961","471770","morph21_Oliver/Morris","62","52872","75","yes","1280","20"
"300","81.5789473684","81.5789473684","708.697368421","708.697368421","black","no","xpyriment","legacy","legacy","0","208","NA","uniform","50767","1000","0.0196978352079","0","undefined","0","0","75","75","75","0","75","75","75","NA","75","75","0","75","NA","75","75","0","75","NA","75","NA","75","0","0","75","75","0","75","75","76","z","11/14/18 16:26:37","The main experiment item","yes","FIN__BA__M21__7%3A10%3A17.osexp","C:\Users\ERP Testing Room\Desktop\Joanna\morph21","no","mono","no","18","no","white","no","yes","1080","legacy","75","75","C:/Users/ERP Testing Room/Desktop/Joanna/morph21/subject-153.csv","xpyriment","Kafkaesque Koffka","3.2.5","0","None","space","NA","NA","NA","right shift","None","989","15653","NA","NA","NA","197719","989","2","legacy","1024","2","48000","-16","BA_m21","153","odd","FILL_NW","BAFED","1169","490288","488555","469961","198903","471778","NA","NA","NA","469956","489052","NA","488055","NA","488045","490277","1183","490588","NA","NA","489288","1169","1169","489680","488045","1169","489288","490588","morph21_Oliver/Morris","62","53861","76","yes","1280","1"
"350","81.8181818182","81.8181818182","711.597402597","711.597402597","black","no","xpyriment","legacy","legacy","0","201","NA","uniform","51239","1000","0.0195163840044","1","undefined","1","0","76","76","76","0","76","76","76","NA","76","76","0","76","NA","76","76","0","76","NA","76","NA","76","0","0","76","76","0","76","76","77","/","11/14/18 16:26:37","The main experiment item","yes","FIN__BA__M21__7%3A10%3A17.osexp","C:\Users\ERP Testing Room\Desktop\Joanna\morph21","no","mono","no","18","no","white","no","yes","1080","legacy","76","76","C:/Users/ERP Testing Room/Desktop/Joanna/morph21/subject-153.csv","xpyriment","Kafkaesque Koffka","3.2.5","0","/","space","NA","NA","NA","right shift","/","932","15653","NA","NA","NA","197719","932","2","legacy","1024","2","48000","-16","BA_m21","153","odd","CW_S","TOASTER","1169","493355","491705","469961","198903","471778","NA","NA","NA","493349","492202","NA","491205","NA","491194","493349","1183","493705","NA","NA","492355","1169","1169","492746","491194","1169","492355","493705","morph21_Oliver/Morris","63","54793","77","yes","1280","10"
"350","82.0512820513","82.0512820513","709.141025641","709.141025641","black","no","xpyriment","legacy","legacy","0","202","NA","uniform","71966","1000","0.0138954506295","1","undefined","1","0","77","77","77","0","77","77","77","NA","77","77","0","77","NA","77","77","0","77","NA","77","NA","77","0","0","77","77","0","77","77","78","/","11/14/18 16:26:37","The main experiment item","yes","FIN__BA__M21__7%3A10%3A17.osexp","C:\Users\ERP Testing Room\Desktop\Joanna\morph21","no","mono","no","18","no","white","no","yes","1080","legacy","77","77","C:/Users/ERP Testing Room/Desktop/Joanna/morph21/subject-153.csv","xpyriment","Kafkaesque Koffka","3.2.5","0","/","space","NA","NA","NA","right shift","/","520","15653","NA","NA","NA","197719","520","2","legacy","1024","2","48000","-16","BA_m21","153","odd","CW_L","KICKING","1169","497981","494813","496472","198903","471778","NA","NA","NA","496467","495310","NA","494313","NA","494303","496467","1183","498331","NA","NA","495471","1169","1169","495871","494303","1169","495471","498331","morph21_Oliver/Morris","64","55313","78","yes","1280","23"
"350","82.2784810127","82.2784810127","707.392405063","707.392405063","black","no","xpyriment","legacy","legacy","0","201","NA","uniform","62295","1000","0.0160526527009","1","undefined","1","0","78","78","78","0","78","78","78","NA","78","78","0","78","NA","78","78","0","78","NA","78","NA","78","0","0","78","78","0","78","78","79","/","11/14/18 16:26:37","The main experiment item","yes","FIN__BA__M21__7%3A10%3A17.osexp","C:\Users\ERP Testing Room\Desktop\Joanna\morph21","no","mono","no","18","no","white","no","yes","1080","legacy","78","78","C:/Users/ERP Testing Room/Desktop/Joanna/morph21/subject-153.csv","xpyriment","Kafkaesque Koffka","3.2.5","0","/","space","NA","NA","NA","right shift","/","571","15653","NA","NA","NA","197719","571","2","legacy","1024","2","48000","-16","BA_m21","153","odd","CW_S","CHILLY","1169","501156","499498","496472","198903","471778","NA","NA","NA","501147","499995","NA","498998","NA","498991","501147","1183","501506","NA","NA","500156","1169","1169","500548","498991","1169","500156","501506","morph21_Oliver/Morris","65","55884","79","yes","1280","48"
"200","82.5","82.5","705.0375","705.0375","black","no","xpyriment","legacy","legacy","0","207","NA","uniform","69646","1000","0.0143583263935","1","undefined","1","0","79","79","79","0","79","79","79","NA","79","79","0","79","NA","79","79","0","79","NA","79","NA","79","0","0","79","79","0","79","79","80","/","11/14/18 16:26:37","The main experiment item","yes","FIN__BA__M21__7%3A10%3A17.osexp","C:\Users\ERP Testing Room\Desktop\Joanna\morph21","no","mono","no","18","no","white","no","yes","1080","legacy","79","79","C:/Users/ERP Testing Room/Desktop/Joanna/morph21/subject-153.csv","xpyriment","Kafkaesque Koffka","3.2.5","0","/","space","NA","NA","NA","right shift","/","519","15653","NA","NA","NA","197719","519","2","legacy","1024","2","48000","-16","BA_m21","153","odd","FILL_W","TEST","1169","504248","502581","496472","198903","471778","NA","NA","NA","504240","503078","NA","502081","NA","502074","504240","1183","504448","NA","NA","503248","1169","1169","503639","502074","1169","503248","504448","morph21_Oliver/Morris","66","56403","80","yes","1280","47"
"300","82.7160493827","82.7160493827","702.740740741","702.740740741","black","no","xpyriment","legacy","legacy","0","202","NA","uniform","71127","1000","0.0140593586121","1","undefined","1","0","80","80","80","0","80","80","80","NA","80","80","0","80","NA","80","80","0","80","NA","80","NA","80","0","0","80","80","0","80","80","81","/","11/14/18 16:26:37","The main experiment item","yes","FIN__BA__M21__7%3A10%3A17.osexp","C:\Users\ERP Testing Room\Desktop\Joanna\morph21","no","mono","no","18","no","white","no","yes","1080","legacy","80","80","C:/Users/ERP Testing Room/Desktop/Joanna/morph21/subject-153.csv","xpyriment","Kafkaesque Koffka","3.2.5","0","/","space","NA","NA","NA","right shift","/","519","15653","NA","NA","NA","197719","519","2","legacy","1024","2","48000","-16","BA_m21","153","odd","CW_L","COMPOSER","1169","508765","505606","507256","198903","471778","NA","NA","NA","507248","506103","NA","505106","NA","505095","507248","1183","509065","NA","NA","506256","1169","1169","506648","505095","1169","506256","509065","morph21_Oliver/Morris","67","56922","81","yes","1280","6"
"300","82.9268292683","82.9268292683","701.414634146","701.414634146","black","no","xpyriment","legacy","legacy","0","201","NA","uniform","67265","1000","0.0148665725117","1","undefined","1","0","81","81","81","0","81","81","81","NA","81","81","0","81","NA","81","81","0","81","NA","81","NA","81","0","0","81","81","0","81","81","82","/","11/14/18 16:26:37","The main experiment item","yes","FIN__BA__M21__7%3A10%3A17.osexp","C:\Users\ERP Testing Room\Desktop\Joanna\morph21","no","mono","no","18","no","white","no","yes","1080","legacy","81","81","C:/Users/ERP Testing Room/Desktop/Joanna/morph21/subject-153.csv","xpyriment","Kafkaesque Koffka","3.2.5","0","/","space","NA","NA","NA","right shift","/","594","15653","NA","NA","NA","197719","594","2","legacy","1024","2","48000","-16","BA_m21","153","odd","CW_S","DETECTABLE","1169","511965","510315","507256","198903","471778","NA","NA","NA","511958","510812","NA","509815","NA","509803","511958","1183","512265","NA","NA","510965","1169","1169","511357","509803","1169","510965","512265","morph21_Oliver/Morris","68","57516","82","yes","1280","1"
"350","83.1325301205","83.1325301205","699.578313253","699.578313253","black","no","xpyriment","legacy","legacy","0","201","NA","uniform","71704","1000","0.0139462233627","1","undefined","1","0","82","82","82","0","82","82","82","NA","82","82","0","82","NA","82","82","0","82","NA","82","NA","82","0","0","82","82","0","82","82","83","/","11/14/18 16:26:37","The main experiment item","yes","FIN__BA__M21__7%3A10%3A17.osexp","C:\Users\ERP Testing Room\Desktop\Joanna\morph21","no","mono","no","18","no","white","no","yes","1080","legacy","82","82","C:/Users/ERP Testing Room/Desktop/Joanna/morph21/subject-153.csv","xpyriment","Kafkaesque Koffka","3.2.5","0","/","space","NA","NA","NA","right shift","/","549","15653","NA","NA","NA","197719","549","2","legacy","1024","2","48000","-16","BA_m21","153","odd","CW_S","DENSELY","1169","515083","513365","507256","198903","471778","NA","NA","NA","515076","513862","NA","512865","NA","512859","515076","1183","515433","NA","NA","514083","1169","1169","514474","512859","1169","514083","515433","morph21_Oliver/Morris","69","58065","83","yes","1280","32"
"200","83.3333333333","83.3333333333","696.5","696.5","black","no","xpyriment","legacy","legacy","0","207","NA","uniform","67466","1000","0.0148222808526","1","undefined","1","0","83","83","83","0","83","83","83","NA","83","83","0","83","NA","83","83","0","83","NA","83","NA","83","0","0","83","83","0","83","83","84","/","11/14/18 16:26:37","The main experiment item","yes","FIN__BA__M21__7%3A10%3A17.osexp","C:\Users\ERP Testing Room\Desktop\Joanna\morph21","no","mono","no","18","no","white","no","yes","1080","legacy","83","83","C:/Users/ERP Testing Room/Desktop/Joanna/morph21/subject-153.csv","xpyriment","Kafkaesque Koffka","3.2.5","0","/","space","NA","NA","NA","right shift","/","441","15653","NA","NA","NA","197719","441","2","legacy","1024","2","48000","-16","BA_m21","153","odd","FILL_W","SAVE","1169","519883","516691","518374","198903","471778","NA","NA","NA","518368","517188","NA","516191","NA","516184","518368","1183","520083","NA","NA","517374","1169","1169","517766","516184","1169","517374","520083","morph21_Oliver/Morris","70","58506","84","yes","1280","46"
"250","83.5294117647","83.5294117647","694.058823529","694.058823529","black","no","xpyriment","legacy","legacy","0","201","NA","uniform","72271","1000","0.0138368086784","1","undefined","1","0","84","84","84","0","84","84","84","NA","84","84","0","84","NA","84","84","0","84","NA","84","NA","84","0","0","84","84","0","84","84","85","/","11/14/18 16:26:37","The main experiment item","yes","FIN__BA__M21__7%3A10%3A17.osexp","C:\Users\ERP Testing Room\Desktop\Joanna\morph21","no","mono","no","18","no","white","no","yes","1080","legacy","84","84","C:/Users/ERP Testing Room/Desktop/Joanna/morph21/subject-153.csv","xpyriment","Kafkaesque Koffka","3.2.5","0","/","space","NA","NA","NA","right shift","/","489","15653","NA","NA","NA","197719","489","2","legacy","1024","2","48000","-16","BA_m21","153","odd","CW_S","NOTICEABLE","1169","522966","521316","518374","198903","471778","NA","NA","NA","522958","521813","NA","520816","NA","520812","522958","1183","523217","NA","NA","521966","1169","1169","522358","520812","1169","521966","523217","morph21_Oliver/Morris","71","58995","85","yes","1280","3"
"300","83.7209302326","83.7209302326","693.488372093","693.488372093","black","no","xpyriment","legacy","legacy","0","204","NA","uniform","67088","1000","0.0149057953732","1","undefined","1","0","85","85","85","0","85","85","85","NA","85","85","0","85","NA","85","85","0","85","NA","85","NA","85","0","0","85","85","0","85","85","86","z","11/14/18 16:26:37","The main experiment item","yes","FIN__BA__M21__7%3A10%3A17.osexp","C:\Users\ERP Testing Room\Desktop\Joanna\morph21","no","mono","no","18","no","white","no","yes","1080","legacy","85","85","C:/Users/ERP Testing Room/Desktop/Joanna/morph21/subject-153.csv","xpyriment","Kafkaesque Koffka","3.2.5","0","z","space","NA","NA","NA","right shift","z","645","15653","NA","NA","NA","197719","645","2","legacy","1024","2","48000","-16","BA_m21","153","odd","NW_L_COMP","KINGILM","1169","526066","524416","518374","198903","471778","NA","NA","NA","526062","524914","NA","523916","NA","523905","526062","1183","526366","NA","NA","525066","1169","1169","525466","523905","1169","525066","526366","morph21_Oliver/Morris","72","59640","86","yes","1280","19"
"400","83.908045977","83.908045977","695.149425287","695.149425287","black","no","xpyriment","legacy","legacy","0","206","NA","uniform","56617","1000","0.0176625395199","1","undefined","1","0","86","86","86","0","86","86","86","NA","86","86","0","86","NA","86","86","0","86","NA","86","NA","86","0","0","86","86","0","86","86","87","z","11/14/18 16:26:37","The main experiment item","yes","FIN__BA__M21__7%3A10%3A17.osexp","C:\Users\ERP Testing Room\Desktop\Joanna\morph21","no","mono","no","18","no","white","no","yes","1080","legacy","86","86","C:/Users/ERP Testing Room/Desktop/Joanna/morph21/subject-153.csv","xpyriment","Kafkaesque Koffka","3.2.5","0","z","space","NA","NA","NA","right shift","z","838","15653","NA","NA","NA","197719","838","2","legacy","1024","2","48000","-16","BA_m21","153","odd","NW_L_SIMP","BLOODER","1169","530742","527575","529233","198903","471778","NA","NA","NA","529226","528072","NA","527075","NA","527064","529226","1183","531142","NA","NA","528233","1169","1169","528625","527064","1169","528233","531142","morph21_Oliver/Morris","73","60478","87","yes","1280","24"
"200","84.0909090909","84.0909090909","693.431818182","693.431818182","black","no","xpyriment","legacy","legacy","0","201","NA","uniform","70415","1000","0.0142015195626","1","undefined","1","0","87","87","87","0","87","87","87","NA","87","87","0","87","NA","87","87","0","87","NA","87","NA","87","0","0","87","87","0","87","87","88","/","11/14/18 16:26:37","The main experiment item","yes","FIN__BA__M21__7%3A10%3A17.osexp","C:\Users\ERP Testing Room\Desktop\Joanna\morph21","no","mono","no","18","no","white","no","yes","1080","legacy","87","87","C:/Users/ERP Testing Room/Desktop/Joanna/morph21/subject-153.csv","xpyriment","Kafkaesque Koffka","3.2.5","0","/","space","NA","NA","NA","right shift","/","544","15653","NA","NA","NA","197719","544","2","legacy","1024","2","48000","-16","BA_m21","153","odd","CW_S","ENJOYMENT","1169","533976","532309","529233","198903","471778","NA","NA","NA","533969","532807","NA","531809","NA","531799","533969","1183","534176","NA","NA","532976","1169","1169","533368","531798","1169","532976","534176","morph21_Oliver/Morris","74","61022","88","yes","1280","40"
"400","84.2696629213","84.2696629213","692.06741573","692.06741573","black","no","xpyriment","legacy","legacy","0","202","NA","uniform","68043","1000","0.0146965889217","1","undefined","1","0","88","88","88","0","88","88","88","NA","88","88","0","88","NA","88","88","0","88","NA","88","NA","88","0","0","88","88","0","88","88","89","/","11/14/18 16:26:37","The main experiment item","yes","FIN__BA__M21__7%3A10%3A17.osexp","C:\Users\ERP Testing Room\Desktop\Joanna\morph21","no","mono","no","18","no","white","no","yes","1080","legacy","88","88","C:/Users/ERP Testing Room/Desktop/Joanna/morph21/subject-153.csv","xpyriment","Kafkaesque Koffka","3.2.5","0","/","space","NA","NA","NA","right shift","/","572","15653","NA","NA","NA","197719","572","2","legacy","1024","2","48000","-16","BA_m21","153","odd","CW_L","CONDUCTOR","1169","537035","535360","529233","198903","471778","NA","NA","NA","537024","535857","NA","534860","NA","534854","537024","1183","537435","NA","NA","536035","1169","1169","536426","534854","1169","536035","537435","morph21_Oliver/Morris","75","61594","89","yes","1280","44"
"250","84.4444444444","84.4444444444","688.977777778","688.977777778","black","no","xpyriment","legacy","legacy","0","201","NA","uniform","76236","1000","0.0131171624954","1","undefined","1","0","89","89","89","0","89","89","89","NA","89","89","0","89","NA","89","89","0","89","NA","89","NA","89","0","0","89","89","0","89","89","90","/","11/14/18 16:26:37","The main experiment item","yes","FIN__BA__M21__7%3A10%3A17.osexp","C:\Users\ERP Testing Room\Desktop\Joanna\morph21","no","mono","no","18","no","white","no","yes","1080","legacy","89","89","C:/Users/ERP Testing Room/Desktop/Joanna/morph21/subject-153.csv","xpyriment","Kafkaesque Koffka","3.2.5","0","/","space","NA","NA","NA","right shift","/","414","15653","NA","NA","NA","197719","414","2","legacy","1024","2","48000","-16","BA_m21","153","odd","CW_S","HUGELY","1169","541693","538518","540185","198903","471778","NA","NA","NA","540174","539015","NA","538018","NA","538013","540174","1183","541943","NA","NA","539185","1169","1169","539576","538013","1169","539185","541943","morph21_Oliver/Morris","76","62008","90","yes","1280","35"
