"ITI","acc","accuracy","average_response_time","avg_rt","background","bidi","canvas_backend","clock_backend","color_backend","compensation","cond_trig","condtrigtime","coordinates","coroutines_cycles","coroutines_duration","coroutines_mean_cycle_duration","correct","correct_instructions_1","correct_new_keyboard_response_1","count_BA_m21","count_ITI","count_blank_screen","count_blink_screen","count_block1","count_break1","count_break2","count_break3_1","count_canvas","count_correct_trigger","count_def_chain","count_end_screen","count_fixation_1","count_getting_started","count_inc_counter","count_incorrect_trigger","count_instructions_1","count_logger","count_logscript","count_new_coroutines","count_new_inline_script","count_new_keyboard_response_1","count_reset_counter_prep","count_reset_counter_run","count_responsescreen","count_sequence","count_start_trigger","count_target_present","count_word_trigger","counter","cresp","datetime","description","disable_garbage_collection","experiment_file","experiment_path","font_bold","font_family","font_italic","font_size","font_underline","foreground","form_clicks","fullscreen","height","keyboard_backend","live_row","live_row_block1","logfile","mouse_backend","opensesame_codename","opensesame_version","repeat_cycle","response","response_break1","response_break2","response_break3_1","response_end_screen","response_instructions_1","response_new_keyboard_response_1","response_time","response_time_break1","response_time_break2","response_time_break3_1","response_time_end_screen","response_time_instructions_1","response_time_new_keyboard_response_1","round_decimals","sampler_backend","sound_buf_size","sound_channels","sound_freq","sound_sample_size","start","subject_nr","subject_parity","targ_type","target","time_BA_m21","time_ITI","time_blank_screen","time_blink_screen","time_block1","time_break1","time_break2","time_break3_1","time_canvas","time_correct_trigger","time_def_chain","time_end_screen","time_fixation_1","time_getting_started","time_inc_counter","time_incorrect_trigger","time_instructions_1","time_logger","time_logscript","time_new_inline_script","time_new_keyboard_response_1","time_reset_counter_prep","time_reset_counter_run","time_responsescreen","time_sequence","time_start_trigger","time_target_present","time_word_trigger","title","total_correct","total_response_time","total_responses","uniform_coordinates","width","word_trig"
"400","0","0","992","992","black","no","xpyriment","legacy","legacy","0","208","NA","uniform","55049","1000","0.0181656342531","0","undefined","0","0","0","0","0","0","0","0","0","NA","0","0","0","0","NA","0","0","0","0","NA","0","NA","0","0","0","0","0","0","0","0","1","z","10/01/17 12:34:15","The main experiment item","yes","FIN__BA__M21__7%3A10%3A17.osexp","C:\Users\ERP Testing Room\Desktop\Joanna\morph21","no","mono","no","18","no","white","no","yes","1080","legacy","0","0","C:/Users/ERP Testing Room/Desktop/Joanna/morph21/subject-105.csv","xpyriment","Jazzy James","3.1.4","0","None","NA","NA","NA","NA","space","None","992","NA","NA","NA","NA","161810","992","2","legacy","1024","2","48000","-16","BA_m21","105","odd","FILL_NW","CORG","1953","166707","165090","NA","163772","NA","NA","NA","NA","NA","165587","NA","164585","NA","164512","166699","1962","167107","NA","NA","165707","1953","1953","166099","164512","1953","165707","167107","morph21_Oliver/Morris","0","992","1","yes","1280","7"
"400","0","0","762","762","black","no","xpyriment","legacy","legacy","0","205","NA","uniform","69602","1000","0.0143674032355","0","undefined","0","0","1","1","1","0","1","1","1","NA","1","1","0","1","NA","1","1","0","1","NA","1","NA","1","0","0","1","1","0","1","1","2","z","10/01/17 12:34:15","The main experiment item","yes","FIN__BA__M21__7%3A10%3A17.osexp","C:\Users\ERP Testing Room\Desktop\Joanna\morph21","no","mono","no","18","no","white","no","yes","1080","legacy","1","1","C:/Users/ERP Testing Room/Desktop/Joanna/morph21/subject-105.csv","xpyriment","Jazzy James","3.1.4","0","/","NA","NA","NA","NA","space","/","532","NA","NA","NA","NA","161810","532","2","legacy","1024","2","48000","-16","BA_m21","105","odd","NW_S_SIMP","RAMPIZE","1953","170015","168399","NA","163772","NA","NA","NA","NA","NA","168896","NA","167899","NA","167890","170007","1962","170415","NA","NA","169015","1953","1953","169407","167890","1953","169015","170415","morph21_Oliver/Morris","0","1524","2","yes","1280","6"
"400","33.3333333333","33.3333333333","762","762","black","no","xpyriment","legacy","legacy","0","202","NA","uniform","61174","1000","0.016346814006","1","undefined","1","0","2","2","2","0","2","2","2","NA","2","2","0","2","NA","2","2","0","2","NA","2","NA","2","0","0","2","2","0","2","2","3","/","10/01/17 12:34:15","The main experiment item","yes","FIN__BA__M21__7%3A10%3A17.osexp","C:\Users\ERP Testing Room\Desktop\Joanna\morph21","no","mono","no","18","no","white","no","yes","1080","legacy","2","2","C:/Users/ERP Testing Room/Desktop/Joanna/morph21/subject-105.csv","xpyriment","Jazzy James","3.1.4","0","/","NA","NA","NA","NA","space","/","762","NA","NA","NA","NA","161810","762","2","legacy","1024","2","48000","-16","BA_m21","105","odd","CW_L","CLEANER","1953","174750","171650","173241","163772","NA","NA","NA","NA","173235","172147","NA","171149","NA","171144","173235","1962","175150","NA","NA","172242","1953","1953","172633","171144","1953","172241","175150","morph21_Oliver/Morris","1","2286","3","yes","1280","15"
"400","50","50","676.5","676.5","black","no","xpyriment","legacy","legacy","0","202","NA","uniform","78067","1000","0.0128095097801","1","undefined","1","0","3","3","3","0","3","3","3","NA","3","3","0","3","NA","3","3","0","3","NA","3","NA","3","0","0","3","3","0","3","3","4","/","10/01/17 12:34:15","The main experiment item","yes","FIN__BA__M21__7%3A10%3A17.osexp","C:\Users\ERP Testing Room\Desktop\Joanna\morph21","no","mono","no","18","no","white","no","yes","1080","legacy","3","3","C:/Users/ERP Testing Room/Desktop/Joanna/morph21/subject-105.csv","xpyriment","Jazzy James","3.1.4","0","/","NA","NA","NA","NA","space","/","420","NA","NA","NA","NA","161810","420","2","legacy","1024","2","48000","-16","BA_m21","105","odd","CW_L","STYLISH","1953","178000","176392","173241","163772","NA","NA","NA","NA","177992","176889","NA","175892","NA","175880","177992","1962","178400","NA","NA","177000","1953","1953","177392","175880","1953","177000","178400","morph21_Oliver/Morris","2","2706","4","yes","1280","29"
"400","40","40","626.2","626.2","black","no","xpyriment","legacy","legacy","0","206","NA","uniform","75195","1000","0.0132987565663","0","undefined","0","0","4","4","4","0","4","4","4","NA","4","4","0","4","NA","4","4","0","4","NA","4","NA","4","0","0","4","4","0","4","4","5","z","10/01/17 12:34:15","The main experiment item","yes","FIN__BA__M21__7%3A10%3A17.osexp","C:\Users\ERP Testing Room\Desktop\Joanna\morph21","no","mono","no","18","no","white","no","yes","1080","legacy","4","4","C:/Users/ERP Testing Room/Desktop/Joanna/morph21/subject-105.csv","xpyriment","Jazzy James","3.1.4","0","/","NA","NA","NA","NA","space","/","425","NA","NA","NA","NA","161810","425","2","legacy","1024","2","48000","-16","BA_m21","105","odd","NW_L_SIMP","BLOODER","1953","181267","179667","173241","163772","NA","NA","NA","NA","177992","180164","NA","179167","NA","179163","181260","1962","181667","NA","NA","180267","1953","1953","180659","179163","1953","180267","181667","morph21_Oliver/Morris","2","3131","5","yes","1280","24"
"200","50","50","662.666666667","662.666666667","black","no","xpyriment","legacy","legacy","0","208","NA","uniform","63972","1000","0.0156318389295","1","undefined","1","0","5","5","5","0","5","5","5","NA","5","5","0","5","NA","5","5","0","5","NA","5","NA","5","0","0","5","5","0","5","5","6","z","10/01/17 12:34:15","The main experiment item","yes","FIN__BA__M21__7%3A10%3A17.osexp","C:\Users\ERP Testing Room\Desktop\Joanna\morph21","no","mono","no","18","no","white","no","yes","1080","legacy","5","5","C:/Users/ERP Testing Room/Desktop/Joanna/morph21/subject-105.csv","xpyriment","Jazzy James","3.1.4","0","z","NA","NA","NA","NA","space","z","845","NA","NA","NA","NA","161810","845","2","legacy","1024","2","48000","-16","BA_m21","105","odd","FILL_NW","PUCTS","1953","186042","182950","184534","163772","NA","NA","NA","NA","184524","183447","NA","182450","NA","182442","184524","1962","186242","NA","NA","183534","1953","1953","183925","182442","1953","183534","186242","morph21_Oliver/Morris","3","3976","6","yes","1280","40"
"350","42.8571428571","42.8571428571","627.285714286","627.285714286","black","no","xpyriment","legacy","legacy","0","208","NA","uniform","73798","1000","0.0135505027237","0","undefined","0","0","6","6","6","0","6","6","6","NA","6","6","0","6","NA","6","6","0","6","NA","6","NA","6","0","0","6","6","0","6","6","7","z","10/01/17 12:34:15","The main experiment item","yes","FIN__BA__M21__7%3A10%3A17.osexp","C:\Users\ERP Testing Room\Desktop\Joanna\morph21","no","mono","no","18","no","white","no","yes","1080","legacy","6","6","C:/Users/ERP Testing Room/Desktop/Joanna/morph21/subject-105.csv","xpyriment","Jazzy James","3.1.4","0","/","NA","NA","NA","NA","space","/","415","NA","NA","NA","NA","161810","415","2","legacy","1024","2","48000","-16","BA_m21","105","odd","FILL_NW","DOADS","1953","189093","187476","184534","163772","NA","NA","NA","NA","184524","187973","NA","186976","NA","186964","189083","1962","189443","NA","NA","188092","1953","1953","188484","186964","1953","188092","189443","morph21_Oliver/Morris","3","4391","7","yes","1280","15"
"250","37.5","37.5","643.5","643.5","black","no","xpyriment","legacy","legacy","0","208","NA","uniform","64327","1000","0.0155455718439","0","undefined","0","0","7","7","7","0","7","7","7","NA","7","7","0","7","NA","7","7","0","7","NA","7","NA","7","0","0","7","7","0","7","7","8","z","10/01/17 12:34:15","The main experiment item","yes","FIN__BA__M21__7%3A10%3A17.osexp","C:\Users\ERP Testing Room\Desktop\Joanna\morph21","no","mono","no","18","no","white","no","yes","1080","legacy","7","7","C:/Users/ERP Testing Room/Desktop/Joanna/morph21/subject-105.csv","xpyriment","Jazzy James","3.1.4","0","/","NA","NA","NA","NA","space","/","757","NA","NA","NA","NA","161810","757","2","legacy","1024","2","48000","-16","BA_m21","105","odd","FILL_NW","POLT","1953","192335","190727","184534","163772","NA","NA","NA","NA","184524","191224","NA","190227","NA","190223","192327","1962","192585","NA","NA","191335","1953","1953","191727","190223","1953","191335","192585","morph21_Oliver/Morris","3","5148","8","yes","1280","38"
"300","33.3333333333","33.3333333333","682","682","black","no","xpyriment","legacy","legacy","0","208","NA","uniform","56290","1000","0.0177651447859","0","undefined","0","0","8","8","8","0","8","8","8","NA","8","8","0","8","NA","8","8","0","8","NA","8","NA","8","0","0","8","8","0","8","8","9","z","10/01/17 12:34:15","The main experiment item","yes","FIN__BA__M21__7%3A10%3A17.osexp","C:\Users\ERP Testing Room\Desktop\Joanna\morph21","no","mono","no","18","no","white","no","yes","1080","legacy","8","8","C:/Users/ERP Testing Room/Desktop/Joanna/morph21/subject-105.csv","xpyriment","Jazzy James","3.1.4","0","None","NA","NA","NA","NA","space","None","990","NA","NA","NA","NA","161810","990","2","legacy","1024","2","48000","-16","BA_m21","105","odd","FILL_NW","DASK","1953","196969","193852","195460","163772","NA","NA","NA","NA","184524","194349","NA","193352","NA","193345","195450","1962","197269","NA","NA","194460","1953","1953","194852","193345","1953","194460","197269","morph21_Oliver/Morris","3","6138","9","yes","1280","12"
"350","40","40","666.3","666.3","black","no","xpyriment","legacy","legacy","0","201","NA","uniform","72175","1000","0.0138552130239","1","undefined","1","0","9","9","9","0","9","9","9","NA","9","9","0","9","NA","9","9","0","9","NA","9","NA","9","0","0","9","9","0","9","9","10","/","10/01/17 12:34:15","The main experiment item","yes","FIN__BA__M21__7%3A10%3A17.osexp","C:\Users\ERP Testing Room\Desktop\Joanna\morph21","no","mono","no","18","no","white","no","yes","1080","legacy","9","9","C:/Users/ERP Testing Room/Desktop/Joanna/morph21/subject-105.csv","xpyriment","Jazzy James","3.1.4","0","/","NA","NA","NA","NA","space","/","525","NA","NA","NA","NA","161810","525","2","legacy","1024","2","48000","-16","BA_m21","105","odd","CW_S","AMAZEMENT","1953","200119","198535","195460","163772","NA","NA","NA","NA","200116","199032","NA","198035","NA","198027","200116","1962","200469","NA","NA","199127","1953","1953","199519","198027","1953","199127","200469","morph21_Oliver/Morris","4","6663","10","yes","1280","39"
"300","45.4545454545","45.4545454545","642.363636364","642.363636364","black","no","xpyriment","legacy","legacy","0","207","NA","uniform","70533","1000","0.0141777607645","1","undefined","1","0","10","10","10","0","10","10","10","NA","10","10","0","10","NA","10","10","0","10","NA","10","NA","10","0","0","10","10","0","10","10","11","/","10/01/17 12:34:15","The main experiment item","yes","FIN__BA__M21__7%3A10%3A17.osexp","C:\Users\ERP Testing Room\Desktop\Joanna\morph21","no","mono","no","18","no","white","no","yes","1080","legacy","10","10","C:/Users/ERP Testing Room/Desktop/Joanna/morph21/subject-105.csv","xpyriment","Jazzy James","3.1.4","0","/","NA","NA","NA","NA","space","/","403","NA","NA","NA","NA","161810","403","2","legacy","1024","2","48000","-16","BA_m21","105","odd","FILL_W","BALD","1953","203336","201744","195460","163772","NA","NA","NA","NA","203326","202241","NA","201244","NA","201237","203326","1962","203636","NA","NA","202336","1953","1953","202727","201237","1953","202336","203636","morph21_Oliver/Morris","5","7066","11","yes","1280","3"
"400","41.6666666667","41.6666666667","629.166666667","629.166666667","black","no","xpyriment","legacy","legacy","0","208","NA","uniform","75927","1000","0.0131705453923","0","undefined","0","0","11","11","11","0","11","11","11","NA","11","11","0","11","NA","11","11","0","11","NA","11","NA","11","0","0","11","11","0","11","11","12","z","10/01/17 12:34:15","The main experiment item","yes","FIN__BA__M21__7%3A10%3A17.osexp","C:\Users\ERP Testing Room\Desktop\Joanna\morph21","no","mono","no","18","no","white","no","yes","1080","legacy","11","11","C:/Users/ERP Testing Room/Desktop/Joanna/morph21/subject-105.csv","xpyriment","Jazzy James","3.1.4","0","/","NA","NA","NA","NA","space","/","484","NA","NA","NA","NA","161810","484","2","legacy","1024","2","48000","-16","BA_m21","105","odd","FILL_NW","VELT","1953","208037","204902","206528","163772","NA","NA","NA","NA","203326","205399","NA","204402","NA","204397","206520","1962","208437","NA","NA","205527","1953","1953","205919","204397","1953","205527","208437","morph21_Oliver/Morris","5","7550","12","yes","1280","46"
"300","46.1538461538","46.1538461538","612.076923077","612.076923077","black","no","xpyriment","legacy","legacy","0","202","NA","uniform","74104","1000","0.0134945482025","1","undefined","1","0","12","12","12","0","12","12","12","NA","12","12","0","12","NA","12","12","0","12","NA","12","NA","12","0","0","12","12","0","12","12","13","/","10/01/17 12:34:15","The main experiment item","yes","FIN__BA__M21__7%3A10%3A17.osexp","C:\Users\ERP Testing Room\Desktop\Joanna\morph21","no","mono","no","18","no","white","no","yes","1080","legacy","12","12","C:/Users/ERP Testing Room/Desktop/Joanna/morph21/subject-105.csv","xpyriment","Jazzy James","3.1.4","0","/","NA","NA","NA","NA","space","/","407","NA","NA","NA","NA","161810","407","2","legacy","1024","2","48000","-16","BA_m21","105","odd","CW_L","MADNESS","1953","211245","209670","206528","163772","NA","NA","NA","NA","211237","210167","NA","209170","NA","209167","211237","1962","211545","NA","NA","210245","1953","1953","210637","209167","1953","210245","211545","morph21_Oliver/Morris","6","7957","13","yes","1280","41"
"300","42.8571428571","42.8571428571","639.5","639.5","black","no","xpyriment","legacy","legacy","0","205","NA","uniform","56952","1000","0.0175586458772","0","undefined","0","0","13","13","13","0","13","13","13","NA","13","13","0","13","NA","13","13","0","13","NA","13","NA","13","0","0","13","13","0","13","13","14","z","10/01/17 12:34:15","The main experiment item","yes","FIN__BA__M21__7%3A10%3A17.osexp","C:\Users\ERP Testing Room\Desktop\Joanna\morph21","no","mono","no","18","no","white","no","yes","1080","legacy","13","13","C:/Users/ERP Testing Room/Desktop/Joanna/morph21/subject-105.csv","xpyriment","Jazzy James","3.1.4","0","None","NA","NA","NA","NA","space","None","996","NA","NA","NA","NA","161810","996","2","legacy","1024","2","48000","-16","BA_m21","105","odd","NW_S_SIMP","HEIRIC","1953","214437","212837","206528","163772","NA","NA","NA","NA","211237","213334","NA","212337","NA","212327","214433","1962","214737","NA","NA","213437","1953","1953","213837","212327","1953","213437","214737","morph21_Oliver/Morris","6","8953","14","yes","1280","3"
"300","46.6666666667","46.6666666667","630.066666667","630.066666667","black","no","xpyriment","legacy","legacy","0","202","NA","uniform","73851","1000","0.0135407780531","1","undefined","1","0","14","14","14","0","14","14","14","NA","14","14","0","14","NA","14","14","0","14","NA","14","NA","14","0","0","14","14","0","14","14","15","/","10/01/17 12:34:15","The main experiment item","yes","FIN__BA__M21__7%3A10%3A17.osexp","C:\Users\ERP Testing Room\Desktop\Joanna\morph21","no","mono","no","18","no","white","no","yes","1080","legacy","14","14","C:/Users/ERP Testing Room/Desktop/Joanna/morph21/subject-105.csv","xpyriment","Jazzy James","3.1.4","0","/","NA","NA","NA","NA","space","/","498","NA","NA","NA","NA","161810","498","2","legacy","1024","2","48000","-16","BA_m21","105","odd","CW_L","COMPOSER","1953","219062","215970","217554","163772","NA","NA","NA","NA","217549","216468","NA","215470","NA","215466","217549","1962","219362","NA","NA","216554","1953","1953","216954","215466","1953","216554","219362","morph21_Oliver/Morris","7","9451","15","yes","1280","6"
"300","50","50","633.1875","633.1875","black","no","xpyriment","legacy","legacy","0","204","NA","uniform","66773","1000","0.0149761130996","1","undefined","1","0","15","15","15","0","15","15","15","NA","15","15","0","15","NA","15","15","0","15","NA","15","NA","15","0","0","15","15","0","15","15","16","z","10/01/17 12:34:15","The main experiment item","yes","FIN__BA__M21__7%3A10%3A17.osexp","C:\Users\ERP Testing Room\Desktop\Joanna\morph21","no","mono","no","18","no","white","no","yes","1080","legacy","15","15","C:/Users/ERP Testing Room/Desktop/Joanna/morph21/subject-105.csv","xpyriment","Jazzy James","3.1.4","0","z","NA","NA","NA","NA","space","z","680","NA","NA","NA","NA","161810","680","2","legacy","1024","2","48000","-16","BA_m21","105","odd","NW_L_COMP","FELLOWOES","1953","222171","220579","217554","163772","NA","NA","NA","NA","222165","221076","NA","220079","NA","220071","222165","1962","222471","NA","NA","221171","1953","1953","221562","220071","1953","221171","222471","morph21_Oliver/Morris","8","10131","16","yes","1280","17"
"200","47.0588235294","47.0588235294","634.235294118","634.235294118","black","no","xpyriment","legacy","legacy","0","205","NA","uniform","73199","1000","0.0136613888168","0","undefined","0","0","16","16","16","0","16","16","16","NA","16","16","0","16","NA","16","16","0","16","NA","16","NA","16","0","0","16","16","0","16","16","17","z","10/01/17 12:34:15","The main experiment item","yes","FIN__BA__M21__7%3A10%3A17.osexp","C:\Users\ERP Testing Room\Desktop\Joanna\morph21","no","mono","no","18","no","white","no","yes","1080","legacy","16","16","C:/Users/ERP Testing Room/Desktop/Joanna/morph21/subject-105.csv","xpyriment","Jazzy James","3.1.4","0","/","NA","NA","NA","NA","space","/","651","NA","NA","NA","NA","161810","651","2","legacy","1024","2","48000","-16","BA_m21","105","odd","NW_S_SIMP","NULLISH","1953","225297","223696","217554","163772","NA","NA","NA","NA","222165","224193","NA","223196","NA","223191","225289","1962","225497","NA","NA","224297","1953","1953","224689","223191","1953","224297","225497","morph21_Oliver/Morris","8","10782","17","yes","1280","23"
"350","50","50","623","623","black","no","xpyriment","legacy","legacy","0","202","NA","uniform","78265","1000","0.0127771034307","1","undefined","1","0","17","17","17","0","17","17","17","NA","17","17","0","17","NA","17","17","0","17","NA","17","NA","17","0","0","17","17","0","17","17","18","/","10/01/17 12:34:15","The main experiment item","yes","FIN__BA__M21__7%3A10%3A17.osexp","C:\Users\ERP Testing Room\Desktop\Joanna\morph21","no","mono","no","18","no","white","no","yes","1080","legacy","17","17","C:/Users/ERP Testing Room/Desktop/Joanna/morph21/subject-105.csv","xpyriment","Jazzy James","3.1.4","0","/","NA","NA","NA","NA","space","/","432","NA","NA","NA","NA","161810","432","2","legacy","1024","2","48000","-16","BA_m21","105","odd","CW_L","JUMPING","1953","229880","226764","228372","163772","NA","NA","NA","NA","228367","227261","NA","226264","NA","226260","228367","1962","230231","NA","NA","227372","1953","1953","227772","226260","1953","227372","230231","morph21_Oliver/Morris","9","11214","18","yes","1280","30"
"300","47.3684210526","47.3684210526","605.578947368","605.578947368","black","no","xpyriment","legacy","legacy","0","206","NA","uniform","79467","1000","0.0125838398329","0","undefined","0","0","18","18","18","0","18","18","18","NA","18","18","0","18","NA","18","18","0","18","NA","18","NA","18","0","0","18","18","0","18","18","19","z","10/01/17 12:34:15","The main experiment item","yes","FIN__BA__M21__7%3A10%3A17.osexp","C:\Users\ERP Testing Room\Desktop\Joanna\morph21","no","mono","no","18","no","white","no","yes","1080","legacy","18","18","C:/Users/ERP Testing Room/Desktop/Joanna/morph21/subject-105.csv","xpyriment","Jazzy James","3.1.4","0","/","NA","NA","NA","NA","space","/","292","NA","NA","NA","NA","161810","292","2","legacy","1024","2","48000","-16","BA_m21","105","odd","NW_L_SIMP","BEANISH","1953","233064","231472","228372","163772","NA","NA","NA","NA","228367","231969","NA","230972","NA","230965","233055","1962","233364","NA","NA","232064","1953","1953","232455","230965","1953","232064","233364","morph21_Oliver/Morris","9","11506","19","yes","1280","8"
"350","50","50","601.65","601.65","black","no","xpyriment","legacy","legacy","0","202","NA","uniform","72840","1000","0.0137287204833","1","undefined","1","0","19","19","19","0","19","19","19","NA","19","19","0","19","NA","19","19","0","19","NA","19","NA","19","0","0","19","19","0","19","19","20","/","10/01/17 12:34:15","The main experiment item","yes","FIN__BA__M21__7%3A10%3A17.osexp","C:\Users\ERP Testing Room\Desktop\Joanna\morph21","no","mono","no","18","no","white","no","yes","1080","legacy","19","19","C:/Users/ERP Testing Room/Desktop/Joanna/morph21/subject-105.csv","xpyriment","Jazzy James","3.1.4","0","/","NA","NA","NA","NA","space","/","527","NA","NA","NA","NA","161810","527","2","legacy","1024","2","48000","-16","BA_m21","105","odd","CW_L","BOMBER","1953","236181","234597","228372","163772","NA","NA","NA","NA","236177","235094","NA","234097","NA","234092","236177","1962","236531","NA","NA","235189","1953","1953","235581","234092","1953","235189","236531","morph21_Oliver/Morris","10","12033","20","yes","1280","7"
"200","52.380952381","52.380952381","595.523809524","595.523809524","black","no","xpyriment","legacy","legacy","0","207","NA","uniform","75539","1000","0.0132381948398","1","undefined","1","0","20","20","20","0","20","20","20","NA","20","20","0","20","NA","20","20","0","20","NA","20","NA","20","0","0","20","20","0","20","20","21","/","10/01/17 12:34:15","The main experiment item","yes","FIN__BA__M21__7%3A10%3A17.osexp","C:\Users\ERP Testing Room\Desktop\Joanna\morph21","no","mono","no","18","no","white","no","yes","1080","legacy","20","20","C:/Users/ERP Testing Room/Desktop/Joanna/morph21/subject-105.csv","xpyriment","Jazzy James","3.1.4","0","/","NA","NA","NA","NA","space","/","473","NA","NA","NA","NA","161810","473","2","legacy","1024","2","48000","-16","BA_m21","105","odd","FILL_W","WRECK","1953","240806","237714","239297","163772","NA","NA","NA","NA","239291","238211","NA","237214","NA","237211","239291","1962","241006","NA","NA","238298","1953","1953","238689","237211","1953","238298","241006","morph21_Oliver/Morris","11","12506","21","yes","1280","13"
"200","54.5454545455","54.5454545455","588.818181818","588.818181818","black","no","xpyriment","legacy","legacy","0","201","NA","uniform","73014","1000","0.0136960035062","1","undefined","1","0","21","21","21","0","21","21","21","NA","21","21","0","21","NA","21","21","0","21","NA","21","NA","21","0","0","21","21","0","21","21","22","/","10/01/17 12:34:15","The main experiment item","yes","FIN__BA__M21__7%3A10%3A17.osexp","C:\Users\ERP Testing Room\Desktop\Joanna\morph21","no","mono","no","18","no","white","no","yes","1080","legacy","21","21","C:/Users/ERP Testing Room/Desktop/Joanna/morph21/subject-105.csv","xpyriment","Jazzy James","3.1.4","0","/","NA","NA","NA","NA","space","/","448","NA","NA","NA","NA","161810","448","2","legacy","1024","2","48000","-16","BA_m21","105","odd","CW_S","THRUSTER","1953","243924","242349","239297","163772","NA","NA","NA","NA","243921","242846","NA","241849","NA","241841","243921","1962","244124","NA","NA","242932","1953","1953","243324","241841","1953","242932","244124","morph21_Oliver/Morris","12","12954","22","yes","1280","24"
"200","56.5217391304","56.5217391304","581.130434783","581.130434783","black","no","xpyriment","legacy","legacy","0","207","NA","uniform","77504","1000","0.0129025598679","1","undefined","1","0","22","22","22","0","22","22","22","NA","22","22","0","22","NA","22","22","0","22","NA","22","NA","22","0","0","22","22","0","22","22","23","/","10/01/17 12:34:15","The main experiment item","yes","FIN__BA__M21__7%3A10%3A17.osexp","C:\Users\ERP Testing Room\Desktop\Joanna\morph21","no","mono","no","18","no","white","no","yes","1080","legacy","22","22","C:/Users/ERP Testing Room/Desktop/Joanna/morph21/subject-105.csv","xpyriment","Jazzy James","3.1.4","0","/","NA","NA","NA","NA","space","/","412","NA","NA","NA","NA","161810","412","2","legacy","1024","2","48000","-16","BA_m21","105","odd","FILL_W","SAVE","1953","247016","245416","239297","163772","NA","NA","NA","NA","247011","245913","NA","244915","NA","244907","247011","1962","247216","NA","NA","246016","1953","1953","246415","244907","1953","246015","247216","morph21_Oliver/Morris","13","13366","23","yes","1280","46"
"350","58.3333333333","58.3333333333","582.458333333","582.458333333","black","no","xpyriment","legacy","legacy","0","208","NA","uniform","71006","1000","0.0140833169028","1","undefined","1","0","23","23","23","0","23","23","23","NA","23","23","0","23","NA","23","23","0","23","NA","23","NA","23","0","0","23","23","0","23","23","24","z","10/01/17 12:34:15","The main experiment item","yes","FIN__BA__M21__7%3A10%3A17.osexp","C:\Users\ERP Testing Room\Desktop\Joanna\morph21","no","mono","no","18","no","white","no","yes","1080","legacy","23","23","C:/Users/ERP Testing Room/Desktop/Joanna/morph21/subject-105.csv","xpyriment","Jazzy James","3.1.4","0","z","NA","NA","NA","NA","space","z","613","NA","NA","NA","NA","161810","613","2","legacy","1024","2","48000","-16","BA_m21","105","odd","FILL_NW","DARF","1953","251499","248407","249991","163772","NA","NA","NA","NA","249981","248904","NA","247907","NA","247903","249981","1962","251849","NA","NA","248991","1953","1953","249382","247903","1953","248991","251849","morph21_Oliver/Morris","14","13979","24","yes","1280","10"
"250","56","56","596.52","596.52","black","no","xpyriment","legacy","legacy","0","207","NA","uniform","57206","1000","0.0174806838444","0","undefined","0","0","24","24","24","0","24","24","24","NA","24","24","0","24","NA","24","24","0","24","NA","24","NA","24","0","0","24","24","0","24","24","25","/","10/01/17 12:34:15","The main experiment item","yes","FIN__BA__M21__7%3A10%3A17.osexp","C:\Users\ERP Testing Room\Desktop\Joanna\morph21","no","mono","no","18","no","white","no","yes","1080","legacy","24","24","C:/Users/ERP Testing Room/Desktop/Joanna/morph21/subject-105.csv","xpyriment","Jazzy James","3.1.4","0","z","NA","NA","NA","NA","space","z","934","NA","NA","NA","NA","161810","934","2","legacy","1024","2","48000","-16","BA_m21","105","odd","FILL_W","SLIM","1953","254774","253174","249991","163772","NA","NA","NA","NA","249981","253671","NA","252674","NA","252663","254769","1962","255024","NA","NA","253774","1953","1953","254174","252663","1953","253774","255024","morph21_Oliver/Morris","14","14913","25","yes","1280","6"
"250","57.6923076923","57.6923076923","597","597","black","no","xpyriment","legacy","legacy","0","201","NA","uniform","75469","1000","0.0132504737044","1","undefined","1","0","25","25","25","0","25","25","25","NA","25","25","0","25","NA","25","25","0","25","NA","25","NA","25","0","0","25","25","0","25","25","26","/","10/01/17 12:34:15","The main experiment item","yes","FIN__BA__M21__7%3A10%3A17.osexp","C:\Users\ERP Testing Room\Desktop\Joanna\morph21","no","mono","no","18","no","white","no","yes","1080","legacy","25","25","C:/Users/ERP Testing Room/Desktop/Joanna/morph21/subject-105.csv","xpyriment","Jazzy James","3.1.4","0","/","NA","NA","NA","NA","space","/","609","NA","NA","NA","NA","161810","609","2","legacy","1024","2","48000","-16","BA_m21","105","odd","CW_S","COSTLY","1953","257866","256274","249991","163772","NA","NA","NA","NA","257860","256771","NA","255774","NA","255769","257860","1962","258116","NA","NA","256866","1953","1953","257258","255769","1953","256866","258116","morph21_Oliver/Morris","15","15522","26","yes","1280","36"
"250","59.2592592593","59.2592592593","595.185185185","595.185185185","black","no","xpyriment","legacy","legacy","0","202","NA","uniform","64952","1000","0.0153959847272","1","undefined","1","0","26","26","26","0","26","26","26","NA","26","26","0","26","NA","26","26","0","26","NA","26","NA","26","0","0","26","26","0","26","26","27","/","10/01/17 12:34:15","The main experiment item","yes","FIN__BA__M21__7%3A10%3A17.osexp","C:\Users\ERP Testing Room\Desktop\Joanna\morph21","no","mono","no","18","no","white","no","yes","1080","legacy","26","26","C:/Users/ERP Testing Room/Desktop/Joanna/morph21/subject-105.csv","xpyriment","Jazzy James","3.1.4","0","/","NA","NA","NA","NA","space","/","548","NA","NA","NA","NA","161810","548","2","legacy","1024","2","48000","-16","BA_m21","105","odd","CW_L","PUSHER","1953","262509","259384","261000","163772","NA","NA","NA","NA","260993","259881","NA","258875","NA","258871","260993","1962","262759","NA","NA","260000","1953","1953","260392","258871","1953","260000","262759","morph21_Oliver/Morris","16","16070","27","yes","1280","13"
"300","60.7142857143","60.7142857143","592.035714286","592.035714286","black","no","xpyriment","legacy","legacy","0","207","NA","uniform","72226","1000","0.0138454296237","1","undefined","1","0","27","27","27","0","27","27","27","NA","27","27","0","27","NA","27","27","0","27","NA","27","NA","27","0","0","27","27","0","27","27","28","/","10/01/17 12:34:15","The main experiment item","yes","FIN__BA__M21__7%3A10%3A17.osexp","C:\Users\ERP Testing Room\Desktop\Joanna\morph21","no","mono","no","18","no","white","no","yes","1080","legacy","27","27","C:/Users/ERP Testing Room/Desktop/Joanna/morph21/subject-105.csv","xpyriment","Jazzy James","3.1.4","0","/","NA","NA","NA","NA","space","/","507","NA","NA","NA","NA","161810","507","2","legacy","1024","2","48000","-16","BA_m21","105","odd","FILL_W","BOX","1953","265601","263984","261000","163772","NA","NA","NA","NA","265591","264481","NA","263484","NA","263474","265591","1962","265901","NA","NA","264601","1953","1953","264992","263474","1953","264601","265901","morph21_Oliver/Morris","17","16577","28","yes","1280","42"
"300","62.0689655172","62.0689655172","598.965517241","598.965517241","black","no","xpyriment","legacy","legacy","0","205","NA","uniform","62708","1000","0.0159469286215","1","undefined","1","0","28","28","28","0","28","28","28","NA","28","28","0","28","NA","28","28","0","28","NA","28","NA","28","0","0","28","28","0","28","28","29","z","10/01/17 12:34:15","The main experiment item","yes","FIN__BA__M21__7%3A10%3A17.osexp","C:\Users\ERP Testing Room\Desktop\Joanna\morph21","no","mono","no","18","no","white","no","yes","1080","legacy","28","28","C:/Users/ERP Testing Room/Desktop/Joanna/morph21/subject-105.csv","xpyriment","Jazzy James","3.1.4","0","z","NA","NA","NA","NA","space","z","793","NA","NA","NA","NA","161810","793","2","legacy","1024","2","48000","-16","BA_m21","105","odd","NW_S_SIMP","WARNORY","1953","268851","267259","261000","163772","NA","NA","NA","NA","268846","267756","NA","266759","NA","266753","268846","1962","269151","NA","NA","267851","1953","1953","268251","266752","1953","267851","269151","morph21_Oliver/Morris","18","17370","29","yes","1280","12"
"400","63.3333333333","63.3333333333","597.566666667","597.566666667","black","no","xpyriment","legacy","legacy","0","207","NA","uniform","71865","1000","0.0139149794754","1","undefined","1","0","29","29","29","0","29","29","29","NA","29","29","0","29","NA","29","29","0","29","NA","29","NA","29","0","0","29","29","0","29","29","30","/","10/01/17 12:34:15","The main experiment item","yes","FIN__BA__M21__7%3A10%3A17.osexp","C:\Users\ERP Testing Room\Desktop\Joanna\morph21","no","mono","no","18","no","white","no","yes","1080","legacy","29","29","C:/Users/ERP Testing Room/Desktop/Joanna/morph21/subject-105.csv","xpyriment","Jazzy James","3.1.4","0","/","NA","NA","NA","NA","space","/","557","NA","NA","NA","NA","161810","557","2","legacy","1024","2","48000","-16","BA_m21","105","odd","FILL_W","CHIP","1953","273459","270368","271951","163772","NA","NA","NA","NA","271942","270865","NA","269868","NA","269861","271942","1962","273860","NA","NA","270951","1953","1953","271343","269861","1953","270951","273860","morph21_Oliver/Morris","19","17927","30","yes","1280","11"
"300","64.5161290323","64.5161290323","591.032258065","591.032258065","black","no","xpyriment","legacy","legacy","0","202","NA","uniform","73754","1000","0.0135585866529","1","undefined","1","0","30","30","30","0","30","30","30","NA","30","30","0","30","NA","30","30","0","30","NA","30","NA","30","0","0","30","30","0","30","30","31","/","10/01/17 12:34:15","The main experiment item","yes","FIN__BA__M21__7%3A10%3A17.osexp","C:\Users\ERP Testing Room\Desktop\Joanna\morph21","no","mono","no","18","no","white","no","yes","1080","legacy","30","30","C:/Users/ERP Testing Room/Desktop/Joanna/morph21/subject-105.csv","xpyriment","Jazzy James","3.1.4","0","/","NA","NA","NA","NA","space","/","395","NA","NA","NA","NA","161810","395","2","legacy","1024","2","48000","-16","BA_m21","105","odd","CW_L","HEATER","1953","276769","275185","271951","163772","NA","NA","NA","NA","276766","275682","NA","274685","NA","274674","276766","1962","277069","NA","NA","275776","1953","1953","276168","274673","1953","275776","277069","morph21_Oliver/Morris","20","18322","31","yes","1280","16"
"350","65.625","65.625","587.9375","587.9375","black","no","xpyriment","legacy","legacy","0","201","NA","uniform","74089","1000","0.013497280298","1","undefined","1","0","31","31","31","0","31","31","31","NA","31","31","0","31","NA","31","31","0","31","NA","31","NA","31","0","0","31","31","0","31","31","32","/","10/01/17 12:34:15","The main experiment item","yes","FIN__BA__M21__7%3A10%3A17.osexp","C:\Users\ERP Testing Room\Desktop\Joanna\morph21","no","mono","no","18","no","white","no","yes","1080","legacy","31","31","C:/Users/ERP Testing Room/Desktop/Joanna/morph21/subject-105.csv","xpyriment","Jazzy James","3.1.4","0","/","NA","NA","NA","NA","space","/","492","NA","NA","NA","NA","161810","492","2","legacy","1024","2","48000","-16","BA_m21","105","odd","CW_S","RICHNESS","1953","279952","278344","271951","163772","NA","NA","NA","NA","279945","278841","NA","277844","NA","277840","279945","1962","280302","NA","NA","278952","1953","1953","279344","277840","1953","278952","280302","morph21_Oliver/Morris","21","18814","32","yes","1280","45"
"250","66.6666666667","66.6666666667","583.666666667","583.666666667","black","no","xpyriment","legacy","legacy","0","201","NA","uniform","74617","1000","0.0134017717142","1","undefined","1","0","32","32","32","0","32","32","32","NA","32","32","0","32","NA","32","32","0","32","NA","32","NA","32","0","0","32","32","0","32","32","33","/","10/01/17 12:34:15","The main experiment item","yes","FIN__BA__M21__7%3A10%3A17.osexp","C:\Users\ERP Testing Room\Desktop\Joanna\morph21","no","mono","no","18","no","white","no","yes","1080","legacy","32","32","C:/Users/ERP Testing Room/Desktop/Joanna/morph21/subject-105.csv","xpyriment","Jazzy James","3.1.4","0","/","NA","NA","NA","NA","space","/","447","NA","NA","NA","NA","161810","447","2","legacy","1024","2","48000","-16","BA_m21","105","odd","CW_S","NOTICEABLE","1953","284578","281469","283069","163772","NA","NA","NA","NA","283061","281966","NA","280969","NA","280961","283061","1962","284828","NA","NA","282069","1953","1953","282461","280961","1953","282069","284828","morph21_Oliver/Morris","22","19261","33","yes","1280","3"
"200","67.6470588235","67.6470588235","585.235294118","585.235294118","black","no","xpyriment","legacy","legacy","0","204","NA","uniform","67891","1000","0.0147294928636","1","undefined","1","0","33","33","33","0","33","33","33","NA","33","33","0","33","NA","33","33","0","33","NA","33","NA","33","0","0","33","33","0","33","33","34","z","10/01/17 12:34:15","The main experiment item","yes","FIN__BA__M21__7%3A10%3A17.osexp","C:\Users\ERP Testing Room\Desktop\Joanna\morph21","no","mono","no","18","no","white","no","yes","1080","legacy","33","33","C:/Users/ERP Testing Room/Desktop/Joanna/morph21/subject-105.csv","xpyriment","Jazzy James","3.1.4","0","z","NA","NA","NA","NA","space","z","637","NA","NA","NA","NA","161810","637","2","legacy","1024","2","48000","-16","BA_m21","105","odd","NW_L_COMP","FLIPODY","1953","287719","286119","283069","163772","NA","NA","NA","NA","287715","286616","NA","285619","NA","285614","287715","1962","287919","NA","NA","286719","1953","1953","287119","285613","1953","286719","287919","morph21_Oliver/Morris","23","19898","34","yes","1280","16"
"400","68.5714285714","68.5714285714","581.285714286","581.285714286","black","no","xpyriment","legacy","legacy","0","207","NA","uniform","70348","1000","0.0142150452038","1","undefined","1","0","34","34","34","0","34","34","34","NA","34","34","0","34","NA","34","34","0","34","NA","34","NA","34","0","0","34","34","0","34","34","35","/","10/01/17 12:34:15","The main experiment item","yes","FIN__BA__M21__7%3A10%3A17.osexp","C:\Users\ERP Testing Room\Desktop\Joanna\morph21","no","mono","no","18","no","white","no","yes","1080","legacy","34","34","C:/Users/ERP Testing Room/Desktop/Joanna/morph21/subject-105.csv","xpyriment","Jazzy James","3.1.4","0","/","NA","NA","NA","NA","space","/","447","NA","NA","NA","NA","161810","447","2","legacy","1024","2","48000","-16","BA_m21","105","odd","FILL_W","EAT","1953","290828","289236","283069","163772","NA","NA","NA","NA","290824","289733","NA","288736","NA","288731","290824","1962","291228","NA","NA","289828","1953","1953","290228","288731","1953","289828","291228","morph21_Oliver/Morris","24","20345","35","yes","1280","25"
"200","69.4444444444","69.4444444444","578.388888889","578.388888889","black","no","xpyriment","legacy","legacy","0","202","NA","uniform","74627","1000","0.01339997588","1","undefined","1","0","35","35","35","0","35","35","35","NA","35","35","0","35","NA","35","35","0","35","NA","35","NA","35","0","0","35","35","0","35","35","36","/","10/01/17 12:34:15","The main experiment item","yes","FIN__BA__M21__7%3A10%3A17.osexp","C:\Users\ERP Testing Room\Desktop\Joanna\morph21","no","mono","no","18","no","white","no","yes","1080","legacy","35","35","C:/Users/ERP Testing Room/Desktop/Joanna/morph21/subject-105.csv","xpyriment","Jazzy James","3.1.4","0","/","NA","NA","NA","NA","space","/","477","NA","NA","NA","NA","161810","477","2","legacy","1024","2","48000","-16","BA_m21","105","odd","CW_L","SAILOR","1953","295579","292461","294071","163772","NA","NA","NA","NA","294064","292958","NA","291961","NA","291956","294064","1962","295779","NA","NA","293070","1953","1953","293461","291956","1953","293070","295779","morph21_Oliver/Morris","25","20822","36","yes","1280","43"
"350","70.2702702703","70.2702702703","575.918918919","575.918918919","black","no","xpyriment","legacy","legacy","0","201","NA","uniform","71063","1000","0.0140720206014","1","undefined","1","0","36","36","36","0","36","36","36","NA","36","36","0","36","NA","36","36","0","36","NA","36","NA","36","0","0","36","36","0","36","36","37","/","10/01/17 12:34:15","The main experiment item","yes","FIN__BA__M21__7%3A10%3A17.osexp","C:\Users\ERP Testing Room\Desktop\Joanna\morph21","no","mono","no","18","no","white","no","yes","1080","legacy","36","36","C:/Users/ERP Testing Room/Desktop/Joanna/morph21/subject-105.csv","xpyriment","Jazzy James","3.1.4","0","/","NA","NA","NA","NA","space","/","487","NA","NA","NA","NA","161810","487","2","legacy","1024","2","48000","-16","BA_m21","105","odd","CW_S","NEATLY","1953","298804","297204","294071","163772","NA","NA","NA","NA","298801","297701","NA","296704","NA","296694","298801","1962","299154","NA","NA","297813","1953","1953","298204","296694","1953","297813","299154","morph21_Oliver/Morris","26","21309","37","yes","1280","33"
"250","71.0526315789","71.0526315789","574.657894737","574.657894737","black","no","xpyriment","legacy","legacy","0","203","NA","uniform","72117","1000","0.0138663560603","1","undefined","1","0","37","37","37","0","37","37","37","NA","37","37","0","37","NA","37","37","0","37","NA","37","NA","37","0","0","37","37","0","37","37","38","z","10/01/17 12:34:15","The main experiment item","yes","FIN__BA__M21__7%3A10%3A17.osexp","C:\Users\ERP Testing Room\Desktop\Joanna\morph21","no","mono","no","18","no","white","no","yes","1080","legacy","37","37","C:/Users/ERP Testing Room/Desktop/Joanna/morph21/subject-105.csv","xpyriment","Jazzy James","3.1.4","0","z","NA","NA","NA","NA","space","z","528","NA","NA","NA","NA","161810","528","2","legacy","1024","2","48000","-16","BA_m21","105","odd","NW_S_COMP","BEEREL","1953","301988","300396","294071","163772","NA","NA","NA","NA","301981","300893","NA","299896","NA","299889","301981","1962","302238","NA","NA","300988","1953","1953","301379","299889","1953","300988","302238","morph21_Oliver/Morris","27","21837","38","yes","1280","5"
"300","71.7948717949","71.7948717949","573.358974359","573.358974359","black","no","xpyriment","legacy","legacy","0","201","NA","uniform","71036","1000","0.0140773692212","1","undefined","1","0","38","38","38","0","38","38","38","NA","38","38","0","38","NA","38","38","0","38","NA","38","NA","38","0","0","38","38","0","38","38","39","/","10/01/17 12:34:15","The main experiment item","yes","FIN__BA__M21__7%3A10%3A17.osexp","C:\Users\ERP Testing Room\Desktop\Joanna\morph21","no","mono","no","18","no","white","no","yes","1080","legacy","38","38","C:/Users/ERP Testing Room/Desktop/Joanna/morph21/subject-105.csv","xpyriment","Jazzy James","3.1.4","0","/","NA","NA","NA","NA","space","/","524","NA","NA","NA","NA","161810","524","2","legacy","1024","2","48000","-16","BA_m21","105","odd","CW_S","MAGICAL","1953","306596","303471","305088","163772","NA","NA","NA","NA","305084","303968","NA","302971","NA","302966","305084","1962","306897","NA","NA","304096","1953","1953","304488","302966","1953","304096","306897","morph21_Oliver/Morris","28","22361","39","yes","1280","4"
"250","72.5","72.5","570.225","570.225","black","no","xpyriment","legacy","legacy","0","207","NA","uniform","75686","1000","0.0132124831541","1","undefined","1","0","39","39","39","0","39","39","39","NA","39","39","0","39","NA","39","39","0","39","NA","39","NA","39","0","0","39","39","0","39","39","40","/","10/01/17 12:34:15","The main experiment item","yes","FIN__BA__M21__7%3A10%3A17.osexp","C:\Users\ERP Testing Room\Desktop\Joanna\morph21","no","mono","no","18","no","white","no","yes","1080","legacy","39","39","C:/Users/ERP Testing Room/Desktop/Joanna/morph21/subject-105.csv","xpyriment","Jazzy James","3.1.4","0","/","NA","NA","NA","NA","space","/","448","NA","NA","NA","NA","161810","448","2","legacy","1024","2","48000","-16","BA_m21","105","odd","FILL_W","TREAT","1953","309755","308155","305088","163772","NA","NA","NA","NA","309751","308652","NA","307655","NA","307644","309751","1962","310005","NA","NA","308755","1953","1953","309155","307644","1953","308755","310005","morph21_Oliver/Morris","29","22809","40","yes","1280","48"
"250","73.1707317073","73.1707317073","566.951219512","566.951219512","black","no","xpyriment","legacy","legacy","0","202","NA","uniform","72118","1000","0.0138661637871","1","undefined","1","0","40","40","40","0","40","40","40","NA","40","40","0","40","NA","40","40","0","40","NA","40","NA","40","0","0","40","40","0","40","40","41","/","10/01/17 12:34:15","The main experiment item","yes","FIN__BA__M21__7%3A10%3A17.osexp","C:\Users\ERP Testing Room\Desktop\Joanna\morph21","no","mono","no","18","no","white","no","yes","1080","legacy","40","40","C:/Users/ERP Testing Room/Desktop/Joanna/morph21/subject-105.csv","xpyriment","Jazzy James","3.1.4","0","/","NA","NA","NA","NA","space","/","436","NA","NA","NA","NA","161810","436","2","legacy","1024","2","48000","-16","BA_m21","105","odd","CW_L","FLEXIBLE","1953","312864","311264","305088","163772","NA","NA","NA","NA","312858","311761","NA","310763","NA","310758","312858","1962","313114","NA","NA","311864","1953","1953","312256","310758","1953","311864","313114","morph21_Oliver/Morris","30","23245","41","yes","1280","22"
"300","73.8095238095","73.8095238095","564.119047619","564.119047619","black","no","xpyriment","legacy","legacy","0","202","NA","uniform","77171","1000","0.0129582356066","1","undefined","1","0","41","41","41","0","41","41","41","NA","41","41","0","41","NA","41","41","0","41","NA","41","NA","41","0","0","41","41","0","41","41","42","/","10/01/17 12:34:15","The main experiment item","yes","FIN__BA__M21__7%3A10%3A17.osexp","C:\Users\ERP Testing Room\Desktop\Joanna\morph21","no","mono","no","18","no","white","no","yes","1080","legacy","41","41","C:/Users/ERP Testing Room/Desktop/Joanna/morph21/subject-105.csv","xpyriment","Jazzy James","3.1.4","0","/","NA","NA","NA","NA","space","/","448","NA","NA","NA","NA","161810","448","2","legacy","1024","2","48000","-16","BA_m21","105","odd","CW_L","KNOCKER","1953","317456","314348","315948","163772","NA","NA","NA","NA","315944","314845","NA","313848","NA","313839","315944","1962","317756","NA","NA","314956","1953","1953","315348","313839","1953","314956","317756","morph21_Oliver/Morris","31","23693","42","yes","1280","4"
"400","74.4186046512","74.4186046512","564.162790698","564.162790698","black","no","xpyriment","legacy","legacy","0","204","NA","uniform","75520","1000","0.0132415254237","1","undefined","1","0","42","42","42","0","42","42","42","NA","42","42","0","42","NA","42","42","0","42","NA","42","NA","42","0","0","42","42","0","42","42","43","z","10/01/17 12:34:15","The main experiment item","yes","FIN__BA__M21__7%3A10%3A17.osexp","C:\Users\ERP Testing Room\Desktop\Joanna\morph21","no","mono","no","18","no","white","no","yes","1080","legacy","42","42","C:/Users/ERP Testing Room/Desktop/Joanna/morph21/subject-105.csv","xpyriment","Jazzy James","3.1.4","0","z","NA","NA","NA","NA","space","z","566","NA","NA","NA","NA","161810","566","2","legacy","1024","2","48000","-16","BA_m21","105","odd","NW_L_COMP","FLITENGE","1953","320606","319015","315948","163772","NA","NA","NA","NA","320598","319512","NA","318515","NA","318507","320598","1962","321006","NA","NA","319606","1953","1953","319998","318507","1953","319606","321006","morph21_Oliver/Morris","32","24259","43","yes","1280","3"
"200","75","75","565.295454545","565.295454545","black","no","xpyriment","legacy","legacy","0","203","NA","uniform","71856","1000","0.0139167223336","1","undefined","1","0","43","43","43","0","43","43","43","NA","43","43","0","43","NA","43","43","0","43","NA","43","NA","43","0","0","43","43","0","43","43","44","z","10/01/17 12:34:15","The main experiment item","yes","FIN__BA__M21__7%3A10%3A17.osexp","C:\Users\ERP Testing Room\Desktop\Joanna\morph21","no","mono","no","18","no","white","no","yes","1080","legacy","43","43","C:/Users/ERP Testing Room/Desktop/Joanna/morph21/subject-105.csv","xpyriment","Jazzy James","3.1.4","0","z","NA","NA","NA","NA","space","z","614","NA","NA","NA","NA","161810","614","2","legacy","1024","2","48000","-16","BA_m21","105","odd","NW_S_COMP","YANKODY","1953","323790","322206","315948","163772","NA","NA","NA","NA","323780","322703","NA","321706","NA","321699","323780","1962","323990","NA","NA","322790","1953","1953","323181","321699","1953","322790","323990","morph21_Oliver/Morris","33","24873","44","yes","1280","23"
"300","73.3333333333","73.3333333333","560.244444444","560.244444444","black","no","xpyriment","legacy","legacy","0","206","NA","uniform","82269","1000","0.0121552468123","0","undefined","0","0","44","44","44","0","44","44","44","NA","44","44","0","44","NA","44","44","0","44","NA","44","NA","44","0","0","44","44","0","44","44","45","z","10/01/17 12:34:15","The main experiment item","yes","FIN__BA__M21__7%3A10%3A17.osexp","C:\Users\ERP Testing Room\Desktop\Joanna\morph21","no","mono","no","18","no","white","no","yes","1080","legacy","44","44","C:/Users/ERP Testing Room/Desktop/Joanna/morph21/subject-105.csv","xpyriment","Jazzy James","3.1.4","0","/","NA","NA","NA","NA","space","/","338","NA","NA","NA","NA","161810","338","2","legacy","1024","2","48000","-16","BA_m21","105","odd","NW_L_SIMP","LONGNESS","1953","328365","325248","326857","163772","NA","NA","NA","NA","323780","325745","NA","324748","NA","324745","326851","1962","328665","NA","NA","325857","1953","1953","326248","324745","1953","325856","328665","morph21_Oliver/Morris","33","25211","45","yes","1280","17"
"300","73.9130434783","73.9130434783","562.173913043","562.173913043","black","no","xpyriment","legacy","legacy","0","205","NA","uniform","70633","1000","0.0141576883326","1","undefined","1","0","45","45","45","0","45","45","45","NA","45","45","0","45","NA","45","45","0","45","NA","45","NA","45","0","0","45","45","0","45","45","46","z","10/01/17 12:34:15","The main experiment item","yes","FIN__BA__M21__7%3A10%3A17.osexp","C:\Users\ERP Testing Room\Desktop\Joanna\morph21","no","mono","no","18","no","white","no","yes","1080","legacy","45","45","C:/Users/ERP Testing Room/Desktop/Joanna/morph21/subject-105.csv","xpyriment","Jazzy James","3.1.4","0","z","NA","NA","NA","NA","space","z","649","NA","NA","NA","NA","161810","649","2","legacy","1024","2","48000","-16","BA_m21","105","odd","NW_S_SIMP","BOLTOUS","1953","331499","329908","326857","163772","NA","NA","NA","NA","331489","330405","NA","329408","NA","329404","331489","1962","331799","NA","NA","330499","1953","1953","330891","329404","1953","330499","331799","morph21_Oliver/Morris","34","25860","46","yes","1280","13"
"250","72.3404255319","72.3404255319","557.787234043","557.787234043","black","no","xpyriment","legacy","legacy","0","208","NA","uniform","72770","1000","0.0137419266181","0","undefined","0","0","46","46","46","0","46","46","46","NA","46","46","0","46","NA","46","46","0","46","NA","46","NA","46","0","0","46","46","0","46","46","47","z","10/01/17 12:34:15","The main experiment item","yes","FIN__BA__M21__7%3A10%3A17.osexp","C:\Users\ERP Testing Room\Desktop\Joanna\morph21","no","mono","no","18","no","white","no","yes","1080","legacy","46","46","C:/Users/ERP Testing Room/Desktop/Joanna/morph21/subject-105.csv","xpyriment","Jazzy James","3.1.4","0","/","NA","NA","NA","NA","space","/","356","NA","NA","NA","NA","161810","356","2","legacy","1024","2","48000","-16","BA_m21","105","odd","FILL_NW","BUWL","1953","334608","333016","326857","163772","NA","NA","NA","NA","331489","333513","NA","332516","NA","332505","334604","1962","334858","NA","NA","333608","1953","1953","334008","332505","1953","333608","334858","morph21_Oliver/Morris","34","26216","47","yes","1280","9"
"300","70.8333333333","70.8333333333","566.875","566.875","black","no","xpyriment","legacy","legacy","0","206","NA","uniform","59219","1000","0.0168864722471","0","undefined","0","0","47","47","47","0","47","47","47","NA","47","47","0","47","NA","47","47","0","47","NA","47","NA","47","0","0","47","47","0","47","47","48","z","10/01/17 12:34:15","The main experiment item","yes","FIN__BA__M21__7%3A10%3A17.osexp","C:\Users\ERP Testing Room\Desktop\Joanna\morph21","no","mono","no","18","no","white","no","yes","1080","legacy","47","47","C:/Users/ERP Testing Room/Desktop/Joanna/morph21/subject-105.csv","xpyriment","Jazzy James","3.1.4","0","None","NA","NA","NA","NA","space","None","994","NA","NA","NA","NA","161810","994","2","legacy","1024","2","48000","-16","BA_m21","105","odd","NW_L_SIMP","EARIST","1953","339266","336158","337758","163772","NA","NA","NA","NA","331489","336655","NA","335658","NA","335651","337752","1962","339567","NA","NA","336758","1953","1953","337150","335651","1953","336758","339567","morph21_Oliver/Morris","34","27210","48","yes","1280","12"
"300","71.4285714286","71.4285714286","569.612244898","569.612244898","black","no","xpyriment","legacy","legacy","0","204","NA","uniform","66737","1000","0.0149841916778","1","undefined","1","0","48","48","48","0","48","48","48","NA","48","48","0","48","NA","48","48","0","48","NA","48","NA","48","0","0","48","48","0","48","48","49","z","10/01/17 12:34:15","The main experiment item","yes","FIN__BA__M21__7%3A10%3A17.osexp","C:\Users\ERP Testing Room\Desktop\Joanna\morph21","no","mono","no","18","no","white","no","yes","1080","legacy","48","48","C:/Users/ERP Testing Room/Desktop/Joanna/morph21/subject-105.csv","xpyriment","Jazzy James","3.1.4","0","z","NA","NA","NA","NA","space","z","701","NA","NA","NA","NA","161810","701","2","legacy","1024","2","48000","-16","BA_m21","105","odd","NW_L_COMP","SHEETEL","1953","342375","340767","337758","163772","NA","NA","NA","NA","342366","341264","NA","340267","NA","340259","342366","1962","342675","NA","NA","341375","1953","1953","341766","340259","1953","341375","342675","morph21_Oliver/Morris","35","27911","49","yes","1280","5"
"250","70","70","569.72","569.72","black","no","xpyriment","legacy","legacy","0","201","NA","uniform","76545","1000","0.0130642105951","0","undefined","0","0","49","49","49","0","49","49","49","NA","49","49","0","49","NA","49","49","0","49","NA","49","NA","49","0","0","49","49","0","49","49","50","/","10/01/17 12:34:15","The main experiment item","yes","FIN__BA__M21__7%3A10%3A17.osexp","C:\Users\ERP Testing Room\Desktop\Joanna\morph21","no","mono","no","18","no","white","no","yes","1080","legacy","49","49","C:/Users/ERP Testing Room/Desktop/Joanna/morph21/subject-105.csv","xpyriment","Jazzy James","3.1.4","0","z","NA","NA","NA","NA","space","z","575","NA","NA","NA","NA","161810","575","2","legacy","1024","2","48000","-16","BA_m21","105","odd","CW_S","JAILER","1953","345492","343908","337758","163772","NA","NA","NA","NA","342366","344405","NA","343408","NA","343401","345486","1962","345742","NA","NA","344492","1953","1953","344883","343400","1953","344492","345742","morph21_Oliver/Morris","35","28486","50","yes","1280","13"
"250","70.5882352941","70.5882352941","572.745098039","572.745098039","black","no","xpyriment","legacy","legacy","0","206","NA","uniform","64448","1000","0.0155163853029","1","undefined","1","0","50","50","50","0","50","50","50","NA","50","50","0","50","NA","50","50","0","50","NA","50","NA","50","0","0","50","50","0","50","50","51","z","10/01/17 12:34:15","The main experiment item","yes","FIN__BA__M21__7%3A10%3A17.osexp","C:\Users\ERP Testing Room\Desktop\Joanna\morph21","no","mono","no","18","no","white","no","yes","1080","legacy","50","50","C:/Users/ERP Testing Room/Desktop/Joanna/morph21/subject-105.csv","xpyriment","Jazzy James","3.1.4","0","z","NA","NA","NA","NA","space","z","724","NA","NA","NA","NA","161810","724","2","legacy","1024","2","48000","-16","BA_m21","105","odd","NW_L_SIMP","SHOOTMENT","1953","350093","346976","348584","163772","NA","NA","NA","NA","348577","347473","NA","346476","NA","346467","348577","1962","350343","NA","NA","347584","1953","1953","347976","346467","1953","347584","350343","morph21_Oliver/Morris","36","29210","51","yes","1280","16"
"350","71.1538461538","71.1538461538","573.461538462","573.461538462","black","no","xpyriment","legacy","legacy","0","208","NA","uniform","70925","1000","0.0140994007755","1","undefined","1","0","51","51","51","0","51","51","51","NA","51","51","0","51","NA","51","51","0","51","NA","51","NA","51","0","0","51","51","0","51","51","52","z","10/01/17 12:34:15","The main experiment item","yes","FIN__BA__M21__7%3A10%3A17.osexp","C:\Users\ERP Testing Room\Desktop\Joanna\morph21","no","mono","no","18","no","white","no","yes","1080","legacy","51","51","C:/Users/ERP Testing Room/Desktop/Joanna/morph21/subject-105.csv","xpyriment","Jazzy James","3.1.4","0","z","NA","NA","NA","NA","space","z","610","NA","NA","NA","NA","161810","610","2","legacy","1024","2","48000","-16","BA_m21","105","odd","FILL_NW","JADS","1953","353226","351593","348584","163772","NA","NA","NA","NA","353219","352090","NA","351093","NA","351085","353219","1962","353576","NA","NA","352226","1953","1953","352618","351085","1953","352226","353576","morph21_Oliver/Morris","37","29820","52","yes","1280","31"
"300","71.6981132075","71.6981132075","572.962264151","572.962264151","black","no","xpyriment","legacy","legacy","0","208","NA","uniform","74639","1000","0.0133978215142","1","undefined","1","0","52","52","52","0","52","52","52","NA","52","52","0","52","NA","52","52","0","52","NA","52","NA","52","0","0","52","52","0","52","52","53","z","10/01/17 12:34:15","The main experiment item","yes","FIN__BA__M21__7%3A10%3A17.osexp","C:\Users\ERP Testing Room\Desktop\Joanna\morph21","no","mono","no","18","no","white","no","yes","1080","legacy","52","52","C:/Users/ERP Testing Room/Desktop/Joanna/morph21/subject-105.csv","xpyriment","Jazzy James","3.1.4","0","z","NA","NA","NA","NA","space","z","547","NA","NA","NA","NA","161810","547","2","legacy","1024","2","48000","-16","BA_m21","105","odd","FILL_NW","BAFED","1953","356401","354818","348584","163772","NA","NA","NA","NA","356394","355315","NA","354318","NA","354313","356394","1962","356702","NA","NA","355401","1953","1953","355793","354313","1953","355401","356702","morph21_Oliver/Morris","38","30367","53","yes","1280","1"
"200","72.2222222222","72.2222222222","571.074074074","571.074074074","black","no","xpyriment","legacy","legacy","0","208","NA","uniform","75231","1000","0.0132923927636","1","undefined","1","0","53","53","53","0","53","53","53","NA","53","53","0","53","NA","53","53","0","53","NA","53","NA","53","0","0","53","53","0","53","53","54","z","10/01/17 12:34:15","The main experiment item","yes","FIN__BA__M21__7%3A10%3A17.osexp","C:\Users\ERP Testing Room\Desktop\Joanna\morph21","no","mono","no","18","no","white","no","yes","1080","legacy","53","53","C:/Users/ERP Testing Room/Desktop/Joanna/morph21/subject-105.csv","xpyriment","Jazzy James","3.1.4","0","z","NA","NA","NA","NA","space","z","471","NA","NA","NA","NA","161810","471","2","legacy","1024","2","48000","-16","BA_m21","105","odd","FILL_NW","TUEER","1953","361002","357910","359493","163772","NA","NA","NA","NA","359484","358407","NA","357410","NA","357399","359484","1962","361202","NA","NA","358493","1953","1953","358885","357399","1953","358493","361202","morph21_Oliver/Morris","39","30838","54","yes","1280","44"
"250","72.7272727273","72.7272727273","572.418181818","572.418181818","black","no","xpyriment","legacy","legacy","0","203","NA","uniform","68797","1000","0.0145355175371","1","undefined","1","0","54","54","54","0","54","54","54","NA","54","54","0","54","NA","54","54","0","54","NA","54","NA","54","0","0","54","54","0","54","54","55","z","10/01/17 12:34:15","The main experiment item","yes","FIN__BA__M21__7%3A10%3A17.osexp","C:\Users\ERP Testing Room\Desktop\Joanna\morph21","no","mono","no","18","no","white","no","yes","1080","legacy","54","54","C:/Users/ERP Testing Room/Desktop/Joanna/morph21/subject-105.csv","xpyriment","Jazzy James","3.1.4","0","z","NA","NA","NA","NA","space","z","645","NA","NA","NA","NA","161810","645","2","legacy","1024","2","48000","-16","BA_m21","105","odd","NW_S_COMP","TREASONIME","1953","364128","362535","359493","163772","NA","NA","NA","NA","364124","363032","NA","362035","NA","362027","364124","1962","364378","NA","NA","363135","1953","1953","363527","362027","1953","363135","364378","morph21_Oliver/Morris","40","31483","55","yes","1280","14"
"350","73.2142857143","73.2142857143","569.928571429","569.928571429","black","no","xpyriment","legacy","legacy","0","207","NA","uniform","80080","1000","0.0124875124875","1","undefined","1","0","55","55","55","0","55","55","55","NA","55","55","0","55","NA","55","55","0","55","NA","55","NA","55","0","0","55","55","0","55","55","56","/","10/01/17 12:34:15","The main experiment item","yes","FIN__BA__M21__7%3A10%3A17.osexp","C:\Users\ERP Testing Room\Desktop\Joanna\morph21","no","mono","no","18","no","white","no","yes","1080","legacy","55","55","C:/Users/ERP Testing Room/Desktop/Joanna/morph21/subject-105.csv","xpyriment","Jazzy James","3.1.4","0","/","NA","NA","NA","NA","space","/","433","NA","NA","NA","NA","161810","433","2","legacy","1024","2","48000","-16","BA_m21","105","odd","FILL_W","LIFT","1953","367203","365603","359493","163772","NA","NA","NA","NA","367199","366100","NA","365103","NA","365096","367199","1962","367553","NA","NA","366203","1953","1953","366603","365096","1953","366203","367553","morph21_Oliver/Morris","41","31916","56","yes","1280","39"
"400","73.6842105263","73.6842105263","573.50877193","573.50877193","black","no","xpyriment","legacy","legacy","0","201","NA","uniform","66995","1000","0.0149264870513","1","undefined","1","0","56","56","56","0","56","56","56","NA","56","56","0","56","NA","56","56","0","56","NA","56","NA","56","0","0","56","56","0","56","56","57","/","10/01/17 12:34:15","The main experiment item","yes","FIN__BA__M21__7%3A10%3A17.osexp","C:\Users\ERP Testing Room\Desktop\Joanna\morph21","no","mono","no","18","no","white","no","yes","1080","legacy","56","56","C:/Users/ERP Testing Room/Desktop/Joanna/morph21/subject-105.csv","xpyriment","Jazzy James","3.1.4","0","/","NA","NA","NA","NA","space","/","774","NA","NA","NA","NA","161810","774","2","legacy","1024","2","48000","-16","BA_m21","105","odd","CW_S","DIETARY","1953","371987","368861","370478","163772","NA","NA","NA","NA","370471","369359","NA","368361","NA","368352","370471","1962","372387","NA","NA","369478","1953","1953","369870","368352","1953","369478","372387","morph21_Oliver/Morris","42","32690","57","yes","1280","6"
"200","74.1379310345","74.1379310345","579.206896552","579.206896552","black","no","xpyriment","legacy","legacy","0","202","NA","uniform","63251","1000","0.0158100267189","1","undefined","1","0","57","57","57","0","57","57","57","NA","57","57","0","57","NA","57","57","0","57","NA","57","NA","57","0","0","57","57","0","57","57","58","/","10/01/17 12:34:15","The main experiment item","yes","FIN__BA__M21__7%3A10%3A17.osexp","C:\Users\ERP Testing Room\Desktop\Joanna\morph21","no","mono","no","18","no","white","no","yes","1080","legacy","57","57","C:/Users/ERP Testing Room/Desktop/Joanna/morph21/subject-105.csv","xpyriment","Jazzy James","3.1.4","0","/","NA","NA","NA","NA","space","/","904","NA","NA","NA","NA","161810","904","2","legacy","1024","2","48000","-16","BA_m21","105","odd","CW_L","BOOTLESS","1953","375220","373637","370478","163772","NA","NA","NA","NA","375214","374134","NA","373137","NA","373132","375214","1962","375420","NA","NA","374220","1953","1953","374612","373132","1953","374220","375420","morph21_Oliver/Morris","43","33594","58","yes","1280","32"
"200","74.5762711864","74.5762711864","580.06779661","580.06779661","black","no","xpyriment","legacy","legacy","0","208","NA","uniform","67267","1000","0.0148661304949","1","undefined","1","0","58","58","58","0","58","58","58","NA","58","58","0","58","NA","58","58","0","58","NA","58","NA","58","0","0","58","58","0","58","58","59","z","10/01/17 12:34:15","The main experiment item","yes","FIN__BA__M21__7%3A10%3A17.osexp","C:\Users\ERP Testing Room\Desktop\Joanna\morph21","no","mono","no","18","no","white","no","yes","1080","legacy","58","58","C:/Users/ERP Testing Room/Desktop/Joanna/morph21/subject-105.csv","xpyriment","Jazzy James","3.1.4","0","z","NA","NA","NA","NA","space","z","630","NA","NA","NA","NA","161810","630","2","legacy","1024","2","48000","-16","BA_m21","105","odd","FILL_NW","BROUPS","1953","378270","376662","370478","163772","NA","NA","NA","NA","378261","377159","NA","376162","NA","376151","378261","1962","378470","NA","NA","377270","1953","1953","377662","376150","1953","377270","378470","morph21_Oliver/Morris","44","34224","59","yes","1280","4"
"250","75","75","581.733333333","581.733333333","black","no","xpyriment","legacy","legacy","0","207","NA","uniform","69333","1000","0.0144231462651","1","undefined","1","0","59","59","59","0","59","59","59","NA","59","59","0","59","NA","59","59","0","59","NA","59","NA","59","0","0","59","59","0","59","59","60","/","10/01/17 12:34:15","The main experiment item","yes","FIN__BA__M21__7%3A10%3A17.osexp","C:\Users\ERP Testing Room\Desktop\Joanna\morph21","no","mono","no","18","no","white","no","yes","1080","legacy","59","59","C:/Users/ERP Testing Room/Desktop/Joanna/morph21/subject-105.csv","xpyriment","Jazzy James","3.1.4","0","/","NA","NA","NA","NA","space","/","680","NA","NA","NA","NA","161810","680","2","legacy","1024","2","48000","-16","BA_m21","105","odd","FILL_W","SPLICE","1953","382896","379762","381388","163772","NA","NA","NA","NA","381379","380259","NA","379262","NA","379251","381379","1962","383147","NA","NA","380387","1953","1953","380779","379251","1953","380387","383147","morph21_Oliver/Morris","45","34904","60","yes","1280","22"
"250","75.4098360656","75.4098360656","586.606557377","586.606557377","black","no","xpyriment","legacy","legacy","0","203","NA","uniform","65787","1000","0.0152005715415","1","undefined","1","0","60","60","60","0","60","60","60","NA","60","60","0","60","NA","60","60","0","60","NA","60","NA","60","0","0","60","60","0","60","60","61","z","10/01/17 12:34:15","The main experiment item","yes","FIN__BA__M21__7%3A10%3A17.osexp","C:\Users\ERP Testing Room\Desktop\Joanna\morph21","no","mono","no","18","no","white","no","yes","1080","legacy","60","60","C:/Users/ERP Testing Room/Desktop/Joanna/morph21/subject-105.csv","xpyriment","Jazzy James","3.1.4","0","z","NA","NA","NA","NA","space","z","879","NA","NA","NA","NA","161810","879","2","legacy","1024","2","48000","-16","BA_m21","105","odd","NW_S_COMP","BRANCHEL","1953","386005","384396","381388","163772","NA","NA","NA","NA","385998","384894","NA","383896","NA","383891","385998","1962","386255","NA","NA","385005","1953","1953","385396","383891","1953","385005","386255","morph21_Oliver/Morris","46","35783","61","yes","1280","16"
"350","75.8064516129","75.8064516129","587.774193548","587.774193548","black","no","xpyriment","legacy","legacy","0","205","NA","uniform","75164","1000","0.0133042413922","1","undefined","1","0","61","61","61","0","61","61","61","NA","61","61","0","61","NA","61","61","0","61","NA","61","NA","61","0","0","61","61","0","61","61","62","z","10/01/17 12:34:15","The main experiment item","yes","FIN__BA__M21__7%3A10%3A17.osexp","C:\Users\ERP Testing Room\Desktop\Joanna\morph21","no","mono","no","18","no","white","no","yes","1080","legacy","61","61","C:/Users/ERP Testing Room/Desktop/Joanna/morph21/subject-105.csv","xpyriment","Jazzy James","3.1.4","0","z","NA","NA","NA","NA","space","z","659","NA","NA","NA","NA","161810","659","2","legacy","1024","2","48000","-16","BA_m21","105","odd","NW_S_SIMP","ACREMENT","1953","389105","387522","381388","163772","NA","NA","NA","NA","389095","388019","NA","387022","NA","387011","389095","1962","389455","NA","NA","388105","1953","1953","388497","387011","1953","388105","389455","morph21_Oliver/Morris","47","36442","62","yes","1280","16"
"300","74.6031746032","74.6031746032","588.793650794","588.793650794","black","no","xpyriment","legacy","legacy","0","205","NA","uniform","72145","1000","0.0138609744265","0","undefined","0","0","62","62","62","0","62","62","62","NA","62","62","0","62","NA","62","62","0","62","NA","62","NA","62","0","0","62","62","0","62","62","63","z","10/01/17 12:34:15","The main experiment item","yes","FIN__BA__M21__7%3A10%3A17.osexp","C:\Users\ERP Testing Room\Desktop\Joanna\morph21","no","mono","no","18","no","white","no","yes","1080","legacy","62","62","C:/Users/ERP Testing Room/Desktop/Joanna/morph21/subject-105.csv","xpyriment","Jazzy James","3.1.4","0","/","NA","NA","NA","NA","space","/","652","NA","NA","NA","NA","161810","652","2","legacy","1024","2","48000","-16","BA_m21","105","odd","NW_S_SIMP","FEVERIZE","1953","393789","390672","392280","163772","NA","NA","NA","NA","389095","391169","NA","390172","NA","390167","392273","1962","394089","NA","NA","391280","1953","1953","391672","390167","1953","391280","394089","morph21_Oliver/Morris","47","37094","63","yes","1280","24"
"250","75","75","589.046875","589.046875","black","no","xpyriment","legacy","legacy","0","207","NA","uniform","71401","1000","0.0140054060867","1","undefined","1","0","63","63","63","0","63","63","63","NA","63","63","0","63","NA","63","63","0","63","NA","63","NA","63","0","0","63","63","0","63","63","64","/","10/01/17 12:34:15","The main experiment item","yes","FIN__BA__M21__7%3A10%3A17.osexp","C:\Users\ERP Testing Room\Desktop\Joanna\morph21","no","mono","no","18","no","white","no","yes","1080","legacy","63","63","C:/Users/ERP Testing Room/Desktop/Joanna/morph21/subject-105.csv","xpyriment","Jazzy James","3.1.4","0","/","NA","NA","NA","NA","space","/","605","NA","NA","NA","NA","161810","605","2","legacy","1024","2","48000","-16","BA_m21","105","odd","FILL_W","STARVE","1953","397022","395414","392280","163772","NA","NA","NA","NA","397013","395911","NA","394914","NA","394908","397013","1962","397272","NA","NA","396022","1953","1953","396414","394907","1953","396022","397272","morph21_Oliver/Morris","48","37699","64","yes","1280","15"
"350","75.3846153846","75.3846153846","588.723076923","588.723076923","black","no","xpyriment","legacy","legacy","0","202","NA","uniform","72009","1000","0.0138871529948","1","undefined","1","0","64","64","64","0","64","64","64","NA","64","64","0","64","NA","64","64","0","64","NA","64","NA","64","0","0","64","64","0","64","64","65","/","10/01/17 12:34:15","The main experiment item","yes","FIN__BA__M21__7%3A10%3A17.osexp","C:\Users\ERP Testing Room\Desktop\Joanna\morph21","no","mono","no","18","no","white","no","yes","1080","legacy","64","64","C:/Users/ERP Testing Room/Desktop/Joanna/morph21/subject-105.csv","xpyriment","Jazzy James","3.1.4","0","/","NA","NA","NA","NA","space","/","568","NA","NA","NA","NA","161810","568","2","legacy","1024","2","48000","-16","BA_m21","105","odd","CW_L","HUNTER","1953","400140","398514","392280","163772","NA","NA","NA","NA","400135","399011","NA","398006","NA","397998","400135","1962","400490","NA","NA","399140","1953","1953","399540","397998","1953","399140","400490","morph21_Oliver/Morris","49","38267","65","yes","1280","10"
"400","75.7575757576","75.7575757576","590.106060606","590.106060606","black","no","xpyriment","legacy","legacy","0","201","NA","uniform","68059","1000","0.0146931338985","1","undefined","1","0","65","65","65","0","65","65","65","NA","65","65","0","65","NA","65","65","0","65","NA","65","NA","65","0","0","65","65","0","65","65","66","/","10/01/17 12:34:15","The main experiment item","yes","FIN__BA__M21__7%3A10%3A17.osexp","C:\Users\ERP Testing Room\Desktop\Joanna\morph21","no","mono","no","18","no","white","no","yes","1080","legacy","65","65","C:/Users/ERP Testing Room/Desktop/Joanna/morph21/subject-105.csv","xpyriment","Jazzy James","3.1.4","0","/","NA","NA","NA","NA","space","/","680","NA","NA","NA","NA","161810","680","2","legacy","1024","2","48000","-16","BA_m21","105","odd","CW_S","ALLOWANCE","1953","404840","401723","403332","163772","NA","NA","NA","NA","403326","402220","NA","401223","NA","401217","403326","1962","405240","NA","NA","402332","1953","1953","402723","401217","1953","402332","405240","morph21_Oliver/Morris","50","38947","66","yes","1280","5"
"350","76.1194029851","76.1194029851","589.074626866","589.074626866","black","no","xpyriment","legacy","legacy","0","201","NA","uniform","80475","1000","0.0124262193228","1","undefined","1","0","66","66","66","0","66","66","66","NA","66","66","0","66","NA","66","66","0","66","NA","66","NA","66","0","0","66","66","0","66","66","67","/","10/01/17 12:34:15","The main experiment item","yes","FIN__BA__M21__7%3A10%3A17.osexp","C:\Users\ERP Testing Room\Desktop\Joanna\morph21","no","mono","no","18","no","white","no","yes","1080","legacy","66","66","C:/Users/ERP Testing Room/Desktop/Joanna/morph21/subject-105.csv","xpyriment","Jazzy James","3.1.4","0","/","NA","NA","NA","NA","space","/","521","NA","NA","NA","NA","161810","521","2","legacy","1024","2","48000","-16","BA_m21","105","odd","CW_S","TEACHER","1953","408098","406490","403332","163772","NA","NA","NA","NA","408090","406987","NA","405990","NA","405984","408090","1962","408449","NA","NA","407099","1953","1953","407490","405984","1953","407098","408449","morph21_Oliver/Morris","51","39468","67","yes","1280","23"
"250","76.4705882353","76.4705882353","588.147058824","588.147058824","black","no","xpyriment","legacy","legacy","0","207","NA","uniform","71915","1000","0.0139053048738","1","undefined","1","0","67","67","67","0","67","67","67","NA","67","67","0","67","NA","67","67","0","67","NA","67","NA","67","0","0","67","67","0","67","67","68","/","10/01/17 12:34:15","The main experiment item","yes","FIN__BA__M21__7%3A10%3A17.osexp","C:\Users\ERP Testing Room\Desktop\Joanna\morph21","no","mono","no","18","no","white","no","yes","1080","legacy","67","67","C:/Users/ERP Testing Room/Desktop/Joanna/morph21/subject-105.csv","xpyriment","Jazzy James","3.1.4","0","/","NA","NA","NA","NA","space","/","526","NA","NA","NA","NA","161810","526","2","legacy","1024","2","48000","-16","BA_m21","105","odd","FILL_W","SHIP","1953","411374","409774","403332","163772","NA","NA","NA","NA","411364","410271","NA","409274","NA","409266","411364","1962","411624","NA","NA","410374","1953","1953","410765","409266","1953","410374","411624","morph21_Oliver/Morris","52","39994","68","yes","1280","37"
"350","76.8115942029","76.8115942029","593.028985507","593.028985507","black","no","xpyriment","legacy","legacy","0","206","NA","uniform","66199","1000","0.0151059683681","1","undefined","1","0","68","68","68","0","68","68","68","NA","68","68","0","68","NA","68","68","0","68","NA","68","NA","68","0","0","68","68","0","68","68","69","z","10/01/17 12:34:15","The main experiment item","yes","FIN__BA__M21__7%3A10%3A17.osexp","C:\Users\ERP Testing Room\Desktop\Joanna\morph21","no","mono","no","18","no","white","no","yes","1080","legacy","68","68","C:/Users/ERP Testing Room/Desktop/Joanna/morph21/subject-105.csv","xpyriment","Jazzy James","3.1.4","0","z","NA","NA","NA","NA","space","z","925","NA","NA","NA","NA","161810","925","2","legacy","1024","2","48000","-16","BA_m21","105","odd","NW_L_SIMP","WIGISH","1953","415924","412832","414415","163772","NA","NA","NA","NA","414409","413329","NA","412332","NA","412323","414409","1962","416274","NA","NA","413415","1953","1953","413807","412323","1953","413415","416274","morph21_Oliver/Morris","53","40919","69","yes","1280","9"
"200","77.1428571429","77.1428571429","592.1","592.1","black","no","xpyriment","legacy","legacy","0","201","NA","uniform","74195","1000","0.0134779971696","1","undefined","1","0","69","69","69","0","69","69","69","NA","69","69","0","69","NA","69","69","0","69","NA","69","NA","69","0","0","69","69","0","69","69","70","/","10/01/17 12:34:15","The main experiment item","yes","FIN__BA__M21__7%3A10%3A17.osexp","C:\Users\ERP Testing Room\Desktop\Joanna\morph21","no","mono","no","18","no","white","no","yes","1080","legacy","69","69","C:/Users/ERP Testing Room/Desktop/Joanna/morph21/subject-105.csv","xpyriment","Jazzy James","3.1.4","0","/","NA","NA","NA","NA","space","/","528","NA","NA","NA","NA","161810","528","2","legacy","1024","2","48000","-16","BA_m21","105","odd","CW_S","CAMPAIGNER","1953","419108","417525","414415","163772","NA","NA","NA","NA","419102","418022","NA","417025","NA","417014","419102","1962","419308","NA","NA","418108","1953","1953","418500","417014","1953","418108","419308","morph21_Oliver/Morris","54","41447","70","yes","1280","15"
"300","77.4647887324","77.4647887324","592.478873239","592.478873239","black","no","xpyriment","legacy","legacy","0","204","NA","uniform","70171","1000","0.0142509013695","1","undefined","1","0","70","70","70","0","70","70","70","NA","70","70","0","70","NA","70","70","0","70","NA","70","NA","70","0","0","70","70","0","70","70","71","z","10/01/17 12:34:15","The main experiment item","yes","FIN__BA__M21__7%3A10%3A17.osexp","C:\Users\ERP Testing Room\Desktop\Joanna\morph21","no","mono","no","18","no","white","no","yes","1080","legacy","70","70","C:/Users/ERP Testing Room/Desktop/Joanna/morph21/subject-105.csv","xpyriment","Jazzy James","3.1.4","0","z","NA","NA","NA","NA","space","z","619","NA","NA","NA","NA","161810","619","2","legacy","1024","2","48000","-16","BA_m21","105","odd","NW_L_COMP","BINDIG","1953","422225","420617","414415","163772","NA","NA","NA","NA","422219","421114","NA","420117","NA","420112","422219","1962","422525","NA","NA","421225","1953","1953","421617","420112","1953","421225","422525","morph21_Oliver/Morris","55","42066","71","yes","1280","22"
"250","76.3888888889","76.3888888889","596.152777778","596.152777778","black","no","xpyriment","legacy","legacy","0","206","NA","uniform","62930","1000","0.0158906721754","0","undefined","0","0","71","71","71","0","71","71","71","NA","71","71","0","71","NA","71","71","0","71","NA","71","NA","71","0","0","71","71","0","71","71","72","z","10/01/17 12:34:15","The main experiment item","yes","FIN__BA__M21__7%3A10%3A17.osexp","C:\Users\ERP Testing Room\Desktop\Joanna\morph21","no","mono","no","18","no","white","no","yes","1080","legacy","71","71","C:/Users/ERP Testing Room/Desktop/Joanna/morph21/subject-105.csv","xpyriment","Jazzy James","3.1.4","0","/","NA","NA","NA","NA","space","/","857","NA","NA","NA","NA","161810","857","2","legacy","1024","2","48000","-16","BA_m21","105","odd","NW_L_SIMP","SMOOTHFUL","1953","426967","423875","425459","163772","NA","NA","NA","NA","422219","424372","NA","423375","NA","423368","425450","1962","427217","NA","NA","424459","1953","1953","424850","423368","1953","424459","427217","morph21_Oliver/Morris","55","42923","72","yes","1280","19"
"250","76.7123287671","76.7123287671","596.890410959","596.890410959","black","no","xpyriment","legacy","legacy","0","208","NA","uniform","62306","1000","0.016049818637","1","undefined","1","0","72","72","72","0","72","72","72","NA","72","72","0","72","NA","72","72","0","72","NA","72","NA","72","0","0","72","72","0","72","72","73","z","10/01/17 12:34:15","The main experiment item","yes","FIN__BA__M21__7%3A10%3A17.osexp","C:\Users\ERP Testing Room\Desktop\Joanna\morph21","no","mono","no","18","no","white","no","yes","1080","legacy","72","72","C:/Users/ERP Testing Room/Desktop/Joanna/morph21/subject-105.csv","xpyriment","Jazzy James","3.1.4","0","z","NA","NA","NA","NA","space","z","650","NA","NA","NA","NA","161810","650","2","legacy","1024","2","48000","-16","BA_m21","105","odd","FILL_NW","LOLDS","1953","430051","428459","425459","163772","NA","NA","NA","NA","430040","428956","NA","427959","NA","427952","430040","1962","430301","NA","NA","429050","1953","1953","429442","427952","1953","429050","430301","morph21_Oliver/Morris","56","43573","73","yes","1280","34"
"250","75.6756756757","75.6756756757","598.783783784","598.783783784","black","no","xpyriment","legacy","legacy","0","201","NA","uniform","63948","1000","0.0156377056358","0","undefined","0","0","73","73","73","0","73","73","73","NA","73","73","0","73","NA","73","73","0","73","NA","73","NA","73","0","0","73","73","0","73","73","74","/","10/01/17 12:34:15","The main experiment item","yes","FIN__BA__M21__7%3A10%3A17.osexp","C:\Users\ERP Testing Room\Desktop\Joanna\morph21","no","mono","no","18","no","white","no","yes","1080","legacy","73","73","C:/Users/ERP Testing Room/Desktop/Joanna/morph21/subject-105.csv","xpyriment","Jazzy James","3.1.4","0","z","NA","NA","NA","NA","space","z","737","NA","NA","NA","NA","161810","737","2","legacy","1024","2","48000","-16","BA_m21","105","odd","CW_S","PEAKING","1953","433226","431601","425459","163772","NA","NA","NA","NA","430040","432098","NA","431101","NA","431095","433220","1962","433476","NA","NA","432226","1953","1953","432617","431095","1953","432226","433476","morph21_Oliver/Morris","56","44310","74","yes","1280","28"
"250","76","76","599.693333333","599.693333333","black","no","xpyriment","legacy","legacy","0","201","NA","uniform","61814","1000","0.0161775649529","undefined","undefined","1","0","74","74","74","0","74","74","74","NA","74","74","0","74","NA","74","74","0","74","NA","74","NA","74","0","0","74","74","0","74","74","75","/","10/01/17 12:34:15","The main experiment item","yes","FIN__BA__M21__7%3A10%3A17.osexp","C:\Users\ERP Testing Room\Desktop\Joanna\morph21","no","mono","no","18","no","white","no","yes","1080","legacy","74","74","C:/Users/ERP Testing Room/Desktop/Joanna/morph21/subject-105.csv","xpyriment","Jazzy James","3.1.4","0","space","space","NA","NA","NA","space","/","24964","24964","NA","NA","NA","161810","667","2","legacy","1024","2","48000","-16","BA_m21","105","odd","CW_S","MOSSY","1953","437894","434777","436385","163772","438152","NA","NA","NA","436375","435274","NA","434277","NA","434271","436375","1962","463116","NA","NA","435385","1953","1953","435777","434271","1953","435385","438144","morph21_Oliver/Morris","57","44977","75","yes","1280","47"
"250","76.3157894737","76.3157894737","598","598","black","no","xpyriment","legacy","legacy","0","207","NA","uniform","79634","1000","0.0125574503353","1","undefined","1","0","75","75","75","0","75","75","75","NA","75","75","0","75","NA","75","75","0","75","NA","75","NA","75","0","0","75","75","0","75","75","76","/","10/01/17 12:34:15","The main experiment item","yes","FIN__BA__M21__7%3A10%3A17.osexp","C:\Users\ERP Testing Room\Desktop\Joanna\morph21","no","mono","no","18","no","white","no","yes","1080","legacy","75","75","C:/Users/ERP Testing Room/Desktop/Joanna/morph21/subject-105.csv","xpyriment","Jazzy James","3.1.4","0","/","space","NA","NA","NA","space","/","471","24964","NA","NA","NA","161810","471","2","legacy","1024","2","48000","-16","BA_m21","105","odd","FILL_W","FIERCE","1953","466021","464437","436385","163772","438152","NA","NA","NA","466014","464935","NA","463937","NA","463929","466014","1962","466271","NA","NA","465021","1953","1953","465412","463929","1953","465021","466271","morph21_Oliver/Morris","58","45448","76","yes","1280","24"
"250","76.6233766234","76.6233766234","595.350649351","595.350649351","black","no","xpyriment","legacy","legacy","0","202","NA","uniform","64745","1000","0.0154452081242","1","undefined","1","0","76","76","76","0","76","76","76","NA","76","76","0","76","NA","76","76","0","76","NA","76","NA","76","0","0","76","76","0","76","76","77","/","10/01/17 12:34:15","The main experiment item","yes","FIN__BA__M21__7%3A10%3A17.osexp","C:\Users\ERP Testing Room\Desktop\Joanna\morph21","no","mono","no","18","no","white","no","yes","1080","legacy","76","76","C:/Users/ERP Testing Room/Desktop/Joanna/morph21/subject-105.csv","xpyriment","Jazzy James","3.1.4","0","/","space","NA","NA","NA","space","/","394","24964","NA","NA","NA","161810","394","2","legacy","1024","2","48000","-16","BA_m21","105","odd","CW_L","DREAMER","1953","469114","467504","436385","163772","438152","NA","NA","NA","469103","468001","NA","467004","NA","467000","469103","1962","469364","NA","NA","468113","1953","1953","468504","467000","1953","468113","469364","morph21_Oliver/Morris","59","45842","77","yes","1280","12"
"200","76.9230769231","76.9230769231","594.08974359","594.08974359","black","no","xpyriment","legacy","legacy","0","207","NA","uniform","75678","1000","0.0132138798594","1","undefined","1","0","77","77","77","0","77","77","77","NA","77","77","0","77","NA","77","77","0","77","NA","77","NA","77","0","0","77","77","0","77","77","78","/","10/01/17 12:34:15","The main experiment item","yes","FIN__BA__M21__7%3A10%3A17.osexp","C:\Users\ERP Testing Room\Desktop\Joanna\morph21","no","mono","no","18","no","white","no","yes","1080","legacy","77","77","C:/Users/ERP Testing Room/Desktop/Joanna/morph21/subject-105.csv","xpyriment","Jazzy James","3.1.4","0","/","space","NA","NA","NA","space","/","497","24964","NA","NA","NA","161810","497","2","legacy","1024","2","48000","-16","BA_m21","105","odd","FILL_W","LEGAL","1953","473855","470739","472347","163772","438152","NA","NA","NA","472340","471236","NA","470239","NA","470233","472340","1962","474056","NA","NA","471347","1953","1953","471739","470233","1953","471347","474056","morph21_Oliver/Morris","60","46339","78","yes","1280","35"
"350","75.9493670886","75.9493670886","595.708860759","595.708860759","black","no","xpyriment","legacy","legacy","0","202","NA","uniform","69617","1000","0.0143643075686","0","undefined","0","0","78","78","78","0","78","78","78","NA","78","78","0","78","NA","78","78","0","78","NA","78","NA","78","0","0","78","78","0","78","78","79","/","10/01/17 12:34:15","The main experiment item","yes","FIN__BA__M21__7%3A10%3A17.osexp","C:\Users\ERP Testing Room\Desktop\Joanna\morph21","no","mono","no","18","no","white","no","yes","1080","legacy","78","78","C:/Users/ERP Testing Room/Desktop/Joanna/morph21/subject-105.csv","xpyriment","Jazzy James","3.1.4","0","z","space","NA","NA","NA","space","z","722","24964","NA","NA","NA","161810","722","2","legacy","1024","2","48000","-16","BA_m21","105","odd","CW_L","GUILELESS","1953","476914","475331","472347","163772","438152","NA","NA","NA","472340","475828","NA","474831","NA","474819","476908","1962","477264","NA","NA","475914","1953","1953","476306","474819","1953","475914","477264","morph21_Oliver/Morris","60","47061","79","yes","1280","31"
"350","75","75","595.2625","595.2625","black","no","xpyriment","legacy","legacy","0","208","NA","uniform","73862","1000","0.0135387614741","0","undefined","0","0","79","79","79","0","79","79","79","NA","79","79","0","79","NA","79","79","0","79","NA","79","NA","79","0","0","79","79","0","79","79","80","z","10/01/17 12:34:15","The main experiment item","yes","FIN__BA__M21__7%3A10%3A17.osexp","C:\Users\ERP Testing Room\Desktop\Joanna\morph21","no","mono","no","18","no","white","no","yes","1080","legacy","79","79","C:/Users/ERP Testing Room/Desktop/Joanna/morph21/subject-105.csv","xpyriment","Jazzy James","3.1.4","0","/","space","NA","NA","NA","space","/","560","24964","NA","NA","NA","161810","560","2","legacy","1024","2","48000","-16","BA_m21","105","odd","FILL_NW","DELP","1953","480172","478531","472347","163772","438152","NA","NA","NA","472340","479028","NA","478031","NA","478022","480164","1962","480522","NA","NA","479172","1953","1953","479564","478022","1953","479172","480522","morph21_Oliver/Morris","60","47621","80","yes","1280","14"
"350","75.3086419753","75.3086419753","599.185185185","599.185185185","black","no","xpyriment","legacy","legacy","0","204","NA","uniform","54960","1000","0.0181950509461","1","undefined","1","0","80","80","80","0","80","80","80","NA","80","80","0","80","NA","80","80","0","80","NA","80","NA","80","0","0","80","80","0","80","80","81","z","10/01/17 12:34:15","The main experiment item","yes","FIN__BA__M21__7%3A10%3A17.osexp","C:\Users\ERP Testing Room\Desktop\Joanna\morph21","no","mono","no","18","no","white","no","yes","1080","legacy","80","80","C:/Users/ERP Testing Room/Desktop/Joanna/morph21/subject-105.csv","xpyriment","Jazzy James","3.1.4","0","z","space","NA","NA","NA","space","z","913","24964","NA","NA","NA","161810","913","2","legacy","1024","2","48000","-16","BA_m21","105","odd","NW_L_COMP","MOUTHIME","1953","484848","481748","483339","163772","438152","NA","NA","NA","483332","482245","NA","481248","NA","481236","483332","1962","485198","NA","NA","482339","1953","1953","482731","481236","1953","482339","485198","morph21_Oliver/Morris","61","48534","81","yes","1280","11"
"250","75.6097560976","75.6097560976","600.37804878","600.37804878","black","no","xpyriment","legacy","legacy","0","202","NA","uniform","66560","1000","0.0150240384615","1","undefined","1","0","81","81","81","0","81","81","81","NA","81","81","0","81","NA","81","81","0","81","NA","81","NA","81","0","0","81","81","0","81","81","82","/","10/01/17 12:34:15","The main experiment item","yes","FIN__BA__M21__7%3A10%3A17.osexp","C:\Users\ERP Testing Room\Desktop\Joanna\morph21","no","mono","no","18","no","white","no","yes","1080","legacy","81","81","C:/Users/ERP Testing Room/Desktop/Joanna/morph21/subject-105.csv","xpyriment","Jazzy James","3.1.4","0","/","space","NA","NA","NA","space","/","697","24964","NA","NA","NA","161810","697","2","legacy","1024","2","48000","-16","BA_m21","105","odd","CW_L","DEAFNESS","1953","488107","486482","483339","163772","438152","NA","NA","NA","488101","486979","NA","485981","NA","485973","488101","1962","488357","NA","NA","487107","1953","1953","487499","485973","1953","487107","488357","morph21_Oliver/Morris","62","49231","82","yes","1280","39"
"350","74.6987951807","74.6987951807","602.554216867","602.554216867","black","no","xpyriment","legacy","legacy","0","206","NA","uniform","63216","1000","0.0158187800557","0","undefined","0","0","82","82","82","0","82","82","82","NA","82","82","0","82","NA","82","82","0","82","NA","82","NA","82","0","0","82","82","0","82","82","83","z","10/01/17 12:34:15","The main experiment item","yes","FIN__BA__M21__7%3A10%3A17.osexp","C:\Users\ERP Testing Room\Desktop\Joanna\morph21","no","mono","no","18","no","white","no","yes","1080","legacy","82","82","C:/Users/ERP Testing Room/Desktop/Joanna/morph21/subject-105.csv","xpyriment","Jazzy James","3.1.4","0","/","space","NA","NA","NA","space","/","781","24964","NA","NA","NA","161810","781","2","legacy","1024","2","48000","-16","BA_m21","105","odd","NW_L_SIMP","WITCHISH","1953","491191","489607","483339","163772","438152","NA","NA","NA","488101","490104","NA","489107","NA","489099","491181","1962","491541","NA","NA","490191","1953","1953","490582","489099","1953","490191","491541","morph21_Oliver/Morris","62","50012","83","yes","1280","11"
"350","75","75","600.916666667","600.916666667","black","no","xpyriment","legacy","legacy","0","201","NA","uniform","77314","1000","0.0129342680498","1","undefined","1","0","83","83","83","0","83","83","83","NA","83","83","0","83","NA","83","83","0","83","NA","83","NA","83","0","0","83","83","0","83","83","84","/","10/01/17 12:34:15","The main experiment item","yes","FIN__BA__M21__7%3A10%3A17.osexp","C:\Users\ERP Testing Room\Desktop\Joanna\morph21","no","mono","no","18","no","white","no","yes","1080","legacy","83","83","C:/Users/ERP Testing Room/Desktop/Joanna/morph21/subject-105.csv","xpyriment","Jazzy James","3.1.4","0","/","space","NA","NA","NA","space","/","465","24964","NA","NA","NA","161810","465","2","legacy","1024","2","48000","-16","BA_m21","105","odd","CW_S","STRANGENESS","1953","495816","492724","494307","163772","438152","NA","NA","NA","494300","493221","NA","492224","NA","492214","494300","1962","496166","NA","NA","493307","1953","1953","493699","492214","1953","493307","496166","morph21_Oliver/Morris","63","50477","84","yes","1280","46"
"200","75.2941176471","75.2941176471","600.258823529","600.258823529","black","no","xpyriment","legacy","legacy","0","201","NA","uniform","77253","1000","0.0129444811205","1","undefined","1","0","84","84","84","0","84","84","84","NA","84","84","0","84","NA","84","84","0","84","NA","84","NA","84","0","0","84","84","0","84","84","85","/","10/01/17 12:34:15","The main experiment item","yes","FIN__BA__M21__7%3A10%3A17.osexp","C:\Users\ERP Testing Room\Desktop\Joanna\morph21","no","mono","no","18","no","white","no","yes","1080","legacy","84","84","C:/Users/ERP Testing Room/Desktop/Joanna/morph21/subject-105.csv","xpyriment","Jazzy James","3.1.4","0","/","space","NA","NA","NA","space","/","545","24964","NA","NA","NA","161810","545","2","legacy","1024","2","48000","-16","BA_m21","105","odd","CW_S","ANGELIC","1953","499091","497474","494307","163772","438152","NA","NA","NA","499083","497971","NA","496974","NA","496971","499083","1962","499291","NA","NA","498091","1953","1953","498483","496971","1953","498091","499291","morph21_Oliver/Morris","64","51022","85","yes","1280","25"
"200","75.5813953488","75.5813953488","600.255813953","600.255813953","black","no","xpyriment","legacy","legacy","0","207","NA","uniform","72716","1000","0.0137521315804","1","undefined","1","0","85","85","85","0","85","85","85","NA","85","85","0","85","NA","85","85","0","85","NA","85","NA","85","0","0","85","85","0","85","85","86","/","10/01/17 12:34:15","The main experiment item","yes","FIN__BA__M21__7%3A10%3A17.osexp","C:\Users\ERP Testing Room\Desktop\Joanna\morph21","no","mono","no","18","no","white","no","yes","1080","legacy","85","85","C:/Users/ERP Testing Room/Desktop/Joanna/morph21/subject-105.csv","xpyriment","Jazzy James","3.1.4","0","/","space","NA","NA","NA","space","/","600","24964","NA","NA","NA","161810","600","2","legacy","1024","2","48000","-16","BA_m21","105","odd","FILL_W","STALK","1953","502099","500516","494307","163772","438152","NA","NA","NA","502097","501013","NA","500016","NA","500008","502097","1962","502299","NA","NA","501108","1953","1953","501499","500008","1953","501108","502299","morph21_Oliver/Morris","65","51622","86","yes","1280","27"
"300","74.7126436782","74.7126436782","599.965517241","599.965517241","black","no","xpyriment","legacy","legacy","0","204","NA","uniform","76167","1000","0.0131290453871","0","undefined","0","0","86","86","86","0","86","86","86","NA","86","86","0","86","NA","86","86","0","86","NA","86","NA","86","0","0","86","86","0","86","86","87","z","10/01/17 12:34:15","The main experiment item","yes","FIN__BA__M21__7%3A10%3A17.osexp","C:\Users\ERP Testing Room\Desktop\Joanna\morph21","no","mono","no","18","no","white","no","yes","1080","legacy","86","86","C:/Users/ERP Testing Room/Desktop/Joanna/morph21/subject-105.csv","xpyriment","Jazzy James","3.1.4","0","/","space","NA","NA","NA","space","/","575","24964","NA","NA","NA","161810","575","2","legacy","1024","2","48000","-16","BA_m21","105","odd","NW_L_COMP","KINGILM","1953","506626","503534","505117","163772","438152","NA","NA","NA","502097","504031","NA","503033","NA","503023","505112","1962","506926","NA","NA","504117","1953","1953","504517","503023","1953","504117","506926","morph21_Oliver/Morris","65","52197","87","yes","1280","19"
"400","75","75","601.284090909","601.284090909","black","no","xpyriment","legacy","legacy","0","205","NA","uniform","63752","1000","0.0156857824068","1","undefined","1","0","87","87","87","0","87","87","87","NA","87","87","0","87","NA","87","87","0","87","NA","87","NA","87","0","0","87","87","0","87","87","88","z","10/01/17 12:34:15","The main experiment item","yes","FIN__BA__M21__7%3A10%3A17.osexp","C:\Users\ERP Testing Room\Desktop\Joanna\morph21","no","mono","no","18","no","white","no","yes","1080","legacy","87","87","C:/Users/ERP Testing Room/Desktop/Joanna/morph21/subject-105.csv","xpyriment","Jazzy James","3.1.4","0","z","space","NA","NA","NA","space","z","716","24964","NA","NA","NA","161810","716","2","legacy","1024","2","48000","-16","BA_m21","105","odd","NW_S_SIMP","AIDIC","1953","509784","508184","505117","163772","438152","NA","NA","NA","509779","508681","NA","507684","NA","507678","509779","1962","510184","NA","NA","508784","1953","1953","509184","507677","1953","508784","510184","morph21_Oliver/Morris","66","52913","88","yes","1280","4"
"350","75.2808988764","75.2808988764","601.584269663","601.584269663","black","no","xpyriment","legacy","legacy","0","201","NA","uniform","69427","1000","0.0144036181889","1","undefined","1","0","88","88","88","0","88","88","88","NA","88","88","0","88","NA","88","88","0","88","NA","88","NA","88","0","0","88","88","0","88","88","89","/","10/01/17 12:34:15","The main experiment item","yes","FIN__BA__M21__7%3A10%3A17.osexp","C:\Users\ERP Testing Room\Desktop\Joanna\morph21","no","mono","no","18","no","white","no","yes","1080","legacy","88","88","C:/Users/ERP Testing Room/Desktop/Joanna/morph21/subject-105.csv","xpyriment","Jazzy James","3.1.4","0","/","space","NA","NA","NA","space","/","628","24964","NA","NA","NA","161810","628","2","legacy","1024","2","48000","-16","BA_m21","105","odd","CW_S","DENSELY","1953","512984","511393","505117","163772","438152","NA","NA","NA","512979","511890","NA","510893","NA","510883","512979","1962","513334","NA","NA","511984","1953","1953","512384","510883","1953","511984","513334","morph21_Oliver/Morris","67","53541","89","yes","1280","32"
"300","75.5555555556","75.5555555556","602.022222222","602.022222222","black","no","xpyriment","legacy","legacy","0","205","NA","uniform","62459","1000","0.0160105028899","1","undefined","1","0","89","89","89","0","89","89","89","NA","89","89","0","89","NA","89","89","0","89","NA","89","NA","89","0","0","89","89","0","89","89","90","z","10/01/17 12:34:15","The main experiment item","yes","FIN__BA__M21__7%3A10%3A17.osexp","C:\Users\ERP Testing Room\Desktop\Joanna\morph21","no","mono","no","18","no","white","no","yes","1080","legacy","89","89","C:/Users/ERP Testing Room/Desktop/Joanna/morph21/subject-105.csv","xpyriment","Jazzy James","3.1.4","0","z","space","NA","NA","NA","space","z","641","24964","NA","NA","NA","161810","641","2","legacy","1024","2","48000","-16","BA_m21","105","odd","NW_S_SIMP","YIELDIST","1953","517759","514643","516251","163772","438152","NA","NA","NA","516241","515140","NA","514143","NA","514133","516241","1962","518060","NA","NA","515251","1953","1953","515643","514133","1953","515251","518060","morph21_Oliver/Morris","68","54182","90","yes","1280","20"
"400","75.8241758242","75.8241758242","602.593406593","602.593406593","black","no","xpyriment","legacy","legacy","0","203","NA","uniform","65725","1000","0.0152149106124","1","undefined","1","0","90","90","90","0","90","90","90","NA","90","90","0","90","NA","90","90","0","90","NA","90","NA","90","0","0","90","90","0","90","90","91","z","10/01/17 12:34:15","The main experiment item","yes","FIN__BA__M21__7%3A10%3A17.osexp","C:\Users\ERP Testing Room\Desktop\Joanna\morph21","no","mono","no","18","no","white","no","yes","1080","legacy","90","90","C:/Users/ERP Testing Room/Desktop/Joanna/morph21/subject-105.csv","xpyriment","Jazzy James","3.1.4","0","z","space","NA","NA","NA","space","z","654","24964","NA","NA","NA","161810","654","2","legacy","1024","2","48000","-16","BA_m21","105","odd","NW_S_COMP","ARIDILM","1953","520918","519318","516251","163772","438152","NA","NA","NA","520911","519815","NA","518818","NA","518810","520911","1962","521318","NA","NA","519918","1953","1953","520310","518810","1953","519918","521318","morph21_Oliver/Morris","69","54836","91","yes","1280","9"
