"ITI","acc","accuracy","average_response_time","avg_rt","background","bidi","canvas_backend","clock_backend","color_backend","compensation","cond_trig","condtrigtime","coordinates","coroutines_cycles","coroutines_duration","coroutines_mean_cycle_duration","correct","correct_instructions_1","correct_new_keyboard_response_1","count_BA_m21","count_ITI","count_blank_screen","count_blink_screen","count_block1","count_break1","count_break2","count_break3_1","count_canvas","count_correct_trigger","count_def_chain","count_end_screen","count_fixation_1","count_getting_started","count_inc_counter","count_incorrect_trigger","count_instructions_1","count_logger","count_logscript","count_new_coroutines","count_new_inline_script","count_new_keyboard_response_1","count_reset_counter_prep","count_reset_counter_run","count_responsescreen","count_sequence","count_start_trigger","count_target_present","count_word_trigger","counter","cresp","datetime","description","disable_garbage_collection","experiment_file","experiment_path","font_bold","font_family","font_italic","font_size","font_underline","foreground","form_clicks","fullscreen","height","keyboard_backend","live_row","live_row_block1","logfile","mouse_backend","opensesame_codename","opensesame_version","repeat_cycle","response","response_break1","response_break2","response_break3_1","response_end_screen","response_instructions_1","response_new_keyboard_response_1","response_time","response_time_break1","response_time_break2","response_time_break3_1","response_time_end_screen","response_time_instructions_1","response_time_new_keyboard_response_1","round_decimals","sampler_backend","sound_buf_size","sound_channels","sound_freq","sound_sample_size","start","subject_nr","subject_parity","targ_type","target","time_BA_m21","time_ITI","time_blank_screen","time_blink_screen","time_block1","time_break1","time_break2","time_break3_1","time_canvas","time_correct_trigger","time_def_chain","time_end_screen","time_fixation_1","time_getting_started","time_inc_counter","time_incorrect_trigger","time_instructions_1","time_logger","time_logscript","time_new_inline_script","time_new_keyboard_response_1","time_reset_counter_prep","time_reset_counter_run","time_responsescreen","time_sequence","time_start_trigger","time_target_present","time_word_trigger","title","total_correct","total_response_time","total_responses","uniform_coordinates","width","word_trig"
"200","0","0","995","995","black","no","xpyriment","legacy","legacy","0","203","NA","uniform","56459","1000","0.0177119679768","0","undefined","0","0","0","0","0","0","0","0","0","NA","0","0","0","0","NA","0","0","0","0","NA","0","NA","0","0","0","0","0","0","0","0","1","z","03/02/19 15:27:05","The main experiment item","yes","FIN__BA__M21__7%3A10%3A17.osexp","C:\Users\ERP Testing Room\Desktop\Joanna\morph21","no","mono","no","18","no","white","no","yes","1080","legacy","0","0","C:/Users/ERP Testing Room/Desktop/Joanna/morph21/subject-164.csv","xpyriment","Kafkaesque Koffka","3.2.5","0","None","NA","NA","NA","NA","space","None","995","NA","NA","NA","NA","195229","995","2","legacy","1024","2","48000","-16","BA_m21","164","even","NW_S_COMP","ELMILT","1933","200067","198392","NA","197173","NA","NA","NA","NA","NA","198889","NA","197887","NA","197827","200062","1944","200267","NA","NA","199067","1933","1933","199467","197827","1933","199067","200267","morph21_Oliver/Morris","0","995","1","yes","1280","10"
"300","50","50","810.5","810.5","black","no","xpyriment","legacy","legacy","0","204","NA","uniform","67721","1000","0.0147664683038","1","undefined","1","0","1","1","1","0","1","1","1","NA","1","1","0","1","NA","1","1","0","1","NA","1","NA","1","0","0","1","1","0","1","1","2","z","03/02/19 15:27:05","The main experiment item","yes","FIN__BA__M21__7%3A10%3A17.osexp","C:\Users\ERP Testing Room\Desktop\Joanna\morph21","no","mono","no","18","no","white","no","yes","1080","legacy","1","1","C:/Users/ERP Testing Room/Desktop/Joanna/morph21/subject-164.csv","xpyriment","Kafkaesque Koffka","3.2.5","0","z","NA","NA","NA","NA","space","z","626","NA","NA","NA","NA","195229","626","2","legacy","1024","2","48000","-16","BA_m21","164","even","NW_L_COMP","BINDIG","1933","203052","201342","NA","197173","NA","NA","NA","NA","203045","201839","NA","200842","NA","200834","203045","1944","203352","NA","NA","202051","1933","1933","202442","200834","1933","202051","203352","morph21_Oliver/Morris","1","1621","2","yes","1280","22"
"400","33.3333333333","33.3333333333","696","696","black","no","xpyriment","legacy","legacy","0","204","NA","uniform","74322","1000","0.013454966228","0","undefined","0","0","2","2","2","0","2","2","2","NA","2","2","0","2","NA","2","2","0","2","NA","2","NA","2","0","0","2","2","0","2","2","3","z","03/02/19 15:27:05","The main experiment item","yes","FIN__BA__M21__7%3A10%3A17.osexp","C:\Users\ERP Testing Room\Desktop\Joanna\morph21","no","mono","no","18","no","white","no","yes","1080","legacy","2","2","C:/Users/ERP Testing Room/Desktop/Joanna/morph21/subject-164.csv","xpyriment","Kafkaesque Koffka","3.2.5","0","/","NA","NA","NA","NA","space","/","467","NA","NA","NA","NA","195229","467","2","legacy","1024","2","48000","-16","BA_m21","164","even","NW_L_COMP","BOIL","1933","207710","204518","206202","197173","NA","NA","NA","NA","203045","205016","NA","204018","NA","204008","206196","1944","208110","NA","NA","205202","1933","1933","205593","204008","1933","205202","208110","morph21_Oliver/Morris","1","2088","3","yes","1280","18"
"400","50","50","731.75","731.75","black","no","xpyriment","legacy","legacy","0","206","NA","uniform","61747","1000","0.0161951187912","1","undefined","1","0","3","3","3","0","3","3","3","NA","3","3","0","3","NA","3","3","0","3","NA","3","NA","3","0","0","3","3","0","3","3","4","z","03/02/19 15:27:05","The main experiment item","yes","FIN__BA__M21__7%3A10%3A17.osexp","C:\Users\ERP Testing Room\Desktop\Joanna\morph21","no","mono","no","18","no","white","no","yes","1080","legacy","3","3","C:/Users/ERP Testing Room/Desktop/Joanna/morph21/subject-164.csv","xpyriment","Kafkaesque Koffka","3.2.5","0","z","NA","NA","NA","NA","space","z","839","NA","NA","NA","NA","195229","839","2","legacy","1024","2","48000","-16","BA_m21","164","even","NW_L_SIMP","BLOODER","1933","210910","209235","206202","197173","NA","NA","NA","NA","210904","209732","NA","208735","NA","208726","210904","1944","211310","NA","NA","209910","1933","1933","210302","208726","1933","209910","211310","morph21_Oliver/Morris","2","2927","4","yes","1280","24"
"300","60","60","676.6","676.6","black","no","xpyriment","legacy","legacy","0","202","NA","uniform","74771","1000","0.0133741691297","1","undefined","1","0","4","4","4","0","4","4","4","NA","4","4","0","4","NA","4","4","0","4","NA","4","NA","4","0","0","4","4","0","4","4","5","/","03/02/19 15:27:05","The main experiment item","yes","FIN__BA__M21__7%3A10%3A17.osexp","C:\Users\ERP Testing Room\Desktop\Joanna\morph21","no","mono","no","18","no","white","no","yes","1080","legacy","4","4","C:/Users/ERP Testing Room/Desktop/Joanna/morph21/subject-164.csv","xpyriment","Kafkaesque Koffka","3.2.5","0","/","NA","NA","NA","NA","space","/","456","NA","NA","NA","NA","195229","456","2","legacy","1024","2","48000","-16","BA_m21","164","even","CW_L","DOUBTFUL","1933","214085","212427","206202","197173","NA","NA","NA","NA","214079","212924","NA","211927","NA","211915","214079","1944","214385","NA","NA","213085","1933","1933","213477","211915","1933","213085","214385","morph21_Oliver/Morris","3","3383","5","yes","1280","21"
"250","66.6666666667","66.6666666667","671.5","671.5","black","no","xpyriment","legacy","legacy","0","207","NA","uniform","67734","1000","0.0147636342162","1","undefined","1","0","5","5","5","0","5","5","5","NA","5","5","0","5","NA","5","5","0","5","NA","5","NA","5","0","0","5","5","0","5","5","6","/","03/02/19 15:27:05","The main experiment item","yes","FIN__BA__M21__7%3A10%3A17.osexp","C:\Users\ERP Testing Room\Desktop\Joanna\morph21","no","mono","no","18","no","white","no","yes","1080","legacy","5","5","C:/Users/ERP Testing Room/Desktop/Joanna/morph21/subject-164.csv","xpyriment","Kafkaesque Koffka","3.2.5","0","/","NA","NA","NA","NA","space","/","646","NA","NA","NA","NA","195229","646","2","legacy","1024","2","48000","-16","BA_m21","164","even","FILL_W","SUIT","1933","218627","215461","217119","197173","NA","NA","NA","NA","217110","215958","NA","214961","NA","214957","217110","1944","218877","NA","NA","216119","1933","1933","216510","214957","1933","216119","218877","morph21_Oliver/Morris","4","4029","6","yes","1280","49"
"400","57.1428571429","57.1428571429","638.142857143","638.142857143","black","no","xpyriment","legacy","legacy","0","204","NA","uniform","73841","1000","0.0135426118281","0","undefined","0","0","6","6","6","0","6","6","6","NA","6","6","0","6","NA","6","6","0","6","NA","6","NA","6","0","0","6","6","0","6","6","7","z","03/02/19 15:27:05","The main experiment item","yes","FIN__BA__M21__7%3A10%3A17.osexp","C:\Users\ERP Testing Room\Desktop\Joanna\morph21","no","mono","no","18","no","white","no","yes","1080","legacy","6","6","C:/Users/ERP Testing Room/Desktop/Joanna/morph21/subject-164.csv","xpyriment","Kafkaesque Koffka","3.2.5","0","/","NA","NA","NA","NA","space","/","438","NA","NA","NA","NA","195229","438","2","legacy","1024","2","48000","-16","BA_m21","164","even","NW_L_COMP","PASSMANT","1933","221687","220011","217119","197173","NA","NA","NA","NA","217110","220508","NA","219511","NA","219506","221678","1944","222087","NA","NA","220687","1933","1933","221078","219506","1933","220687","222087","morph21_Oliver/Morris","4","4467","7","yes","1280","14"
"400","62.5","62.5","620.125","620.125","black","no","xpyriment","legacy","legacy","0","202","NA","uniform","74129","1000","0.0134899971671","1","undefined","1","0","7","7","7","0","7","7","7","NA","7","7","0","7","NA","7","7","0","7","NA","7","NA","7","0","0","7","7","0","7","7","8","/","03/02/19 15:27:05","The main experiment item","yes","FIN__BA__M21__7%3A10%3A17.osexp","C:\Users\ERP Testing Room\Desktop\Joanna\morph21","no","mono","no","18","no","white","no","yes","1080","legacy","7","7","C:/Users/ERP Testing Room/Desktop/Joanna/morph21/subject-164.csv","xpyriment","Kafkaesque Koffka","3.2.5","0","/","NA","NA","NA","NA","space","/","494","NA","NA","NA","NA","195229","494","2","legacy","1024","2","48000","-16","BA_m21","164","even","CW_L","COOLING","1933","224895","223212","217119","197173","NA","NA","NA","NA","224887","223709","NA","222712","NA","222707","224887","1944","225295","NA","NA","223895","1933","1933","224287","222707","1933","223895","225295","morph21_Oliver/Morris","5","4961","8","yes","1280","24"
"400","55.5555555556","55.5555555556","649","649","black","no","xpyriment","legacy","legacy","0","206","NA","uniform","61502","1000","0.016259633833","0","undefined","0","0","8","8","8","0","8","8","8","NA","8","8","0","8","NA","8","8","0","8","NA","8","NA","8","0","0","8","8","0","8","8","9","z","03/02/19 15:27:05","The main experiment item","yes","FIN__BA__M21__7%3A10%3A17.osexp","C:\Users\ERP Testing Room\Desktop\Joanna\morph21","no","mono","no","18","no","white","no","yes","1080","legacy","8","8","C:/Users/ERP Testing Room/Desktop/Joanna/morph21/subject-164.csv","xpyriment","Kafkaesque Koffka","3.2.5","0","/","NA","NA","NA","NA","space","/","880","NA","NA","NA","NA","195229","880","2","legacy","1024","2","48000","-16","BA_m21","164","even","NW_L_SIMP","CLASSOUS","1933","229737","226579","228229","197173","NA","NA","NA","NA","224887","227076","NA","226079","NA","226074","228221","1944","230137","NA","NA","227229","1933","1933","227620","226074","1933","227229","230137","morph21_Oliver/Morris","5","5841","9","yes","1280","18"
"250","60","60","662.1","662.1","black","no","xpyriment","legacy","legacy","0","201","NA","uniform","64177","1000","0.0155819062904","1","undefined","1","0","9","9","9","0","9","9","9","NA","9","9","0","9","NA","9","9","0","9","NA","9","NA","9","0","0","9","9","0","9","9","10","/","03/02/19 15:27:05","The main experiment item","yes","FIN__BA__M21__7%3A10%3A17.osexp","C:\Users\ERP Testing Room\Desktop\Joanna\morph21","no","mono","no","18","no","white","no","yes","1080","legacy","9","9","C:/Users/ERP Testing Room/Desktop/Joanna/morph21/subject-164.csv","xpyriment","Kafkaesque Koffka","3.2.5","0","/","NA","NA","NA","NA","space","/","780","NA","NA","NA","NA","195229","780","2","legacy","1024","2","48000","-16","BA_m21","164","even","CW_S","HUGELY","1933","232937","231287","228229","197173","NA","NA","NA","NA","232933","231784","NA","230787","NA","230778","232933","1944","233187","NA","NA","231937","1933","1933","232337","230778","1933","231937","233187","morph21_Oliver/Morris","6","6621","10","yes","1280","35"
"300","54.5454545455","54.5454545455","692.090909091","692.090909091","black","no","xpyriment","legacy","legacy","0","204","NA","uniform","54621","1000","0.0183079767855","0","undefined","0","0","10","10","10","0","10","10","10","NA","10","10","0","10","NA","10","10","0","10","NA","10","NA","10","0","0","10","10","0","10","10","11","z","03/02/19 15:27:05","The main experiment item","yes","FIN__BA__M21__7%3A10%3A17.osexp","C:\Users\ERP Testing Room\Desktop\Joanna\morph21","no","mono","no","18","no","white","no","yes","1080","legacy","10","10","C:/Users/ERP Testing Room/Desktop/Joanna/morph21/subject-164.csv","xpyriment","Kafkaesque Koffka","3.2.5","0","None","NA","NA","NA","NA","space","None","992","NA","NA","NA","NA","195229","992","2","legacy","1024","2","48000","-16","BA_m21","164","even","NW_L_COMP","ILLILT","1933","236096","234412","228229","197173","NA","NA","NA","NA","232933","234909","NA","233912","NA","233908","236088","1944","236396","NA","NA","235096","1933","1933","235487","233908","1933","235096","236396","morph21_Oliver/Morris","6","7613","11","yes","1280","9"
"400","50","50","684.083333333","684.083333333","black","no","xpyriment","legacy","legacy","0","205","NA","uniform","66823","1000","0.0149649072924","0","undefined","0","0","11","11","11","0","11","11","11","NA","11","11","0","11","NA","11","11","0","11","NA","11","NA","11","0","0","11","11","0","11","11","12","z","03/02/19 15:27:05","The main experiment item","yes","FIN__BA__M21__7%3A10%3A17.osexp","C:\Users\ERP Testing Room\Desktop\Joanna\morph21","no","mono","no","18","no","white","no","yes","1080","legacy","11","11","C:/Users/ERP Testing Room/Desktop/Joanna/morph21/subject-164.csv","xpyriment","Kafkaesque Koffka","3.2.5","0","/","NA","NA","NA","NA","space","/","596","NA","NA","NA","NA","195229","596","2","legacy","1024","2","48000","-16","BA_m21","164","even","NW_S_SIMP","ADVERTISELY","1933","240805","237612","239297","197173","NA","NA","NA","NA","232933","238110","NA","237112","NA","237106","239292","1944","241205","NA","NA","238297","1933","1933","238697","237106","1933","238297","241205","morph21_Oliver/Morris","6","8209","12","yes","1280","25"
"350","53.8461538462","53.8461538462","685.076923077","685.076923077","black","no","xpyriment","legacy","legacy","0","202","NA","uniform","62891","1000","0.0159005263074","1","undefined","1","0","12","12","12","0","12","12","12","NA","12","12","0","12","NA","12","12","0","12","NA","12","NA","12","0","0","12","12","0","12","12","13","/","03/02/19 15:27:05","The main experiment item","yes","FIN__BA__M21__7%3A10%3A17.osexp","C:\Users\ERP Testing Room\Desktop\Joanna\morph21","no","mono","no","18","no","white","no","yes","1080","legacy","12","12","C:/Users/ERP Testing Room/Desktop/Joanna/morph21/subject-164.csv","xpyriment","Kafkaesque Koffka","3.2.5","0","/","NA","NA","NA","NA","space","/","697","NA","NA","NA","NA","195229","697","2","legacy","1024","2","48000","-16","BA_m21","164","even","CW_L","BOMBER","1933","243964","242314","239297","197173","NA","NA","NA","NA","243961","242811","NA","241814","NA","241803","243961","1944","244314","NA","NA","242972","1933","1933","243364","241803","1933","242972","244314","morph21_Oliver/Morris","7","8906","13","yes","1280","7"
"200","57.1428571429","57.1428571429","703","703","black","no","xpyriment","legacy","legacy","0","202","NA","uniform","56259","1000","0.0177749337884","1","undefined","1","0","13","13","13","0","13","13","13","NA","13","13","0","13","NA","13","13","0","13","NA","13","NA","13","0","0","13","13","0","13","13","14","/","03/02/19 15:27:05","The main experiment item","yes","FIN__BA__M21__7%3A10%3A17.osexp","C:\Users\ERP Testing Room\Desktop\Joanna\morph21","no","mono","no","18","no","white","no","yes","1080","legacy","13","13","C:/Users/ERP Testing Room/Desktop/Joanna/morph21/subject-164.csv","xpyriment","Kafkaesque Koffka","3.2.5","0","/","NA","NA","NA","NA","space","/","936","NA","NA","NA","NA","195229","936","2","legacy","1024","2","48000","-16","BA_m21","164","even","CW_L","COLLECTOR","1933","247189","245514","239297","197173","NA","NA","NA","NA","247185","246011","NA","245014","NA","245008","247185","1944","247389","NA","NA","246189","1933","1933","246589","245008","1933","246189","247389","morph21_Oliver/Morris","8","9842","14","yes","1280","46"
"200","60","60","702.466666667","702.466666667","black","no","xpyriment","legacy","legacy","0","207","NA","uniform","69001","1000","0.0144925435863","1","undefined","1","0","14","14","14","0","14","14","14","NA","14","14","0","14","NA","14","14","0","14","NA","14","NA","14","0","0","14","14","0","14","14","15","/","03/02/19 15:27:05","The main experiment item","yes","FIN__BA__M21__7%3A10%3A17.osexp","C:\Users\ERP Testing Room\Desktop\Joanna\morph21","no","mono","no","18","no","white","no","yes","1080","legacy","14","14","C:/Users/ERP Testing Room/Desktop/Joanna/morph21/subject-164.csv","xpyriment","Kafkaesque Koffka","3.2.5","0","/","NA","NA","NA","NA","space","/","695","NA","NA","NA","NA","195229","695","2","legacy","1024","2","48000","-16","BA_m21","164","even","FILL_W","BLEAK","1933","251722","248564","250214","197173","NA","NA","NA","NA","250206","249061","NA","248064","NA","248055","250206","1944","251923","NA","NA","249214","1933","1933","249606","248055","1933","249214","251923","morph21_Oliver/Morris","9","10537","15","yes","1280","5"
"300","62.5","62.5","691.75","691.75","black","no","xpyriment","legacy","legacy","0","207","NA","uniform","65423","1000","0.0152851443682","1","undefined","1","0","15","15","15","0","15","15","15","NA","15","15","0","15","NA","15","15","0","15","NA","15","NA","15","0","0","15","15","0","15","15","16","/","03/02/19 15:27:05","The main experiment item","yes","FIN__BA__M21__7%3A10%3A17.osexp","C:\Users\ERP Testing Room\Desktop\Joanna\morph21","no","mono","no","18","no","white","no","yes","1080","legacy","15","15","C:/Users/ERP Testing Room/Desktop/Joanna/morph21/subject-164.csv","xpyriment","Kafkaesque Koffka","3.2.5","0","/","NA","NA","NA","NA","space","/","531","NA","NA","NA","NA","195229","531","2","legacy","1024","2","48000","-16","BA_m21","164","even","FILL_W","BALD","1933","254714","253014","250214","197173","NA","NA","NA","NA","254708","253511","NA","252514","NA","252506","254708","1944","255014","NA","NA","253714","1933","1933","254106","252506","1933","253714","255014","morph21_Oliver/Morris","10","11068","16","yes","1280","3"
"250","64.7058823529","64.7058823529","698.941176471","698.941176471","black","no","xpyriment","legacy","legacy","0","204","NA","uniform","55734","1000","0.0179423691104","1","undefined","1","0","16","16","16","0","16","16","16","NA","16","16","0","16","NA","16","16","0","16","NA","16","NA","16","0","0","16","16","0","16","16","17","z","03/02/19 15:27:05","The main experiment item","yes","FIN__BA__M21__7%3A10%3A17.osexp","C:\Users\ERP Testing Room\Desktop\Joanna\morph21","no","mono","no","18","no","white","no","yes","1080","legacy","16","16","C:/Users/ERP Testing Room/Desktop/Joanna/morph21/subject-164.csv","xpyriment","Kafkaesque Koffka","3.2.5","0","z","NA","NA","NA","NA","space","z","814","NA","NA","NA","NA","195229","814","2","legacy","1024","2","48000","-16","BA_m21","164","even","NW_L_COMP","TRIPADY","1933","257815","256132","250214","197173","NA","NA","NA","NA","257807","256629","NA","255632","NA","255626","257807","1944","258065","NA","NA","256815","1933","1933","257207","255626","1933","256815","258065","morph21_Oliver/Morris","11","11882","17","yes","1280","2"
"400","66.6666666667","66.6666666667","682.833333333","682.833333333","black","no","xpyriment","legacy","legacy","0","207","NA","uniform","74787","1000","0.0133713078476","1","undefined","1","0","17","17","17","0","17","17","17","NA","17","17","0","17","NA","17","17","0","17","NA","17","NA","17","0","0","17","17","0","17","17","18","/","03/02/19 15:27:05","The main experiment item","yes","FIN__BA__M21__7%3A10%3A17.osexp","C:\Users\ERP Testing Room\Desktop\Joanna\morph21","no","mono","no","18","no","white","no","yes","1080","legacy","17","17","C:/Users/ERP Testing Room/Desktop/Joanna/morph21/subject-164.csv","xpyriment","Kafkaesque Koffka","3.2.5","0","/","NA","NA","NA","NA","space","/","409","NA","NA","NA","NA","195229","409","2","legacy","1024","2","48000","-16","BA_m21","164","even","FILL_W","CHIP","1933","262432","259199","260924","197173","NA","NA","NA","NA","260919","259696","NA","258699","NA","258689","260919","1944","262832","NA","NA","259924","1933","1933","260324","258689","1933","259924","262832","morph21_Oliver/Morris","12","12291","18","yes","1280","11"
"250","68.4210526316","68.4210526316","690.631578947","690.631578947","black","no","xpyriment","legacy","legacy","0","204","NA","uniform","62897","1000","0.0158990094917","1","undefined","1","0","18","18","18","0","18","18","18","NA","18","18","0","18","NA","18","18","0","18","NA","18","NA","18","0","0","18","18","0","18","18","19","z","03/02/19 15:27:05","The main experiment item","yes","FIN__BA__M21__7%3A10%3A17.osexp","C:\Users\ERP Testing Room\Desktop\Joanna\morph21","no","mono","no","18","no","white","no","yes","1080","legacy","18","18","C:/Users/ERP Testing Room/Desktop/Joanna/morph21/subject-164.csv","xpyriment","Kafkaesque Koffka","3.2.5","0","z","NA","NA","NA","NA","space","z","831","NA","NA","NA","NA","195229","831","2","legacy","1024","2","48000","-16","BA_m21","164","even","NW_L_COMP","FREENELS","1933","265574","263924","260924","197173","NA","NA","NA","NA","265568","264421","NA","263424","NA","263415","265568","1944","265824","NA","NA","264574","1933","1933","264966","263415","1933","264574","265824","morph21_Oliver/Morris","13","13122","19","yes","1280","15"
"250","65","65","703.45","703.45","black","no","xpyriment","legacy","legacy","0","207","NA","uniform","54421","1000","0.0183752595505","0","undefined","0","0","19","19","19","0","19","19","19","NA","19","19","0","19","NA","19","19","0","19","NA","19","NA","19","0","0","19","19","0","19","19","20","/","03/02/19 15:27:05","The main experiment item","yes","FIN__BA__M21__7%3A10%3A17.osexp","C:\Users\ERP Testing Room\Desktop\Joanna\morph21","no","mono","no","18","no","white","no","yes","1080","legacy","19","19","C:/Users/ERP Testing Room/Desktop/Joanna/morph21/subject-164.csv","xpyriment","Kafkaesque Koffka","3.2.5","0","z","NA","NA","NA","NA","space","z","947","NA","NA","NA","NA","195229","947","2","legacy","1024","2","48000","-16","BA_m21","164","even","FILL_W","SPLICE","1933","268674","267016","260924","197173","NA","NA","NA","NA","265568","267513","NA","266516","NA","266510","268671","1944","268924","NA","NA","267682","1933","1933","268074","266510","1933","267682","268924","morph21_Oliver/Morris","13","14069","20","yes","1280","22"
"300","66.6666666667","66.6666666667","696.238095238","696.238095238","black","no","xpyriment","legacy","legacy","0","201","NA","uniform","71226","1000","0.0140398169208","1","undefined","1","0","20","20","20","0","20","20","20","NA","20","20","0","20","NA","20","20","0","20","NA","20","NA","20","0","0","20","20","0","20","20","21","/","03/02/19 15:27:05","The main experiment item","yes","FIN__BA__M21__7%3A10%3A17.osexp","C:\Users\ERP Testing Room\Desktop\Joanna\morph21","no","mono","no","18","no","white","no","yes","1080","legacy","20","20","C:/Users/ERP Testing Room/Desktop/Joanna/morph21/subject-164.csv","xpyriment","Kafkaesque Koffka","3.2.5","0","/","NA","NA","NA","NA","space","/","552","NA","NA","NA","NA","195229","552","2","legacy","1024","2","48000","-16","BA_m21","164","even","CW_S","RISKY","1933","273250","270091","271741","197173","NA","NA","NA","NA","271737","270588","NA","269591","NA","269580","271737","1944","273550","NA","NA","270741","1933","1933","271141","269580","1933","270741","273550","morph21_Oliver/Morris","14","14621","21","yes","1280","50"
"350","68.1818181818","68.1818181818","702.227272727","702.227272727","black","no","xpyriment","legacy","legacy","0","203","NA","uniform","62845","1000","0.01591216485","1","undefined","1","0","21","21","21","0","21","21","21","NA","21","21","0","21","NA","21","21","0","21","NA","21","NA","21","0","0","21","21","0","21","21","22","z","03/02/19 15:27:05","The main experiment item","yes","FIN__BA__M21__7%3A10%3A17.osexp","C:\Users\ERP Testing Room\Desktop\Joanna\morph21","no","mono","no","18","no","white","no","yes","1080","legacy","21","21","C:/Users/ERP Testing Room/Desktop/Joanna/morph21/subject-164.csv","xpyriment","Kafkaesque Koffka","3.2.5","0","z","NA","NA","NA","NA","space","z","828","NA","NA","NA","NA","195229","828","2","legacy","1024","2","48000","-16","BA_m21","164","even","NW_S_COMP","WELDIG","1933","276409","274734","271741","197173","NA","NA","NA","NA","276405","275231","NA","274225","NA","274216","276405","1944","276759","NA","NA","275409","1933","1933","275809","274216","1933","275409","276759","morph21_Oliver/Morris","15","15449","22","yes","1280","21"
"200","65.2173913043","65.2173913043","714","714","black","no","xpyriment","legacy","legacy","0","203","NA","uniform","57109","1000","0.0175103748971","0","undefined","0","0","22","22","22","0","22","22","22","NA","22","22","0","22","NA","22","22","0","22","NA","22","NA","22","0","0","22","22","0","22","22","23","z","03/02/19 15:27:05","The main experiment item","yes","FIN__BA__M21__7%3A10%3A17.osexp","C:\Users\ERP Testing Room\Desktop\Joanna\morph21","no","mono","no","18","no","white","no","yes","1080","legacy","22","22","C:/Users/ERP Testing Room/Desktop/Joanna/morph21/subject-164.csv","xpyriment","Kafkaesque Koffka","3.2.5","0","/","NA","NA","NA","NA","space","/","973","NA","NA","NA","NA","195229","973","2","legacy","1024","2","48000","-16","BA_m21","164","even","NW_S_COMP","ADOPTISH","1933","279584","277934","271741","197173","NA","NA","NA","NA","276405","278431","NA","277434","NA","277426","279579","1944","279784","NA","NA","278584","1933","1933","278984","277426","1933","278584","279784","morph21_Oliver/Morris","15","16422","23","yes","1280","19"
"350","66.6666666667","66.6666666667","712.25","712.25","black","no","xpyriment","legacy","legacy","0","201","NA","uniform","70025","1000","0.0142806140664","1","undefined","1","0","23","23","23","0","23","23","23","NA","23","23","0","23","NA","23","23","0","23","NA","23","NA","23","0","0","23","23","0","23","23","24","/","03/02/19 15:27:05","The main experiment item","yes","FIN__BA__M21__7%3A10%3A17.osexp","C:\Users\ERP Testing Room\Desktop\Joanna\morph21","no","mono","no","18","no","white","no","yes","1080","legacy","23","23","C:/Users/ERP Testing Room/Desktop/Joanna/morph21/subject-164.csv","xpyriment","Kafkaesque Koffka","3.2.5","0","/","NA","NA","NA","NA","space","/","672","NA","NA","NA","NA","195229","672","2","legacy","1024","2","48000","-16","BA_m21","164","even","CW_S","AMAZEMENT","1933","284201","281017","282692","197173","NA","NA","NA","NA","282689","281514","NA","280517","NA","280512","282689","1944","284551","NA","NA","281701","1933","1933","282092","280512","1933","281701","284551","morph21_Oliver/Morris","16","17094","24","yes","1280","39"
"300","68","68","709.36","709.36","black","no","xpyriment","legacy","legacy","0","205","NA","uniform","66785","1000","0.0149734221756","1","undefined","1","0","24","24","24","0","24","24","24","NA","24","24","0","24","NA","24","24","0","24","NA","24","NA","24","0","0","24","24","0","24","24","25","z","03/02/19 15:27:05","The main experiment item","yes","FIN__BA__M21__7%3A10%3A17.osexp","C:\Users\ERP Testing Room\Desktop\Joanna\morph21","no","mono","no","18","no","white","no","yes","1080","legacy","24","24","C:/Users/ERP Testing Room/Desktop/Joanna/morph21/subject-164.csv","xpyriment","Kafkaesque Koffka","3.2.5","0","z","NA","NA","NA","NA","space","z","640","NA","NA","NA","NA","195229","640","2","legacy","1024","2","48000","-16","BA_m21","164","even","NW_S_SIMP","BOLTOUS","1933","287317","285659","282692","197173","NA","NA","NA","NA","287309","286156","NA","285159","NA","285153","287309","1944","287618","NA","NA","286317","1933","1933","286709","285153","1933","286317","287618","morph21_Oliver/Morris","17","17734","25","yes","1280","13"
"300","65.3846153846","65.3846153846","720.346153846","720.346153846","black","no","xpyriment","legacy","legacy","0","208","NA","uniform","55007","1000","0.0181795044267","0","undefined","0","0","25","25","25","0","25","25","25","NA","25","25","0","25","NA","25","25","0","25","NA","25","NA","25","0","0","25","25","0","25","25","26","z","03/02/19 15:27:05","The main experiment item","yes","FIN__BA__M21__7%3A10%3A17.osexp","C:\Users\ERP Testing Room\Desktop\Joanna\morph21","no","mono","no","18","no","white","no","yes","1080","legacy","25","25","C:/Users/ERP Testing Room/Desktop/Joanna/morph21/subject-164.csv","xpyriment","Kafkaesque Koffka","3.2.5","0","None","NA","NA","NA","NA","space","None","995","NA","NA","NA","NA","195229","995","2","legacy","1024","2","48000","-16","BA_m21","164","even","FILL_NW","KEMT","1933","290477","288826","282692","197173","NA","NA","NA","NA","287309","289323","NA","288326","NA","288316","290471","1944","290777","NA","NA","289476","1933","1933","289876","288316","1933","289476","290777","morph21_Oliver/Morris","17","18729","26","yes","1280","32"
"350","66.6666666667","66.6666666667","727.37037037","727.37037037","black","no","xpyriment","legacy","legacy","0","203","NA","uniform","55895","1000","0.0178906878969","1","undefined","1","0","26","26","26","0","26","26","26","NA","26","26","0","26","NA","26","26","0","26","NA","26","NA","26","0","0","26","26","0","26","26","27","z","03/02/19 15:27:05","The main experiment item","yes","FIN__BA__M21__7%3A10%3A17.osexp","C:\Users\ERP Testing Room\Desktop\Joanna\morph21","no","mono","no","18","no","white","no","yes","1080","legacy","26","26","C:/Users/ERP Testing Room/Desktop/Joanna/morph21/subject-164.csv","xpyriment","Kafkaesque Koffka","3.2.5","0","z","NA","NA","NA","NA","space","z","910","NA","NA","NA","NA","195229","910","2","legacy","1024","2","48000","-16","BA_m21","164","even","NW_S_COMP","HUMIDOES","1933","295027","291869","293519","197173","NA","NA","NA","NA","293516","292366","NA","291369","NA","291360","293516","1944","295377","NA","NA","292527","1933","1933","292919","291360","1933","292527","295377","morph21_Oliver/Morris","18","19639","27","yes","1280","25"
"200","67.8571428571","67.8571428571","726.321428571","726.321428571","black","no","xpyriment","legacy","legacy","0","208","NA","uniform","65451","1000","0.0152786053689","1","undefined","1","0","27","27","27","0","27","27","27","NA","27","27","0","27","NA","27","27","0","27","NA","27","NA","27","0","0","27","27","0","27","27","28","z","03/02/19 15:27:05","The main experiment item","yes","FIN__BA__M21__7%3A10%3A17.osexp","C:\Users\ERP Testing Room\Desktop\Joanna\morph21","no","mono","no","18","no","white","no","yes","1080","legacy","27","27","C:/Users/ERP Testing Room/Desktop/Joanna/morph21/subject-164.csv","xpyriment","Kafkaesque Koffka","3.2.5","0","z","NA","NA","NA","NA","space","z","698","NA","NA","NA","NA","195229","698","2","legacy","1024","2","48000","-16","BA_m21","164","even","FILL_NW","VUNKS","1933","298202","296519","293519","197173","NA","NA","NA","NA","298199","297016","NA","296019","NA","296014","298199","1944","298402","NA","NA","297211","1933","1933","297602","296014","1933","297211","298402","morph21_Oliver/Morris","19","20337","28","yes","1280","49"
"200","68.9655172414","68.9655172414","731.448275862","731.448275862","black","no","xpyriment","legacy","legacy","0","206","NA","uniform","61229","1000","0.0163321301997","1","undefined","1","0","28","28","28","0","28","28","28","NA","28","28","0","28","NA","28","28","0","28","NA","28","NA","28","0","0","28","28","0","28","28","29","z","03/02/19 15:27:05","The main experiment item","yes","FIN__BA__M21__7%3A10%3A17.osexp","C:\Users\ERP Testing Room\Desktop\Joanna\morph21","no","mono","no","18","no","white","no","yes","1080","legacy","28","28","C:/Users/ERP Testing Room/Desktop/Joanna/morph21/subject-164.csv","xpyriment","Kafkaesque Koffka","3.2.5","0","z","NA","NA","NA","NA","space","z","875","NA","NA","NA","NA","195229","875","2","legacy","1024","2","48000","-16","BA_m21","164","even","NW_L_SIMP","TOWERLY","1933","301186","299536","293519","197173","NA","NA","NA","NA","301180","300033","NA","299036","NA","299028","301180","1944","301386","NA","NA","300186","1933","1933","300577","299028","1933","300186","301386","morph21_Oliver/Morris","20","21212","29","yes","1280","15"
"400","70","70","728.966666667","728.966666667","black","no","xpyriment","legacy","legacy","0","202","NA","uniform","68552","1000","0.0145874664488","1","undefined","1","0","29","29","29","0","29","29","29","NA","29","29","0","29","NA","29","29","0","29","NA","29","NA","29","0","0","29","29","0","29","29","30","/","03/02/19 15:27:05","The main experiment item","yes","FIN__BA__M21__7%3A10%3A17.osexp","C:\Users\ERP Testing Room\Desktop\Joanna\morph21","no","mono","no","18","no","white","no","yes","1080","legacy","29","29","C:/Users/ERP Testing Room/Desktop/Joanna/morph21/subject-164.csv","xpyriment","Kafkaesque Koffka","3.2.5","0","/","NA","NA","NA","NA","space","/","657","NA","NA","NA","NA","195229","657","2","legacy","1024","2","48000","-16","BA_m21","164","even","CW_L","DRYNESS","1933","305744","302561","304236","197173","NA","NA","NA","NA","304227","303058","NA","302053","NA","302045","304227","1944","306145","NA","NA","303236","1933","1933","303628","302045","1933","303236","306145","morph21_Oliver/Morris","21","21869","30","yes","1280","42"
"250","70.9677419355","70.9677419355","731.709677419","731.709677419","black","no","xpyriment","legacy","legacy","0","204","NA","uniform","62665","1000","0.01595787122","1","undefined","1","0","30","30","30","0","30","30","30","NA","30","30","0","30","NA","30","30","0","30","NA","30","NA","30","0","0","30","30","0","30","30","31","z","03/02/19 15:27:05","The main experiment item","yes","FIN__BA__M21__7%3A10%3A17.osexp","C:\Users\ERP Testing Room\Desktop\Joanna\morph21","no","mono","no","18","no","white","no","yes","1080","legacy","30","30","C:/Users/ERP Testing Room/Desktop/Joanna/morph21/subject-164.csv","xpyriment","Kafkaesque Koffka","3.2.5","0","z","NA","NA","NA","NA","space","z","814","NA","NA","NA","NA","195229","814","2","legacy","1024","2","48000","-16","BA_m21","164","even","NW_L_COMP","MUDLA","1933","308904","307253","304236","197173","NA","NA","NA","NA","308896","307750","NA","306744","NA","306733","308896","1944","309154","NA","NA","307904","1933","1933","308295","306733","1933","307904","309154","morph21_Oliver/Morris","22","22683","31","yes","1280","12"
"250","71.875","71.875","731","731","black","no","xpyriment","legacy","legacy","0","202","NA","uniform","67096","1000","0.0149040181233","1","undefined","1","0","31","31","31","0","31","31","31","NA","31","31","0","31","NA","31","31","0","31","NA","31","NA","31","0","0","31","31","0","31","31","32","/","03/02/19 15:27:05","The main experiment item","yes","FIN__BA__M21__7%3A10%3A17.osexp","C:\Users\ERP Testing Room\Desktop\Joanna\morph21","no","mono","no","18","no","white","no","yes","1080","legacy","31","31","C:/Users/ERP Testing Room/Desktop/Joanna/morph21/subject-164.csv","xpyriment","Kafkaesque Koffka","3.2.5","0","/","NA","NA","NA","NA","space","/","709","NA","NA","NA","NA","195229","709","2","legacy","1024","2","48000","-16","BA_m21","164","even","CW_L","STRIKER","1933","312104","310429","304236","197173","NA","NA","NA","NA","312099","310926","NA","309929","NA","309924","312099","1944","312354","NA","NA","311104","1933","1933","311504","309924","1933","311104","312354","morph21_Oliver/Morris","23","23392","32","yes","1280","17"
"200","72.7272727273","72.7272727273","734.96969697","734.96969697","black","no","xpyriment","legacy","legacy","0","203","NA","uniform","61254","1000","0.0163254644595","1","undefined","1","0","32","32","32","0","32","32","32","NA","32","32","0","32","NA","32","32","0","32","NA","32","NA","32","0","0","32","32","0","32","32","33","z","03/02/19 15:27:05","The main experiment item","yes","FIN__BA__M21__7%3A10%3A17.osexp","C:\Users\ERP Testing Room\Desktop\Joanna\morph21","no","mono","no","18","no","white","no","yes","1080","legacy","32","32","C:/Users/ERP Testing Room/Desktop/Joanna/morph21/subject-164.csv","xpyriment","Kafkaesque Koffka","3.2.5","0","z","NA","NA","NA","NA","space","z","862","NA","NA","NA","NA","195229","862","2","legacy","1024","2","48000","-16","BA_m21","164","even","NW_S_COMP","FANFIL","1933","316779","313612","315271","197173","NA","NA","NA","NA","315267","314109","NA","313112","NA","313104","315267","1944","316979","NA","NA","314271","1933","1933","314671","313104","1933","314271","316979","morph21_Oliver/Morris","24","24254","33","yes","1280","6"
"400","73.5294117647","73.5294117647","728.264705882","728.264705882","black","no","xpyriment","legacy","legacy","0","207","NA","uniform","74554","1000","0.0134130965475","1","undefined","1","0","33","33","33","0","33","33","33","NA","33","33","0","33","NA","33","33","0","33","NA","33","NA","33","0","0","33","33","0","33","33","34","/","03/02/19 15:27:05","The main experiment item","yes","FIN__BA__M21__7%3A10%3A17.osexp","C:\Users\ERP Testing Room\Desktop\Joanna\morph21","no","mono","no","18","no","white","no","yes","1080","legacy","33","33","C:/Users/ERP Testing Room/Desktop/Joanna/morph21/subject-164.csv","xpyriment","Kafkaesque Koffka","3.2.5","0","/","NA","NA","NA","NA","space","/","507","NA","NA","NA","NA","195229","507","2","legacy","1024","2","48000","-16","BA_m21","164","even","FILL_W","EAT","1933","319746","318096","315271","197173","NA","NA","NA","NA","319742","318593","NA","317596","NA","317588","319742","1944","320146","NA","NA","318746","1933","1933","319146","317588","1933","318746","320146","morph21_Oliver/Morris","25","24761","34","yes","1280","25"
"250","74.2857142857","74.2857142857","729.171428571","729.171428571","black","no","xpyriment","legacy","legacy","0","207","NA","uniform","62273","1000","0.0160583238322","1","undefined","1","0","34","34","34","0","34","34","34","NA","34","34","0","34","NA","34","34","0","34","NA","34","NA","34","0","0","34","34","0","34","34","35","/","03/02/19 15:27:05","The main experiment item","yes","FIN__BA__M21__7%3A10%3A17.osexp","C:\Users\ERP Testing Room\Desktop\Joanna\morph21","no","mono","no","18","no","white","no","yes","1080","legacy","34","34","C:/Users/ERP Testing Room/Desktop/Joanna/morph21/subject-164.csv","xpyriment","Kafkaesque Koffka","3.2.5","0","/","NA","NA","NA","NA","space","/","760","NA","NA","NA","NA","195229","760","2","legacy","1024","2","48000","-16","BA_m21","164","even","FILL_W","WEAVE","1933","323021","321371","315271","197173","NA","NA","NA","NA","323013","321868","NA","320871","NA","320860","323013","1944","323271","NA","NA","322021","1933","1933","322413","320860","1933","322021","323271","morph21_Oliver/Morris","26","25521","35","yes","1280","12"
"200","75","75","736.194444444","736.194444444","black","no","xpyriment","legacy","legacy","0","203","NA","uniform","51311","1000","0.0194889984604","1","undefined","1","0","35","35","35","0","35","35","35","NA","35","35","0","35","NA","35","35","0","35","NA","35","NA","35","0","0","35","35","0","35","35","36","z","03/02/19 15:27:05","The main experiment item","yes","FIN__BA__M21__7%3A10%3A17.osexp","C:\Users\ERP Testing Room\Desktop\Joanna\morph21","no","mono","no","18","no","white","no","yes","1080","legacy","35","35","C:/Users/ERP Testing Room/Desktop/Joanna/morph21/subject-164.csv","xpyriment","Kafkaesque Koffka","3.2.5","0","z","NA","NA","NA","NA","space","z","982","NA","NA","NA","NA","195229","982","2","legacy","1024","2","48000","-16","BA_m21","164","even","NW_S_COMP","PILLIME","1933","327606","324429","326097","197173","NA","NA","NA","NA","326087","324927","NA","323929","NA","323923","326087","1944","327806","NA","NA","325096","1933","1933","325489","323923","1933","325096","327806","morph21_Oliver/Morris","27","26503","36","yes","1280","13"
"300","75.6756756757","75.6756756757","737.891891892","737.891891892","black","no","xpyriment","legacy","legacy","0","205","NA","uniform","63790","1000","0.0156764383132","1","undefined","1","0","36","36","36","0","36","36","36","NA","36","36","0","36","NA","36","36","0","36","NA","36","NA","36","0","0","36","36","0","36","36","37","z","03/02/19 15:27:05","The main experiment item","yes","FIN__BA__M21__7%3A10%3A17.osexp","C:\Users\ERP Testing Room\Desktop\Joanna\morph21","no","mono","no","18","no","white","no","yes","1080","legacy","36","36","C:/Users/ERP Testing Room/Desktop/Joanna/morph21/subject-164.csv","xpyriment","Kafkaesque Koffka","3.2.5","0","z","NA","NA","NA","NA","space","z","799","NA","NA","NA","NA","195229","799","2","legacy","1024","2","48000","-16","BA_m21","164","even","NW_S_SIMP","TILTARY","1933","330606","328947","326097","197173","NA","NA","NA","NA","330599","329444","NA","328447","NA","328435","330599","1944","330906","NA","NA","329606","1933","1933","329997","328435","1933","329606","330906","morph21_Oliver/Morris","28","27302","37","yes","1280","17"
"300","76.3157894737","76.3157894737","733.157894737","733.157894737","black","no","xpyriment","legacy","legacy","0","207","NA","uniform","69890","1000","0.0143081985978","1","undefined","1","0","37","37","37","0","37","37","37","NA","37","37","0","37","NA","37","37","0","37","NA","37","NA","37","0","0","37","37","0","37","37","38","/","03/02/19 15:27:05","The main experiment item","yes","FIN__BA__M21__7%3A10%3A17.osexp","C:\Users\ERP Testing Room\Desktop\Joanna\morph21","no","mono","no","18","no","white","no","yes","1080","legacy","37","37","C:/Users/ERP Testing Room/Desktop/Joanna/morph21/subject-164.csv","xpyriment","Kafkaesque Koffka","3.2.5","0","/","NA","NA","NA","NA","space","/","558","NA","NA","NA","NA","195229","558","2","legacy","1024","2","48000","-16","BA_m21","164","even","FILL_W","BAKE","1933","333822","332122","326097","197173","NA","NA","NA","NA","333817","332620","NA","331623","NA","331614","333817","1944","334123","NA","NA","332823","1933","1933","333214","331614","1933","332822","334123","morph21_Oliver/Morris","29","27860","38","yes","1280","29"
"300","76.9230769231","76.9230769231","737.205128205","737.205128205","black","no","xpyriment","legacy","legacy","0","205","NA","uniform","54882","1000","0.0182209103167","1","undefined","1","0","38","38","38","0","38","38","38","NA","38","38","0","38","NA","38","38","0","38","NA","38","NA","38","0","0","38","38","0","38","38","39","z","03/02/19 15:27:05","The main experiment item","yes","FIN__BA__M21__7%3A10%3A17.osexp","C:\Users\ERP Testing Room\Desktop\Joanna\morph21","no","mono","no","18","no","white","no","yes","1080","legacy","38","38","C:/Users/ERP Testing Room/Desktop/Joanna/morph21/subject-164.csv","xpyriment","Kafkaesque Koffka","3.2.5","0","z","NA","NA","NA","NA","space","z","891","NA","NA","NA","NA","195229","891","2","legacy","1024","2","48000","-16","BA_m21","164","even","NW_S_SIMP","YIELDIST","1933","338414","335231","336906","197173","NA","NA","NA","NA","336896","335728","NA","334731","NA","334722","336896","1944","338715","NA","NA","335906","1933","1933","336298","334722","1933","335906","338715","morph21_Oliver/Morris","30","28751","39","yes","1280","20"
"250","77.5","77.5","737.45","737.45","black","no","xpyriment","legacy","legacy","0","201","NA","uniform","63108","1000","0.0158458515561","1","undefined","1","0","39","39","39","0","39","39","39","NA","39","39","0","39","NA","39","39","0","39","NA","39","NA","39","0","0","39","39","0","39","39","40","/","03/02/19 15:27:05","The main experiment item","yes","FIN__BA__M21__7%3A10%3A17.osexp","C:\Users\ERP Testing Room\Desktop\Joanna\morph21","no","mono","no","18","no","white","no","yes","1080","legacy","39","39","C:/Users/ERP Testing Room/Desktop/Joanna/morph21/subject-164.csv","xpyriment","Kafkaesque Koffka","3.2.5","0","/","NA","NA","NA","NA","space","/","747","NA","NA","NA","NA","195229","747","2","legacy","1024","2","48000","-16","BA_m21","164","even","CW_S","TOSSING","1933","341481","339823","336906","197173","NA","NA","NA","NA","341477","340320","NA","339323","NA","339319","341477","1944","341731","NA","NA","340490","1933","1933","340881","339319","1933","340490","341731","morph21_Oliver/Morris","31","29498","40","yes","1280","26"
"350","78.0487804878","78.0487804878","739.487804878","739.487804878","black","no","xpyriment","legacy","legacy","0","203","NA","uniform","59578","1000","0.0167847191916","1","undefined","1","0","40","40","40","0","40","40","40","NA","40","40","0","40","NA","40","40","0","40","NA","40","NA","40","0","0","40","40","0","40","40","41","z","03/02/19 15:27:05","The main experiment item","yes","FIN__BA__M21__7%3A10%3A17.osexp","C:\Users\ERP Testing Room\Desktop\Joanna\morph21","no","mono","no","18","no","white","no","yes","1080","legacy","40","40","C:/Users/ERP Testing Room/Desktop/Joanna/morph21/subject-164.csv","xpyriment","Kafkaesque Koffka","3.2.5","0","z","NA","NA","NA","NA","space","z","821","NA","NA","NA","NA","195229","821","2","legacy","1024","2","48000","-16","BA_m21","164","even","NW_S_COMP","FIENDILM","1933","344641","342966","336906","197173","NA","NA","NA","NA","344632","343463","NA","342465","NA","342454","344632","1944","344991","NA","NA","343641","1933","1933","344032","342454","1933","343641","344991","morph21_Oliver/Morris","32","30319","41","yes","1280","24"
"200","78.5714285714","78.5714285714","735.095238095","735.095238095","black","no","xpyriment","legacy","legacy","0","207","NA","uniform","67600","1000","0.0147928994083","1","undefined","1","0","41","41","41","0","41","41","41","NA","41","41","0","41","NA","41","41","0","41","NA","41","NA","41","0","0","41","41","0","41","41","42","/","03/02/19 15:27:05","The main experiment item","yes","FIN__BA__M21__7%3A10%3A17.osexp","C:\Users\ERP Testing Room\Desktop\Joanna\morph21","no","mono","no","18","no","white","no","yes","1080","legacy","41","41","C:/Users/ERP Testing Room/Desktop/Joanna/morph21/subject-164.csv","xpyriment","Kafkaesque Koffka","3.2.5","0","/","NA","NA","NA","NA","space","/","555","NA","NA","NA","NA","195229","555","2","legacy","1024","2","48000","-16","BA_m21","164","even","FILL_W","OLD","1933","349374","346216","347866","197173","NA","NA","NA","NA","347861","346713","NA","345716","NA","345705","347861","1944","349574","NA","NA","346866","1933","1933","347266","345705","1933","346866","349574","morph21_Oliver/Morris","33","30874","42","yes","1280","44"
"200","79.0697674419","79.0697674419","731","731","black","no","xpyriment","legacy","legacy","0","207","NA","uniform","68772","1000","0.014540801489","1","undefined","1","0","42","42","42","0","42","42","42","NA","42","42","0","42","NA","42","42","0","42","NA","42","NA","42","0","0","42","42","0","42","42","43","/","03/02/19 15:27:05","The main experiment item","yes","FIN__BA__M21__7%3A10%3A17.osexp","C:\Users\ERP Testing Room\Desktop\Joanna\morph21","no","mono","no","18","no","white","no","yes","1080","legacy","42","42","C:/Users/ERP Testing Room/Desktop/Joanna/morph21/subject-164.csv","xpyriment","Kafkaesque Koffka","3.2.5","0","/","NA","NA","NA","NA","space","/","559","NA","NA","NA","NA","195229","559","2","legacy","1024","2","48000","-16","BA_m21","164","even","FILL_W","WRECK","1933","352358","350691","347866","197173","NA","NA","NA","NA","352348","351188","NA","350183","NA","350172","352348","1944","352558","NA","NA","351358","1933","1933","351749","350172","1933","351358","352558","morph21_Oliver/Morris","34","31433","43","yes","1280","13"
"350","79.5454545455","79.5454545455","726.75","726.75","black","no","xpyriment","legacy","legacy","0","207","NA","uniform","72446","1000","0.0138033845899","1","undefined","1","0","43","43","43","0","43","43","43","NA","43","43","0","43","NA","43","43","0","43","NA","43","NA","43","0","0","43","43","0","43","43","44","/","03/02/19 15:27:05","The main experiment item","yes","FIN__BA__M21__7%3A10%3A17.osexp","C:\Users\ERP Testing Room\Desktop\Joanna\morph21","no","mono","no","18","no","white","no","yes","1080","legacy","43","43","C:/Users/ERP Testing Room/Desktop/Joanna/morph21/subject-164.csv","xpyriment","Kafkaesque Koffka","3.2.5","0","/","NA","NA","NA","NA","space","/","544","NA","NA","NA","NA","195229","544","2","legacy","1024","2","48000","-16","BA_m21","164","even","FILL_W","BRISK","1933","355324","353649","347866","197173","NA","NA","NA","NA","355322","354147","NA","353149","NA","353143","355322","1944","355674","NA","NA","354333","1933","1933","354724","353143","1933","354333","355674","morph21_Oliver/Morris","35","31977","44","yes","1280","8"
"400","80","80","728.266666667","728.266666667","black","no","xpyriment","legacy","legacy","0","201","NA","uniform","59936","1000","0.0166844634277","1","undefined","1","0","44","44","44","0","44","44","44","NA","44","44","0","44","NA","44","44","0","44","NA","44","NA","44","0","0","44","44","0","44","44","45","/","03/02/19 15:27:05","The main experiment item","yes","FIN__BA__M21__7%3A10%3A17.osexp","C:\Users\ERP Testing Room\Desktop\Joanna\morph21","no","mono","no","18","no","white","no","yes","1080","legacy","44","44","C:/Users/ERP Testing Room/Desktop/Joanna/morph21/subject-164.csv","xpyriment","Kafkaesque Koffka","3.2.5","0","/","NA","NA","NA","NA","space","/","795","NA","NA","NA","NA","195229","795","2","legacy","1024","2","48000","-16","BA_m21","164","even","CW_S","RAIDER","1933","359966","356758","358458","197173","NA","NA","NA","NA","358451","357255","NA","356258","NA","356250","358451","1944","360367","NA","NA","357458","1933","1933","357850","356250","1933","357458","360367","morph21_Oliver/Morris","36","32772","45","yes","1280","12"
"350","80.4347826087","80.4347826087","729.673913043","729.673913043","black","no","xpyriment","legacy","legacy","0","206","NA","uniform","62078","1000","0.0161087663907","1","undefined","1","0","45","45","45","0","45","45","45","NA","45","45","0","45","NA","45","45","0","45","NA","45","NA","45","0","0","45","45","0","45","45","46","z","03/02/19 15:27:05","The main experiment item","yes","FIN__BA__M21__7%3A10%3A17.osexp","C:\Users\ERP Testing Room\Desktop\Joanna\morph21","no","mono","no","18","no","white","no","yes","1080","legacy","45","45","C:/Users/ERP Testing Room/Desktop/Joanna/morph21/subject-164.csv","xpyriment","Kafkaesque Koffka","3.2.5","0","z","NA","NA","NA","NA","space","z","793","NA","NA","NA","NA","195229","793","2","legacy","1024","2","48000","-16","BA_m21","164","even","NW_L_SIMP","WITCHISH","1933","363117","361459","358458","197173","NA","NA","NA","NA","363113","361956","NA","360959","NA","360947","363113","1944","363467","NA","NA","362117","1933","1933","362517","360947","1933","362117","363467","morph21_Oliver/Morris","37","33565","46","yes","1280","11"
"400","80.8510638298","80.8510638298","732.212765957","732.212765957","black","no","xpyriment","legacy","legacy","0","204","NA","uniform","60715","1000","0.0164703944659","1","undefined","1","0","46","46","46","0","46","46","46","NA","46","46","0","46","NA","46","46","0","46","NA","46","NA","46","0","0","46","46","0","46","46","47","z","03/02/19 15:27:05","The main experiment item","yes","FIN__BA__M21__7%3A10%3A17.osexp","C:\Users\ERP Testing Room\Desktop\Joanna\morph21","no","mono","no","18","no","white","no","yes","1080","legacy","46","46","C:/Users/ERP Testing Room/Desktop/Joanna/morph21/subject-164.csv","xpyriment","Kafkaesque Koffka","3.2.5","0","z","NA","NA","NA","NA","space","z","849","NA","NA","NA","NA","195229","849","2","legacy","1024","2","48000","-16","BA_m21","164","even","NW_L_COMP","ANGELITH","1933","366284","364609","358458","197173","NA","NA","NA","NA","366275","365106","NA","364109","NA","364104","366275","1944","366684","NA","NA","365284","1933","1933","365676","364103","1933","365284","366684","morph21_Oliver/Morris","38","34414","47","yes","1280","7"
"400","79.1666666667","79.1666666667","727.708333333","727.708333333","black","no","xpyriment","legacy","legacy","0","208","NA","uniform","68081","1000","0.0146883858933","0","undefined","0","0","47","47","47","0","47","47","47","NA","47","47","0","47","NA","47","47","0","47","NA","47","NA","47","0","0","47","47","0","47","47","48","z","03/02/19 15:27:05","The main experiment item","yes","FIN__BA__M21__7%3A10%3A17.osexp","C:\Users\ERP Testing Room\Desktop\Joanna\morph21","no","mono","no","18","no","white","no","yes","1080","legacy","47","47","C:/Users/ERP Testing Room/Desktop/Joanna/morph21/subject-164.csv","xpyriment","Kafkaesque Koffka","3.2.5","0","/","NA","NA","NA","NA","space","/","516","NA","NA","NA","NA","195229","516","2","legacy","1024","2","48000","-16","BA_m21","164","even","FILL_NW","DROES","1933","371093","367901","369584","197173","NA","NA","NA","NA","366275","368398","NA","367401","NA","367392","369574","1944","371493","NA","NA","368585","1933","1933","368976","367392","1933","368584","371493","morph21_Oliver/Morris","38","34930","48","yes","1280","17"
"250","79.5918367347","79.5918367347","731.510204082","731.510204082","black","no","xpyriment","legacy","legacy","0","208","NA","uniform","55742","1000","0.0179397940512","1","undefined","1","0","48","48","48","0","48","48","48","NA","48","48","0","48","NA","48","48","0","48","NA","48","NA","48","0","0","48","48","0","48","48","49","z","03/02/19 15:27:05","The main experiment item","yes","FIN__BA__M21__7%3A10%3A17.osexp","C:\Users\ERP Testing Room\Desktop\Joanna\morph21","no","mono","no","18","no","white","no","yes","1080","legacy","48","48","C:/Users/ERP Testing Room/Desktop/Joanna/morph21/subject-164.csv","xpyriment","Kafkaesque Koffka","3.2.5","0","z","NA","NA","NA","NA","space","z","914","NA","NA","NA","NA","195229","914","2","legacy","1024","2","48000","-16","BA_m21","164","even","FILL_NW","BUWL","1933","374251","372584","369584","197173","NA","NA","NA","NA","374244","373082","NA","372085","NA","372074","374244","1944","374501","NA","NA","373251","1933","1933","373643","372074","1933","373251","374501","morph21_Oliver/Morris","39","35844","49","yes","1280","9"
"250","80","80","730.1","730.1","black","no","xpyriment","legacy","legacy","0","207","NA","uniform","63426","1000","0.0157664049443","1","undefined","1","0","49","49","49","0","49","49","49","NA","49","49","0","49","NA","49","49","0","49","NA","49","NA","49","0","0","49","49","0","49","49","50","/","03/02/19 15:27:05","The main experiment item","yes","FIN__BA__M21__7%3A10%3A17.osexp","C:\Users\ERP Testing Room\Desktop\Joanna\morph21","no","mono","no","18","no","white","no","yes","1080","legacy","49","49","C:/Users/ERP Testing Room/Desktop/Joanna/morph21/subject-164.csv","xpyriment","Kafkaesque Koffka","3.2.5","0","/","NA","NA","NA","NA","space","/","661","NA","NA","NA","NA","195229","661","2","legacy","1024","2","48000","-16","BA_m21","164","even","FILL_W","PACK","1933","377368","375693","369584","197173","NA","NA","NA","NA","377358","376190","NA","375193","NA","375185","377358","1944","377618","NA","NA","376368","1933","1933","376760","375184","1933","376368","377618","morph21_Oliver/Morris","40","36505","50","yes","1280","41"
"200","80.3921568627","80.3921568627","731.274509804","731.274509804","black","no","xpyriment","legacy","legacy","0","201","NA","uniform","57678","1000","0.0173376330663","1","undefined","1","0","50","50","50","0","50","50","50","NA","50","50","0","50","NA","50","50","0","50","NA","50","NA","50","0","0","50","50","0","50","50","51","/","03/02/19 15:27:05","The main experiment item","yes","FIN__BA__M21__7%3A10%3A17.osexp","C:\Users\ERP Testing Room\Desktop\Joanna\morph21","no","mono","no","18","no","white","no","yes","1080","legacy","50","50","C:/Users/ERP Testing Room/Desktop/Joanna/morph21/subject-164.csv","xpyriment","Kafkaesque Koffka","3.2.5","0","/","NA","NA","NA","NA","space","/","790","NA","NA","NA","NA","195229","790","2","legacy","1024","2","48000","-16","BA_m21","164","even","CW_S","AMUSEMENT","1933","382019","378836","380511","197173","NA","NA","NA","NA","380505","379333","NA","378327","NA","378316","380505","1944","382219","NA","NA","379511","1933","1933","379902","378316","1933","379511","382219","morph21_Oliver/Morris","41","37295","51","yes","1280","38"
"300","80.7692307692","80.7692307692","731.519230769","731.519230769","black","no","xpyriment","legacy","legacy","0","204","NA","uniform","59569","1000","0.0167872551159","1","undefined","1","0","51","51","51","0","51","51","51","NA","51","51","0","51","NA","51","51","0","51","NA","51","NA","51","0","0","51","51","0","51","51","52","z","03/02/19 15:27:05","The main experiment item","yes","FIN__BA__M21__7%3A10%3A17.osexp","C:\Users\ERP Testing Room\Desktop\Joanna\morph21","no","mono","no","18","no","white","no","yes","1080","legacy","51","51","C:/Users/ERP Testing Room/Desktop/Joanna/morph21/subject-164.csv","xpyriment","Kafkaesque Koffka","3.2.5","0","z","NA","NA","NA","NA","space","z","744","NA","NA","NA","NA","195229","744","2","legacy","1024","2","48000","-16","BA_m21","164","even","NW_L_COMP","EMPLOYNELS","1933","385061","383378","380511","197173","NA","NA","NA","NA","385051","383875","NA","382878","NA","382869","385051","1944","385361","NA","NA","384061","1933","1933","384453","382869","1933","384061","385361","morph21_Oliver/Morris","42","38039","52","yes","1280","21"
"400","79.2452830189","79.2452830189","736.433962264","736.433962264","black","no","xpyriment","legacy","legacy","0","205","NA","uniform","54461","1000","0.0183617634638","0","undefined","0","0","52","52","52","0","52","52","52","NA","52","52","0","52","NA","52","52","0","52","NA","52","NA","52","0","0","52","52","0","52","52","53","z","03/02/19 15:27:05","The main experiment item","yes","FIN__BA__M21__7%3A10%3A17.osexp","C:\Users\ERP Testing Room\Desktop\Joanna\morph21","no","mono","no","18","no","white","no","yes","1080","legacy","52","52","C:/Users/ERP Testing Room/Desktop/Joanna/morph21/subject-164.csv","xpyriment","Kafkaesque Koffka","3.2.5","0","None","NA","NA","NA","NA","space","None","992","NA","NA","NA","NA","195229","992","2","legacy","1024","2","48000","-16","BA_m21","164","even","NW_S_SIMP","MEDICALARY","1933","388094","386444","380511","197173","NA","NA","NA","NA","385051","386942","NA","385944","NA","385940","388087","1944","388494","NA","NA","387094","1933","1933","387486","385940","1933","387094","388494","morph21_Oliver/Morris","42","39031","53","yes","1280","18"
"300","77.7777777778","77.7777777778","741.166666667","741.166666667","black","no","xpyriment","legacy","legacy","0","208","NA","uniform","53413","1000","0.0187220339618","0","undefined","0","0","53","53","53","0","53","53","53","NA","53","53","0","53","NA","53","53","0","53","NA","53","NA","53","0","0","53","53","0","53","53","54","z","03/02/19 15:27:05","The main experiment item","yes","FIN__BA__M21__7%3A10%3A17.osexp","C:\Users\ERP Testing Room\Desktop\Joanna\morph21","no","mono","no","18","no","white","no","yes","1080","legacy","53","53","C:/Users/ERP Testing Room/Desktop/Joanna/morph21/subject-164.csv","xpyriment","Kafkaesque Koffka","3.2.5","0","None","NA","NA","NA","NA","space","None","992","NA","NA","NA","NA","195229","992","2","legacy","1024","2","48000","-16","BA_m21","164","even","FILL_NW","DULKS","1933","392861","389703","391353","197173","NA","NA","NA","NA","385051","390200","NA","389203","NA","389199","391346","1944","393162","NA","NA","390353","1933","1933","390745","389199","1933","390353","393162","morph21_Oliver/Morris","42","40023","54","yes","1280","18"
"350","78.1818181818","78.1818181818","739.963636364","739.963636364","black","no","xpyriment","legacy","legacy","0","201","NA","uniform","59847","1000","0.0167092753187","1","undefined","1","0","54","54","54","0","54","54","54","NA","54","54","0","54","NA","54","54","0","54","NA","54","NA","54","0","0","54","54","0","54","54","55","/","03/02/19 15:27:05","The main experiment item","yes","FIN__BA__M21__7%3A10%3A17.osexp","C:\Users\ERP Testing Room\Desktop\Joanna\morph21","no","mono","no","18","no","white","no","yes","1080","legacy","54","54","C:/Users/ERP Testing Room/Desktop/Joanna/morph21/subject-164.csv","xpyriment","Kafkaesque Koffka","3.2.5","0","/","NA","NA","NA","NA","space","/","675","NA","NA","NA","NA","195229","675","2","legacy","1024","2","48000","-16","BA_m21","164","even","CW_S","STRANGENESS","1933","395996","394328","391353","197173","NA","NA","NA","NA","395993","394825","NA","393828","NA","393823","395993","1944","396346","NA","NA","395003","1933","1933","395396","393823","1933","395003","396346","morph21_Oliver/Morris","43","40698","55","yes","1280","46"
"300","78.5714285714","78.5714285714","739.696428571","739.696428571","black","no","xpyriment","legacy","legacy","0","201","NA","uniform","58194","1000","0.0171839021205","1","undefined","1","0","55","55","55","0","55","55","55","NA","55","55","0","55","NA","55","55","0","55","NA","55","NA","55","0","0","55","55","0","55","55","56","/","03/02/19 15:27:05","The main experiment item","yes","FIN__BA__M21__7%3A10%3A17.osexp","C:\Users\ERP Testing Room\Desktop\Joanna\morph21","no","mono","no","18","no","white","no","yes","1080","legacy","55","55","C:/Users/ERP Testing Room/Desktop/Joanna/morph21/subject-164.csv","xpyriment","Kafkaesque Koffka","3.2.5","0","/","NA","NA","NA","NA","space","/","725","NA","NA","NA","NA","195229","725","2","legacy","1024","2","48000","-16","BA_m21","164","even","CW_S","DETECTABLE","1933","399296","397588","391353","197173","NA","NA","NA","NA","399287","398085","NA","397088","NA","397084","399287","1944","399596","NA","NA","398296","1933","1933","398688","397084","1933","398296","399596","morph21_Oliver/Morris","44","41423","56","yes","1280","1"
"300","78.9473684211","78.9473684211","736.754385965","736.754385965","black","no","xpyriment","legacy","legacy","0","207","NA","uniform","70152","1000","0.0142547610902","1","undefined","1","0","56","56","56","0","56","56","56","NA","56","56","0","56","NA","56","56","0","56","NA","56","NA","56","0","0","56","56","0","56","56","57","/","03/02/19 15:27:05","The main experiment item","yes","FIN__BA__M21__7%3A10%3A17.osexp","C:\Users\ERP Testing Room\Desktop\Joanna\morph21","no","mono","no","18","no","white","no","yes","1080","legacy","56","56","C:/Users/ERP Testing Room/Desktop/Joanna/morph21/subject-164.csv","xpyriment","Kafkaesque Koffka","3.2.5","0","/","NA","NA","NA","NA","space","/","572","NA","NA","NA","NA","195229","572","2","legacy","1024","2","48000","-16","BA_m21","164","even","FILL_W","BLUNT","1933","404021","400854","402513","197173","NA","NA","NA","NA","402510","401352","NA","400354","NA","400348","402510","1944","404321","NA","NA","401521","1933","1933","401913","400348","1933","401521","404321","morph21_Oliver/Morris","45","41995","57","yes","1280","4"
"350","79.3103448276","79.3103448276","732.362068966","732.362068966","black","no","xpyriment","legacy","legacy","0","207","NA","uniform","71712","1000","0.0139446675591","1","undefined","1","0","57","57","57","0","57","57","57","NA","57","57","0","57","NA","57","57","0","57","NA","57","NA","57","0","0","57","57","0","57","57","58","/","03/02/19 15:27:05","The main experiment item","yes","FIN__BA__M21__7%3A10%3A17.osexp","C:\Users\ERP Testing Room\Desktop\Joanna\morph21","no","mono","no","18","no","white","no","yes","1080","legacy","57","57","C:/Users/ERP Testing Room/Desktop/Joanna/morph21/subject-164.csv","xpyriment","Kafkaesque Koffka","3.2.5","0","/","NA","NA","NA","NA","space","/","482","NA","NA","NA","NA","195229","482","2","legacy","1024","2","48000","-16","BA_m21","164","even","FILL_W","LIFT","1933","407155","405488","402513","197173","NA","NA","NA","NA","407151","405985","NA","404980","NA","404970","407151","1944","407505","NA","NA","406155","1933","1933","406555","404970","1933","406155","407505","morph21_Oliver/Morris","46","42477","58","yes","1280","39"
"300","77.9661016949","77.9661016949","728.661016949","728.661016949","black","no","xpyriment","legacy","legacy","0","206","NA","uniform","70967","1000","0.0140910564065","0","undefined","0","0","58","58","58","0","58","58","58","NA","58","58","0","58","NA","58","58","0","58","NA","58","NA","58","0","0","58","58","0","58","58","59","z","03/02/19 15:27:05","The main experiment item","yes","FIN__BA__M21__7%3A10%3A17.osexp","C:\Users\ERP Testing Room\Desktop\Joanna\morph21","no","mono","no","18","no","white","no","yes","1080","legacy","58","58","C:/Users/ERP Testing Room/Desktop/Joanna/morph21/subject-164.csv","xpyriment","Kafkaesque Koffka","3.2.5","0","/","NA","NA","NA","NA","space","/","514","NA","NA","NA","NA","195229","514","2","legacy","1024","2","48000","-16","BA_m21","164","even","NW_L_SIMP","TAXFUL","1933","410355","408705","402513","197173","NA","NA","NA","NA","407151","409202","NA","408205","NA","408197","410348","1944","410655","NA","NA","409355","1933","1933","409746","408197","1933","409355","410655","morph21_Oliver/Morris","46","42991","59","yes","1280","6"
"250","78.3333333333","78.3333333333","728.733333333","728.733333333","black","no","xpyriment","legacy","legacy","0","207","NA","uniform","64414","1000","0.0155245754029","1","undefined","1","0","59","59","59","0","59","59","59","NA","59","59","0","59","NA","59","59","0","59","NA","59","NA","59","0","0","59","59","0","59","59","60","/","03/02/19 15:27:05","The main experiment item","yes","FIN__BA__M21__7%3A10%3A17.osexp","C:\Users\ERP Testing Room\Desktop\Joanna\morph21","no","mono","no","18","no","white","no","yes","1080","legacy","59","59","C:/Users/ERP Testing Room/Desktop/Joanna/morph21/subject-164.csv","xpyriment","Kafkaesque Koffka","3.2.5","0","/","NA","NA","NA","NA","space","/","733","NA","NA","NA","NA","195229","733","2","legacy","1024","2","48000","-16","BA_m21","164","even","FILL_W","FIERCE","1933","415014","411838","413506","197173","NA","NA","NA","NA","413501","412335","NA","411338","NA","411327","413501","1944","415265","NA","NA","412513","1933","1933","412906","411327","1933","412513","415265","morph21_Oliver/Morris","47","43724","60","yes","1280","24"
"200","78.6885245902","78.6885245902","729.081967213","729.081967213","black","no","xpyriment","legacy","legacy","0","203","NA","uniform","61661","1000","0.0162177064919","1","undefined","1","0","60","60","60","0","60","60","60","NA","60","60","0","60","NA","60","60","0","60","NA","60","NA","60","0","0","60","60","0","60","60","61","z","03/02/19 15:27:05","The main experiment item","yes","FIN__BA__M21__7%3A10%3A17.osexp","C:\Users\ERP Testing Room\Desktop\Joanna\morph21","no","mono","no","18","no","white","no","yes","1080","legacy","60","60","C:/Users/ERP Testing Room/Desktop/Joanna/morph21/subject-164.csv","xpyriment","Kafkaesque Koffka","3.2.5","0","z","NA","NA","NA","NA","space","z","750","NA","NA","NA","NA","195229","750","2","legacy","1024","2","48000","-16","BA_m21","164","even","NW_S_COMP","HAPPENANGE","1933","418023","416373","413506","197173","NA","NA","NA","NA","418018","416870","NA","415873","NA","415865","418018","1944","418223","NA","NA","417023","1933","1933","417423","415865","1933","417023","418223","morph21_Oliver/Morris","48","44474","61","yes","1280","2"
"350","77.4193548387","77.4193548387","733.403225806","733.403225806","black","no","xpyriment","legacy","legacy","0","201","NA","uniform","54369","1000","0.0183928341518","0","undefined","0","0","61","61","61","0","61","61","61","NA","61","61","0","61","NA","61","61","0","61","NA","61","NA","61","0","0","61","61","0","61","61","62","/","03/02/19 15:27:05","The main experiment item","yes","FIN__BA__M21__7%3A10%3A17.osexp","C:\Users\ERP Testing Room\Desktop\Joanna\morph21","no","mono","no","18","no","white","no","yes","1080","legacy","61","61","C:/Users/ERP Testing Room/Desktop/Joanna/morph21/subject-164.csv","xpyriment","Kafkaesque Koffka","3.2.5","0","None","NA","NA","NA","NA","space","None","997","NA","NA","NA","NA","195229","997","2","legacy","1024","2","48000","-16","BA_m21","164","even","CW_S","TOASTER","1933","421006","419331","413506","197173","NA","NA","NA","NA","418018","419828","NA","418831","NA","418822","421003","1944","421356","NA","NA","420006","1933","1933","420406","418822","1933","420006","421356","morph21_Oliver/Morris","48","45471","62","yes","1280","10"
"200","76.1904761905","76.1904761905","737.507936508","737.507936508","black","no","xpyriment","legacy","legacy","0","204","NA","uniform","53739","1000","0.0186084594056","0","undefined","0","0","62","62","62","0","62","62","62","NA","62","62","0","62","NA","62","62","0","62","NA","62","NA","62","0","0","62","62","0","62","62","63","z","03/02/19 15:27:05","The main experiment item","yes","FIN__BA__M21__7%3A10%3A17.osexp","C:\Users\ERP Testing Room\Desktop\Joanna\morph21","no","mono","no","18","no","white","no","yes","1080","legacy","62","62","C:/Users/ERP Testing Room/Desktop/Joanna/morph21/subject-164.csv","xpyriment","Kafkaesque Koffka","3.2.5","0","None","NA","NA","NA","NA","space","None","992","NA","NA","NA","NA","195229","992","2","legacy","1024","2","48000","-16","BA_m21","164","even","NW_L_COMP","GASFIL","1933","425748","422590","424240","197173","NA","NA","NA","NA","418018","423087","NA","422090","NA","422080","424232","1944","425948","NA","NA","423240","1933","1933","423631","422080","1933","423240","425948","morph21_Oliver/Morris","48","46463","63","yes","1280","6"
"350","76.5625","76.5625","738.328125","738.328125","black","no","xpyriment","legacy","legacy","0","202","NA","uniform","60915","1000","0.0164163178199","1","undefined","1","0","63","63","63","0","63","63","63","NA","63","63","0","63","NA","63","63","0","63","NA","63","NA","63","0","0","63","63","0","63","63","64","/","03/02/19 15:27:05","The main experiment item","yes","FIN__BA__M21__7%3A10%3A17.osexp","C:\Users\ERP Testing Room\Desktop\Joanna\morph21","no","mono","no","18","no","white","no","yes","1080","legacy","63","63","C:/Users/ERP Testing Room/Desktop/Joanna/morph21/subject-164.csv","xpyriment","Kafkaesque Koffka","3.2.5","0","/","NA","NA","NA","NA","space","/","790","NA","NA","NA","NA","195229","790","2","legacy","1024","2","48000","-16","BA_m21","164","even","CW_L","FEEDER","1933","428815","427115","424240","197173","NA","NA","NA","NA","428810","427612","NA","426615","NA","426610","428810","1944","429165","NA","NA","427815","1933","1933","428215","426610","1933","427815","429165","morph21_Oliver/Morris","49","47253","64","yes","1280","14"
"350","76.9230769231","76.9230769231","737.523076923","737.523076923","black","no","xpyriment","legacy","legacy","0","201","NA","uniform","62729","1000","0.0159415900142","1","undefined","1","0","64","64","64","0","64","64","64","NA","64","64","0","64","NA","64","64","0","64","NA","64","NA","64","0","0","64","64","0","64","64","65","/","03/02/19 15:27:05","The main experiment item","yes","FIN__BA__M21__7%3A10%3A17.osexp","C:\Users\ERP Testing Room\Desktop\Joanna\morph21","no","mono","no","18","no","white","no","yes","1080","legacy","64","64","C:/Users/ERP Testing Room/Desktop/Joanna/morph21/subject-164.csv","xpyriment","Kafkaesque Koffka","3.2.5","0","/","NA","NA","NA","NA","space","/","686","NA","NA","NA","NA","195229","686","2","legacy","1024","2","48000","-16","BA_m21","164","even","CW_S","BOSSY","1933","432008","430358","424240","197173","NA","NA","NA","NA","432003","430855","NA","429857","NA","429851","432003","1944","432358","NA","NA","431008","1933","1933","431408","429850","1933","431008","432358","morph21_Oliver/Morris","50","47939","65","yes","1280","49"
"250","77.2727272727","77.2727272727","739.878787879","739.878787879","black","no","xpyriment","legacy","legacy","0","202","NA","uniform","58087","1000","0.0172155559764","1","undefined","1","0","65","65","65","0","65","65","65","NA","65","65","0","65","NA","65","65","0","65","NA","65","NA","65","0","0","65","65","0","65","65","66","/","03/02/19 15:27:05","The main experiment item","yes","FIN__BA__M21__7%3A10%3A17.osexp","C:\Users\ERP Testing Room\Desktop\Joanna\morph21","no","mono","no","18","no","white","no","yes","1080","legacy","65","65","C:/Users/ERP Testing Room/Desktop/Joanna/morph21/subject-164.csv","xpyriment","Kafkaesque Koffka","3.2.5","0","/","NA","NA","NA","NA","space","/","893","NA","NA","NA","NA","195229","893","2","legacy","1024","2","48000","-16","BA_m21","164","even","CW_L","LAUGHING","1933","436725","433566","435216","197173","NA","NA","NA","NA","435210","434063","NA","433066","NA","433061","435210","1944","436975","NA","NA","434216","1933","1933","434608","433061","1933","434216","436975","morph21_Oliver/Morris","51","48832","66","yes","1280","27"
"250","77.6119402985","77.6119402985","736.970149254","736.970149254","black","no","xpyriment","legacy","legacy","0","207","NA","uniform","71527","1000","0.0139807345478","1","undefined","1","0","66","66","66","0","66","66","66","NA","66","66","0","66","NA","66","66","0","66","NA","66","NA","66","0","0","66","66","0","66","66","67","/","03/02/19 15:27:05","The main experiment item","yes","FIN__BA__M21__7%3A10%3A17.osexp","C:\Users\ERP Testing Room\Desktop\Joanna\morph21","no","mono","no","18","no","white","no","yes","1080","legacy","66","66","C:/Users/ERP Testing Room/Desktop/Joanna/morph21/subject-164.csv","xpyriment","Kafkaesque Koffka","3.2.5","0","/","NA","NA","NA","NA","space","/","545","NA","NA","NA","NA","195229","545","2","legacy","1024","2","48000","-16","BA_m21","164","even","FILL_W","TASTE","1933","439708","438041","435216","197173","NA","NA","NA","NA","439699","438538","NA","437541","NA","437534","439699","1944","439958","NA","NA","438708","1933","1933","439100","437534","1933","438708","439958","morph21_Oliver/Morris","52","49377","67","yes","1280","34"
"250","77.9411764706","77.9411764706","731.794117647","731.794117647","black","no","xpyriment","legacy","legacy","0","207","NA","uniform","77042","1000","0.0129799330235","1","undefined","1","0","67","67","67","0","67","67","67","NA","67","67","0","67","NA","67","67","0","67","NA","67","NA","67","0","0","67","67","0","67","67","68","/","03/02/19 15:27:05","The main experiment item","yes","FIN__BA__M21__7%3A10%3A17.osexp","C:\Users\ERP Testing Room\Desktop\Joanna\morph21","no","mono","no","18","no","white","no","yes","1080","legacy","67","67","C:/Users/ERP Testing Room/Desktop/Joanna/morph21/subject-164.csv","xpyriment","Kafkaesque Koffka","3.2.5","0","/","NA","NA","NA","NA","space","/","385","NA","NA","NA","NA","195229","385","2","legacy","1024","2","48000","-16","BA_m21","164","even","FILL_W","TREAT","1933","442708","441041","435216","197173","NA","NA","NA","NA","442699","441539","NA","440541","NA","440530","442699","1944","442958","NA","NA","441708","1933","1933","442100","440530","1933","441708","442958","morph21_Oliver/Morris","53","49762","68","yes","1280","48"
"300","78.2608695652","78.2608695652","731.652173913","731.652173913","black","no","xpyriment","legacy","legacy","0","201","NA","uniform","62781","1000","0.0159283859766","1","undefined","1","0","68","68","68","0","68","68","68","NA","68","68","0","68","NA","68","68","0","68","NA","68","NA","68","0","0","68","68","0","68","68","69","/","03/02/19 15:27:05","The main experiment item","yes","FIN__BA__M21__7%3A10%3A17.osexp","C:\Users\ERP Testing Room\Desktop\Joanna\morph21","no","mono","no","18","no","white","no","yes","1080","legacy","68","68","C:/Users/ERP Testing Room/Desktop/Joanna/morph21/subject-164.csv","xpyriment","Kafkaesque Koffka","3.2.5","0","/","NA","NA","NA","NA","space","/","722","NA","NA","NA","NA","195229","722","2","legacy","1024","2","48000","-16","BA_m21","164","even","CW_S","INSISTENT","1933","447375","444233","445867","197173","NA","NA","NA","NA","445862","444730","NA","443733","NA","443727","445862","1944","447675","NA","NA","444867","1933","1933","445267","443727","1933","444867","447675","morph21_Oliver/Morris","54","50484","69","yes","1280","9"
"350","78.5714285714","78.5714285714","729.442857143","729.442857143","black","no","xpyriment","legacy","legacy","0","207","NA","uniform","68653","1000","0.0145660058555","1","undefined","1","0","69","69","69","0","69","69","69","NA","69","69","0","69","NA","69","69","0","69","NA","69","NA","69","0","0","69","69","0","69","69","70","/","03/02/19 15:27:05","The main experiment item","yes","FIN__BA__M21__7%3A10%3A17.osexp","C:\Users\ERP Testing Room\Desktop\Joanna\morph21","no","mono","no","18","no","white","no","yes","1080","legacy","69","69","C:/Users/ERP Testing Room/Desktop/Joanna/morph21/subject-164.csv","xpyriment","Kafkaesque Koffka","3.2.5","0","/","NA","NA","NA","NA","space","/","577","NA","NA","NA","NA","195229","577","2","legacy","1024","2","48000","-16","BA_m21","164","even","FILL_W","GLOOM","1933","450493","448801","445867","197173","NA","NA","NA","NA","450489","449298","NA","448301","NA","448294","450489","1944","450843","NA","NA","449493","1933","1933","449893","448294","1933","449493","450843","morph21_Oliver/Morris","55","51061","70","yes","1280","14"
"350","78.8732394366","78.8732394366","731.788732394","731.788732394","black","no","xpyriment","legacy","legacy","0","208","NA","uniform","58198","1000","0.0171827210557","1","undefined","1","0","70","70","70","0","70","70","70","NA","70","70","0","70","NA","70","70","0","70","NA","70","NA","70","0","0","70","70","0","70","70","71","z","03/02/19 15:27:05","The main experiment item","yes","FIN__BA__M21__7%3A10%3A17.osexp","C:\Users\ERP Testing Room\Desktop\Joanna\morph21","no","mono","no","18","no","white","no","yes","1080","legacy","70","70","C:/Users/ERP Testing Room/Desktop/Joanna/morph21/subject-164.csv","xpyriment","Kafkaesque Koffka","3.2.5","0","z","NA","NA","NA","NA","space","z","896","NA","NA","NA","NA","195229","896","2","legacy","1024","2","48000","-16","BA_m21","164","even","FILL_NW","JADS","1933","453693","452043","445867","197173","NA","NA","NA","NA","453688","452540","NA","451543","NA","451537","453688","1944","454043","NA","NA","452693","1933","1933","453093","451537","1933","452693","454043","morph21_Oliver/Morris","56","51957","71","yes","1280","31"
"350","77.7777777778","77.7777777778","735.347222222","735.347222222","black","no","xpyriment","legacy","legacy","0","203","NA","uniform","54759","1000","0.0182618382366","0","undefined","0","0","71","71","71","0","71","71","71","NA","71","71","0","71","NA","71","71","0","71","NA","71","NA","71","0","0","71","71","0","71","71","72","z","03/02/19 15:27:05","The main experiment item","yes","FIN__BA__M21__7%3A10%3A17.osexp","C:\Users\ERP Testing Room\Desktop\Joanna\morph21","no","mono","no","18","no","white","no","yes","1080","legacy","71","71","C:/Users/ERP Testing Room/Desktop/Joanna/morph21/subject-164.csv","xpyriment","Kafkaesque Koffka","3.2.5","0","None","NA","NA","NA","NA","space","None","988","NA","NA","NA","NA","195229","988","2","legacy","1024","2","48000","-16","BA_m21","164","even","NW_S_COMP","PRINCEMANT","1933","458293","455110","456785","197173","NA","NA","NA","NA","453688","455607","NA","454610","NA","454606","456781","1944","458643","NA","NA","455793","1933","1933","456185","454606","1933","455793","458643","morph21_Oliver/Morris","56","52945","72","yes","1280","17"
"250","76.7123287671","76.7123287671","738.890410959","738.890410959","black","no","xpyriment","legacy","legacy","0","205","NA","uniform","57731","1000","0.0173217162356","0","undefined","0","0","72","72","72","0","72","72","72","NA","72","72","0","72","NA","72","72","0","72","NA","72","NA","72","0","0","72","72","0","72","72","73","z","03/02/19 15:27:05","The main experiment item","yes","FIN__BA__M21__7%3A10%3A17.osexp","C:\Users\ERP Testing Room\Desktop\Joanna\morph21","no","mono","no","18","no","white","no","yes","1080","legacy","72","72","C:/Users/ERP Testing Room/Desktop/Joanna/morph21/subject-164.csv","xpyriment","Kafkaesque Koffka","3.2.5","0","None","NA","NA","NA","NA","space","None","994","NA","NA","NA","NA","195229","994","2","legacy","1024","2","48000","-16","BA_m21","164","even","NW_S_SIMP","ZOOMFUL","1933","461402","459718","456785","197173","NA","NA","NA","NA","453688","460215","NA","459218","NA","459214","461397","1944","461652","NA","NA","460402","1933","1933","460802","459214","1933","460402","461652","morph21_Oliver/Morris","56","53939","73","yes","1280","19"
"400","77.027027027","77.027027027","740.027027027","740.027027027","black","no","xpyriment","legacy","legacy","0","208","NA","uniform","61541","1000","0.0162493297151","1","undefined","1","0","73","73","73","0","73","73","73","NA","73","73","0","73","NA","73","73","0","73","NA","73","NA","73","0","0","73","73","0","73","73","74","z","03/02/19 15:27:05","The main experiment item","yes","FIN__BA__M21__7%3A10%3A17.osexp","C:\Users\ERP Testing Room\Desktop\Joanna\morph21","no","mono","no","18","no","white","no","yes","1080","legacy","73","73","C:/Users/ERP Testing Room/Desktop/Joanna/morph21/subject-164.csv","xpyriment","Kafkaesque Koffka","3.2.5","0","z","NA","NA","NA","NA","space","z","823","NA","NA","NA","NA","195229","823","2","legacy","1024","2","48000","-16","BA_m21","164","even","FILL_NW","ULNS","1933","464518","462802","456785","197173","NA","NA","NA","NA","464509","463299","NA","462293","NA","462283","464509","1944","464918","NA","NA","463518","1933","1933","463910","462283","1933","463518","464918","morph21_Oliver/Morris","57","54762","74","yes","1280","45"
"200","77.3333333333","77.3333333333","740.866666667","740.866666667","black","no","xpyriment","legacy","legacy","0","204","NA","uniform","58348","1000","0.0171385480222","undefined","undefined","1","0","74","74","74","0","74","74","74","NA","74","74","0","74","NA","74","74","0","74","NA","74","NA","74","0","0","74","74","0","74","74","75","z","03/02/19 15:27:05","The main experiment item","yes","FIN__BA__M21__7%3A10%3A17.osexp","C:\Users\ERP Testing Room\Desktop\Joanna\morph21","no","mono","no","18","no","white","no","yes","1080","legacy","74","74","C:/Users/ERP Testing Room/Desktop/Joanna/morph21/subject-164.csv","xpyriment","Kafkaesque Koffka","3.2.5","0","space","space","NA","NA","NA","space","z","21414","21414","NA","NA","NA","195229","803","2","legacy","1024","2","48000","-16","BA_m21","164","even","NW_L_COMP","FLIPODY","1933","469303","466145","467795","197173","469511","NA","NA","NA","467792","466642","NA","465644","NA","465639","467792","1944","490926","NA","NA","466803","1933","1933","467195","465639","1933","466803","469503","morph21_Oliver/Morris","58","55565","75","yes","1280","16"
"300","77.6315789474","77.6315789474","738.039473684","738.039473684","black","no","xpyriment","legacy","legacy","0","201","NA","uniform","72233","1000","0.0138440878823","1","undefined","1","0","75","75","75","0","75","75","75","NA","75","75","0","75","NA","75","75","0","75","NA","75","NA","75","0","0","75","75","0","75","75","76","/","03/02/19 15:27:05","The main experiment item","yes","FIN__BA__M21__7%3A10%3A17.osexp","C:\Users\ERP Testing Room\Desktop\Joanna\morph21","no","mono","no","18","no","white","no","yes","1080","legacy","75","75","C:/Users/ERP Testing Room/Desktop/Joanna/morph21/subject-164.csv","xpyriment","Kafkaesque Koffka","3.2.5","0","/","space","NA","NA","NA","space","/","526","21414","NA","NA","NA","195229","526","2","legacy","1024","2","48000","-16","BA_m21","164","even","CW_S","GUILTY","1933","493647","491980","467795","197173","469511","NA","NA","NA","493637","492477","NA","491480","NA","491472","493637","1944","493947","NA","NA","492647","1933","1933","493038","491472","1933","492647","493947","morph21_Oliver/Morris","59","56091","76","yes","1280","34"
"300","77.9220779221","77.9220779221","740.428571429","740.428571429","black","no","xpyriment","legacy","legacy","0","204","NA","uniform","59425","1000","0.0168279343711","1","undefined","1","0","76","76","76","0","76","76","76","NA","76","76","0","76","NA","76","76","0","76","NA","76","NA","76","0","0","76","76","0","76","76","77","z","03/02/19 15:27:05","The main experiment item","yes","FIN__BA__M21__7%3A10%3A17.osexp","C:\Users\ERP Testing Room\Desktop\Joanna\morph21","no","mono","no","18","no","white","no","yes","1080","legacy","76","76","C:/Users/ERP Testing Room/Desktop/Joanna/morph21/subject-164.csv","xpyriment","Kafkaesque Koffka","3.2.5","0","z","space","NA","NA","NA","space","z","922","21414","NA","NA","NA","195229","922","2","legacy","1024","2","48000","-16","BA_m21","164","even","NW_L_COMP","SHEETEL","1933","496747","495097","467795","197173","469511","NA","NA","NA","496743","495594","NA","494597","NA","494590","496743","1944","497047","NA","NA","495747","1933","1933","496147","494590","1933","495747","497047","morph21_Oliver/Morris","60","57013","77","yes","1280","5"
"350","76.9230769231","76.9230769231","743.692307692","743.692307692","black","no","xpyriment","legacy","legacy","0","203","NA","uniform","56645","1000","0.0176538088093","0","undefined","0","0","77","77","77","0","77","77","77","NA","77","77","0","77","NA","77","77","0","77","NA","77","NA","77","0","0","77","77","0","77","77","78","z","03/02/19 15:27:05","The main experiment item","yes","FIN__BA__M21__7%3A10%3A17.osexp","C:\Users\ERP Testing Room\Desktop\Joanna\morph21","no","mono","no","18","no","white","no","yes","1080","legacy","77","77","C:/Users/ERP Testing Room/Desktop/Joanna/morph21/subject-164.csv","xpyriment","Kafkaesque Koffka","3.2.5","0","None","space","NA","NA","NA","space","None","995","21414","NA","NA","NA","195229","995","2","legacy","1024","2","48000","-16","BA_m21","164","even","NW_S_COMP","EJECTENGE","1933","501490","498322","499980","197173","469511","NA","NA","NA","496743","498819","NA","497822","NA","497813","499975","1944","501840","NA","NA","498980","1933","1933","499380","497813","1933","498980","501840","morph21_Oliver/Morris","60","58008","78","yes","1280","20"
"300","75.9493670886","75.9493670886","744.974683544","744.974683544","black","no","xpyriment","legacy","legacy","0","206","NA","uniform","59426","1000","0.0168276511964","0","undefined","0","0","78","78","78","0","78","78","78","NA","78","78","0","78","NA","78","78","0","78","NA","78","NA","78","0","0","78","78","0","78","78","79","z","03/02/19 15:27:05","The main experiment item","yes","FIN__BA__M21__7%3A10%3A17.osexp","C:\Users\ERP Testing Room\Desktop\Joanna\morph21","no","mono","no","18","no","white","no","yes","1080","legacy","78","78","C:/Users/ERP Testing Room/Desktop/Joanna/morph21/subject-164.csv","xpyriment","Kafkaesque Koffka","3.2.5","0","/","space","NA","NA","NA","space","/","845","21414","NA","NA","NA","195229","845","2","legacy","1024","2","48000","-16","BA_m21","164","even","NW_L_SIMP","LONGNESS","1933","504673","503023","499980","197173","469511","NA","NA","NA","496743","503520","NA","502523","NA","502519","504666","1944","504973","NA","NA","503673","1933","1933","504065","502519","1933","503673","504973","morph21_Oliver/Morris","60","58853","79","yes","1280","17"
"250","76.25","76.25","745.95","745.95","black","no","xpyriment","legacy","legacy","0","201","NA","uniform","63451","1000","0.0157601929048","1","undefined","1","0","79","79","79","0","79","79","79","NA","79","79","0","79","NA","79","79","0","79","NA","79","NA","79","0","0","79","79","0","79","79","80","/","03/02/19 15:27:05","The main experiment item","yes","FIN__BA__M21__7%3A10%3A17.osexp","C:\Users\ERP Testing Room\Desktop\Joanna\morph21","no","mono","no","18","no","white","no","yes","1080","legacy","79","79","C:/Users/ERP Testing Room/Desktop/Joanna/morph21/subject-164.csv","xpyriment","Kafkaesque Koffka","3.2.5","0","/","space","NA","NA","NA","space","/","823","21414","NA","NA","NA","195229","823","2","legacy","1024","2","48000","-16","BA_m21","164","even","CW_S","JAILER","1933","507773","506115","499980","197173","469511","NA","NA","NA","507771","506612","NA","505615","NA","505609","507771","1944","508023","NA","NA","506782","1933","1933","507173","505609","1933","506782","508023","morph21_Oliver/Morris","61","59676","80","yes","1280","13"
"350","76.5432098765","76.5432098765","745.938271605","745.938271605","black","no","xpyriment","legacy","legacy","0","201","NA","uniform","64747","1000","0.01544473103","1","undefined","1","0","80","80","80","0","80","80","80","NA","80","80","0","80","NA","80","80","0","80","NA","80","NA","80","0","0","80","80","0","80","80","81","/","03/02/19 15:27:05","The main experiment item","yes","FIN__BA__M21__7%3A10%3A17.osexp","C:\Users\ERP Testing Room\Desktop\Joanna\morph21","no","mono","no","18","no","white","no","yes","1080","legacy","80","80","C:/Users/ERP Testing Room/Desktop/Joanna/morph21/subject-164.csv","xpyriment","Kafkaesque Koffka","3.2.5","0","/","space","NA","NA","NA","space","/","745","21414","NA","NA","NA","195229","745","2","legacy","1024","2","48000","-16","BA_m21","164","even","CW_S","LENDER","1933","512448","509282","510940","197173","469511","NA","NA","NA","510932","509779","NA","508782","NA","508769","510932","1944","512799","NA","NA","509940","1933","1933","510332","508769","1933","509940","512799","morph21_Oliver/Morris","62","60421","81","yes","1280","11"
"200","76.8292682927","76.8292682927","744.036585366","744.036585366","black","no","xpyriment","legacy","legacy","0","201","NA","uniform","64998","1000","0.015385088772","1","undefined","1","0","81","81","81","0","81","81","81","NA","81","81","0","81","NA","81","81","0","81","NA","81","NA","81","0","0","81","81","0","81","81","82","/","03/02/19 15:27:05","The main experiment item","yes","FIN__BA__M21__7%3A10%3A17.osexp","C:\Users\ERP Testing Room\Desktop\Joanna\morph21","no","mono","no","18","no","white","no","yes","1080","legacy","81","81","C:/Users/ERP Testing Room/Desktop/Joanna/morph21/subject-164.csv","xpyriment","Kafkaesque Koffka","3.2.5","0","/","space","NA","NA","NA","space","/","590","21414","NA","NA","NA","195229","590","2","legacy","1024","2","48000","-16","BA_m21","164","even","CW_S","LISTENER","1933","515607","513932","510940","197173","469511","NA","NA","NA","515601","514429","NA","513432","NA","513422","515601","1944","515807","NA","NA","514607","1933","1933","514999","513422","1933","514607","515807","morph21_Oliver/Morris","63","61011","82","yes","1280","18"
"300","77.1084337349","77.1084337349","744.409638554","744.409638554","black","no","xpyriment","legacy","legacy","0","208","NA","uniform","61651","1000","0.0162203370586","1","undefined","1","0","82","82","82","0","82","82","82","NA","82","82","0","82","NA","82","82","0","82","NA","82","NA","82","0","0","82","82","0","82","82","83","z","03/02/19 15:27:05","The main experiment item","yes","FIN__BA__M21__7%3A10%3A17.osexp","C:\Users\ERP Testing Room\Desktop\Joanna\morph21","no","mono","no","18","no","white","no","yes","1080","legacy","82","82","C:/Users/ERP Testing Room/Desktop/Joanna/morph21/subject-164.csv","xpyriment","Kafkaesque Koffka","3.2.5","0","z","space","NA","NA","NA","space","z","775","21414","NA","NA","NA","195229","775","2","legacy","1024","2","48000","-16","BA_m21","164","even","FILL_NW","TREMP","1933","518583","516924","510940","197173","469511","NA","NA","NA","518577","517421","NA","516424","NA","516413","518577","1944","518883","NA","NA","517583","1933","1933","517975","516412","1933","517583","518883","morph21_Oliver/Morris","64","61786","83","yes","1280","20"
"250","77.380952381","77.380952381","746.892857143","746.892857143","black","no","xpyriment","legacy","legacy","0","208","NA","uniform","53144","1000","0.0188167996387","1","undefined","1","0","83","83","83","0","83","83","83","NA","83","83","0","83","NA","83","83","0","83","NA","83","NA","83","0","0","83","83","0","83","83","84","z","03/02/19 15:27:05","The main experiment item","yes","FIN__BA__M21__7%3A10%3A17.osexp","C:\Users\ERP Testing Room\Desktop\Joanna\morph21","no","mono","no","18","no","white","no","yes","1080","legacy","83","83","C:/Users/ERP Testing Room/Desktop/Joanna/morph21/subject-164.csv","xpyriment","Kafkaesque Koffka","3.2.5","0","z","space","NA","NA","NA","space","z","953","21414","NA","NA","NA","195229","953","2","legacy","1024","2","48000","-16","BA_m21","164","even","FILL_NW","PHEEKS","1933","523225","520058","521716","197173","469511","NA","NA","NA","521714","520555","NA","519558","NA","519554","521714","1944","523475","NA","NA","520725","1933","1933","521116","519554","1933","520725","523475","morph21_Oliver/Morris","65","62739","84","yes","1280","35"
"300","76.4705882353","76.4705882353","749.823529412","749.823529412","black","no","xpyriment","legacy","legacy","0","208","NA","uniform","56652","1000","0.0176516274801","0","undefined","0","0","84","84","84","0","84","84","84","NA","84","84","0","84","NA","84","84","0","84","NA","84","NA","84","0","0","84","84","0","84","84","85","z","03/02/19 15:27:05","The main experiment item","yes","FIN__BA__M21__7%3A10%3A17.osexp","C:\Users\ERP Testing Room\Desktop\Joanna\morph21","no","mono","no","18","no","white","no","yes","1080","legacy","84","84","C:/Users/ERP Testing Room/Desktop/Joanna/morph21/subject-164.csv","xpyriment","Kafkaesque Koffka","3.2.5","0","None","space","NA","NA","NA","space","None","996","21414","NA","NA","NA","195229","996","2","legacy","1024","2","48000","-16","BA_m21","164","even","FILL_NW","BAFED","1933","526250","524600","521716","197173","469511","NA","NA","NA","521714","525097","NA","524100","NA","524095","526246","1944","526550","NA","NA","525250","1933","1933","525650","524095","1933","525250","526550","morph21_Oliver/Morris","65","63735","85","yes","1280","1"
"250","76.7441860465","76.7441860465","749.523255814","749.523255814","black","no","xpyriment","legacy","legacy","0","202","NA","uniform","64463","1000","0.01551277477","1","undefined","1","0","85","85","85","0","85","85","85","NA","85","85","0","85","NA","85","85","0","85","NA","85","NA","85","0","0","85","85","0","85","85","86","/","03/02/19 15:27:05","The main experiment item","yes","FIN__BA__M21__7%3A10%3A17.osexp","C:\Users\ERP Testing Room\Desktop\Joanna\morph21","no","mono","no","18","no","white","no","yes","1080","legacy","85","85","C:/Users/ERP Testing Room/Desktop/Joanna/morph21/subject-164.csv","xpyriment","Kafkaesque Koffka","3.2.5","0","/","space","NA","NA","NA","space","/","724","21414","NA","NA","NA","195229","724","2","legacy","1024","2","48000","-16","BA_m21","164","even","CW_L","DEAFNESS","1933","529425","527775","521716","197173","469511","NA","NA","NA","529419","528272","NA","527275","NA","527268","529419","1944","529675","NA","NA","528425","1933","1933","528817","527268","1933","528425","529675","morph21_Oliver/Morris","66","64459","86","yes","1280","39"
"400","75.8620689655","75.8620689655","752.287356322","752.287356322","black","no","xpyriment","legacy","legacy","0","207","NA","uniform","55686","1000","0.0179578350034","0","undefined","0","0","86","86","86","0","86","86","86","NA","86","86","0","86","NA","86","86","0","86","NA","86","NA","86","0","0","86","86","0","86","86","87","/","03/02/19 15:27:05","The main experiment item","yes","FIN__BA__M21__7%3A10%3A17.osexp","C:\Users\ERP Testing Room\Desktop\Joanna\morph21","no","mono","no","18","no","white","no","yes","1080","legacy","86","86","C:/Users/ERP Testing Room/Desktop/Joanna/morph21/subject-164.csv","xpyriment","Kafkaesque Koffka","3.2.5","0","None","space","NA","NA","NA","space","None","990","21414","NA","NA","NA","195229","990","2","legacy","1024","2","48000","-16","BA_m21","164","even","FILL_W","LITHE","1933","534134","530934","532625","197173","469511","NA","NA","NA","529419","531431","NA","530434","NA","530425","532615","1944","534534","NA","NA","531625","1933","1933","532017","530425","1933","531625","534534","morph21_Oliver/Morris","66","65449","87","yes","1280","23"
"400","75","75","754.988636364","754.988636364","black","no","xpyriment","legacy","legacy","0","206","NA","uniform","52372","1000","0.0190941724586","0","undefined","0","0","87","87","87","0","87","87","87","NA","87","87","0","87","NA","87","87","0","87","NA","87","NA","87","0","0","87","87","0","87","87","88","z","03/02/19 15:27:05","The main experiment item","yes","FIN__BA__M21__7%3A10%3A17.osexp","C:\Users\ERP Testing Room\Desktop\Joanna\morph21","no","mono","no","18","no","white","no","yes","1080","legacy","87","87","C:/Users/ERP Testing Room/Desktop/Joanna/morph21/subject-164.csv","xpyriment","Kafkaesque Koffka","3.2.5","0","None","space","NA","NA","NA","space","None","990","21414","NA","NA","NA","195229","990","2","legacy","1024","2","48000","-16","BA_m21","164","even","NW_L_SIMP","VALIDER","1933","537310","535635","532625","197173","469511","NA","NA","NA","529419","536132","NA","535135","NA","535131","537300","1944","537710","NA","NA","536310","1933","1933","536701","535131","1933","536310","537710","morph21_Oliver/Morris","66","66439","88","yes","1280","23"
"300","75.2808988764","75.2808988764","754.146067416","754.146067416","black","no","xpyriment","legacy","legacy","0","207","NA","uniform","62059","1000","0.0161136982549","1","undefined","1","0","88","88","88","0","88","88","88","NA","88","88","0","88","NA","88","88","0","88","NA","88","NA","88","0","0","88","88","0","88","88","89","/","03/02/19 15:27:05","The main experiment item","yes","FIN__BA__M21__7%3A10%3A17.osexp","C:\Users\ERP Testing Room\Desktop\Joanna\morph21","no","mono","no","18","no","white","no","yes","1080","legacy","88","88","C:/Users/ERP Testing Room/Desktop/Joanna/morph21/subject-164.csv","xpyriment","Kafkaesque Koffka","3.2.5","0","/","space","NA","NA","NA","space","/","680","21414","NA","NA","NA","195229","680","2","legacy","1024","2","48000","-16","BA_m21","164","even","FILL_W","MOURN","1933","540477","538810","532625","197173","469511","NA","NA","NA","540474","539307","NA","538310","NA","538297","540474","1944","540777","NA","NA","539485","1933","1933","539877","538297","1933","539485","540777","morph21_Oliver/Morris","67","67119","89","yes","1280","26"
"300","74.4444444444","74.4444444444","754.5","754.5","black","no","xpyriment","legacy","legacy","0","208","NA","uniform","59292","1000","0.0168656817109","0","undefined","0","0","89","89","89","0","89","89","89","NA","89","89","0","89","NA","89","89","0","89","NA","89","NA","89","0","0","89","89","0","89","89","90","z","03/02/19 15:27:05","The main experiment item","yes","FIN__BA__M21__7%3A10%3A17.osexp","C:\Users\ERP Testing Room\Desktop\Joanna\morph21","no","mono","no","18","no","white","no","yes","1080","legacy","89","89","C:/Users/ERP Testing Room/Desktop/Joanna/morph21/subject-164.csv","xpyriment","Kafkaesque Koffka","3.2.5","0","/","space","NA","NA","NA","space","/","786","21414","NA","NA","NA","195229","786","2","legacy","1024","2","48000","-16","BA_m21","164","even","FILL_NW","SCURE","1933","545144","541985","543635","197173","469511","NA","NA","NA","540474","542482","NA","541485","NA","541473","543630","1944","545444","NA","NA","542635","1933","1933","543035","541473","1933","542635","545444","morph21_Oliver/Morris","67","67905","90","yes","1280","41"
