"ITI","acc","accuracy","average_response_time","avg_rt","background","bidi","canvas_backend","clock_backend","color_backend","compensation","cond_trig","condtrigtime","coordinates","coroutines_cycles","coroutines_duration","coroutines_mean_cycle_duration","correct","correct_instructions_1","correct_new_keyboard_response_1","count_BA_m21","count_ITI","count_blank_screen","count_blink_screen","count_block1","count_break1","count_break2","count_break3_1","count_canvas","count_correct_trigger","count_def_chain","count_end_screen","count_fixation_1","count_getting_started","count_inc_counter","count_incorrect_trigger","count_instructions_1","count_logger","count_logscript","count_new_coroutines","count_new_inline_script","count_new_keyboard_response_1","count_reset_counter_prep","count_reset_counter_run","count_responsescreen","count_sequence","count_start_trigger","count_target_present","count_word_trigger","counter","cresp","datetime","description","disable_garbage_collection","experiment_file","experiment_path","font_bold","font_family","font_italic","font_size","font_underline","foreground","form_clicks","fullscreen","height","keyboard_backend","live_row","live_row_block1","logfile","mouse_backend","opensesame_codename","opensesame_version","repeat_cycle","response","response_break1","response_break2","response_break3_1","response_end_screen","response_instructions_1","response_new_keyboard_response_1","response_time","response_time_break1","response_time_break2","response_time_break3_1","response_time_end_screen","response_time_instructions_1","response_time_new_keyboard_response_1","round_decimals","sampler_backend","sound_buf_size","sound_channels","sound_freq","sound_sample_size","start","subject_nr","subject_parity","targ_type","target","time_BA_m21","time_ITI","time_blank_screen","time_blink_screen","time_block1","time_break1","time_break2","time_break3_1","time_canvas","time_correct_trigger","time_def_chain","time_end_screen","time_fixation_1","time_getting_started","time_inc_counter","time_incorrect_trigger","time_instructions_1","time_logger","time_logscript","time_new_inline_script","time_new_keyboard_response_1","time_reset_counter_prep","time_reset_counter_run","time_responsescreen","time_sequence","time_start_trigger","time_target_present","time_word_trigger","title","total_correct","total_response_time","total_responses","uniform_coordinates","width","word_trig"
"300","0","0","997","997","black","no","xpyriment","legacy","legacy","0","201","NA","uniform","58897","1000","0.0169787934869","0","undefined","0","0","0","0","0","0","0","0","0","NA","0","0","0","0","NA","0","0","0","0","NA","0","NA","0","0","0","0","0","0","0","0","1","/","12/08/17 12:43:48","The main experiment item","yes","FIN__BA__M21__7%3A10%3A17.osexp","C:\Users\ERP Testing Room\Desktop\Joanna\morph21","no","mono","no","18","no","white","no","yes","1080","legacy","0","0","C:/Users/ERP Testing Room/Desktop/Joanna/morph21/subject-119.csv","xpyriment","Jazzy James","3.1.4","0","None","NA","NA","NA","NA","z","None","997","NA","NA","NA","NA","184608","997","2","legacy","1024","2","48000","-16","BA_m21","119","odd","CW_S","BUYER","1359","188987","187386","NA","185975","NA","NA","NA","NA","NA","187883","NA","186882","NA","186805","188983","1367","189287","NA","NA","187986","1359","1359","188386","186805","1359","187986","189287","morph21_Oliver/Morris","0","997","1","yes","1280","21"
"300","50","50","905","905","black","no","xpyriment","legacy","legacy","0","205","NA","uniform","62246","1000","0.0160652893359","1","undefined","1","0","1","1","1","0","1","1","1","NA","1","1","0","1","NA","1","1","0","1","NA","1","NA","1","0","0","1","1","0","1","1","2","z","12/08/17 12:43:48","The main experiment item","yes","FIN__BA__M21__7%3A10%3A17.osexp","C:\Users\ERP Testing Room\Desktop\Joanna\morph21","no","mono","no","18","no","white","no","yes","1080","legacy","1","1","C:/Users/ERP Testing Room/Desktop/Joanna/morph21/subject-119.csv","xpyriment","Jazzy James","3.1.4","0","z","NA","NA","NA","NA","z","z","813","NA","NA","NA","NA","184608","813","2","legacy","1024","2","48000","-16","BA_m21","119","odd","NW_S_SIMP","YIELDIST","1359","192171","190579","NA","185975","NA","NA","NA","NA","192166","191076","NA","190079","NA","190072","192166","1367","192471","NA","NA","191171","1359","1359","191571","190071","1359","191171","192471","morph21_Oliver/Morris","1","1810","2","yes","1280","20"
"400","66.6666666667","66.6666666667","766.666666667","766.666666667","black","no","xpyriment","legacy","legacy","0","202","NA","uniform","64098","1000","0.0156011107991","1","undefined","1","0","2","2","2","0","2","2","2","NA","2","2","0","2","NA","2","2","0","2","NA","2","NA","2","0","0","2","2","0","2","2","3","/","12/08/17 12:43:48","The main experiment item","yes","FIN__BA__M21__7%3A10%3A17.osexp","C:\Users\ERP Testing Room\Desktop\Joanna\morph21","no","mono","no","18","no","white","no","yes","1080","legacy","2","2","C:/Users/ERP Testing Room/Desktop/Joanna/morph21/subject-119.csv","xpyriment","Jazzy James","3.1.4","0","/","NA","NA","NA","NA","z","/","490","NA","NA","NA","NA","184608","490","2","legacy","1024","2","48000","-16","BA_m21","119","odd","CW_L","SPELLER","1359","196921","193829","195413","185975","NA","NA","NA","NA","195403","194326","NA","193329","NA","193318","195403","1367","197321","NA","NA","194413","1359","1359","194804","193318","1359","194413","197321","morph21_Oliver/Morris","2","2300","3","yes","1280","3"
"350","75","75","759.75","759.75","black","no","xpyriment","legacy","legacy","0","207","NA","uniform","67776","1000","0.0147544853636","1","undefined","1","0","3","3","3","0","3","3","3","NA","3","3","0","3","NA","3","3","0","3","NA","3","NA","3","0","0","3","3","0","3","3","4","/","12/08/17 12:43:48","The main experiment item","yes","FIN__BA__M21__7%3A10%3A17.osexp","C:\Users\ERP Testing Room\Desktop\Joanna\morph21","no","mono","no","18","no","white","no","yes","1080","legacy","3","3","C:/Users/ERP Testing Room/Desktop/Joanna/morph21/subject-119.csv","xpyriment","Jazzy James","3.1.4","0","/","NA","NA","NA","NA","z","/","739","NA","NA","NA","NA","184608","739","2","legacy","1024","2","48000","-16","BA_m21","119","odd","FILL_W","FOLLOW","1359","200196","198596","195413","185975","NA","NA","NA","NA","200190","199093","NA","198096","NA","198090","200190","1367","200546","NA","NA","199196","1359","1359","199588","198090","1359","199196","200546","morph21_Oliver/Morris","3","3039","4","yes","1280","17"
"400","80","80","799.8","799.8","black","no","xpyriment","legacy","legacy","0","206","NA","uniform","56769","1000","0.0176152477585","1","undefined","1","0","4","4","4","0","4","4","4","NA","4","4","0","4","NA","4","4","0","4","NA","4","NA","4","0","0","4","4","0","4","4","5","z","12/08/17 12:43:48","The main experiment item","yes","FIN__BA__M21__7%3A10%3A17.osexp","C:\Users\ERP Testing Room\Desktop\Joanna\morph21","no","mono","no","18","no","white","no","yes","1080","legacy","4","4","C:/Users/ERP Testing Room/Desktop/Joanna/morph21/subject-119.csv","xpyriment","Jazzy James","3.1.4","0","z","NA","NA","NA","NA","z","z","960","NA","NA","NA","NA","184608","960","2","legacy","1024","2","48000","-16","BA_m21","119","odd","NW_L_SIMP","VALIDER","1359","203471","201879","195413","185975","NA","NA","NA","NA","203465","202377","NA","201380","NA","201369","203465","1367","203871","NA","NA","202471","1359","1359","202863","201369","1359","202471","203871","morph21_Oliver/Morris","4","3999","5","yes","1280","23"
"350","83.3333333333","83.3333333333","760.666666667","760.666666667","black","no","xpyriment","legacy","legacy","0","207","NA","uniform","73444","1000","0.013615816132","1","undefined","1","0","5","5","5","0","5","5","5","NA","5","5","0","5","NA","5","5","0","5","NA","5","NA","5","0","0","5","5","0","5","5","6","/","12/08/17 12:43:48","The main experiment item","yes","FIN__BA__M21__7%3A10%3A17.osexp","C:\Users\ERP Testing Room\Desktop\Joanna\morph21","no","mono","no","18","no","white","no","yes","1080","legacy","5","5","C:/Users/ERP Testing Room/Desktop/Joanna/morph21/subject-119.csv","xpyriment","Jazzy James","3.1.4","0","/","NA","NA","NA","NA","z","/","565","NA","NA","NA","NA","184608","565","2","legacy","1024","2","48000","-16","BA_m21","119","odd","FILL_W","FAINT","1359","208239","205155","206731","185975","NA","NA","NA","NA","206721","205652","NA","204655","NA","204647","206721","1367","208589","NA","NA","205730","1359","1359","206121","204647","1359","205730","208589","morph21_Oliver/Morris","5","4564","6","yes","1280","31"
"350","85.7142857143","85.7142857143","766.571428571","766.571428571","black","no","xpyriment","legacy","legacy","0","201","NA","uniform","65188","1000","0.0153402466712","1","undefined","1","0","6","6","6","0","6","6","6","NA","6","6","0","6","NA","6","6","0","6","NA","6","NA","6","0","0","6","6","0","6","6","7","/","12/08/17 12:43:48","The main experiment item","yes","FIN__BA__M21__7%3A10%3A17.osexp","C:\Users\ERP Testing Room\Desktop\Joanna\morph21","no","mono","no","18","no","white","no","yes","1080","legacy","6","6","C:/Users/ERP Testing Room/Desktop/Joanna/morph21/subject-119.csv","xpyriment","Jazzy James","3.1.4","0","/","NA","NA","NA","NA","z","/","802","NA","NA","NA","NA","184608","802","2","legacy","1024","2","48000","-16","BA_m21","119","odd","CW_S","BEARDED","1359","211389","209781","206731","185975","NA","NA","NA","NA","211385","210278","NA","209281","NA","209276","211385","1367","211739","NA","NA","210389","1359","1359","210789","209276","1359","210389","211739","morph21_Oliver/Morris","6","5366","7","yes","1280","8"
"300","87.5","87.5","762.875","762.875","black","no","xpyriment","legacy","legacy","0","206","NA","uniform","62002","1000","0.0161285119835","1","undefined","1","0","7","7","7","0","7","7","7","NA","7","7","0","7","NA","7","7","0","7","NA","7","NA","7","0","0","7","7","0","7","7","8","z","12/08/17 12:43:48","The main experiment item","yes","FIN__BA__M21__7%3A10%3A17.osexp","C:\Users\ERP Testing Room\Desktop\Joanna\morph21","no","mono","no","18","no","white","no","yes","1080","legacy","7","7","C:/Users/ERP Testing Room/Desktop/Joanna/morph21/subject-119.csv","xpyriment","Jazzy James","3.1.4","0","z","NA","NA","NA","NA","z","z","737","NA","NA","NA","NA","184608","737","2","legacy","1024","2","48000","-16","BA_m21","119","odd","NW_L_SIMP","PRAYANCE","1359","214598","213006","206731","185975","NA","NA","NA","NA","214595","213503","NA","212506","NA","212495","214595","1367","214898","NA","NA","213606","1359","1359","213998","212495","1359","213606","214898","morph21_Oliver/Morris","7","6103","8","yes","1280","1"
"200","88.8888888889","88.8888888889","765.777777778","765.777777778","black","no","xpyriment","legacy","legacy","0","202","NA","uniform","66642","1000","0.0150055520543","1","undefined","1","0","8","8","8","0","8","8","8","NA","8","8","0","8","NA","8","8","0","8","NA","8","NA","8","0","0","8","8","0","8","8","9","/","12/08/17 12:43:48","The main experiment item","yes","FIN__BA__M21__7%3A10%3A17.osexp","C:\Users\ERP Testing Room\Desktop\Joanna\morph21","no","mono","no","18","no","white","no","yes","1080","legacy","8","8","C:/Users/ERP Testing Room/Desktop/Joanna/morph21/subject-119.csv","xpyriment","Jazzy James","3.1.4","0","/","NA","NA","NA","NA","z","/","789","NA","NA","NA","NA","184608","789","2","legacy","1024","2","48000","-16","BA_m21","119","odd","CW_L","COLLECTOR","1359","219206","216115","217698","185975","NA","NA","NA","NA","217692","216612","NA","215615","NA","215607","217692","1367","219407","NA","NA","216698","1359","1359","217090","215607","1359","216698","219407","morph21_Oliver/Morris","8","6892","9","yes","1280","46"
"300","90","90","768","768","black","no","xpyriment","legacy","legacy","0","203","NA","uniform","63494","1000","0.0157495196397","1","undefined","1","0","9","9","9","0","9","9","9","NA","9","9","0","9","NA","9","9","0","9","NA","9","NA","9","0","0","9","9","0","9","9","10","z","12/08/17 12:43:48","The main experiment item","yes","FIN__BA__M21__7%3A10%3A17.osexp","C:\Users\ERP Testing Room\Desktop\Joanna\morph21","no","mono","no","18","no","white","no","yes","1080","legacy","9","9","C:/Users/ERP Testing Room/Desktop/Joanna/morph21/subject-119.csv","xpyriment","Jazzy James","3.1.4","0","z","NA","NA","NA","NA","z","z","788","NA","NA","NA","NA","184608","788","2","legacy","1024","2","48000","-16","BA_m21","119","odd","NW_S_COMP","CURTIDY","1359","222315","220731","217698","185975","NA","NA","NA","NA","222309","221228","NA","220231","NA","220225","222309","1367","222615","NA","NA","221315","1359","1359","221706","220225","1359","221315","222615","morph21_Oliver/Morris","9","7680","10","yes","1280","11"
"400","90.9090909091","90.9090909091","783.181818182","783.181818182","black","no","xpyriment","legacy","legacy","0","207","NA","uniform","56783","1000","0.0176109046722","1","undefined","1","0","10","10","10","0","10","10","10","NA","10","10","0","10","NA","10","10","0","10","NA","10","NA","10","0","0","10","10","0","10","10","11","/","12/08/17 12:43:48","The main experiment item","yes","FIN__BA__M21__7%3A10%3A17.osexp","C:\Users\ERP Testing Room\Desktop\Joanna\morph21","no","mono","no","18","no","white","no","yes","1080","legacy","10","10","C:/Users/ERP Testing Room/Desktop/Joanna/morph21/subject-119.csv","xpyriment","Jazzy James","3.1.4","0","/","NA","NA","NA","NA","z","/","935","NA","NA","NA","NA","184608","935","2","legacy","1024","2","48000","-16","BA_m21","119","odd","FILL_W","STEEP","1359","225433","223841","217698","185975","NA","NA","NA","NA","225426","224338","NA","223340","NA","223330","225426","1367","225833","NA","NA","224433","1359","1359","224824","223330","1359","224433","225833","morph21_Oliver/Morris","10","8615","11","yes","1280","16"
"400","91.6666666667","91.6666666667","784.166666667","784.166666667","black","no","xpyriment","legacy","legacy","0","201","NA","uniform","64458","1000","0.0155139780943","1","undefined","1","0","11","11","11","0","11","11","11","NA","11","11","0","11","NA","11","11","0","11","NA","11","NA","11","0","0","11","11","0","11","11","12","/","12/08/17 12:43:48","The main experiment item","yes","FIN__BA__M21__7%3A10%3A17.osexp","C:\Users\ERP Testing Room\Desktop\Joanna\morph21","no","mono","no","18","no","white","no","yes","1080","legacy","11","11","C:/Users/ERP Testing Room/Desktop/Joanna/morph21/subject-119.csv","xpyriment","Jazzy James","3.1.4","0","/","NA","NA","NA","NA","z","/","795","NA","NA","NA","NA","184608","795","2","legacy","1024","2","48000","-16","BA_m21","119","odd","CW_S","EFFORTLESS","1359","230216","227108","228708","185975","NA","NA","NA","NA","228704","227605","NA","226608","NA","226598","228704","1367","230616","NA","NA","227708","1359","1359","228108","226598","1359","227708","230616","morph21_Oliver/Morris","11","9410","12","yes","1280","30"
"200","92.3076923077","92.3076923077","794.769230769","794.769230769","black","no","xpyriment","legacy","legacy","0","208","NA","uniform","59298","1000","0.0168639751762","1","undefined","1","0","12","12","12","0","12","12","12","NA","12","12","0","12","NA","12","12","0","12","NA","12","NA","12","0","0","12","12","0","12","12","13","z","12/08/17 12:43:48","The main experiment item","yes","FIN__BA__M21__7%3A10%3A17.osexp","C:\Users\ERP Testing Room\Desktop\Joanna\morph21","no","mono","no","18","no","white","no","yes","1080","legacy","12","12","C:/Users/ERP Testing Room/Desktop/Joanna/morph21/subject-119.csv","xpyriment","Jazzy James","3.1.4","0","z","NA","NA","NA","NA","z","z","922","NA","NA","NA","NA","184608","922","2","legacy","1024","2","48000","-16","BA_m21","119","odd","FILL_NW","GILN","1359","233525","231908","228708","185975","NA","NA","NA","NA","233518","232405","NA","231400","NA","231389","233518","1367","233725","NA","NA","232525","1359","1359","232916","231389","1359","232525","233725","morph21_Oliver/Morris","12","10332","13","yes","1280","25"
"400","92.8571428571","92.8571428571","787.5","787.5","black","no","xpyriment","legacy","legacy","0","207","NA","uniform","65758","1000","0.0152072751604","1","undefined","1","0","13","13","13","0","13","13","13","NA","13","13","0","13","NA","13","13","0","13","NA","13","NA","13","0","0","13","13","0","13","13","14","/","12/08/17 12:43:48","The main experiment item","yes","FIN__BA__M21__7%3A10%3A17.osexp","C:\Users\ERP Testing Room\Desktop\Joanna\morph21","no","mono","no","18","no","white","no","yes","1080","legacy","13","13","C:/Users/ERP Testing Room/Desktop/Joanna/morph21/subject-119.csv","xpyriment","Jazzy James","3.1.4","0","/","NA","NA","NA","NA","z","/","693","NA","NA","NA","NA","184608","693","2","legacy","1024","2","48000","-16","BA_m21","119","odd","FILL_W","CHIP","1359","236658","235033","228708","185975","NA","NA","NA","NA","236655","235530","NA","234533","NA","234522","236655","1367","237058","NA","NA","235666","1359","1359","236058","234521","1359","235666","237058","morph21_Oliver/Morris","13","11025","14","yes","1280","11"
"400","93.3333333333","93.3333333333","784.266666667","784.266666667","black","no","xpyriment","legacy","legacy","0","206","NA","uniform","63828","1000","0.0156671053456","1","undefined","1","0","14","14","14","0","14","14","14","NA","14","14","0","14","NA","14","14","0","14","NA","14","NA","14","0","0","14","14","0","14","14","15","z","12/08/17 12:43:48","The main experiment item","yes","FIN__BA__M21__7%3A10%3A17.osexp","C:\Users\ERP Testing Room\Desktop\Joanna\morph21","no","mono","no","18","no","white","no","yes","1080","legacy","14","14","C:/Users/ERP Testing Room/Desktop/Joanna/morph21/subject-119.csv","xpyriment","Jazzy James","3.1.4","0","z","NA","NA","NA","NA","z","z","739","NA","NA","NA","NA","184608","739","2","legacy","1024","2","48000","-16","BA_m21","119","odd","NW_L_SIMP","BOGARY","1359","241418","238308","239908","185975","NA","NA","NA","NA","239900","238805","NA","237808","NA","237802","239900","1367","241818","NA","NA","238908","1359","1359","239300","237802","1359","238908","241818","morph21_Oliver/Morris","14","11764","15","yes","1280","2"
"350","93.75","93.75","783.0625","783.0625","black","no","xpyriment","legacy","legacy","0","202","NA","uniform","68567","1000","0.0145842752344","1","undefined","1","0","15","15","15","0","15","15","15","NA","15","15","0","15","NA","15","15","0","15","NA","15","NA","15","0","0","15","15","0","15","15","16","/","12/08/17 12:43:48","The main experiment item","yes","FIN__BA__M21__7%3A10%3A17.osexp","C:\Users\ERP Testing Room\Desktop\Joanna\morph21","no","mono","no","18","no","white","no","yes","1080","legacy","15","15","C:/Users/ERP Testing Room/Desktop/Joanna/morph21/subject-119.csv","xpyriment","Jazzy James","3.1.4","0","/","NA","NA","NA","NA","z","/","765","NA","NA","NA","NA","184608","765","2","legacy","1024","2","48000","-16","BA_m21","119","odd","CW_L","EDITOR","1359","244651","243043","239908","185975","NA","NA","NA","NA","244648","243540","NA","242543","NA","242537","244648","1367","245001","NA","NA","243651","1359","1359","244051","242537","1359","243651","245001","morph21_Oliver/Morris","15","12529","16","yes","1280","45"
"200","94.1176470588","94.1176470588","792.941176471","792.941176471","black","no","xpyriment","legacy","legacy","0","205","NA","uniform","60709","1000","0.0164720222702","1","undefined","1","0","16","16","16","0","16","16","16","NA","16","16","0","16","NA","16","16","0","16","NA","16","NA","16","0","0","16","16","0","16","16","17","z","12/08/17 12:43:48","The main experiment item","yes","FIN__BA__M21__7%3A10%3A17.osexp","C:\Users\ERP Testing Room\Desktop\Joanna\morph21","no","mono","no","18","no","white","no","yes","1080","legacy","16","16","C:/Users/ERP Testing Room/Desktop/Joanna/morph21/subject-119.csv","xpyriment","Jazzy James","3.1.4","0","z","NA","NA","NA","NA","z","z","951","NA","NA","NA","NA","184608","951","2","legacy","1024","2","48000","-16","BA_m21","119","odd","NW_S_SIMP","JAWLY","1359","247776","246168","239908","185975","NA","NA","NA","NA","247770","246665","NA","245668","NA","245662","247770","1367","247976","NA","NA","246776","1359","1359","247168","245662","1359","246776","247976","morph21_Oliver/Morris","16","13480","17","yes","1280","7"
"350","94.4444444444","94.4444444444","795.055555556","795.055555556","black","no","xpyriment","legacy","legacy","0","202","NA","uniform","62439","1000","0.0160156312561","1","undefined","1","0","17","17","17","0","17","17","17","NA","17","17","0","17","NA","17","17","0","17","NA","17","NA","17","0","0","17","17","0","17","17","18","/","12/08/17 12:43:48","The main experiment item","yes","FIN__BA__M21__7%3A10%3A17.osexp","C:\Users\ERP Testing Room\Desktop\Joanna\morph21","no","mono","no","18","no","white","no","yes","1080","legacy","17","17","C:/Users/ERP Testing Room/Desktop/Joanna/morph21/subject-119.csv","xpyriment","Jazzy James","3.1.4","0","/","NA","NA","NA","NA","z","/","831","NA","NA","NA","NA","184608","831","2","legacy","1024","2","48000","-16","BA_m21","119","odd","CW_L","RENTER","1359","252276","249168","250768","185975","NA","NA","NA","NA","250761","249665","NA","248668","NA","248660","250761","1367","252627","NA","NA","249768","1359","1359","250160","248660","1359","249768","252627","morph21_Oliver/Morris","17","14311","18","yes","1280","9"
"350","94.7368421053","94.7368421053","804","804","black","no","xpyriment","legacy","legacy","0","202","NA","uniform","60740","1000","0.0164636154099","1","undefined","1","0","18","18","18","0","18","18","18","NA","18","18","0","18","NA","18","18","0","18","NA","18","NA","18","0","0","18","18","0","18","18","19","/","12/08/17 12:43:48","The main experiment item","yes","FIN__BA__M21__7%3A10%3A17.osexp","C:\Users\ERP Testing Room\Desktop\Joanna\morph21","no","mono","no","18","no","white","no","yes","1080","legacy","18","18","C:/Users/ERP Testing Room/Desktop/Joanna/morph21/subject-119.csv","xpyriment","Jazzy James","3.1.4","0","/","NA","NA","NA","NA","z","/","965","NA","NA","NA","NA","184608","965","2","legacy","1024","2","48000","-16","BA_m21","119","odd","CW_L","BARKER","1359","255410","253826","250768","185975","NA","NA","NA","NA","255401","254324","NA","253327","NA","253322","255401","1367","255760","NA","NA","254410","1359","1359","254801","253322","1359","254410","255760","morph21_Oliver/Morris","18","15276","19","yes","1280","2"
"350","95","95","799.55","799.55","black","no","xpyriment","legacy","legacy","0","208","NA","uniform","60622","1000","0.016495661641","1","undefined","1","0","19","19","19","0","19","19","19","NA","19","19","0","19","NA","19","19","0","19","NA","19","NA","19","0","0","19","19","0","19","19","20","z","12/08/17 12:43:48","The main experiment item","yes","FIN__BA__M21__7%3A10%3A17.osexp","C:\Users\ERP Testing Room\Desktop\Joanna\morph21","no","mono","no","18","no","white","no","yes","1080","legacy","19","19","C:/Users/ERP Testing Room/Desktop/Joanna/morph21/subject-119.csv","xpyriment","Jazzy James","3.1.4","0","z","NA","NA","NA","NA","z","z","715","NA","NA","NA","NA","184608","715","2","legacy","1024","2","48000","-16","BA_m21","119","odd","FILL_NW","JADS","1359","258643","257060","250768","185975","NA","NA","NA","NA","258641","257557","NA","256560","NA","256550","258641","1367","258993","NA","NA","257652","1359","1359","258043","256550","1359","257652","258993","morph21_Oliver/Morris","19","15991","20","yes","1280","31"
"200","95.2380952381","95.2380952381","799.285714286","799.285714286","black","no","xpyriment","legacy","legacy","0","208","NA","uniform","65942","1000","0.0151648418307","1","undefined","1","0","20","20","20","0","20","20","20","NA","20","20","0","20","NA","20","20","0","20","NA","20","NA","20","0","0","20","20","0","20","20","21","z","12/08/17 12:43:48","The main experiment item","yes","FIN__BA__M21__7%3A10%3A17.osexp","C:\Users\ERP Testing Room\Desktop\Joanna\morph21","no","mono","no","18","no","white","no","yes","1080","legacy","20","20","C:/Users/ERP Testing Room/Desktop/Joanna/morph21/subject-119.csv","xpyriment","Jazzy James","3.1.4","0","z","NA","NA","NA","NA","z","z","794","NA","NA","NA","NA","184608","794","2","legacy","1024","2","48000","-16","BA_m21","119","odd","FILL_NW","HOITS","1359","263378","260261","261870","185975","NA","NA","NA","NA","261865","260758","NA","259761","NA","259756","261865","1367","263578","NA","NA","260870","1359","1359","261270","259756","1359","260870","263578","morph21_Oliver/Morris","20","16785","21","yes","1280","30"
"300","95.4545454545","95.4545454545","795.318181818","795.318181818","black","no","xpyriment","legacy","legacy","0","205","NA","uniform","58538","1000","0.0170829204961","1","undefined","1","0","21","21","21","0","21","21","21","NA","21","21","0","21","NA","21","21","0","21","NA","21","NA","21","0","0","21","21","0","21","21","22","z","12/08/17 12:43:48","The main experiment item","yes","FIN__BA__M21__7%3A10%3A17.osexp","C:\Users\ERP Testing Room\Desktop\Joanna\morph21","no","mono","no","18","no","white","no","yes","1080","legacy","21","21","C:/Users/ERP Testing Room/Desktop/Joanna/morph21/subject-119.csv","xpyriment","Jazzy James","3.1.4","0","z","NA","NA","NA","NA","z","z","712","NA","NA","NA","NA","184608","712","2","legacy","1024","2","48000","-16","BA_m21","119","odd","NW_S_SIMP","BOLTOUS","1359","266495","264895","261870","185975","NA","NA","NA","NA","266490","265392","NA","264395","NA","264391","266490","1367","266795","NA","NA","265495","1359","1359","265895","264391","1359","265495","266795","morph21_Oliver/Morris","21","17497","22","yes","1280","13"
"400","91.3043478261","91.3043478261","794.826086957","794.826086957","black","no","xpyriment","legacy","legacy","0","203","NA","uniform","68554","1000","0.0145870408729","0","undefined","0","0","22","22","22","0","22","22","22","NA","22","22","0","22","NA","22","22","0","22","NA","22","NA","22","0","0","22","22","0","22","22","23","z","12/08/17 12:43:48","The main experiment item","yes","FIN__BA__M21__7%3A10%3A17.osexp","C:\Users\ERP Testing Room\Desktop\Joanna\morph21","no","mono","no","18","no","white","no","yes","1080","legacy","22","22","C:/Users/ERP Testing Room/Desktop/Joanna/morph21/subject-119.csv","xpyriment","Jazzy James","3.1.4","0","/","NA","NA","NA","NA","z","/","784","NA","NA","NA","NA","184608","784","2","legacy","1024","2","48000","-16","BA_m21","119","odd","NW_S_COMP","ALTARIG","1359","269687","268053","261870","185975","NA","NA","NA","NA","266490","268550","NA","267553","NA","267546","269676","1367","270087","NA","NA","268687","1359","1359","269078","267545","1359","268686","270087","morph21_Oliver/Morris","21","18281","23","yes","1280","7"
"350","87.5","87.5","797.666666667","797.666666667","black","no","xpyriment","legacy","legacy","0","205","NA","uniform","65416","1000","0.0152867799927","0","undefined","0","0","23","23","23","0","23","23","23","NA","23","23","0","23","NA","23","23","0","23","NA","23","NA","23","0","0","23","23","0","23","23","24","z","12/08/17 12:43:48","The main experiment item","yes","FIN__BA__M21__7%3A10%3A17.osexp","C:\Users\ERP Testing Room\Desktop\Joanna\morph21","no","mono","no","18","no","white","no","yes","1080","legacy","23","23","C:/Users/ERP Testing Room/Desktop/Joanna/morph21/subject-119.csv","xpyriment","Jazzy James","3.1.4","0","/","NA","NA","NA","NA","z","/","863","NA","NA","NA","NA","184608","863","2","legacy","1024","2","48000","-16","BA_m21","119","odd","NW_S_SIMP","ACREMENT","1359","274437","271303","272928","185975","NA","NA","NA","NA","266490","271800","NA","270803","NA","270799","272925","1367","274787","NA","NA","271928","1359","1359","272328","270799","1359","271928","274787","morph21_Oliver/Morris","21","19144","24","yes","1280","16"
"200","88","88","801.08","801.08","black","no","xpyriment","legacy","legacy","0","203","NA","uniform","58116","1000","0.0172069653796","1","undefined","1","0","24","24","24","0","24","24","24","NA","24","24","0","24","NA","24","24","0","24","NA","24","NA","24","0","0","24","24","0","24","24","25","z","12/08/17 12:43:48","The main experiment item","yes","FIN__BA__M21__7%3A10%3A17.osexp","C:\Users\ERP Testing Room\Desktop\Joanna\morph21","no","mono","no","18","no","white","no","yes","1080","legacy","24","24","C:/Users/ERP Testing Room/Desktop/Joanna/morph21/subject-119.csv","xpyriment","Jazzy James","3.1.4","0","z","NA","NA","NA","NA","z","z","883","NA","NA","NA","NA","184608","883","2","legacy","1024","2","48000","-16","BA_m21","119","odd","NW_S_COMP","MELTANGE","1359","277613","276020","272928","185975","NA","NA","NA","NA","277608","276517","NA","275520","NA","275513","277608","1367","277813","NA","NA","276613","1359","1359","277013","275513","1359","276613","277813","morph21_Oliver/Morris","22","20027","25","yes","1280","1"
"300","88.4615384615","88.4615384615","808.192307692","808.192307692","black","no","xpyriment","legacy","legacy","0","208","NA","uniform","49900","1000","0.0200400801603","1","undefined","1","0","25","25","25","0","25","25","25","NA","25","25","0","25","NA","25","25","0","25","NA","25","NA","25","0","0","25","25","0","25","25","26","z","12/08/17 12:43:48","The main experiment item","yes","FIN__BA__M21__7%3A10%3A17.osexp","C:\Users\ERP Testing Room\Desktop\Joanna\morph21","no","mono","no","18","no","white","no","yes","1080","legacy","25","25","C:/Users/ERP Testing Room/Desktop/Joanna/morph21/subject-119.csv","xpyriment","Jazzy James","3.1.4","0","z","NA","NA","NA","NA","z","z","986","NA","NA","NA","NA","184608","986","2","legacy","1024","2","48000","-16","BA_m21","119","odd","FILL_NW","VOOFS","1359","280630","279046","272928","185975","NA","NA","NA","NA","280622","279543","NA","278546","NA","278537","280622","1367","280930","NA","NA","279630","1359","1359","280021","278537","1359","279630","280930","morph21_Oliver/Morris","23","21013","26","yes","1280","48"
"350","88.8888888889","88.8888888889","806.111111111","806.111111111","black","no","xpyriment","legacy","legacy","0","205","NA","uniform","67682","1000","0.0147749770988","1","undefined","1","0","26","26","26","0","26","26","26","NA","26","26","0","26","NA","26","26","0","26","NA","26","NA","26","0","0","26","26","0","26","26","27","z","12/08/17 12:43:48","The main experiment item","yes","FIN__BA__M21__7%3A10%3A17.osexp","C:\Users\ERP Testing Room\Desktop\Joanna\morph21","no","mono","no","18","no","white","no","yes","1080","legacy","26","26","C:/Users/ERP Testing Room/Desktop/Joanna/morph21/subject-119.csv","xpyriment","Jazzy James","3.1.4","0","z","NA","NA","NA","NA","z","z","752","NA","NA","NA","NA","184608","752","2","legacy","1024","2","48000","-16","BA_m21","119","odd","NW_S_SIMP","BASKORY","1359","285363","282255","283855","185975","NA","NA","NA","NA","283851","282752","NA","281755","NA","281751","283851","1367","285713","NA","NA","282855","1359","1359","283255","281751","1359","282855","285713","morph21_Oliver/Morris","24","21765","27","yes","1280","10"
"300","89.2857142857","89.2857142857","811.821428571","811.821428571","black","no","xpyriment","legacy","legacy","0","207","NA","uniform","54350","1000","0.0183992640294","1","undefined","1","0","27","27","27","0","27","27","27","NA","27","27","0","27","NA","27","27","0","27","NA","27","NA","27","0","0","27","27","0","27","27","28","/","12/08/17 12:43:48","The main experiment item","yes","FIN__BA__M21__7%3A10%3A17.osexp","C:\Users\ERP Testing Room\Desktop\Joanna\morph21","no","mono","no","18","no","white","no","yes","1080","legacy","27","27","C:/Users/ERP Testing Room/Desktop/Joanna/morph21/subject-119.csv","xpyriment","Jazzy James","3.1.4","0","/","NA","NA","NA","NA","z","/","966","NA","NA","NA","NA","184608","966","2","legacy","1024","2","48000","-16","BA_m21","119","odd","FILL_W","BAKE","1359","288513","286905","283855","185975","NA","NA","NA","NA","288507","287402","NA","286405","NA","286401","288507","1367","288813","NA","NA","287513","1359","1359","287905","286400","1359","287513","288813","morph21_Oliver/Morris","25","22731","28","yes","1280","29"
"250","89.6551724138","89.6551724138","803.896551724","803.896551724","black","no","xpyriment","legacy","legacy","0","202","NA","uniform","65855","1000","0.0151848758636","1","undefined","1","0","28","28","28","0","28","28","28","NA","28","28","0","28","NA","28","28","0","28","NA","28","NA","28","0","0","28","28","0","28","28","29","/","12/08/17 12:43:48","The main experiment item","yes","FIN__BA__M21__7%3A10%3A17.osexp","C:\Users\ERP Testing Room\Desktop\Joanna\morph21","no","mono","no","18","no","white","no","yes","1080","legacy","28","28","C:/Users/ERP Testing Room/Desktop/Joanna/morph21/subject-119.csv","xpyriment","Jazzy James","3.1.4","0","/","NA","NA","NA","NA","z","/","582","NA","NA","NA","NA","184608","582","2","legacy","1024","2","48000","-16","BA_m21","119","odd","CW_L","LAUGHING","1359","291697","290088","283855","185975","NA","NA","NA","NA","291687","290586","NA","289588","NA","289583","291687","1367","291947","NA","NA","290697","1359","1359","291089","289582","1359","290697","291947","morph21_Oliver/Morris","26","23313","29","yes","1280","27"
"350","90","90","796.3","796.3","black","no","xpyriment","legacy","legacy","0","202","NA","uniform","66214","1000","0.0151025462893","1","undefined","1","0","29","29","29","0","29","29","29","NA","29","29","0","29","NA","29","29","0","29","NA","29","NA","29","0","0","29","29","0","29","29","30","/","12/08/17 12:43:48","The main experiment item","yes","FIN__BA__M21__7%3A10%3A17.osexp","C:\Users\ERP Testing Room\Desktop\Joanna\morph21","no","mono","no","18","no","white","no","yes","1080","legacy","29","29","C:/Users/ERP Testing Room/Desktop/Joanna/morph21/subject-119.csv","xpyriment","Jazzy James","3.1.4","0","/","NA","NA","NA","NA","z","/","576","NA","NA","NA","NA","184608","576","2","legacy","1024","2","48000","-16","BA_m21","119","odd","CW_L","HUNTER","1359","296365","293264","294856","185975","NA","NA","NA","NA","294847","293761","NA","292764","NA","292758","294847","1367","296715","NA","NA","293856","1359","1359","294248","292757","1359","293856","296715","morph21_Oliver/Morris","27","23889","30","yes","1280","10"
"250","87.0967741935","87.0967741935","798.290322581","798.290322581","black","no","xpyriment","legacy","legacy","0","201","NA","uniform","57007","1000","0.0175417054046","0","undefined","0","0","30","30","30","0","30","30","30","NA","30","30","0","30","NA","30","30","0","30","NA","30","NA","30","0","0","30","30","0","30","30","31","/","12/08/17 12:43:48","The main experiment item","yes","FIN__BA__M21__7%3A10%3A17.osexp","C:\Users\ERP Testing Room\Desktop\Joanna\morph21","no","mono","no","18","no","white","no","yes","1080","legacy","30","30","C:/Users/ERP Testing Room/Desktop/Joanna/morph21/subject-119.csv","xpyriment","Jazzy James","3.1.4","0","z","NA","NA","NA","NA","z","z","858","NA","NA","NA","NA","184608","858","2","legacy","1024","2","48000","-16","BA_m21","119","odd","CW_S","NOTICEABLE","1359","299565","297981","294856","185975","NA","NA","NA","NA","294847","298479","NA","297481","NA","297470","299560","1367","299815","NA","NA","298565","1359","1359","298965","297470","1359","298565","299815","morph21_Oliver/Morris","27","24747","31","yes","1280","3"
"250","87.5","87.5","795.96875","795.96875","black","no","xpyriment","legacy","legacy","0","201","NA","uniform","69301","1000","0.0144298062077","1","undefined","1","0","31","31","31","0","31","31","31","NA","31","31","0","31","NA","31","31","0","31","NA","31","NA","31","0","0","31","31","0","31","31","32","/","12/08/17 12:43:48","The main experiment item","yes","FIN__BA__M21__7%3A10%3A17.osexp","C:\Users\ERP Testing Room\Desktop\Joanna\morph21","no","mono","no","18","no","white","no","yes","1080","legacy","31","31","C:/Users/ERP Testing Room/Desktop/Joanna/morph21/subject-119.csv","xpyriment","Jazzy James","3.1.4","0","/","NA","NA","NA","NA","z","/","724","NA","NA","NA","NA","184608","724","2","legacy","1024","2","48000","-16","BA_m21","119","odd","CW_S","TUTORING","1359","302723","301098","294856","185975","NA","NA","NA","NA","302713","301595","NA","300598","NA","300592","302713","1367","302973","NA","NA","301723","1359","1359","302115","300592","1359","301723","302973","morph21_Oliver/Morris","28","25471","32","yes","1280","27"
"200","87.8787878788","87.8787878788","787.909090909","787.909090909","black","no","xpyriment","legacy","legacy","0","208","NA","uniform","66613","1000","0.0150120847282","1","undefined","1","0","32","32","32","0","32","32","32","NA","32","32","0","32","NA","32","32","0","32","NA","32","NA","32","0","0","32","32","0","32","32","33","z","12/08/17 12:43:48","The main experiment item","yes","FIN__BA__M21__7%3A10%3A17.osexp","C:\Users\ERP Testing Room\Desktop\Joanna\morph21","no","mono","no","18","no","white","no","yes","1080","legacy","32","32","C:/Users/ERP Testing Room/Desktop/Joanna/morph21/subject-119.csv","xpyriment","Jazzy James","3.1.4","0","z","NA","NA","NA","NA","z","z","530","NA","NA","NA","NA","184608","530","2","legacy","1024","2","48000","-16","BA_m21","119","odd","FILL_NW","CINDS","1359","307465","304357","305957","185975","NA","NA","NA","NA","305950","304854","NA","303857","NA","303849","305950","1367","307665","NA","NA","304957","1359","1359","305348","303849","1359","304957","307665","morph21_Oliver/Morris","29","26001","33","yes","1280","6"
"200","85.2941176471","85.2941176471","793.882352941","793.882352941","black","no","xpyriment","legacy","legacy","0","206","NA","uniform","56778","1000","0.0176124555285","0","undefined","0","0","33","33","33","0","33","33","33","NA","33","33","0","33","NA","33","33","0","33","NA","33","NA","33","0","0","33","33","0","33","33","34","z","12/08/17 12:43:48","The main experiment item","yes","FIN__BA__M21__7%3A10%3A17.osexp","C:\Users\ERP Testing Room\Desktop\Joanna\morph21","no","mono","no","18","no","white","no","yes","1080","legacy","33","33","C:/Users/ERP Testing Room/Desktop/Joanna/morph21/subject-119.csv","xpyriment","Jazzy James","3.1.4","0","None","NA","NA","NA","NA","z","None","991","NA","NA","NA","NA","184608","991","2","legacy","1024","2","48000","-16","BA_m21","119","odd","NW_L_SIMP","GROWIST","1359","310457","308865","305957","185975","NA","NA","NA","NA","305950","309362","NA","308365","NA","308357","310448","1367","310657","NA","NA","309457","1359","1359","309849","308357","1359","309457","310657","morph21_Oliver/Morris","29","26992","34","yes","1280","20"
"350","85.7142857143","85.7142857143","788.714285714","788.714285714","black","no","xpyriment","legacy","legacy","0","207","NA","uniform","71947","1000","0.0138991201857","1","undefined","1","0","34","34","34","0","34","34","34","NA","34","34","0","34","NA","34","34","0","34","NA","34","NA","34","0","0","34","34","0","34","34","35","/","12/08/17 12:43:48","The main experiment item","yes","FIN__BA__M21__7%3A10%3A17.osexp","C:\Users\ERP Testing Room\Desktop\Joanna\morph21","no","mono","no","18","no","white","no","yes","1080","legacy","34","34","C:/Users/ERP Testing Room/Desktop/Joanna/morph21/subject-119.csv","xpyriment","Jazzy James","3.1.4","0","/","NA","NA","NA","NA","z","/","613","NA","NA","NA","NA","184608","613","2","legacy","1024","2","48000","-16","BA_m21","119","odd","FILL_W","LIFT","1359","313492","311883","305957","185975","NA","NA","NA","NA","313482","312380","NA","311383","NA","311377","313482","1367","313842","NA","NA","312491","1359","1359","312883","311377","1359","312491","313842","morph21_Oliver/Morris","30","27605","35","yes","1280","39"
"350","86.1111111111","86.1111111111","784.888888889","784.888888889","black","no","xpyriment","legacy","legacy","0","207","NA","uniform","70384","1000","0.0142077744942","1","undefined","1","0","35","35","35","0","35","35","35","NA","35","35","0","35","NA","35","35","0","35","NA","35","NA","35","0","0","35","35","0","35","35","36","/","12/08/17 12:43:48","The main experiment item","yes","FIN__BA__M21__7%3A10%3A17.osexp","C:\Users\ERP Testing Room\Desktop\Joanna\morph21","no","mono","no","18","no","white","no","yes","1080","legacy","35","35","C:/Users/ERP Testing Room/Desktop/Joanna/morph21/subject-119.csv","xpyriment","Jazzy James","3.1.4","0","/","NA","NA","NA","NA","z","/","651","NA","NA","NA","NA","184608","651","2","legacy","1024","2","48000","-16","BA_m21","119","odd","FILL_W","WEIRD","1359","318233","315117","316725","185975","NA","NA","NA","NA","316719","315614","NA","314617","NA","314612","316719","1367","318584","NA","NA","315725","1359","1359","316117","314612","1359","315725","318584","morph21_Oliver/Morris","31","28256","36","yes","1280","2"
"350","86.4864864865","86.4864864865","787.243243243","787.243243243","black","no","xpyriment","legacy","legacy","0","208","NA","uniform","57502","1000","0.0173906994539","1","undefined","1","0","36","36","36","0","36","36","36","NA","36","36","0","36","NA","36","36","0","36","NA","36","NA","36","0","0","36","36","0","36","36","37","z","12/08/17 12:43:48","The main experiment item","yes","FIN__BA__M21__7%3A10%3A17.osexp","C:\Users\ERP Testing Room\Desktop\Joanna\morph21","no","mono","no","18","no","white","no","yes","1080","legacy","36","36","C:/Users/ERP Testing Room/Desktop/Joanna/morph21/subject-119.csv","xpyriment","Jazzy James","3.1.4","0","z","NA","NA","NA","NA","z","z","872","NA","NA","NA","NA","184608","872","2","legacy","1024","2","48000","-16","BA_m21","119","odd","FILL_NW","DARF","1359","321559","319942","316725","185975","NA","NA","NA","NA","321551","320439","NA","319442","NA","319434","321551","1367","321909","NA","NA","320559","1359","1359","320950","319434","1359","320559","321909","morph21_Oliver/Morris","32","29128","37","yes","1280","10"
"200","86.8421052632","86.8421052632","782.868421053","782.868421053","black","no","xpyriment","legacy","legacy","0","208","NA","uniform","63543","1000","0.0157373746912","1","undefined","1","0","37","37","37","0","37","37","37","NA","37","37","0","37","NA","37","37","0","37","NA","37","NA","37","0","0","37","37","0","37","37","38","z","12/08/17 12:43:48","The main experiment item","yes","FIN__BA__M21__7%3A10%3A17.osexp","C:\Users\ERP Testing Room\Desktop\Joanna\morph21","no","mono","no","18","no","white","no","yes","1080","legacy","37","37","C:/Users/ERP Testing Room/Desktop/Joanna/morph21/subject-119.csv","xpyriment","Jazzy James","3.1.4","0","z","NA","NA","NA","NA","z","z","621","NA","NA","NA","NA","184608","621","2","legacy","1024","2","48000","-16","BA_m21","119","odd","FILL_NW","VUNKS","1359","324842","323250","316725","185975","NA","NA","NA","NA","324834","323747","NA","322750","NA","322739","324834","1367","325042","NA","NA","323842","1359","1359","324234","322739","1359","323842","325042","morph21_Oliver/Morris","33","29749","38","yes","1280","49"
"400","87.1794871795","87.1794871795","779.230769231","779.230769231","black","no","xpyriment","legacy","legacy","0","204","NA","uniform","66399","1000","0.0150604677781","1","undefined","1","0","38","38","38","0","38","38","38","NA","38","38","0","38","NA","38","38","0","38","NA","38","NA","38","0","0","38","38","0","38","38","39","z","12/08/17 12:43:48","The main experiment item","yes","FIN__BA__M21__7%3A10%3A17.osexp","C:\Users\ERP Testing Room\Desktop\Joanna\morph21","no","mono","no","18","no","white","no","yes","1080","legacy","38","38","C:/Users/ERP Testing Room/Desktop/Joanna/morph21/subject-119.csv","xpyriment","Jazzy James","3.1.4","0","z","NA","NA","NA","NA","z","z","641","NA","NA","NA","NA","184608","641","2","legacy","1024","2","48000","-16","BA_m21","119","odd","NW_L_COMP","RIPENGE","1359","329443","326309","327934","185975","NA","NA","NA","NA","327925","326806","NA","325800","NA","325792","327925","1367","329843","NA","NA","326934","1359","1359","327325","325792","1359","326934","329843","morph21_Oliver/Morris","34","30390","39","yes","1280","4"
"200","87.5","87.5","779.75","779.75","black","no","xpyriment","legacy","legacy","0","205","NA","uniform","60914","1000","0.0164165873198","1","undefined","1","0","39","39","39","0","39","39","39","NA","39","39","0","39","NA","39","39","0","39","NA","39","NA","39","0","0","39","39","0","39","39","40","z","12/08/17 12:43:48","The main experiment item","yes","FIN__BA__M21__7%3A10%3A17.osexp","C:\Users\ERP Testing Room\Desktop\Joanna\morph21","no","mono","no","18","no","white","no","yes","1080","legacy","39","39","C:/Users/ERP Testing Room/Desktop/Joanna/morph21/subject-119.csv","xpyriment","Jazzy James","3.1.4","0","z","NA","NA","NA","NA","z","z","800","NA","NA","NA","NA","184608","800","2","legacy","1024","2","48000","-16","BA_m21","119","odd","NW_S_SIMP","THRILLANCE","1359","332752","331143","327934","185975","NA","NA","NA","NA","332749","331640","NA","330643","NA","330638","332749","1367","332952","NA","NA","331752","1359","1359","332152","330638","1359","331752","332952","morph21_Oliver/Morris","35","31190","40","yes","1280","22"
"400","87.8048780488","87.8048780488","783.804878049","783.804878049","black","no","xpyriment","legacy","legacy","0","208","NA","uniform","52781","1000","0.018946211705","1","undefined","1","0","40","40","40","0","40","40","40","NA","40","40","0","40","NA","40","40","0","40","NA","40","NA","40","0","0","40","40","0","40","40","41","z","12/08/17 12:43:48","The main experiment item","yes","FIN__BA__M21__7%3A10%3A17.osexp","C:\Users\ERP Testing Room\Desktop\Joanna\morph21","no","mono","no","18","no","white","no","yes","1080","legacy","40","40","C:/Users/ERP Testing Room/Desktop/Joanna/morph21/subject-119.csv","xpyriment","Jazzy James","3.1.4","0","z","NA","NA","NA","NA","z","z","946","NA","NA","NA","NA","184608","946","2","legacy","1024","2","48000","-16","BA_m21","119","odd","FILL_NW","DROES","1359","335893","334310","327934","185975","NA","NA","NA","NA","335889","334807","NA","333810","NA","333798","335889","1367","336294","NA","NA","334893","1359","1359","335293","333798","1359","334893","336294","morph21_Oliver/Morris","36","32136","41","yes","1280","17"
"300","88.0952380952","88.0952380952","787.785714286","787.785714286","black","no","xpyriment","legacy","legacy","0","205","NA","uniform","54955","1000","0.0181967063961","1","undefined","1","0","41","41","41","0","41","41","41","NA","41","41","0","41","NA","41","41","0","41","NA","41","NA","41","0","0","41","41","0","41","41","42","z","12/08/17 12:43:48","The main experiment item","yes","FIN__BA__M21__7%3A10%3A17.osexp","C:\Users\ERP Testing Room\Desktop\Joanna\morph21","no","mono","no","18","no","white","no","yes","1080","legacy","41","41","C:/Users/ERP Testing Room/Desktop/Joanna/morph21/subject-119.csv","xpyriment","Jazzy James","3.1.4","0","z","NA","NA","NA","NA","z","z","951","NA","NA","NA","NA","184608","951","2","legacy","1024","2","48000","-16","BA_m21","119","odd","NW_S_SIMP","NEXTNESS","1359","340660","337519","339152","185975","NA","NA","NA","NA","339149","338016","NA","337019","NA","337013","339149","1367","340961","NA","NA","338160","1359","1359","338552","337013","1359","338160","340961","morph21_Oliver/Morris","37","33087","42","yes","1280","9"
"350","88.3720930233","88.3720930233","786.11627907","786.11627907","black","no","xpyriment","legacy","legacy","0","202","NA","uniform","59680","1000","0.0167560321716","1","undefined","1","0","42","42","42","0","42","42","42","NA","42","42","0","42","NA","42","42","0","42","NA","42","NA","42","0","0","42","42","0","42","42","43","/","12/08/17 12:43:48","The main experiment item","yes","FIN__BA__M21__7%3A10%3A17.osexp","C:\Users\ERP Testing Room\Desktop\Joanna\morph21","no","mono","no","18","no","white","no","yes","1080","legacy","42","42","C:/Users/ERP Testing Room/Desktop/Joanna/morph21/subject-119.csv","xpyriment","Jazzy James","3.1.4","0","/","NA","NA","NA","NA","z","/","716","NA","NA","NA","NA","184608","716","2","legacy","1024","2","48000","-16","BA_m21","119","odd","CW_L","KICKING","1359","343819","342235","339152","185975","NA","NA","NA","NA","343812","342733","NA","341735","NA","341726","343812","1367","344169","NA","NA","342819","1359","1359","343210","341726","1359","342819","344169","morph21_Oliver/Morris","38","33803","43","yes","1280","23"
"250","88.6363636364","88.6363636364","783.613636364","783.613636364","black","no","xpyriment","legacy","legacy","0","204","NA","uniform","72766","1000","0.0137426820218","1","undefined","1","0","43","43","43","0","43","43","43","NA","43","43","0","43","NA","43","43","0","43","NA","43","NA","43","0","0","43","43","0","43","43","44","z","12/08/17 12:43:48","The main experiment item","yes","FIN__BA__M21__7%3A10%3A17.osexp","C:\Users\ERP Testing Room\Desktop\Joanna\morph21","no","mono","no","18","no","white","no","yes","1080","legacy","43","43","C:/Users/ERP Testing Room/Desktop/Joanna/morph21/subject-119.csv","xpyriment","Jazzy James","3.1.4","0","z","NA","NA","NA","NA","z","z","676","NA","NA","NA","NA","184608","676","2","legacy","1024","2","48000","-16","BA_m21","119","odd","NW_L_COMP","FREENELS","1359","347053","345444","339152","185975","NA","NA","NA","NA","347044","345941","NA","344944","NA","344935","347044","1367","347303","NA","NA","346052","1359","1359","346445","344935","1359","346052","347303","morph21_Oliver/Morris","39","34479","44","yes","1280","15"
"400","88.8888888889","88.8888888889","782.088888889","782.088888889","black","no","xpyriment","legacy","legacy","0","202","NA","uniform","62021","1000","0.0161235710485","1","undefined","1","0","44","44","44","0","44","44","44","NA","44","44","0","44","NA","44","44","0","44","NA","44","NA","44","0","0","44","44","0","44","44","45","/","12/08/17 12:43:48","The main experiment item","yes","FIN__BA__M21__7%3A10%3A17.osexp","C:\Users\ERP Testing Room\Desktop\Joanna\morph21","no","mono","no","18","no","white","no","yes","1080","legacy","44","44","C:/Users/ERP Testing Room/Desktop/Joanna/morph21/subject-119.csv","xpyriment","Jazzy James","3.1.4","0","/","NA","NA","NA","NA","z","/","715","NA","NA","NA","NA","184608","715","2","legacy","1024","2","48000","-16","BA_m21","119","odd","CW_L","STYLISH","1359","351754","348628","350245","185975","NA","NA","NA","NA","350239","349126","NA","348128","NA","348123","350239","1367","352154","NA","NA","349245","1359","1359","349637","348123","1359","349245","352154","morph21_Oliver/Morris","40","35194","45","yes","1280","29"
"400","89.1304347826","89.1304347826","785.97826087","785.97826087","black","no","xpyriment","legacy","legacy","0","201","NA","uniform","58174","1000","0.0171898098807","1","undefined","1","0","45","45","45","0","45","45","45","NA","45","45","0","45","NA","45","45","0","45","NA","45","NA","45","0","0","45","45","0","45","45","46","/","12/08/17 12:43:48","The main experiment item","yes","FIN__BA__M21__7%3A10%3A17.osexp","C:\Users\ERP Testing Room\Desktop\Joanna\morph21","no","mono","no","18","no","white","no","yes","1080","legacy","45","45","C:/Users/ERP Testing Room/Desktop/Joanna/morph21/subject-119.csv","xpyriment","Jazzy James","3.1.4","0","/","NA","NA","NA","NA","z","/","961","NA","NA","NA","NA","184608","961","2","legacy","1024","2","48000","-16","BA_m21","119","odd","CW_S","DIETARY","1359","355062","353454","350245","185975","NA","NA","NA","NA","355055","353951","NA","352954","NA","352944","355055","1367","355462","NA","NA","354062","1359","1359","354454","352944","1359","354062","355462","morph21_Oliver/Morris","41","36155","46","yes","1280","6"
"400","87.2340425532","87.2340425532","790.361702128","790.361702128","black","no","xpyriment","legacy","legacy","0","208","NA","uniform","57346","1000","0.017438007882","0","undefined","0","0","46","46","46","0","46","46","46","NA","46","46","0","46","NA","46","46","0","46","NA","46","NA","46","0","0","46","46","0","46","46","47","z","12/08/17 12:43:48","The main experiment item","yes","FIN__BA__M21__7%3A10%3A17.osexp","C:\Users\ERP Testing Room\Desktop\Joanna\morph21","no","mono","no","18","no","white","no","yes","1080","legacy","46","46","C:/Users/ERP Testing Room/Desktop/Joanna/morph21/subject-119.csv","xpyriment","Jazzy James","3.1.4","0","None","NA","NA","NA","NA","z","None","992","NA","NA","NA","NA","184608","992","2","legacy","1024","2","48000","-16","BA_m21","119","odd","FILL_NW","BUTE","1359","358404","356795","350245","185975","NA","NA","NA","NA","355055","357293","NA","356295","NA","356288","358396","1367","358804","NA","NA","357404","1359","1359","357796","356288","1359","357404","358804","morph21_Oliver/Morris","41","37147","47","yes","1280","5"
"300","85.4166666667","85.4166666667","794.541666667","794.541666667","black","no","xpyriment","legacy","legacy","0","204","NA","uniform","50385","1000","0.0198471767391","0","undefined","0","0","47","47","47","0","47","47","47","NA","47","47","0","47","NA","47","47","0","47","NA","47","NA","47","0","0","47","47","0","47","47","48","z","12/08/17 12:43:48","The main experiment item","yes","FIN__BA__M21__7%3A10%3A17.osexp","C:\Users\ERP Testing Room\Desktop\Joanna\morph21","no","mono","no","18","no","white","no","yes","1080","legacy","47","47","C:/Users/ERP Testing Room/Desktop/Joanna/morph21/subject-119.csv","xpyriment","Jazzy James","3.1.4","0","None","NA","NA","NA","NA","z","None","991","NA","NA","NA","NA","184608","991","2","legacy","1024","2","48000","-16","BA_m21","119","odd","NW_L_COMP","KINGILM","1359","363154","360037","361646","185975","NA","NA","NA","NA","355055","360534","NA","359537","NA","359531","361639","1367","363454","NA","NA","360646","1359","1359","361037","359531","1359","360646","363454","morph21_Oliver/Morris","41","38138","48","yes","1280","19"
"250","85.7142857143","85.7142857143","793.306122449","793.306122449","black","no","xpyriment","legacy","legacy","0","207","NA","uniform","61935","1000","0.0161459594736","1","undefined","1","0","48","48","48","0","48","48","48","NA","48","48","0","48","NA","48","48","0","48","NA","48","NA","48","0","0","48","48","0","48","48","49","/","12/08/17 12:43:48","The main experiment item","yes","FIN__BA__M21__7%3A10%3A17.osexp","C:\Users\ERP Testing Room\Desktop\Joanna\morph21","no","mono","no","18","no","white","no","yes","1080","legacy","48","48","C:/Users/ERP Testing Room/Desktop/Joanna/morph21/subject-119.csv","xpyriment","Jazzy James","3.1.4","0","/","NA","NA","NA","NA","z","/","734","NA","NA","NA","NA","184608","734","2","legacy","1024","2","48000","-16","BA_m21","119","odd","FILL_W","SHIP","1359","366313","364713","361646","185975","NA","NA","NA","NA","366310","365211","NA","364213","NA","364204","366310","1367","366563","NA","NA","365314","1359","1359","365713","364204","1359","365313","366563","morph21_Oliver/Morris","42","38872","49","yes","1280","37"
"200","86","86","791.06","791.06","black","no","xpyriment","legacy","legacy","0","203","NA","uniform","67122","1000","0.0148982449867","1","undefined","1","0","49","49","49","0","49","49","49","NA","49","49","0","49","NA","49","49","0","49","NA","49","NA","49","0","0","49","49","0","49","49","50","z","12/08/17 12:43:48","The main experiment item","yes","FIN__BA__M21__7%3A10%3A17.osexp","C:\Users\ERP Testing Room\Desktop\Joanna\morph21","no","mono","no","18","no","white","no","yes","1080","legacy","49","49","C:/Users/ERP Testing Room/Desktop/Joanna/morph21/subject-119.csv","xpyriment","Jazzy James","3.1.4","0","z","NA","NA","NA","NA","z","z","681","NA","NA","NA","NA","184608","681","2","legacy","1024","2","48000","-16","BA_m21","119","odd","NW_S_COMP","PILLIME","1359","369439","367855","361646","185975","NA","NA","NA","NA","369431","368352","NA","367355","NA","367348","369431","1367","369639","NA","NA","368439","1359","1359","368830","367348","1359","368439","369639","morph21_Oliver/Morris","43","39553","50","yes","1280","13"
"300","86.2745098039","86.2745098039","792.470588235","792.470588235","black","no","xpyriment","legacy","legacy","0","205","NA","uniform","60929","1000","0.01641254575","1","undefined","1","0","50","50","50","0","50","50","50","NA","50","50","0","50","NA","50","50","0","50","NA","50","NA","50","0","0","50","50","0","50","50","51","z","12/08/17 12:43:48","The main experiment item","yes","FIN__BA__M21__7%3A10%3A17.osexp","C:\Users\ERP Testing Room\Desktop\Joanna\morph21","no","mono","no","18","no","white","no","yes","1080","legacy","50","50","C:/Users/ERP Testing Room/Desktop/Joanna/morph21/subject-119.csv","xpyriment","Jazzy James","3.1.4","0","z","NA","NA","NA","NA","z","z","863","NA","NA","NA","NA","184608","863","2","legacy","1024","2","48000","-16","BA_m21","119","odd","NW_S_SIMP","FEVERIZE","1359","373972","370864","372464","185975","NA","NA","NA","NA","372458","371361","NA","370364","NA","370360","372458","1367","374272","NA","NA","371464","1359","1359","371855","370360","1359","371464","374272","morph21_Oliver/Morris","44","40416","51","yes","1280","24"
"250","86.5384615385","86.5384615385","792.076923077","792.076923077","black","no","xpyriment","legacy","legacy","0","203","NA","uniform","61275","1000","0.016319869441","1","undefined","1","0","51","51","51","0","51","51","51","NA","51","51","0","51","NA","51","51","0","51","NA","51","NA","51","0","0","51","51","0","51","51","52","z","12/08/17 12:43:48","The main experiment item","yes","FIN__BA__M21__7%3A10%3A17.osexp","C:\Users\ERP Testing Room\Desktop\Joanna\morph21","no","mono","no","18","no","white","no","yes","1080","legacy","51","51","C:/Users/ERP Testing Room/Desktop/Joanna/morph21/subject-119.csv","xpyriment","Jazzy James","3.1.4","0","z","NA","NA","NA","NA","z","z","772","NA","NA","NA","NA","184608","772","2","legacy","1024","2","48000","-16","BA_m21","119","odd","NW_S_COMP","TREASONIME","1359","377147","375539","372464","185975","NA","NA","NA","NA","377137","376036","NA","375039","NA","375027","377137","1367","377397","NA","NA","376147","1359","1359","376539","375027","1359","376147","377397","morph21_Oliver/Morris","45","41188","52","yes","1280","14"
"250","86.7924528302","86.7924528302","788.962264151","788.962264151","black","no","xpyriment","legacy","legacy","0","207","NA","uniform","71199","1000","0.0140451410834","1","undefined","1","0","52","52","52","0","52","52","52","NA","52","52","0","52","NA","52","52","0","52","NA","52","NA","52","0","0","52","52","0","52","52","53","/","12/08/17 12:43:48","The main experiment item","yes","FIN__BA__M21__7%3A10%3A17.osexp","C:\Users\ERP Testing Room\Desktop\Joanna\morph21","no","mono","no","18","no","white","no","yes","1080","legacy","52","52","C:/Users/ERP Testing Room/Desktop/Joanna/morph21/subject-119.csv","xpyriment","Jazzy James","3.1.4","0","/","NA","NA","NA","NA","z","/","627","NA","NA","NA","NA","184608","627","2","legacy","1024","2","48000","-16","BA_m21","119","odd","FILL_W","TREAT","1359","380347","378756","372464","185975","NA","NA","NA","NA","380344","379253","NA","378256","NA","378245","380344","1367","380598","NA","NA","379356","1359","1359","379747","378245","1359","379356","380598","morph21_Oliver/Morris","46","41815","53","yes","1280","48"
"350","87.037037037","87.037037037","786.092592593","786.092592593","black","no","xpyriment","legacy","legacy","0","202","NA","uniform","70944","1000","0.0140956247181","1","undefined","1","0","53","53","53","0","53","53","53","NA","53","53","0","53","NA","53","53","0","53","NA","53","NA","53","0","0","53","53","0","53","53","54","/","12/08/17 12:43:48","The main experiment item","yes","FIN__BA__M21__7%3A10%3A17.osexp","C:\Users\ERP Testing Room\Desktop\Joanna\morph21","no","mono","no","18","no","white","no","yes","1080","legacy","53","53","C:/Users/ERP Testing Room/Desktop/Joanna/morph21/subject-119.csv","xpyriment","Jazzy James","3.1.4","0","/","NA","NA","NA","NA","z","/","634","NA","NA","NA","NA","184608","634","2","legacy","1024","2","48000","-16","BA_m21","119","odd","CW_L","PUNCHER","1359","384899","381807","383390","185975","NA","NA","NA","NA","383381","382304","NA","381307","NA","381298","383381","1367","385249","NA","NA","382390","1359","1359","382782","381298","1359","382390","385249","morph21_Oliver/Morris","47","42449","54","yes","1280","1"
"350","87.2727272727","87.2727272727","785.945454545","785.945454545","black","no","xpyriment","legacy","legacy","0","206","NA","uniform","66573","1000","0.015021104652","1","undefined","1","0","54","54","54","0","54","54","54","NA","54","54","0","54","NA","54","54","0","54","NA","54","NA","54","0","0","54","54","0","54","54","55","z","12/08/17 12:43:48","The main experiment item","yes","FIN__BA__M21__7%3A10%3A17.osexp","C:\Users\ERP Testing Room\Desktop\Joanna\morph21","no","mono","no","18","no","white","no","yes","1080","legacy","54","54","C:/Users/ERP Testing Room/Desktop/Joanna/morph21/subject-119.csv","xpyriment","Jazzy James","3.1.4","0","z","NA","NA","NA","NA","z","z","778","NA","NA","NA","NA","184608","778","2","legacy","1024","2","48000","-16","BA_m21","119","odd","NW_L_SIMP","WITCHISH","1359","388149","386532","383390","185975","NA","NA","NA","NA","388146","387029","NA","386032","NA","386024","388146","1367","388499","NA","NA","387157","1359","1359","387549","386023","1359","387157","388499","morph21_Oliver/Morris","48","43227","55","yes","1280","11"
"200","87.5","87.5","783.803571429","783.803571429","black","no","xpyriment","legacy","legacy","0","208","NA","uniform","66221","1000","0.0151009498497","1","undefined","1","0","55","55","55","0","55","55","55","NA","55","55","0","55","NA","55","55","0","55","NA","55","NA","55","0","0","55","55","0","55","55","56","z","12/08/17 12:43:48","The main experiment item","yes","FIN__BA__M21__7%3A10%3A17.osexp","C:\Users\ERP Testing Room\Desktop\Joanna\morph21","no","mono","no","18","no","white","no","yes","1080","legacy","55","55","C:/Users/ERP Testing Room/Desktop/Joanna/morph21/subject-119.csv","xpyriment","Jazzy James","3.1.4","0","z","NA","NA","NA","NA","z","z","666","NA","NA","NA","NA","184608","666","2","legacy","1024","2","48000","-16","BA_m21","119","odd","FILL_NW","PUCTS","1359","391341","389757","383390","185975","NA","NA","NA","NA","391331","390254","NA","389257","NA","389254","391331","1367","391541","NA","NA","390341","1359","1359","390732","389254","1359","390341","391541","morph21_Oliver/Morris","49","43893","56","yes","1280","40"
"250","87.7192982456","87.7192982456","781.98245614","781.98245614","black","no","xpyriment","legacy","legacy","0","201","NA","uniform","62563","1000","0.0159838882407","1","undefined","1","0","56","56","56","0","56","56","56","NA","56","56","0","56","NA","56","56","0","56","NA","56","NA","56","0","0","56","56","0","56","56","57","/","12/08/17 12:43:48","The main experiment item","yes","FIN__BA__M21__7%3A10%3A17.osexp","C:\Users\ERP Testing Room\Desktop\Joanna\morph21","no","mono","no","18","no","white","no","yes","1080","legacy","56","56","C:/Users/ERP Testing Room/Desktop/Joanna/morph21/subject-119.csv","xpyriment","Jazzy James","3.1.4","0","/","NA","NA","NA","NA","z","/","680","NA","NA","NA","NA","184608","680","2","legacy","1024","2","48000","-16","BA_m21","119","odd","CW_S","PEAKING","1359","395908","392816","394399","185975","NA","NA","NA","NA","394390","393313","NA","392307","NA","392297","394390","1367","396158","NA","NA","393399","1359","1359","393791","392297","1359","393399","396158","morph21_Oliver/Morris","50","44573","57","yes","1280","28"
"400","87.9310344828","87.9310344828","780.25862069","780.25862069","black","no","xpyriment","legacy","legacy","0","202","NA","uniform","64925","1000","0.01540238737","1","undefined","1","0","57","57","57","0","57","57","57","NA","57","57","0","57","NA","57","57","0","57","NA","57","NA","57","0","0","57","57","0","57","57","58","/","12/08/17 12:43:48","The main experiment item","yes","FIN__BA__M21__7%3A10%3A17.osexp","C:\Users\ERP Testing Room\Desktop\Joanna\morph21","no","mono","no","18","no","white","no","yes","1080","legacy","57","57","C:/Users/ERP Testing Room/Desktop/Joanna/morph21/subject-119.csv","xpyriment","Jazzy James","3.1.4","0","/","NA","NA","NA","NA","z","/","682","NA","NA","NA","NA","184608","682","2","legacy","1024","2","48000","-16","BA_m21","119","odd","CW_L","SHAPELY","1359","399175","397574","394399","185975","NA","NA","NA","NA","399170","398071","NA","397074","NA","397068","399170","1367","399575","NA","NA","398174","1359","1359","398574","397067","1359","398174","399575","morph21_Oliver/Morris","51","45255","58","yes","1280","35"
"300","88.1355932203","88.1355932203","783.711864407","783.711864407","black","no","xpyriment","legacy","legacy","0","206","NA","uniform","61331","1000","0.0163049681238","1","undefined","1","0","58","58","58","0","58","58","58","NA","58","58","0","58","NA","58","58","0","58","NA","58","NA","58","0","0","58","58","0","58","58","59","z","12/08/17 12:43:48","The main experiment item","yes","FIN__BA__M21__7%3A10%3A17.osexp","C:\Users\ERP Testing Room\Desktop\Joanna\morph21","no","mono","no","18","no","white","no","yes","1080","legacy","58","58","C:/Users/ERP Testing Room/Desktop/Joanna/morph21/subject-119.csv","xpyriment","Jazzy James","3.1.4","0","z","NA","NA","NA","NA","z","z","984","NA","NA","NA","NA","184608","984","2","legacy","1024","2","48000","-16","BA_m21","119","odd","NW_L_SIMP","BEANISH","1359","402400","400792","394399","185975","NA","NA","NA","NA","402395","401289","NA","400292","NA","400280","402395","1367","402700","NA","NA","401400","1359","1359","401792","400280","1359","401400","402700","morph21_Oliver/Morris","52","46239","59","yes","1280","8"
"400","86.6666666667","86.6666666667","787.216666667","787.216666667","black","no","xpyriment","legacy","legacy","0","205","NA","uniform","61007","1000","0.0163915616241","0","undefined","0","0","59","59","59","0","59","59","59","NA","59","59","0","59","NA","59","59","0","59","NA","59","NA","59","0","0","59","59","0","59","59","60","z","12/08/17 12:43:48","The main experiment item","yes","FIN__BA__M21__7%3A10%3A17.osexp","C:\Users\ERP Testing Room\Desktop\Joanna\morph21","no","mono","no","18","no","white","no","yes","1080","legacy","59","59","C:/Users/ERP Testing Room/Desktop/Joanna/morph21/subject-119.csv","xpyriment","Jazzy James","3.1.4","0","None","NA","NA","NA","NA","z","None","994","NA","NA","NA","NA","184608","994","2","legacy","1024","2","48000","-16","BA_m21","119","odd","NW_S_SIMP","URNIST","1359","407067","403934","405559","185975","NA","NA","NA","NA","402395","404431","NA","403434","NA","403428","405553","1367","407467","NA","NA","404559","1359","1359","404951","403428","1359","404559","407467","morph21_Oliver/Morris","52","47233","60","yes","1280","5"
"400","86.8852459016","86.8852459016","785.442622951","785.442622951","black","no","xpyriment","legacy","legacy","0","208","NA","uniform","64073","1000","0.0156071980397","1","undefined","1","0","60","60","60","0","60","60","60","NA","60","60","0","60","NA","60","60","0","60","NA","60","NA","60","0","0","60","60","0","60","60","61","z","12/08/17 12:43:48","The main experiment item","yes","FIN__BA__M21__7%3A10%3A17.osexp","C:\Users\ERP Testing Room\Desktop\Joanna\morph21","no","mono","no","18","no","white","no","yes","1080","legacy","60","60","C:/Users/ERP Testing Room/Desktop/Joanna/morph21/subject-119.csv","xpyriment","Jazzy James","3.1.4","0","z","NA","NA","NA","NA","z","z","679","NA","NA","NA","NA","184608","679","2","legacy","1024","2","48000","-16","BA_m21","119","odd","FILL_NW","BALFS","1359","410384","408792","405559","185975","NA","NA","NA","NA","410375","409289","NA","408292","NA","408285","410375","1367","410784","NA","NA","409384","1359","1359","409776","408285","1359","409384","410784","morph21_Oliver/Morris","53","47912","61","yes","1280","2"
"400","85.4838709677","85.4838709677","788.774193548","788.774193548","black","no","xpyriment","legacy","legacy","0","204","NA","uniform","53384","1000","0.0187322044058","0","undefined","0","0","61","61","61","0","61","61","61","NA","61","61","0","61","NA","61","61","0","61","NA","61","NA","61","0","0","61","61","0","61","61","62","z","12/08/17 12:43:48","The main experiment item","yes","FIN__BA__M21__7%3A10%3A17.osexp","C:\Users\ERP Testing Room\Desktop\Joanna\morph21","no","mono","no","18","no","white","no","yes","1080","legacy","61","61","C:/Users/ERP Testing Room/Desktop/Joanna/morph21/subject-119.csv","xpyriment","Jazzy James","3.1.4","0","None","NA","NA","NA","NA","z","None","992","NA","NA","NA","NA","184608","992","2","legacy","1024","2","48000","-16","BA_m21","119","odd","NW_L_COMP","PASSMANT","1359","413693","412084","405559","185975","NA","NA","NA","NA","410375","412581","NA","411584","NA","411577","413685","1367","414093","NA","NA","412693","1359","1359","413084","411577","1359","412693","414093","morph21_Oliver/Morris","53","48904","62","yes","1280","14"
"400","84.126984127","84.126984127","787.634920635","787.634920635","black","no","xpyriment","legacy","legacy","0","205","NA","uniform","66299","1000","0.0150831837584","0","undefined","0","0","62","62","62","0","62","62","62","NA","62","62","0","62","NA","62","62","0","62","NA","62","NA","62","0","0","62","62","0","62","62","63","z","12/08/17 12:43:48","The main experiment item","yes","FIN__BA__M21__7%3A10%3A17.osexp","C:\Users\ERP Testing Room\Desktop\Joanna\morph21","no","mono","no","18","no","white","no","yes","1080","legacy","62","62","C:/Users/ERP Testing Room/Desktop/Joanna/morph21/subject-119.csv","xpyriment","Jazzy James","3.1.4","0","/","NA","NA","NA","NA","z","/","717","NA","NA","NA","NA","184608","717","2","legacy","1024","2","48000","-16","BA_m21","119","odd","NW_S_SIMP","AIDIC","1359","418552","415443","417044","185975","NA","NA","NA","NA","410375","415940","NA","414943","NA","414938","417037","1367","418952","NA","NA","416043","1359","1359","416435","414938","1359","416043","418952","morph21_Oliver/Morris","53","49621","63","yes","1280","4"
"200","84.375","84.375","787.53125","787.53125","black","no","xpyriment","legacy","legacy","0","203","NA","uniform","59478","1000","0.016812939238","1","undefined","1","0","63","63","63","0","63","63","63","NA","63","63","0","63","NA","63","63","0","63","NA","63","NA","63","0","0","63","63","0","63","63","64","z","12/08/17 12:43:48","The main experiment item","yes","FIN__BA__M21__7%3A10%3A17.osexp","C:\Users\ERP Testing Room\Desktop\Joanna\morph21","no","mono","no","18","no","white","no","yes","1080","legacy","63","63","C:/Users/ERP Testing Room/Desktop/Joanna/morph21/subject-119.csv","xpyriment","Jazzy James","3.1.4","0","z","NA","NA","NA","NA","z","z","781","NA","NA","NA","NA","184608","781","2","legacy","1024","2","48000","-16","BA_m21","119","odd","NW_S_COMP","DUMBIDY","1359","421811","420227","417044","185975","NA","NA","NA","NA","421808","420724","NA","419727","NA","419723","421808","1367","422011","NA","NA","420819","1359","1359","421211","419723","1359","420819","422011","morph21_Oliver/Morris","54","50402","64","yes","1280","12"
"250","84.6153846154","84.6153846154","788.246153846","788.246153846","black","no","xpyriment","legacy","legacy","0","204","NA","uniform","59620","1000","0.0167728950017","1","undefined","1","0","64","64","64","0","64","64","64","NA","64","64","0","64","NA","64","64","0","64","NA","64","NA","64","0","0","64","64","0","64","64","65","z","12/08/17 12:43:48","The main experiment item","yes","FIN__BA__M21__7%3A10%3A17.osexp","C:\Users\ERP Testing Room\Desktop\Joanna\morph21","no","mono","no","18","no","white","no","yes","1080","legacy","64","64","C:/Users/ERP Testing Room/Desktop/Joanna/morph21/subject-119.csv","xpyriment","Jazzy James","3.1.4","0","z","NA","NA","NA","NA","z","z","834","NA","NA","NA","NA","184608","834","2","legacy","1024","2","48000","-16","BA_m21","119","odd","NW_L_COMP","TRIPADY","1359","424861","423269","417044","185975","NA","NA","NA","NA","424858","423766","NA","422769","NA","422757","424858","1367","425111","NA","NA","423869","1359","1359","424261","422757","1359","423869","425111","morph21_Oliver/Morris","55","51236","65","yes","1280","2"
"350","84.8484848485","84.8484848485","787.181818182","787.181818182","black","no","xpyriment","legacy","legacy","0","201","NA","uniform","68737","1000","0.0145482054789","1","undefined","1","0","65","65","65","0","65","65","65","NA","65","65","0","65","NA","65","65","0","65","NA","65","NA","65","0","0","65","65","0","65","65","66","/","12/08/17 12:43:48","The main experiment item","yes","FIN__BA__M21__7%3A10%3A17.osexp","C:\Users\ERP Testing Room\Desktop\Joanna\morph21","no","mono","no","18","no","white","no","yes","1080","legacy","65","65","C:/Users/ERP Testing Room/Desktop/Joanna/morph21/subject-119.csv","xpyriment","Jazzy James","3.1.4","0","/","NA","NA","NA","NA","z","/","718","NA","NA","NA","NA","184608","718","2","legacy","1024","2","48000","-16","BA_m21","119","odd","CW_S","AMAZEMENT","1359","429469","426369","427961","185975","NA","NA","NA","NA","427955","426866","NA","425869","NA","425864","427955","1367","429819","NA","NA","426961","1359","1359","427352","425864","1359","426961","429819","morph21_Oliver/Morris","56","51954","66","yes","1280","39"
"400","85.0746268657","85.0746268657","789.71641791","789.71641791","black","no","xpyriment","legacy","legacy","0","205","NA","uniform","55379","1000","0.0180573863739","1","undefined","1","0","66","66","66","0","66","66","66","NA","66","66","0","66","NA","66","66","0","66","NA","66","NA","66","0","0","66","66","0","66","66","67","z","12/08/17 12:43:48","The main experiment item","yes","FIN__BA__M21__7%3A10%3A17.osexp","C:\Users\ERP Testing Room\Desktop\Joanna\morph21","no","mono","no","18","no","white","no","yes","1080","legacy","66","66","C:/Users/ERP Testing Room/Desktop/Joanna/morph21/subject-119.csv","xpyriment","Jazzy James","3.1.4","0","z","NA","NA","NA","NA","z","z","957","NA","NA","NA","NA","184608","957","2","legacy","1024","2","48000","-16","BA_m21","119","odd","NW_S_SIMP","RAMPIZE","1359","432786","431169","427961","185975","NA","NA","NA","NA","432776","431666","NA","430669","NA","430666","432776","1367","433186","NA","NA","431786","1359","1359","432178","430666","1359","431786","433186","morph21_Oliver/Morris","57","52911","67","yes","1280","6"
"250","85.2941176471","85.2941176471","787.294117647","787.294117647","black","no","xpyriment","legacy","legacy","0","207","NA","uniform","69613","1000","0.0143651329493","1","undefined","1","0","67","67","67","0","67","67","67","NA","67","67","0","67","NA","67","67","0","67","NA","67","NA","67","0","0","67","67","0","67","67","68","/","12/08/17 12:43:48","The main experiment item","yes","FIN__BA__M21__7%3A10%3A17.osexp","C:\Users\ERP Testing Room\Desktop\Joanna\morph21","no","mono","no","18","no","white","no","yes","1080","legacy","67","67","C:/Users/ERP Testing Room/Desktop/Joanna/morph21/subject-119.csv","xpyriment","Jazzy James","3.1.4","0","/","NA","NA","NA","NA","z","/","625","NA","NA","NA","NA","184608","625","2","legacy","1024","2","48000","-16","BA_m21","119","odd","FILL_W","SMOKE","1359","436079","434495","427961","185975","NA","NA","NA","NA","436072","434993","NA","433996","NA","433991","436072","1367","436329","NA","NA","435079","1359","1359","435471","433991","1359","435079","436329","morph21_Oliver/Morris","58","53536","68","yes","1280","50"
"200","84.0579710145","84.0579710145","789.753623188","789.753623188","black","no","xpyriment","legacy","legacy","0","208","NA","uniform","60677","1000","0.0164807093297","0","undefined","0","0","68","68","68","0","68","68","68","NA","68","68","0","68","NA","68","68","0","68","NA","68","NA","68","0","0","68","68","0","68","68","69","z","12/08/17 12:43:48","The main experiment item","yes","FIN__BA__M21__7%3A10%3A17.osexp","C:\Users\ERP Testing Room\Desktop\Joanna\morph21","no","mono","no","18","no","white","no","yes","1080","legacy","68","68","C:/Users/ERP Testing Room/Desktop/Joanna/morph21/subject-119.csv","xpyriment","Jazzy James","3.1.4","0","/","NA","NA","NA","NA","z","/","957","NA","NA","NA","NA","184608","957","2","legacy","1024","2","48000","-16","BA_m21","119","odd","FILL_NW","HESK","1359","440687","437579","439179","185975","NA","NA","NA","NA","436072","438076","NA","437079","NA","437072","439172","1367","440888","NA","NA","438179","1359","1359","438571","437072","1359","438179","440888","morph21_Oliver/Morris","58","54493","69","yes","1280","29"
"250","82.8571428571","82.8571428571","792.7","792.7","black","no","xpyriment","legacy","legacy","0","207","NA","uniform","56597","1000","0.0176687810308","0","undefined","0","0","69","69","69","0","69","69","69","NA","69","69","0","69","NA","69","69","0","69","NA","69","NA","69","0","0","69","69","0","69","69","70","/","12/08/17 12:43:48","The main experiment item","yes","FIN__BA__M21__7%3A10%3A17.osexp","C:\Users\ERP Testing Room\Desktop\Joanna\morph21","no","mono","no","18","no","white","no","yes","1080","legacy","69","69","C:/Users/ERP Testing Room/Desktop/Joanna/morph21/subject-119.csv","xpyriment","Jazzy James","3.1.4","0","None","NA","NA","NA","NA","z","None","996","NA","NA","NA","NA","184608","996","2","legacy","1024","2","48000","-16","BA_m21","119","odd","FILL_W","SOUGHT","1359","443738","442137","439179","185975","NA","NA","NA","NA","436072","442635","NA","441638","NA","441633","443734","1367","443988","NA","NA","442738","1359","1359","443137","441633","1359","442738","443988","morph21_Oliver/Morris","58","55489","70","yes","1280","40"
"200","83.0985915493","83.0985915493","791.098591549","791.098591549","black","no","xpyriment","legacy","legacy","0","208","NA","uniform","73318","1000","0.0136392154723","1","undefined","1","0","70","70","70","0","70","70","70","NA","70","70","0","70","NA","70","70","0","70","NA","70","NA","70","0","0","70","70","0","70","70","71","z","12/08/17 12:43:48","The main experiment item","yes","FIN__BA__M21__7%3A10%3A17.osexp","C:\Users\ERP Testing Room\Desktop\Joanna\morph21","no","mono","no","18","no","white","no","yes","1080","legacy","70","70","C:/Users/ERP Testing Room/Desktop/Joanna/morph21/subject-119.csv","xpyriment","Jazzy James","3.1.4","0","z","NA","NA","NA","NA","z","z","679","NA","NA","NA","NA","184608","679","2","legacy","1024","2","48000","-16","BA_m21","119","odd","FILL_NW","SMADE","1359","446896","445313","439179","185975","NA","NA","NA","NA","446890","445810","NA","444813","NA","444803","446890","1367","447096","NA","NA","445896","1359","1359","446288","444803","1359","445896","447096","morph21_Oliver/Morris","59","56168","71","yes","1280","42"
"400","83.3333333333","83.3333333333","789.055555556","789.055555556","black","no","xpyriment","legacy","legacy","0","207","NA","uniform","62728","1000","0.0159418441525","1","undefined","1","0","71","71","71","0","71","71","71","NA","71","71","0","71","NA","71","71","0","71","NA","71","NA","71","0","0","71","71","0","71","71","72","/","12/08/17 12:43:48","The main experiment item","yes","FIN__BA__M21__7%3A10%3A17.osexp","C:\Users\ERP Testing Room\Desktop\Joanna\morph21","no","mono","no","18","no","white","no","yes","1080","legacy","71","71","C:/Users/ERP Testing Room/Desktop/Joanna/morph21/subject-119.csv","xpyriment","Jazzy James","3.1.4","0","/","NA","NA","NA","NA","z","/","644","NA","NA","NA","NA","184608","644","2","legacy","1024","2","48000","-16","BA_m21","119","odd","FILL_W","EAT","1359","451472","448363","449963","185975","NA","NA","NA","NA","449960","448860","NA","447863","NA","447859","449960","1367","451872","NA","NA","448963","1359","1359","449363","447859","1359","448963","451872","morph21_Oliver/Morris","60","56812","72","yes","1280","25"
"250","83.5616438356","83.5616438356","787.98630137","787.98630137","black","no","xpyriment","legacy","legacy","0","202","NA","uniform","61890","1000","0.0161576991436","1","undefined","1","0","72","72","72","0","72","72","72","NA","72","72","0","72","NA","72","72","0","72","NA","72","NA","72","0","0","72","72","0","72","72","73","/","12/08/17 12:43:48","The main experiment item","yes","FIN__BA__M21__7%3A10%3A17.osexp","C:\Users\ERP Testing Room\Desktop\Joanna\morph21","no","mono","no","18","no","white","no","yes","1080","legacy","72","72","C:/Users/ERP Testing Room/Desktop/Joanna/morph21/subject-119.csv","xpyriment","Jazzy James","3.1.4","0","/","NA","NA","NA","NA","z","/","711","NA","NA","NA","NA","184608","711","2","legacy","1024","2","48000","-16","BA_m21","119","odd","CW_L","STRIKER","1359","454689","453081","449963","185975","NA","NA","NA","NA","454686","453578","NA","452581","NA","452570","454686","1367","454939","NA","NA","453697","1359","1359","454089","452570","1359","453697","454939","morph21_Oliver/Morris","61","57523","73","yes","1280","17"
"200","83.7837837838","83.7837837838","784.486486486","784.486486486","black","no","xpyriment","legacy","legacy","0","208","NA","uniform","74800","1000","0.0133689839572","1","undefined","1","0","73","73","73","0","73","73","73","NA","73","73","0","73","NA","73","73","0","73","NA","73","NA","73","0","0","73","73","0","73","73","74","z","12/08/17 12:43:48","The main experiment item","yes","FIN__BA__M21__7%3A10%3A17.osexp","C:\Users\ERP Testing Room\Desktop\Joanna\morph21","no","mono","no","18","no","white","no","yes","1080","legacy","73","73","C:/Users/ERP Testing Room/Desktop/Joanna/morph21/subject-119.csv","xpyriment","Jazzy James","3.1.4","0","z","NA","NA","NA","NA","z","z","529","NA","NA","NA","NA","184608","529","2","legacy","1024","2","48000","-16","BA_m21","119","odd","FILL_NW","PORDS","1359","457822","456214","449963","185975","NA","NA","NA","NA","457819","456711","NA","455714","NA","455710","457819","1367","458023","NA","NA","456831","1359","1359","457222","455710","1359","456831","458023","morph21_Oliver/Morris","62","58052","74","yes","1280","39"
"400","84","84","780.386666667","780.386666667","black","no","xpyriment","legacy","legacy","0","207","NA","uniform","72662","1000","0.0137623517107","undefined","undefined","1","0","74","74","74","0","74","74","74","NA","74","74","0","74","NA","74","74","0","74","NA","74","NA","74","0","0","74","74","0","74","74","75","/","12/08/17 12:43:48","The main experiment item","yes","FIN__BA__M21__7%3A10%3A17.osexp","C:\Users\ERP Testing Room\Desktop\Joanna\morph21","no","mono","no","18","no","white","no","yes","1080","legacy","74","74","C:/Users/ERP Testing Room/Desktop/Joanna/morph21/subject-119.csv","xpyriment","Jazzy James","3.1.4","0","space","space","NA","NA","NA","z","/","12401","12401","NA","NA","NA","184608","477","2","legacy","1024","2","48000","-16","BA_m21","119","odd","FILL_W","CRUNCH","1359","462414","459314","460906","185975","462823","NA","NA","NA","460896","459811","NA","458814","NA","458810","460896","1367","475224","NA","NA","459906","1359","1359","460298","458810","1359","459906","462815","morph21_Oliver/Morris","63","58529","75","yes","1280","20"
"200","82.8947368421","82.8947368421","783.197368421","783.197368421","black","no","xpyriment","legacy","legacy","0","204","NA","uniform","58232","1000","0.0171726885561","0","undefined","0","0","75","75","75","0","75","75","75","NA","75","75","0","75","NA","75","75","0","75","NA","75","NA","75","0","0","75","75","0","75","75","76","z","12/08/17 12:43:48","The main experiment item","yes","FIN__BA__M21__7%3A10%3A17.osexp","C:\Users\ERP Testing Room\Desktop\Joanna\morph21","no","mono","no","18","no","white","no","yes","1080","legacy","75","75","C:/Users/ERP Testing Room/Desktop/Joanna/morph21/subject-119.csv","xpyriment","Jazzy James","3.1.4","0","None","space","NA","NA","NA","z","None","994","12401","NA","NA","NA","184608","994","2","legacy","1024","2","48000","-16","BA_m21","119","odd","NW_L_COMP","GASFIL","1359","478091","476499","460906","185975","462823","NA","NA","NA","460896","476996","NA","475999","NA","475994","478085","1367","478291","NA","NA","477091","1359","1359","477483","475994","1359","477091","478291","morph21_Oliver/Morris","63","59523","76","yes","1280","6"
"300","83.1168831169","83.1168831169","780.25974026","780.25974026","black","no","xpyriment","legacy","legacy","0","205","NA","uniform","72177","1000","0.0138548291007","1","undefined","1","0","76","76","76","0","76","76","76","NA","76","76","0","76","NA","76","76","0","76","NA","76","NA","76","0","0","76","76","0","76","76","77","z","12/08/17 12:43:48","The main experiment item","yes","FIN__BA__M21__7%3A10%3A17.osexp","C:\Users\ERP Testing Room\Desktop\Joanna\morph21","no","mono","no","18","no","white","no","yes","1080","legacy","76","76","C:/Users/ERP Testing Room/Desktop/Joanna/morph21/subject-119.csv","xpyriment","Jazzy James","3.1.4","0","z","space","NA","NA","NA","z","z","557","12401","NA","NA","NA","184608","557","2","legacy","1024","2","48000","-16","BA_m21","119","odd","NW_S_SIMP","TILTARY","1359","481258","479666","460906","185975","462823","NA","NA","NA","481252","480163","NA","479166","NA","479163","481252","1367","481558","NA","NA","480258","1359","1359","480649","479162","1359","480258","481558","morph21_Oliver/Morris","64","60080","77","yes","1280","17"
"400","83.3333333333","83.3333333333","777.256410256","777.256410256","black","no","xpyriment","legacy","legacy","0","201","NA","uniform","71007","1000","0.0140831185658","1","undefined","1","0","77","77","77","0","77","77","77","NA","77","77","0","77","NA","77","77","0","77","NA","77","NA","77","0","0","77","77","0","77","77","78","/","12/08/17 12:43:48","The main experiment item","yes","FIN__BA__M21__7%3A10%3A17.osexp","C:\Users\ERP Testing Room\Desktop\Joanna\morph21","no","mono","no","18","no","white","no","yes","1080","legacy","77","77","C:/Users/ERP Testing Room/Desktop/Joanna/morph21/subject-119.csv","xpyriment","Jazzy James","3.1.4","0","/","space","NA","NA","NA","z","/","546","12401","NA","NA","NA","184608","546","2","legacy","1024","2","48000","-16","BA_m21","119","odd","CW_S","DESIGN","1359","486042","482933","484533","185975","462823","NA","NA","NA","484523","483430","NA","482433","NA","482423","484523","1367","486443","NA","NA","483533","1359","1359","483925","482423","1359","483533","486443","morph21_Oliver/Morris","65","60626","78","yes","1280","19"
"200","83.5443037975","83.5443037975","776.797468354","776.797468354","black","no","xpyriment","legacy","legacy","0","205","NA","uniform","61450","1000","0.0162733930024","1","undefined","1","0","78","78","78","0","78","78","78","NA","78","78","0","78","NA","78","78","0","78","NA","78","NA","78","0","0","78","78","0","78","78","79","z","12/08/17 12:43:48","The main experiment item","yes","FIN__BA__M21__7%3A10%3A17.osexp","C:\Users\ERP Testing Room\Desktop\Joanna\morph21","no","mono","no","18","no","white","no","yes","1080","legacy","78","78","C:/Users/ERP Testing Room/Desktop/Joanna/morph21/subject-119.csv","xpyriment","Jazzy James","3.1.4","0","z","space","NA","NA","NA","z","z","741","12401","NA","NA","NA","184608","741","2","legacy","1024","2","48000","-16","BA_m21","119","odd","NW_S_SIMP","OPPOSEMENT","1359","489259","487684","484533","185975","462823","NA","NA","NA","489254","488181","NA","487184","NA","487177","489254","1367","489459","NA","NA","488259","1359","1359","488651","487177","1359","488259","489459","morph21_Oliver/Morris","66","61367","79","yes","1280","8"
"350","83.75","83.75","773.7125","773.7125","black","no","xpyriment","legacy","legacy","0","201","NA","uniform","75338","1000","0.0132735140301","1","undefined","1","0","79","79","79","0","79","79","79","NA","79","79","0","79","NA","79","79","0","79","NA","79","NA","79","0","0","79","79","0","79","79","80","/","12/08/17 12:43:48","The main experiment item","yes","FIN__BA__M21__7%3A10%3A17.osexp","C:\Users\ERP Testing Room\Desktop\Joanna\morph21","no","mono","no","18","no","white","no","yes","1080","legacy","79","79","C:/Users/ERP Testing Room/Desktop/Joanna/morph21/subject-119.csv","xpyriment","Jazzy James","3.1.4","0","/","space","NA","NA","NA","z","/","530","12401","NA","NA","NA","184608","530","2","legacy","1024","2","48000","-16","BA_m21","119","odd","CW_S","SINGER","1359","492326","490718","484533","185975","462823","NA","NA","NA","492316","491215","NA","490218","NA","490212","492316","1367","492676","NA","NA","491326","1359","1359","491718","490212","1359","491326","492676","morph21_Oliver/Morris","67","61897","80","yes","1280","17"
"200","83.950617284","83.950617284","771.37037037","771.37037037","black","no","xpyriment","legacy","legacy","0","202","NA","uniform","60280","1000","0.0165892501659","1","undefined","1","0","80","80","80","0","80","80","80","NA","80","80","0","80","NA","80","80","0","80","NA","80","NA","80","0","0","80","80","0","80","80","81","/","12/08/17 12:43:48","The main experiment item","yes","FIN__BA__M21__7%3A10%3A17.osexp","C:\Users\ERP Testing Room\Desktop\Joanna\morph21","no","mono","no","18","no","white","no","yes","1080","legacy","80","80","C:/Users/ERP Testing Room/Desktop/Joanna/morph21/subject-119.csv","xpyriment","Jazzy James","3.1.4","0","/","space","NA","NA","NA","z","/","584","12401","NA","NA","NA","184608","584","2","legacy","1024","2","48000","-16","BA_m21","119","odd","CW_L","SAILOR","1359","497060","493943","495551","185975","462823","NA","NA","NA","495546","494440","NA","493443","NA","493439","495546","1367","497260","NA","NA","494551","1359","1359","494943","493439","1359","494551","497260","morph21_Oliver/Morris","68","62481","81","yes","1280","43"
"300","84.1463414634","84.1463414634","768.756097561","768.756097561","black","no","xpyriment","legacy","legacy","0","207","NA","uniform","68410","1000","0.0146177459436","1","undefined","1","0","81","81","81","0","81","81","81","NA","81","81","0","81","NA","81","81","0","81","NA","81","NA","81","0","0","81","81","0","81","81","82","/","12/08/17 12:43:48","The main experiment item","yes","FIN__BA__M21__7%3A10%3A17.osexp","C:\Users\ERP Testing Room\Desktop\Joanna\morph21","no","mono","no","18","no","white","no","yes","1080","legacy","81","81","C:/Users/ERP Testing Room/Desktop/Joanna/morph21/subject-119.csv","xpyriment","Jazzy James","3.1.4","0","/","space","NA","NA","NA","z","/","557","12401","NA","NA","NA","184608","557","2","legacy","1024","2","48000","-16","BA_m21","119","odd","FILL_W","BALD","1359","500218","498593","495551","185975","462823","NA","NA","NA","500212","499090","NA","498093","NA","498088","500212","1367","500518","NA","NA","499218","1359","1359","499610","498088","1359","499218","500518","morph21_Oliver/Morris","69","63038","82","yes","1280","3"
"400","84.3373493976","84.3373493976","767.096385542","767.096385542","black","no","xpyriment","legacy","legacy","0","208","NA","uniform","65700","1000","0.0152207001522","1","undefined","1","0","82","82","82","0","82","82","82","NA","82","82","0","82","NA","82","82","0","82","NA","82","NA","82","0","0","82","82","0","82","82","83","z","12/08/17 12:43:48","The main experiment item","yes","FIN__BA__M21__7%3A10%3A17.osexp","C:\Users\ERP Testing Room\Desktop\Joanna\morph21","no","mono","no","18","no","white","no","yes","1080","legacy","82","82","C:/Users/ERP Testing Room/Desktop/Joanna/morph21/subject-119.csv","xpyriment","Jazzy James","3.1.4","0","z","space","NA","NA","NA","z","z","631","12401","NA","NA","NA","184608","631","2","legacy","1024","2","48000","-16","BA_m21","119","odd","FILL_NW","GIKE","1359","503368","501785","495551","185975","462823","NA","NA","NA","503361","502282","NA","501285","NA","501273","503361","1367","503768","NA","NA","502368","1359","1359","502760","501273","1359","502368","503768","morph21_Oliver/Morris","70","63669","83","yes","1280","24"
"200","84.5238095238","84.5238095238","764.666666667","764.666666667","black","no","xpyriment","legacy","legacy","0","207","NA","uniform","73710","1000","0.0135666802333","1","undefined","1","0","83","83","83","0","83","83","83","NA","83","83","0","83","NA","83","83","0","83","NA","83","NA","83","0","0","83","83","0","83","83","84","/","12/08/17 12:43:48","The main experiment item","yes","FIN__BA__M21__7%3A10%3A17.osexp","C:\Users\ERP Testing Room\Desktop\Joanna\morph21","no","mono","no","18","no","white","no","yes","1080","legacy","83","83","C:/Users/ERP Testing Room/Desktop/Joanna/morph21/subject-119.csv","xpyriment","Jazzy James","3.1.4","0","/","space","NA","NA","NA","z","/","563","12401","NA","NA","NA","184608","563","2","legacy","1024","2","48000","-16","BA_m21","119","odd","FILL_W","BLEAK","1359","508153","505044","506644","185975","462823","NA","NA","NA","506642","505541","NA","504544","NA","504537","506642","1367","508353","NA","NA","505653","1359","1359","506044","504537","1359","505653","508353","morph21_Oliver/Morris","71","64232","84","yes","1280","5"
"250","84.7058823529","84.7058823529","763.682352941","763.682352941","black","no","xpyriment","legacy","legacy","0","208","NA","uniform","63676","1000","0.0157045040518","1","undefined","1","0","84","84","84","0","84","84","84","NA","84","84","0","84","NA","84","84","0","84","NA","84","NA","84","0","0","84","84","0","84","84","85","z","12/08/17 12:43:48","The main experiment item","yes","FIN__BA__M21__7%3A10%3A17.osexp","C:\Users\ERP Testing Room\Desktop\Joanna\morph21","no","mono","no","18","no","white","no","yes","1080","legacy","84","84","C:/Users/ERP Testing Room/Desktop/Joanna/morph21/subject-119.csv","xpyriment","Jazzy James","3.1.4","0","z","space","NA","NA","NA","z","z","681","12401","NA","NA","NA","184608","681","2","legacy","1024","2","48000","-16","BA_m21","119","odd","FILL_NW","PHEEKS","1359","511286","509669","506644","185975","462823","NA","NA","NA","511283","510167","NA","509169","NA","509165","511283","1367","511536","NA","NA","510295","1359","1359","510686","509165","1359","510295","511536","morph21_Oliver/Morris","72","64913","85","yes","1280","35"
"300","84.8837209302","84.8837209302","762.837209302","762.837209302","black","no","xpyriment","legacy","legacy","0","204","NA","uniform","66904","1000","0.0149467894296","1","undefined","1","0","85","85","85","0","85","85","85","NA","85","85","0","85","NA","85","85","0","85","NA","85","NA","85","0","0","85","85","0","85","85","86","z","12/08/17 12:43:48","The main experiment item","yes","FIN__BA__M21__7%3A10%3A17.osexp","C:\Users\ERP Testing Room\Desktop\Joanna\morph21","no","mono","no","18","no","white","no","yes","1080","legacy","85","85","C:/Users/ERP Testing Room/Desktop/Joanna/morph21/subject-119.csv","xpyriment","Jazzy James","3.1.4","0","z","space","NA","NA","NA","z","z","691","12401","NA","NA","NA","184608","691","2","legacy","1024","2","48000","-16","BA_m21","119","odd","NW_L_COMP","IME","1359","514436","512853","506644","185975","462823","NA","NA","NA","514430","513350","NA","512353","NA","512344","514430","1367","514736","NA","NA","513436","1359","1359","513828","512344","1359","513436","514736","morph21_Oliver/Morris","73","65604","86","yes","1280","20"
"250","85.0574712644","85.0574712644","763.965517241","763.965517241","black","no","xpyriment","legacy","legacy","0","201","NA","uniform","61229","1000","0.0163321301997","1","undefined","1","0","86","86","86","0","86","86","86","NA","86","86","0","86","NA","86","86","0","86","NA","86","NA","86","0","0","86","86","0","86","86","87","/","12/08/17 12:43:48","The main experiment item","yes","FIN__BA__M21__7%3A10%3A17.osexp","C:\Users\ERP Testing Room\Desktop\Joanna\morph21","no","mono","no","18","no","white","no","yes","1080","legacy","86","86","C:/Users/ERP Testing Room/Desktop/Joanna/morph21/subject-119.csv","xpyriment","Jazzy James","3.1.4","0","/","space","NA","NA","NA","z","/","861","12401","NA","NA","NA","184608","861","2","legacy","1024","2","48000","-16","BA_m21","119","odd","CW_S","HUGELY","1359","519087","515995","517578","185975","462823","NA","NA","NA","517570","516492","NA","515486","NA","515479","517570","1367","519337","NA","NA","516578","1359","1359","516970","515479","1359","516578","519337","morph21_Oliver/Morris","74","66465","87","yes","1280","35"
"350","85.2272727273","85.2272727273","764.147727273","764.147727273","black","no","xpyriment","legacy","legacy","0","208","NA","uniform","63292","1000","0.0157997851229","1","undefined","1","0","87","87","87","0","87","87","87","NA","87","87","0","87","NA","87","87","0","87","NA","87","NA","87","0","0","87","87","0","87","87","88","z","12/08/17 12:43:48","The main experiment item","yes","FIN__BA__M21__7%3A10%3A17.osexp","C:\Users\ERP Testing Room\Desktop\Joanna\morph21","no","mono","no","18","no","white","no","yes","1080","legacy","87","87","C:/Users/ERP Testing Room/Desktop/Joanna/morph21/subject-119.csv","xpyriment","Jazzy James","3.1.4","0","z","space","NA","NA","NA","z","z","780","12401","NA","NA","NA","184608","780","2","legacy","1024","2","48000","-16","BA_m21","119","odd","FILL_NW","DELP","1359","522196","520595","517578","185975","462823","NA","NA","NA","522190","521092","NA","520095","NA","520091","522190","1367","522546","NA","NA","521196","1359","1359","521588","520090","1359","521196","522546","morph21_Oliver/Morris","75","67245","88","yes","1280","14"
"200","85.393258427","85.393258427","762.426966292","762.426966292","black","no","xpyriment","legacy","legacy","0","207","NA","uniform","65417","1000","0.0152865463106","1","undefined","1","0","88","88","88","0","88","88","88","NA","88","88","0","88","NA","88","88","0","88","NA","88","NA","88","0","0","88","88","0","88","88","89","/","12/08/17 12:43:48","The main experiment item","yes","FIN__BA__M21__7%3A10%3A17.osexp","C:\Users\ERP Testing Room\Desktop\Joanna\morph21","no","mono","no","18","no","white","no","yes","1080","legacy","88","88","C:/Users/ERP Testing Room/Desktop/Joanna/morph21/subject-119.csv","xpyriment","Jazzy James","3.1.4","0","/","space","NA","NA","NA","z","/","611","12401","NA","NA","NA","184608","611","2","legacy","1024","2","48000","-16","BA_m21","119","odd","FILL_W","OLD","1359","525404","523813","517578","185975","462823","NA","NA","NA","525396","524310","NA","523313","NA","523308","525396","1367","525605","NA","NA","524405","1359","1359","524796","523308","1359","524404","525605","morph21_Oliver/Morris","76","67856","89","yes","1280","44"
"400","84.4444444444","84.4444444444","764.955555556","764.955555556","black","no","xpyriment","legacy","legacy","0","202","NA","uniform","60885","1000","0.0164244066683","0","undefined","0","0","89","89","89","0","89","89","89","NA","89","89","0","89","NA","89","89","0","89","NA","89","NA","89","0","0","89","89","0","89","89","90","/","12/08/17 12:43:48","The main experiment item","yes","FIN__BA__M21__7%3A10%3A17.osexp","C:\Users\ERP Testing Room\Desktop\Joanna\morph21","no","mono","no","18","no","white","no","yes","1080","legacy","89","89","C:/Users/ERP Testing Room/Desktop/Joanna/morph21/subject-119.csv","xpyriment","Jazzy James","3.1.4","0","None","space","NA","NA","NA","z","None","990","12401","NA","NA","NA","184608","990","2","legacy","1024","2","48000","-16","BA_m21","119","odd","CW_L","WRONGLY","1359","529988","526896","528480","185975","462823","NA","NA","NA","525396","527393","NA","526396","NA","526388","528472","1367","530388","NA","NA","527480","1359","1359","527871","526387","1359","527480","530388","morph21_Oliver/Morris","76","68846","90","yes","1280","37"
"200","84.6153846154","84.6153846154","767.274725275","767.274725275","black","no","xpyriment","legacy","legacy","0","202","NA","uniform","58406","1000","0.0171215286101","1","undefined","1","0","90","90","90","0","90","90","90","NA","90","90","0","90","NA","90","90","0","90","NA","90","NA","90","0","0","90","90","0","90","90","91","/","12/08/17 12:43:48","The main experiment item","yes","FIN__BA__M21__7%3A10%3A17.osexp","C:\Users\ERP Testing Room\Desktop\Joanna\morph21","no","mono","no","18","no","white","no","yes","1080","legacy","90","90","C:/Users/ERP Testing Room/Desktop/Joanna/morph21/subject-119.csv","xpyriment","Jazzy James","3.1.4","0","/","space","NA","NA","NA","z","/","976","12401","NA","NA","NA","184608","976","2","legacy","1024","2","48000","-16","BA_m21","119","odd","CW_L","BONELESS","1359","533272","531680","528480","185975","462823","NA","NA","NA","533263","532177","NA","531172","NA","531163","533263","1367","533472","NA","NA","532271","1359","1359","532663","531163","1359","532271","533472","morph21_Oliver/Morris","77","69822","91","yes","1280","34"
