"ITI","acc","accuracy","average_response_time","avg_rt","background","bidi","canvas_backend","clock_backend","color_backend","compensation","cond_trig","condtrigtime","coordinates","coroutines_cycles","coroutines_duration","coroutines_mean_cycle_duration","correct","correct_instructions_1","correct_new_keyboard_response_1","count_AB_m21","count_ITI","count_blank_screen","count_blink_screen","count_block1","count_break1","count_break2","count_break3_1","count_canvas","count_correct_trigger","count_def_chain","count_end_screen","count_fixation_1","count_getting_started","count_inc_counter","count_incorrect_trigger","count_instructions_1","count_logger","count_logscript","count_new_coroutines","count_new_inline_script","count_new_keyboard_response_1","count_reset_counter_prep","count_reset_counter_run","count_responsescreen","count_sequence","count_start_trigger","count_target_present","count_word_trigger","counter","cresp","datetime","description","disable_garbage_collection","experiment_file","experiment_path","font_bold","font_family","font_italic","font_size","font_underline","foreground","form_clicks","fullscreen","height","keyboard_backend","live_row","live_row_block1","logfile","mouse_backend","opensesame_codename","opensesame_version","repeat_cycle","response","response_break1","response_break2","response_break3_1","response_end_screen","response_instructions_1","response_new_keyboard_response_1","response_time","response_time_break1","response_time_break2","response_time_break3_1","response_time_end_screen","response_time_instructions_1","response_time_new_keyboard_response_1","round_decimals","sampler_backend","sound_buf_size","sound_channels","sound_freq","sound_sample_size","start","subject_nr","subject_parity","targ_type","target","time_AB_m21","time_ITI","time_blank_screen","time_blink_screen","time_block1","time_break1","time_break2","time_break3_1","time_canvas","time_correct_trigger","time_def_chain","time_end_screen","time_fixation_1","time_getting_started","time_inc_counter","time_incorrect_trigger","time_instructions_1","time_logger","time_logscript","time_new_inline_script","time_new_keyboard_response_1","time_reset_counter_prep","time_reset_counter_run","time_responsescreen","time_sequence","time_start_trigger","time_target_present","time_word_trigger","title","total_correct","total_response_time","total_responses","uniform_coordinates","width","word_trig"
"300","0","0","995","995","black","no","xpyriment","legacy","legacy","0","206","NA","uniform","59260","1000","0.0168747890651","0","undefined","0","0","0","0","0","0","0","0","0","NA","0","0","0","0","NA","0","0","0","0","NA","0","NA","0","0","0","0","0","0","0","0","1","z","10/19/18 15:58:52","The main experiment item","yes","FIN__AB__M21__7%3A10%3A17.osexp","C:\Users\ERP Testing Room\Desktop\Joanna\morph21","no","mono","no","18","no","white","no","yes","1080","legacy","0","0","C:/Users/ERP Testing Room/Desktop/Joanna/morph21/subject-143.csv","xpyriment","Jazzy James","3.1.4","0","None","NA","NA","NA","NA","space","None","995","NA","NA","NA","NA","108035","995","2","legacy","1024","2","48000","-16","AB_m21","143","odd","NW_L_SIMP","PRAYANGE","2405","113249","111666","NA","110449","NA","NA","NA","NA","NA","112163","NA","111160","NA","111092","113245","2414","113549","NA","NA","112249","2406","2406","112649","111092","2405","112249","113549","morph21_Oliver/Morris","0","995","1","yes","1280","1"
"250","0","0","993.5","993.5","black","no","xpyriment","legacy","legacy","0","201","NA","uniform","61302","1000","0.0163126814786","0","undefined","0","0","1","1","1","0","1","1","1","NA","1","1","0","1","NA","1","1","0","1","NA","1","NA","1","0","0","1","1","0","1","1","2","/","10/19/18 15:58:52","The main experiment item","yes","FIN__AB__M21__7%3A10%3A17.osexp","C:\Users\ERP Testing Room\Desktop\Joanna\morph21","no","mono","no","18","no","white","no","yes","1080","legacy","1","1","C:/Users/ERP Testing Room/Desktop/Joanna/morph21/subject-143.csv","xpyriment","Jazzy James","3.1.4","0","None","NA","NA","NA","NA","space","None","992","NA","NA","NA","NA","108035","992","2","legacy","1024","2","48000","-16","AB_m21","143","odd","CW_S","NOTICEABLE","2405","116399","114816","NA","110449","NA","NA","NA","NA","NA","115313","NA","114316","NA","114313","116392","2414","116649","NA","NA","115399","2406","2406","115791","114312","2405","115399","116649","morph21_Oliver/Morris","0","1987","2","yes","1280","3"
"300","0","0","994.333333333","994.333333333","black","no","xpyriment","legacy","legacy","0","207","NA","uniform","56636","1000","0.0176566141677","0","undefined","0","0","2","2","2","0","2","2","2","NA","2","2","0","2","NA","2","2","0","2","NA","2","NA","2","0","0","2","2","0","2","2","3","/","10/19/18 15:58:52","The main experiment item","yes","FIN__AB__M21__7%3A10%3A17.osexp","C:\Users\ERP Testing Room\Desktop\Joanna\morph21","no","mono","no","18","no","white","no","yes","1080","legacy","2","2","C:/Users/ERP Testing Room/Desktop/Joanna/morph21/subject-143.csv","xpyriment","Jazzy James","3.1.4","0","None","NA","NA","NA","NA","space","None","996","NA","NA","NA","NA","108035","996","2","legacy","1024","2","48000","-16","AB_m21","143","odd","FILL_W","SICK","2405","120983","117874","119474","110449","NA","NA","NA","NA","NA","118371","NA","117374","NA","117365","119470","2414","121283","NA","NA","118474","2406","2406","118874","117365","2405","118474","121283","morph21_Oliver/Morris","0","2983","3","yes","1280","36"
"350","25","25","976.75","976.75","black","no","xpyriment","legacy","legacy","0","208","NA","uniform","65355","1000","0.0153010481218","1","undefined","1","0","3","3","3","0","3","3","3","NA","3","3","0","3","NA","3","3","0","3","NA","3","NA","3","0","0","3","3","0","3","3","4","z","10/19/18 15:58:52","The main experiment item","yes","FIN__AB__M21__7%3A10%3A17.osexp","C:\Users\ERP Testing Room\Desktop\Joanna\morph21","no","mono","no","18","no","white","no","yes","1080","legacy","3","3","C:/Users/ERP Testing Room/Desktop/Joanna/morph21/subject-143.csv","xpyriment","Jazzy James","3.1.4","0","z","NA","NA","NA","NA","space","z","924","NA","NA","NA","NA","108035","924","2","legacy","1024","2","48000","-16","AB_m21","143","odd","FILL_NW","DARF","2405","124100","122516","119474","110449","NA","NA","NA","NA","124095","123013","NA","122016","NA","122010","124095","2414","124450","NA","NA","123100","2406","2406","123500","122010","2405","123099","124450","morph21_Oliver/Morris","1","3907","4","yes","1280","10"
"300","20","20","980.4","980.4","black","no","xpyriment","legacy","legacy","0","206","NA","uniform","62613","1000","0.0159711242074","0","undefined","0","0","4","4","4","0","4","4","4","NA","4","4","0","4","NA","4","4","0","4","NA","4","NA","4","0","0","4","4","0","4","4","5","z","10/19/18 15:58:52","The main experiment item","yes","FIN__AB__M21__7%3A10%3A17.osexp","C:\Users\ERP Testing Room\Desktop\Joanna\morph21","no","mono","no","18","no","white","no","yes","1080","legacy","4","4","C:/Users/ERP Testing Room/Desktop/Joanna/morph21/subject-143.csv","xpyriment","Jazzy James","3.1.4","0","None","NA","NA","NA","NA","space","None","995","NA","NA","NA","NA","108035","995","2","legacy","1024","2","48000","-16","AB_m21","143","odd","NW_L_SIMP","BANDADY","2405","127251","125666","119474","110449","NA","NA","NA","NA","124095","126163","NA","125166","NA","125156","127246","2414","127551","NA","NA","126251","2406","2406","126651","125156","2405","126251","127551","morph21_Oliver/Morris","1","4902","5","yes","1280","3"
"200","16.6666666667","16.6666666667","982.833333333","982.833333333","black","no","xpyriment","legacy","legacy","0","205","NA","uniform","63504","1000","0.0157470395566","0","undefined","0","0","5","5","5","0","5","5","5","NA","5","5","0","5","NA","5","5","0","5","NA","5","NA","5","0","0","5","5","0","5","5","6","z","10/19/18 15:58:52","The main experiment item","yes","FIN__AB__M21__7%3A10%3A17.osexp","C:\Users\ERP Testing Room\Desktop\Joanna\morph21","no","mono","no","18","no","white","no","yes","1080","legacy","5","5","C:/Users/ERP Testing Room/Desktop/Joanna/morph21/subject-143.csv","xpyriment","Jazzy James","3.1.4","0","None","NA","NA","NA","NA","space","None","995","NA","NA","NA","NA","108035","995","2","legacy","1024","2","48000","-16","AB_m21","143","odd","NW_S_SIMP","OPPOSEMANT","2405","131801","128709","130292","110449","NA","NA","NA","NA","124095","129206","NA","128209","NA","128205","130287","2414","132001","NA","NA","129292","2406","2406","129684","128205","2405","129292","132001","morph21_Oliver/Morris","1","5897","6","yes","1280","8"
"300","28.5714285714","28.5714285714","961.142857143","961.142857143","black","no","xpyriment","legacy","legacy","0","208","NA","uniform","68496","1000","0.0145993926653","1","undefined","1","0","6","6","6","0","6","6","6","NA","6","6","0","6","NA","6","6","0","6","NA","6","NA","6","0","0","6","6","0","6","6","7","z","10/19/18 15:58:52","The main experiment item","yes","FIN__AB__M21__7%3A10%3A17.osexp","C:\Users\ERP Testing Room\Desktop\Joanna\morph21","no","mono","no","18","no","white","no","yes","1080","legacy","6","6","C:/Users/ERP Testing Room/Desktop/Joanna/morph21/subject-143.csv","xpyriment","Jazzy James","3.1.4","0","z","NA","NA","NA","NA","space","z","831","NA","NA","NA","NA","108035","831","2","legacy","1024","2","48000","-16","AB_m21","143","odd","FILL_NW","VOGS","2405","134809","133226","130292","110449","NA","NA","NA","NA","134805","133723","NA","132726","NA","132718","134805","2414","135109","NA","NA","133809","2406","2406","134209","132717","2405","133809","135109","morph21_Oliver/Morris","2","6728","7","yes","1280","47"
"300","37.5","37.5","924.375","924.375","black","no","xpyriment","legacy","legacy","0","208","NA","uniform","74624","1000","0.0134005145798","1","undefined","1","0","7","7","7","0","7","7","7","NA","7","7","0","7","NA","7","7","0","7","NA","7","NA","7","0","0","7","7","0","7","7","8","z","10/19/18 15:58:52","The main experiment item","yes","FIN__AB__M21__7%3A10%3A17.osexp","C:\Users\ERP Testing Room\Desktop\Joanna\morph21","no","mono","no","18","no","white","no","yes","1080","legacy","7","7","C:/Users/ERP Testing Room/Desktop/Joanna/morph21/subject-143.csv","xpyriment","Jazzy James","3.1.4","0","z","NA","NA","NA","NA","space","z","667","NA","NA","NA","NA","108035","667","2","legacy","1024","2","48000","-16","AB_m21","143","odd","FILL_NW","VOOFS","2405","137901","136326","130292","110449","NA","NA","NA","NA","137897","136823","NA","135826","NA","135820","137897","2414","138201","NA","NA","136901","2406","2406","137301","135820","2405","136901","138201","morph21_Oliver/Morris","3","7395","8","yes","1280","48"
"300","33.3333333333","33.3333333333","932","932","black","no","xpyriment","legacy","legacy","0","204","NA","uniform","63117","1000","0.0158435920592","0","undefined","0","0","8","8","8","0","8","8","8","NA","8","8","0","8","NA","8","8","0","8","NA","8","NA","8","0","0","8","8","0","8","8","9","z","10/19/18 15:58:52","The main experiment item","yes","FIN__AB__M21__7%3A10%3A17.osexp","C:\Users\ERP Testing Room\Desktop\Joanna\morph21","no","mono","no","18","no","white","no","yes","1080","legacy","8","8","C:/Users/ERP Testing Room/Desktop/Joanna/morph21/subject-143.csv","xpyriment","Jazzy James","3.1.4","0","None","NA","NA","NA","NA","space","None","993","NA","NA","NA","NA","108035","993","2","legacy","1024","2","48000","-16","AB_m21","143","odd","NW_L_COMP","ADDMENT","2405","142535","139443","141026","110449","NA","NA","NA","NA","137897","139940","NA","138943","NA","138933","141019","2414","142835","NA","NA","140026","2406","2406","140418","138933","2405","140026","142835","morph21_Oliver/Morris","3","8388","9","yes","1280","13"
"400","40","40","915.2","915.2","black","no","xpyriment","legacy","legacy","0","202","NA","uniform","64623","1000","0.0154743667115","1","undefined","1","0","9","9","9","0","9","9","9","NA","9","9","0","9","NA","9","9","0","9","NA","9","NA","9","0","0","9","9","0","9","9","10","/","10/19/18 15:58:52","The main experiment item","yes","FIN__AB__M21__7%3A10%3A17.osexp","C:\Users\ERP Testing Room\Desktop\Joanna\morph21","no","mono","no","18","no","white","no","yes","1080","legacy","9","9","C:/Users/ERP Testing Room/Desktop/Joanna/morph21/subject-143.csv","xpyriment","Jazzy James","3.1.4","0","/","NA","NA","NA","NA","space","/","764","NA","NA","NA","NA","108035","764","2","legacy","1024","2","48000","-16","AB_m21","143","odd","CW_L","CLEANER","2405","145669","144086","141026","110449","NA","NA","NA","NA","145666","144583","NA","143577","NA","143570","145666","2414","146069","NA","NA","144677","2406","2406","145069","143570","2405","144677","146069","morph21_Oliver/Morris","4","9152","10","yes","1280","15"
"300","45.4545454545","45.4545454545","912.818181818","912.818181818","black","no","xpyriment","legacy","legacy","0","203","NA","uniform","66225","1000","0.0151000377501","1","undefined","1","0","10","10","10","0","10","10","10","NA","10","10","0","10","NA","10","10","0","10","NA","10","NA","10","0","0","10","10","0","10","10","11","z","10/19/18 15:58:52","The main experiment item","yes","FIN__AB__M21__7%3A10%3A17.osexp","C:\Users\ERP Testing Room\Desktop\Joanna\morph21","no","mono","no","18","no","white","no","yes","1080","legacy","10","10","C:/Users/ERP Testing Room/Desktop/Joanna/morph21/subject-143.csv","xpyriment","Jazzy James","3.1.4","0","z","NA","NA","NA","NA","space","z","889","NA","NA","NA","NA","108035","889","2","legacy","1024","2","48000","-16","AB_m21","143","odd","NW_S_COMP","FIGER","2405","148936","147344","141026","110449","NA","NA","NA","NA","148931","147841","NA","146844","NA","146834","148931","2414","149236","NA","NA","147936","2406","2406","148336","146834","2405","147936","149236","morph21_Oliver/Morris","5","10041","11","yes","1280","4"
"200","50","50","919.25","919.25","black","no","xpyriment","legacy","legacy","0","207","NA","uniform","59934","1000","0.0166850201889","1","undefined","1","0","11","11","11","0","11","11","11","NA","11","11","0","11","NA","11","11","0","11","NA","11","NA","11","0","0","11","11","0","11","11","12","/","10/19/18 15:58:52","The main experiment item","yes","FIN__AB__M21__7%3A10%3A17.osexp","C:\Users\ERP Testing Room\Desktop\Joanna\morph21","no","mono","no","18","no","white","no","yes","1080","legacy","11","11","C:/Users/ERP Testing Room/Desktop/Joanna/morph21/subject-143.csv","xpyriment","Jazzy James","3.1.4","0","/","NA","NA","NA","NA","space","/","990","NA","NA","NA","NA","108035","990","2","legacy","1024","2","48000","-16","AB_m21","143","odd","FILL_W","FLESH","2405","153495","150403","151986","110449","NA","NA","NA","NA","151980","150900","NA","149903","NA","149894","151980","2414","153695","NA","NA","150986","2406","2406","151378","149894","2405","150986","153695","morph21_Oliver/Morris","6","11031","12","yes","1280","32"
"250","46.1538461538","46.1538461538","924.923076923","924.923076923","black","no","xpyriment","legacy","legacy","0","206","NA","uniform","62962","1000","0.0158825958515","0","undefined","0","0","12","12","12","0","12","12","12","NA","12","12","0","12","NA","12","12","0","12","NA","12","NA","12","0","0","12","12","0","12","12","13","z","10/19/18 15:58:52","The main experiment item","yes","FIN__AB__M21__7%3A10%3A17.osexp","C:\Users\ERP Testing Room\Desktop\Joanna\morph21","no","mono","no","18","no","white","no","yes","1080","legacy","12","12","C:/Users/ERP Testing Room/Desktop/Joanna/morph21/subject-143.csv","xpyriment","Jazzy James","3.1.4","0","None","NA","NA","NA","NA","space","None","993","NA","NA","NA","NA","108035","993","2","legacy","1024","2","48000","-16","AB_m21","143","odd","NW_L_SIMP","SHOOTMANT","2405","156503","154920","151986","110449","NA","NA","NA","NA","151980","155417","NA","154420","NA","154409","156496","2414","156753","NA","NA","155503","2406","2406","155895","154409","2405","155503","156753","morph21_Oliver/Morris","6","12024","13","yes","1280","16"
"300","42.8571428571","42.8571428571","929.928571429","929.928571429","black","no","xpyriment","legacy","legacy","0","202","NA","uniform","60110","1000","0.0166361670271","0","undefined","0","0","13","13","13","0","13","13","13","NA","13","13","0","13","NA","13","13","0","13","NA","13","NA","13","0","0","13","13","0","13","13","14","/","10/19/18 15:58:52","The main experiment item","yes","FIN__AB__M21__7%3A10%3A17.osexp","C:\Users\ERP Testing Room\Desktop\Joanna\morph21","no","mono","no","18","no","white","no","yes","1080","legacy","13","13","C:/Users/ERP Testing Room/Desktop/Joanna/morph21/subject-143.csv","xpyriment","Jazzy James","3.1.4","0","None","NA","NA","NA","NA","space","None","995","NA","NA","NA","NA","108035","995","2","legacy","1024","2","48000","-16","AB_m21","143","odd","CW_L","PROFESSOR","2405","159561","157978","151986","110449","NA","NA","NA","NA","151980","158475","NA","157478","NA","157469","159556","2414","159861","NA","NA","158561","2406","2406","158953","157469","2405","158561","159861","morph21_Oliver/Morris","6","13019","14","yes","1280","47"
"400","40","40","934.066666667","934.066666667","black","no","xpyriment","legacy","legacy","0","204","NA","uniform","58568","1000","0.0170741701953","0","undefined","0","0","14","14","14","0","14","14","14","NA","14","14","0","14","NA","14","14","0","14","NA","14","NA","14","0","0","14","14","0","14","14","15","z","10/19/18 15:58:52","The main experiment item","yes","FIN__AB__M21__7%3A10%3A17.osexp","C:\Users\ERP Testing Room\Desktop\Joanna\morph21","no","mono","no","18","no","white","no","yes","1080","legacy","14","14","C:/Users/ERP Testing Room/Desktop/Joanna/morph21/subject-143.csv","xpyriment","Jazzy James","3.1.4","0","None","NA","NA","NA","NA","space","None","992","NA","NA","NA","NA","108035","992","2","legacy","1024","2","48000","-16","AB_m21","143","odd","NW_L_COMP","FLITENCE","2405","164221","161121","162712","110449","NA","NA","NA","NA","151980","161618","NA","160620","NA","160615","162705","2414","164621","NA","NA","161713","2406","2406","162104","160615","2405","161713","164621","morph21_Oliver/Morris","6","14011","15","yes","1280","3"
"350","43.75","43.75","923.5","923.5","black","no","xpyriment","legacy","legacy","0","206","NA","uniform","67659","1000","0.0147799997044","1","undefined","1","0","15","15","15","0","15","15","15","NA","15","15","0","15","NA","15","15","0","15","NA","15","NA","15","0","0","15","15","0","15","15","16","z","10/19/18 15:58:52","The main experiment item","yes","FIN__AB__M21__7%3A10%3A17.osexp","C:\Users\ERP Testing Room\Desktop\Joanna\morph21","no","mono","no","18","no","white","no","yes","1080","legacy","15","15","C:/Users/ERP Testing Room/Desktop/Joanna/morph21/subject-143.csv","xpyriment","Jazzy James","3.1.4","0","z","NA","NA","NA","NA","space","z","765","NA","NA","NA","NA","108035","765","2","legacy","1024","2","48000","-16","AB_m21","143","odd","NW_L_SIMP","HABITIG","2405","167388","165804","162712","110449","NA","NA","NA","NA","167385","166302","NA","165304","NA","165301","167385","2414","167738","NA","NA","166396","2406","2406","166788","165301","2405","166396","167738","morph21_Oliver/Morris","7","14776","16","yes","1280","7"
"250","47.0588235294","47.0588235294","922.352941176","922.352941176","black","no","xpyriment","legacy","legacy","0","201","NA","uniform","65825","1000","0.0151917964299","1","undefined","1","0","16","16","16","0","16","16","16","NA","16","16","0","16","NA","16","16","0","16","NA","16","NA","16","0","0","16","16","0","16","16","17","/","10/19/18 15:58:52","The main experiment item","yes","FIN__AB__M21__7%3A10%3A17.osexp","C:\Users\ERP Testing Room\Desktop\Joanna\morph21","no","mono","no","18","no","white","no","yes","1080","legacy","16","16","C:/Users/ERP Testing Room/Desktop/Joanna/morph21/subject-143.csv","xpyriment","Jazzy James","3.1.4","0","/","NA","NA","NA","NA","space","/","904","NA","NA","NA","NA","108035","904","2","legacy","1024","2","48000","-16","AB_m21","143","odd","CW_S","PEAKING","2405","170480","168888","162712","110449","NA","NA","NA","NA","170473","169385","NA","168388","NA","168383","170473","2414","170730","NA","NA","169480","2406","2406","169871","168383","2405","169479","170730","morph21_Oliver/Morris","8","15680","17","yes","1280","28"
"300","50","50","914.666666667","914.666666667","black","no","xpyriment","legacy","legacy","0","208","NA","uniform","63431","1000","0.0157651621447","1","undefined","1","0","17","17","17","0","17","17","17","NA","17","17","0","17","NA","17","17","0","17","NA","17","NA","17","0","0","17","17","0","17","17","18","z","10/19/18 15:58:52","The main experiment item","yes","FIN__AB__M21__7%3A10%3A17.osexp","C:\Users\ERP Testing Room\Desktop\Joanna\morph21","no","mono","no","18","no","white","no","yes","1080","legacy","17","17","C:/Users/ERP Testing Room/Desktop/Joanna/morph21/subject-143.csv","xpyriment","Jazzy James","3.1.4","0","z","NA","NA","NA","NA","space","z","784","NA","NA","NA","NA","108035","784","2","legacy","1024","2","48000","-16","AB_m21","143","odd","FILL_NW","BAFED","2405","174997","171905","173488","110449","NA","NA","NA","NA","173479","172402","NA","171405","NA","171401","173479","2414","175297","NA","NA","172488","2406","2406","172880","171401","2405","172488","175297","morph21_Oliver/Morris","9","16464","18","yes","1280","1"
"400","52.6315789474","52.6315789474","907.315789474","907.315789474","black","no","xpyriment","legacy","legacy","0","202","NA","uniform","60953","1000","0.0164060833757","1","undefined","1","0","18","18","18","0","18","18","18","NA","18","18","0","18","NA","18","18","0","18","NA","18","NA","18","0","0","18","18","0","18","18","19","/","10/19/18 15:58:52","The main experiment item","yes","FIN__AB__M21__7%3A10%3A17.osexp","C:\Users\ERP Testing Room\Desktop\Joanna\morph21","no","mono","no","18","no","white","no","yes","1080","legacy","18","18","C:/Users/ERP Testing Room/Desktop/Joanna/morph21/subject-143.csv","xpyriment","Jazzy James","3.1.4","0","/","NA","NA","NA","NA","space","/","775","NA","NA","NA","NA","108035","775","2","legacy","1024","2","48000","-16","AB_m21","143","odd","CW_L","DRYNESS","2405","178097","176505","173488","110449","NA","NA","NA","NA","178091","177002","NA","175996","NA","175992","178091","2414","178497","NA","NA","177097","2406","2406","177488","175992","2405","177097","178497","morph21_Oliver/Morris","10","17239","19","yes","1280","42"
"400","50","50","911.4","911.4","black","no","xpyriment","legacy","legacy","0","202","NA","uniform","54089","1000","0.0184880474773","0","undefined","0","0","19","19","19","0","19","19","19","NA","19","19","0","19","NA","19","19","0","19","NA","19","NA","19","0","0","19","19","0","19","19","20","/","10/19/18 15:58:52","The main experiment item","yes","FIN__AB__M21__7%3A10%3A17.osexp","C:\Users\ERP Testing Room\Desktop\Joanna\morph21","no","mono","no","18","no","white","no","yes","1080","legacy","19","19","C:/Users/ERP Testing Room/Desktop/Joanna/morph21/subject-143.csv","xpyriment","Jazzy James","3.1.4","0","None","NA","NA","NA","NA","space","None","989","NA","NA","NA","NA","108035","989","2","legacy","1024","2","48000","-16","AB_m21","143","odd","CW_L","CLOUDLESS","2405","181298","179698","173488","110449","NA","NA","NA","NA","178091","180195","NA","179198","NA","179193","181295","2414","181698","NA","NA","180306","2406","2406","180698","179193","2405","180306","181698","morph21_Oliver/Morris","10","18228","20","yes","1280","33"
"300","47.619047619","47.619047619","905.333333333","905.333333333","black","no","xpyriment","legacy","legacy","0","202","NA","uniform","63069","1000","0.0158556501609","0","undefined","0","0","20","20","20","0","20","20","20","NA","20","20","0","20","NA","20","20","0","20","NA","20","NA","20","0","0","20","20","0","20","20","21","/","10/19/18 15:58:52","The main experiment item","yes","FIN__AB__M21__7%3A10%3A17.osexp","C:\Users\ERP Testing Room\Desktop\Joanna\morph21","no","mono","no","18","no","white","no","yes","1080","legacy","20","20","C:/Users/ERP Testing Room/Desktop/Joanna/morph21/subject-143.csv","xpyriment","Jazzy James","3.1.4","0","z","NA","NA","NA","NA","space","z","784","NA","NA","NA","NA","108035","784","2","legacy","1024","2","48000","-16","AB_m21","143","odd","CW_L","WEEDY","2405","185973","182898","184464","110449","NA","NA","NA","NA","178091","183395","NA","182398","NA","182394","184462","2414","186273","NA","NA","183473","2406","2406","183864","182393","2405","183473","186273","morph21_Oliver/Morris","10","19012","21","yes","1280","48"
"250","45.4545454545","45.4545454545","909.318181818","909.318181818","black","no","xpyriment","legacy","legacy","0","204","NA","uniform","58689","1000","0.0170389681201","0","undefined","0","0","21","21","21","0","21","21","21","NA","21","21","0","21","NA","21","21","0","21","NA","21","NA","21","0","0","21","21","0","21","21","22","z","10/19/18 15:58:52","The main experiment item","yes","FIN__AB__M21__7%3A10%3A17.osexp","C:\Users\ERP Testing Room\Desktop\Joanna\morph21","no","mono","no","18","no","white","no","yes","1080","legacy","21","21","C:/Users/ERP Testing Room/Desktop/Joanna/morph21/subject-143.csv","xpyriment","Jazzy James","3.1.4","0","None","NA","NA","NA","NA","space","None","993","NA","NA","NA","NA","108035","993","2","legacy","1024","2","48000","-16","AB_m21","143","odd","NW_L_COMP","TRIPARY","2405","189065","187481","184464","110449","NA","NA","NA","NA","178091","187978","NA","186981","NA","186976","189058","2414","189315","NA","NA","188065","2406","2406","188456","186976","2405","188065","189315","morph21_Oliver/Morris","10","20005","22","yes","1280","2"
"200","43.4782608696","43.4782608696","913","913","black","no","xpyriment","legacy","legacy","0","203","NA","uniform","55324","1000","0.0180753380088","0","undefined","0","0","22","22","22","0","22","22","22","NA","22","22","0","22","NA","22","22","0","22","NA","22","NA","22","0","0","22","22","0","22","22","23","z","10/19/18 15:58:52","The main experiment item","yes","FIN__AB__M21__7%3A10%3A17.osexp","C:\Users\ERP Testing Room\Desktop\Joanna\morph21","no","mono","no","18","no","white","no","yes","1080","legacy","22","22","C:/Users/ERP Testing Room/Desktop/Joanna/morph21/subject-143.csv","xpyriment","Jazzy James","3.1.4","0","None","NA","NA","NA","NA","space","None","994","NA","NA","NA","NA","108035","994","2","legacy","1024","2","48000","-16","AB_m21","143","odd","NW_S_COMP","ADOPTISH","2405","192106","190498","184464","110449","NA","NA","NA","NA","178091","190995","NA","189998","NA","189993","192101","2414","192306","NA","NA","191107","2406","2406","191498","189993","2405","191106","192306","morph21_Oliver/Morris","10","20999","23","yes","1280","19"
"250","41.6666666667","41.6666666667","906.208333333","906.208333333","black","no","xpyriment","legacy","legacy","0","204","NA","uniform","71685","1000","0.013949919788","0","undefined","0","0","23","23","23","0","23","23","23","NA","23","23","0","23","NA","23","23","0","23","NA","23","NA","23","0","0","23","23","0","23","23","24","z","10/19/18 15:58:52","The main experiment item","yes","FIN__AB__M21__7%3A10%3A17.osexp","C:\Users\ERP Testing Room\Desktop\Joanna\morph21","no","mono","no","18","no","white","no","yes","1080","legacy","23","23","C:/Users/ERP Testing Room/Desktop/Joanna/morph21/subject-143.csv","xpyriment","Jazzy James","3.1.4","0","/","NA","NA","NA","NA","space","/","750","NA","NA","NA","NA","108035","750","2","legacy","1024","2","48000","-16","AB_m21","143","odd","NW_L_COMP","FREENESS","2405","196591","193498","195082","110449","NA","NA","NA","NA","178091","193995","NA","192998","NA","192990","195076","2414","196841","NA","NA","194082","2406","2406","194473","192990","2405","194082","196841","morph21_Oliver/Morris","10","21749","24","yes","1280","15"
"250","44","44","909.32","909.32","black","no","xpyriment","legacy","legacy","0","202","NA","uniform","62505","1000","0.0159987201024","1","undefined","1","0","24","24","24","0","24","24","24","NA","24","24","0","24","NA","24","24","0","24","NA","24","NA","24","0","0","24","24","0","24","24","25","/","10/19/18 15:58:52","The main experiment item","yes","FIN__AB__M21__7%3A10%3A17.osexp","C:\Users\ERP Testing Room\Desktop\Joanna\morph21","no","mono","no","18","no","white","no","yes","1080","legacy","24","24","C:/Users/ERP Testing Room/Desktop/Joanna/morph21/subject-143.csv","xpyriment","Jazzy James","3.1.4","0","/","NA","NA","NA","NA","space","/","984","NA","NA","NA","NA","108035","984","2","legacy","1024","2","48000","-16","AB_m21","143","odd","CW_L","DEAFNESS","2405","199649","198066","195082","110449","NA","NA","NA","NA","199643","198563","NA","197566","NA","197562","199643","2414","199899","NA","NA","198649","2406","2406","199041","197562","2405","198649","199899","morph21_Oliver/Morris","11","22733","25","yes","1280","39"
"400","46.1538461538","46.1538461538","902.692307692","902.692307692","black","no","xpyriment","legacy","legacy","0","202","NA","uniform","71276","1000","0.0140299680117","1","undefined","1","0","25","25","25","0","25","25","25","NA","25","25","0","25","NA","25","25","0","25","NA","25","NA","25","0","0","25","25","0","25","25","26","/","10/19/18 15:58:52","The main experiment item","yes","FIN__AB__M21__7%3A10%3A17.osexp","C:\Users\ERP Testing Room\Desktop\Joanna\morph21","no","mono","no","18","no","white","no","yes","1080","legacy","25","25","C:/Users/ERP Testing Room/Desktop/Joanna/morph21/subject-143.csv","xpyriment","Jazzy James","3.1.4","0","/","NA","NA","NA","NA","space","/","737","NA","NA","NA","NA","108035","737","2","legacy","1024","2","48000","-16","AB_m21","143","odd","CW_L","WRONGLY","2405","202808","201208","195082","110449","NA","NA","NA","NA","202799","201705","NA","200708","NA","200698","202799","2414","203208","NA","NA","201808","2406","2406","202200","200697","2405","201808","203208","morph21_Oliver/Morris","12","23470","26","yes","1280","37"
"250","44.4444444444","44.4444444444","906.111111111","906.111111111","black","no","xpyriment","legacy","legacy","0","203","NA","uniform","60800","1000","0.0164473684211","0","undefined","0","0","26","26","26","0","26","26","26","NA","26","26","0","26","NA","26","26","0","26","NA","26","NA","26","0","0","26","26","0","26","26","27","z","10/19/18 15:58:52","The main experiment item","yes","FIN__AB__M21__7%3A10%3A17.osexp","C:\Users\ERP Testing Room\Desktop\Joanna\morph21","no","mono","no","18","no","white","no","yes","1080","legacy","26","26","C:/Users/ERP Testing Room/Desktop/Joanna/morph21/subject-143.csv","xpyriment","Jazzy James","3.1.4","0","None","NA","NA","NA","NA","space","None","995","NA","NA","NA","NA","108035","995","2","legacy","1024","2","48000","-16","AB_m21","143","odd","NW_S_COMP","BEERER","2405","207550","204458","206041","110449","NA","NA","NA","NA","202799","204955","NA","203958","NA","203951","206036","2414","207800","NA","NA","205041","2406","2406","205441","203951","2405","205041","207800","morph21_Oliver/Morris","12","24465","27","yes","1280","5"
"350","46.4285714286","46.4285714286","906.285714286","906.285714286","black","no","xpyriment","legacy","legacy","0","205","NA","uniform","65775","1000","0.0152033447358","1","undefined","1","0","27","27","27","0","27","27","27","NA","27","27","0","27","NA","27","27","0","27","NA","27","NA","27","0","0","27","27","0","27","27","28","z","10/19/18 15:58:52","The main experiment item","yes","FIN__AB__M21__7%3A10%3A17.osexp","C:\Users\ERP Testing Room\Desktop\Joanna\morph21","no","mono","no","18","no","white","no","yes","1080","legacy","27","27","C:/Users/ERP Testing Room/Desktop/Joanna/morph21/subject-143.csv","xpyriment","Jazzy James","3.1.4","0","z","NA","NA","NA","NA","space","z","911","NA","NA","NA","NA","108035","911","2","legacy","1024","2","48000","-16","AB_m21","143","odd","NW_S_SIMP","BASKODY","2405","210617","209033","206041","110449","NA","NA","NA","NA","210607","209530","NA","208533","NA","208525","210607","2414","210967","NA","NA","209617","2406","2406","210008","208525","2405","209617","210967","morph21_Oliver/Morris","13","25376","28","yes","1280","10"
"350","44.8275862069","44.8275862069","909.24137931","909.24137931","black","no","xpyriment","legacy","legacy","0","203","NA","uniform","62605","1000","0.0159731650827","0","undefined","0","0","28","28","28","0","28","28","28","NA","28","28","0","28","NA","28","28","0","28","NA","28","NA","28","0","0","28","28","0","28","28","29","z","10/19/18 15:58:52","The main experiment item","yes","FIN__AB__M21__7%3A10%3A17.osexp","C:\Users\ERP Testing Room\Desktop\Joanna\morph21","no","mono","no","18","no","white","no","yes","1080","legacy","28","28","C:/Users/ERP Testing Room/Desktop/Joanna/morph21/subject-143.csv","xpyriment","Jazzy James","3.1.4","0","None","NA","NA","NA","NA","space","None","992","NA","NA","NA","NA","108035","992","2","legacy","1024","2","48000","-16","AB_m21","143","odd","NW_S_COMP","FIENDISM","2405","213801","212208","206041","110449","NA","NA","NA","NA","210607","212705","NA","211708","NA","211705","213792","2414","214151","NA","NA","212800","2406","2406","213192","211705","2405","212800","214151","morph21_Oliver/Morris","13","26368","29","yes","1280","24"
"200","46.6666666667","46.6666666667","902.533333333","902.533333333","black","no","xpyriment","legacy","legacy","0","208","NA","uniform","70634","1000","0.0141574878953","1","undefined","1","0","29","29","29","0","29","29","29","NA","29","29","0","29","NA","29","29","0","29","NA","29","NA","29","0","0","29","29","0","29","29","30","z","10/19/18 15:58:52","The main experiment item","yes","FIN__AB__M21__7%3A10%3A17.osexp","C:\Users\ERP Testing Room\Desktop\Joanna\morph21","no","mono","no","18","no","white","no","yes","1080","legacy","29","29","C:/Users/ERP Testing Room/Desktop/Joanna/morph21/subject-143.csv","xpyriment","Jazzy James","3.1.4","0","z","NA","NA","NA","NA","space","z","708","NA","NA","NA","NA","108035","708","2","legacy","1024","2","48000","-16","AB_m21","143","odd","FILL_NW","BROUPS","2405","218401","215309","216893","110449","NA","NA","NA","NA","216888","215807","NA","214809","NA","214806","216888","2414","218601","NA","NA","215893","2406","2406","216293","214806","2405","215893","218601","morph21_Oliver/Morris","14","27076","30","yes","1280","4"
"300","48.3870967742","48.3870967742","896.677419355","896.677419355","black","no","xpyriment","legacy","legacy","0","207","NA","uniform","69194","1000","0.014452120126","1","undefined","1","0","30","30","30","0","30","30","30","NA","30","30","0","30","NA","30","30","0","30","NA","30","NA","30","0","0","30","30","0","30","30","31","/","10/19/18 15:58:52","The main experiment item","yes","FIN__AB__M21__7%3A10%3A17.osexp","C:\Users\ERP Testing Room\Desktop\Joanna\morph21","no","mono","no","18","no","white","no","yes","1080","legacy","30","30","C:/Users/ERP Testing Room/Desktop/Joanna/morph21/subject-143.csv","xpyriment","Jazzy James","3.1.4","0","/","NA","NA","NA","NA","space","/","721","NA","NA","NA","NA","108035","721","2","legacy","1024","2","48000","-16","AB_m21","143","odd","FILL_W","BLUNT","2405","221368","219785","216893","110449","NA","NA","NA","NA","221361","220282","NA","219285","NA","219279","221361","2414","221668","NA","NA","220368","2406","2406","220760","219279","2405","220368","221668","morph21_Oliver/Morris","15","27797","31","yes","1280","4"
"200","50","50","889.9375","889.9375","black","no","xpyriment","legacy","legacy","0","207","NA","uniform","73834","1000","0.0135438957662","1","undefined","1","0","31","31","31","0","31","31","31","NA","31","31","0","31","NA","31","31","0","31","NA","31","NA","31","0","0","31","31","0","31","31","32","/","10/19/18 15:58:52","The main experiment item","yes","FIN__AB__M21__7%3A10%3A17.osexp","C:\Users\ERP Testing Room\Desktop\Joanna\morph21","no","mono","no","18","no","white","no","yes","1080","legacy","31","31","C:/Users/ERP Testing Room/Desktop/Joanna/morph21/subject-143.csv","xpyriment","Jazzy James","3.1.4","0","/","NA","NA","NA","NA","space","/","681","NA","NA","NA","NA","108035","681","2","legacy","1024","2","48000","-16","AB_m21","143","odd","FILL_W","GOLF","2405","224543","222952","216893","110449","NA","NA","NA","NA","224534","223449","NA","222452","NA","222448","224534","2414","224743","NA","NA","223543","2406","2406","223935","222448","2405","223543","224743","morph21_Oliver/Morris","16","28478","32","yes","1280","28"
"300","51.5151515152","51.5151515152","883.545454545","883.545454545","black","no","xpyriment","legacy","legacy","0","207","NA","uniform","71803","1000","0.0139269946938","1","undefined","1","0","32","32","32","0","32","32","32","NA","32","32","0","32","NA","32","32","0","32","NA","32","NA","32","0","0","32","32","0","32","32","33","/","10/19/18 15:58:52","The main experiment item","yes","FIN__AB__M21__7%3A10%3A17.osexp","C:\Users\ERP Testing Room\Desktop\Joanna\morph21","no","mono","no","18","no","white","no","yes","1080","legacy","32","32","C:/Users/ERP Testing Room/Desktop/Joanna/morph21/subject-143.csv","xpyriment","Jazzy James","3.1.4","0","/","NA","NA","NA","NA","space","/","679","NA","NA","NA","NA","108035","679","2","legacy","1024","2","48000","-16","AB_m21","143","odd","FILL_W","BAKE","2405","229077","225985","227568","110449","NA","NA","NA","NA","227565","226482","NA","225485","NA","225474","227565","2414","229377","NA","NA","226577","2406","2406","226968","225473","2405","226577","229377","morph21_Oliver/Morris","17","29157","33","yes","1280","29"
"300","52.9411764706","52.9411764706","876.794117647","876.794117647","black","no","xpyriment","legacy","legacy","0","201","NA","uniform","70162","1000","0.0142527293977","1","undefined","1","0","33","33","33","0","33","33","33","NA","33","33","0","33","NA","33","33","0","33","NA","33","NA","33","0","0","33","33","0","33","33","34","/","10/19/18 15:58:52","The main experiment item","yes","FIN__AB__M21__7%3A10%3A17.osexp","C:\Users\ERP Testing Room\Desktop\Joanna\morph21","no","mono","no","18","no","white","no","yes","1080","legacy","33","33","C:/Users/ERP Testing Room/Desktop/Joanna/morph21/subject-143.csv","xpyriment","Jazzy James","3.1.4","0","/","NA","NA","NA","NA","space","/","654","NA","NA","NA","NA","108035","654","2","legacy","1024","2","48000","-16","AB_m21","143","odd","CW_S","ATTACKER","2405","232195","230594","227568","110449","NA","NA","NA","NA","232184","231091","NA","230093","NA","230084","232184","2414","232495","NA","NA","231195","2406","2406","231586","230084","2405","231195","232495","morph21_Oliver/Morris","18","29811","34","yes","1280","20"
"350","51.4285714286","51.4285714286","880.114285714","880.114285714","black","no","xpyriment","legacy","legacy","0","204","NA","uniform","62565","1000","0.0159833772876","0","undefined","0","0","34","34","34","0","34","34","34","NA","34","34","0","34","NA","34","34","0","34","NA","34","NA","34","0","0","34","34","0","34","34","35","z","10/19/18 15:58:52","The main experiment item","yes","FIN__AB__M21__7%3A10%3A17.osexp","C:\Users\ERP Testing Room\Desktop\Joanna\morph21","no","mono","no","18","no","white","no","yes","1080","legacy","34","34","C:/Users/ERP Testing Room/Desktop/Joanna/morph21/subject-143.csv","xpyriment","Jazzy James","3.1.4","0","None","NA","NA","NA","NA","space","None","993","NA","NA","NA","NA","108035","993","2","legacy","1024","2","48000","-16","AB_m21","143","odd","NW_L_COMP","INKISM","2405","235370","233778","227568","110449","NA","NA","NA","NA","232184","234275","NA","233278","NA","233275","235363","2414","235720","NA","NA","234370","2406","2406","234761","233274","2405","234370","235720","morph21_Oliver/Morris","18","30804","35","yes","1280","8"
"350","50","50","883.194444444","883.194444444","black","no","xpyriment","legacy","legacy","0","206","NA","uniform","62295","1000","0.0160526527009","0","undefined","0","0","35","35","35","0","35","35","35","NA","35","35","0","35","NA","35","35","0","35","NA","35","NA","35","0","0","35","35","0","35","35","36","z","10/19/18 15:58:52","The main experiment item","yes","FIN__AB__M21__7%3A10%3A17.osexp","C:\Users\ERP Testing Room\Desktop\Joanna\morph21","no","mono","no","18","no","white","no","yes","1080","legacy","35","35","C:/Users/ERP Testing Room/Desktop/Joanna/morph21/subject-143.csv","xpyriment","Jazzy James","3.1.4","0","None","NA","NA","NA","NA","space","None","991","NA","NA","NA","NA","108035","991","2","legacy","1024","2","48000","-16","AB_m21","143","odd","NW_L_SIMP","WITCHITH","2405","240037","236945","238528","110449","NA","NA","NA","NA","232184","237442","NA","236445","NA","236437","238519","2414","240387","NA","NA","237528","2406","2406","237920","236437","2405","237528","240387","morph21_Oliver/Morris","18","31795","36","yes","1280","11"
"400","51.3513513514","51.3513513514","875.648648649","875.648648649","black","no","xpyriment","legacy","legacy","0","201","NA","uniform","70491","1000","0.0141862081684","1","undefined","1","0","36","36","36","0","36","36","36","NA","36","36","0","36","NA","36","36","0","36","NA","36","NA","36","0","0","36","36","0","36","36","37","/","10/19/18 15:58:52","The main experiment item","yes","FIN__AB__M21__7%3A10%3A17.osexp","C:\Users\ERP Testing Room\Desktop\Joanna\morph21","no","mono","no","18","no","white","no","yes","1080","legacy","36","36","C:/Users/ERP Testing Room/Desktop/Joanna/morph21/subject-143.csv","xpyriment","Jazzy James","3.1.4","0","/","NA","NA","NA","NA","space","/","604","NA","NA","NA","NA","108035","604","2","legacy","1024","2","48000","-16","AB_m21","143","odd","CW_S","AVOIDABLE","2405","243203","241620","238528","110449","NA","NA","NA","NA","243200","242117","NA","241120","NA","241110","243200","2414","243603","NA","NA","242212","2406","2406","242603","241110","2405","242212","243603","morph21_Oliver/Morris","19","32399","37","yes","1280","2"
"350","52.6315789474","52.6315789474","865.342105263","865.342105263","black","no","xpyriment","legacy","legacy","0","202","NA","uniform","81354","1000","0.0122919586007","1","undefined","1","0","37","37","37","0","37","37","37","NA","37","37","0","37","NA","37","37","0","37","NA","37","NA","37","0","0","37","37","0","37","37","38","/","10/19/18 15:58:52","The main experiment item","yes","FIN__AB__M21__7%3A10%3A17.osexp","C:\Users\ERP Testing Room\Desktop\Joanna\morph21","no","mono","no","18","no","white","no","yes","1080","legacy","37","37","C:/Users/ERP Testing Room/Desktop/Joanna/morph21/subject-143.csv","xpyriment","Jazzy James","3.1.4","0","/","NA","NA","NA","NA","space","/","484","NA","NA","NA","NA","108035","484","2","legacy","1024","2","48000","-16","AB_m21","143","odd","CW_L","BOMBER","2405","246412","244812","238528","110449","NA","NA","NA","NA","246406","245309","NA","244312","NA","244307","246406","2414","246762","NA","NA","245412","2406","2406","245803","244306","2405","245412","246762","morph21_Oliver/Morris","20","32883","38","yes","1280","7"
"350","53.8461538462","53.8461538462","858.025641026","858.025641026","black","no","xpyriment","legacy","legacy","0","202","NA","uniform","71741","1000","0.0139390306798","1","undefined","1","0","38","38","38","0","38","38","38","NA","38","38","0","38","NA","38","38","0","38","NA","38","NA","38","0","0","38","38","0","38","38","39","/","10/19/18 15:58:52","The main experiment item","yes","FIN__AB__M21__7%3A10%3A17.osexp","C:\Users\ERP Testing Room\Desktop\Joanna\morph21","no","mono","no","18","no","white","no","yes","1080","legacy","38","38","C:/Users/ERP Testing Room/Desktop/Joanna/morph21/subject-143.csv","xpyriment","Jazzy James","3.1.4","0","/","NA","NA","NA","NA","space","/","580","NA","NA","NA","NA","108035","580","2","legacy","1024","2","48000","-16","AB_m21","143","odd","CW_L","PAINTER","2405","251113","247995","249605","110449","NA","NA","NA","NA","249596","248492","NA","247495","NA","247485","249596","2414","251463","NA","NA","248605","2406","2406","248996","247485","2405","248605","251463","morph21_Oliver/Morris","21","33463","39","yes","1280","18"
"250","55","55","851.025","851.025","black","no","xpyriment","legacy","legacy","0","202","NA","uniform","73758","1000","0.0135578513517","1","undefined","1","0","39","39","39","0","39","39","39","NA","39","39","0","39","NA","39","39","0","39","NA","39","NA","39","0","0","39","39","0","39","39","40","/","10/19/18 15:58:52","The main experiment item","yes","FIN__AB__M21__7%3A10%3A17.osexp","C:\Users\ERP Testing Room\Desktop\Joanna\morph21","no","mono","no","18","no","white","no","yes","1080","legacy","39","39","C:/Users/ERP Testing Room/Desktop/Joanna/morph21/subject-143.csv","xpyriment","Jazzy James","3.1.4","0","/","NA","NA","NA","NA","space","/","578","NA","NA","NA","NA","108035","578","2","legacy","1024","2","48000","-16","AB_m21","143","odd","CW_L","FLEXIBLE","2405","254263","252680","249605","110449","NA","NA","NA","NA","254255","253177","NA","252180","NA","252172","254255","2414","254513","NA","NA","253263","2406","2406","253655","252172","2405","253263","254513","morph21_Oliver/Morris","22","34041","40","yes","1280","22"
"300","56.0975609756","56.0975609756","845.756097561","845.756097561","black","no","xpyriment","legacy","legacy","0","202","NA","uniform","71195","1000","0.0140459301917","1","undefined","1","0","40","40","40","0","40","40","40","NA","40","40","0","40","NA","40","40","0","40","NA","40","NA","40","0","0","40","40","0","40","40","41","/","10/19/18 15:58:52","The main experiment item","yes","FIN__AB__M21__7%3A10%3A17.osexp","C:\Users\ERP Testing Room\Desktop\Joanna\morph21","no","mono","no","18","no","white","no","yes","1080","legacy","40","40","C:/Users/ERP Testing Room/Desktop/Joanna/morph21/subject-143.csv","xpyriment","Jazzy James","3.1.4","0","/","NA","NA","NA","NA","space","/","635","NA","NA","NA","NA","108035","635","2","legacy","1024","2","48000","-16","AB_m21","143","odd","CW_L","DOUBTFUL","2405","257430","255805","249605","110449","NA","NA","NA","NA","257421","256302","NA","255305","NA","255294","257421","2414","257730","NA","NA","256430","2406","2406","256822","255294","2405","256430","257730","morph21_Oliver/Morris","23","34676","41","yes","1280","21"
"400","57.1428571429","57.1428571429","844.571428571","844.571428571","black","no","xpyriment","legacy","legacy","0","208","NA","uniform","69685","1000","0.0143502905934","1","undefined","1","0","41","41","41","0","41","41","41","NA","41","41","0","41","NA","41","41","0","41","NA","41","NA","41","0","0","41","41","0","41","41","42","z","10/19/18 15:58:52","The main experiment item","yes","FIN__AB__M21__7%3A10%3A17.osexp","C:\Users\ERP Testing Room\Desktop\Joanna\morph21","no","mono","no","18","no","white","no","yes","1080","legacy","41","41","C:/Users/ERP Testing Room/Desktop/Joanna/morph21/subject-143.csv","xpyriment","Jazzy James","3.1.4","0","z","NA","NA","NA","NA","space","z","796","NA","NA","NA","NA","108035","796","2","legacy","1024","2","48000","-16","AB_m21","143","odd","FILL_NW","DROES","2405","262089","258997","260580","110449","NA","NA","NA","NA","260574","259494","NA","258497","NA","258492","260574","2414","262489","NA","NA","259580","2406","2406","259972","258492","2405","259580","262489","morph21_Oliver/Morris","24","35472","42","yes","1280","17"
"400","58.1395348837","58.1395348837","847.186046512","847.186046512","black","no","xpyriment","legacy","legacy","0","205","NA","uniform","64892","1000","0.0154102200579","1","undefined","1","0","42","42","42","0","42","42","42","NA","42","42","0","42","NA","42","42","0","42","NA","42","NA","42","0","0","42","42","0","42","42","43","z","10/19/18 15:58:52","The main experiment item","yes","FIN__AB__M21__7%3A10%3A17.osexp","C:\Users\ERP Testing Room\Desktop\Joanna\morph21","no","mono","no","18","no","white","no","yes","1080","legacy","42","42","C:/Users/ERP Testing Room/Desktop/Joanna/morph21/subject-143.csv","xpyriment","Jazzy James","3.1.4","0","z","NA","NA","NA","NA","space","z","957","NA","NA","NA","NA","108035","957","2","legacy","1024","2","48000","-16","AB_m21","143","odd","NW_S_SIMP","RAMPIME","2405","265347","263764","260580","110449","NA","NA","NA","NA","265341","264261","NA","263264","NA","263254","265341","2414","265747","NA","NA","264347","2406","2406","264739","263254","2405","264347","265747","morph21_Oliver/Morris","25","36429","43","yes","1280","6"
"350","59.0909090909","59.0909090909","844.022727273","844.022727273","black","no","xpyriment","legacy","legacy","0","202","NA","uniform","61036","1000","0.0163837735107","1","undefined","1","0","43","43","43","0","43","43","43","NA","43","43","0","43","NA","43","43","0","43","NA","43","NA","43","0","0","43","43","0","43","43","44","/","10/19/18 15:58:52","The main experiment item","yes","FIN__AB__M21__7%3A10%3A17.osexp","C:\Users\ERP Testing Room\Desktop\Joanna\morph21","no","mono","no","18","no","white","no","yes","1080","legacy","43","43","C:/Users/ERP Testing Room/Desktop/Joanna/morph21/subject-143.csv","xpyriment","Jazzy James","3.1.4","0","/","NA","NA","NA","NA","space","/","708","NA","NA","NA","NA","108035","708","2","legacy","1024","2","48000","-16","AB_m21","143","odd","CW_L","GUILELESS","2405","268581","266990","260580","110449","NA","NA","NA","NA","268572","267487","NA","266490","NA","266483","268572","2414","268931","NA","NA","267581","2406","2406","267973","266483","2405","267581","268931","morph21_Oliver/Morris","26","37137","44","yes","1280","31"
"200","60","60","840","840","black","no","xpyriment","legacy","legacy","0","202","NA","uniform","61140","1000","0.0163559044815","1","undefined","1","0","44","44","44","0","44","44","44","NA","44","44","0","44","NA","44","44","0","44","NA","44","NA","44","0","0","44","44","0","44","44","45","/","10/19/18 15:58:52","The main experiment item","yes","FIN__AB__M21__7%3A10%3A17.osexp","C:\Users\ERP Testing Room\Desktop\Joanna\morph21","no","mono","no","18","no","white","no","yes","1080","legacy","44","44","C:/Users/ERP Testing Room/Desktop/Joanna/morph21/subject-143.csv","xpyriment","Jazzy James","3.1.4","0","/","NA","NA","NA","NA","space","/","663","NA","NA","NA","NA","108035","663","2","legacy","1024","2","48000","-16","AB_m21","143","odd","CW_L","VERBAL","2405","273398","270265","271890","110449","NA","NA","NA","NA","271880","270762","NA","269765","NA","269760","271880","2414","273599","NA","NA","270890","2406","2406","271282","269760","2405","270890","273599","morph21_Oliver/Morris","27","37800","45","yes","1280","50"
"400","60.8695652174","60.8695652174","838.108695652","838.108695652","black","no","xpyriment","legacy","legacy","0","202","NA","uniform","65172","1000","0.0153440127662","1","undefined","1","0","45","45","45","0","45","45","45","NA","45","45","0","45","NA","45","45","0","45","NA","45","NA","45","0","0","45","45","0","45","45","46","/","10/19/18 15:58:52","The main experiment item","yes","FIN__AB__M21__7%3A10%3A17.osexp","C:\Users\ERP Testing Room\Desktop\Joanna\morph21","no","mono","no","18","no","white","no","yes","1080","legacy","45","45","C:/Users/ERP Testing Room/Desktop/Joanna/morph21/subject-143.csv","xpyriment","Jazzy James","3.1.4","0","/","NA","NA","NA","NA","space","/","753","NA","NA","NA","NA","108035","753","2","legacy","1024","2","48000","-16","AB_m21","143","odd","CW_L","SPELLER","2405","276415","274832","271890","110449","NA","NA","NA","NA","276405","275329","NA","274332","NA","274323","276405","2414","276815","NA","NA","275415","2406","2406","275807","274323","2405","275415","276815","morph21_Oliver/Morris","28","38553","46","yes","1280","3"
"300","59.5744680851","59.5744680851","834.106382979","834.106382979","black","no","xpyriment","legacy","legacy","0","208","NA","uniform","56029","1000","0.0178479001945","0","undefined","0","0","46","46","46","0","46","46","46","NA","46","46","0","46","NA","46","46","0","46","NA","46","NA","46","0","0","46","46","0","46","46","47","z","10/19/18 15:58:52","The main experiment item","yes","FIN__AB__M21__7%3A10%3A17.osexp","C:\Users\ERP Testing Room\Desktop\Joanna\morph21","no","mono","no","18","no","white","no","yes","1080","legacy","46","46","C:/Users/ERP Testing Room/Desktop/Joanna/morph21/subject-143.csv","xpyriment","Jazzy James","3.1.4","0","/","NA","NA","NA","NA","space","/","650","NA","NA","NA","NA","108035","650","2","legacy","1024","2","48000","-16","AB_m21","143","odd","FILL_NW","DASK","2405","279582","277982","271890","110449","NA","NA","NA","NA","276405","278479","NA","277482","NA","277474","279573","2414","279882","NA","NA","278582","2406","2406","278974","277474","2405","278582","279882","morph21_Oliver/Morris","28","39203","47","yes","1280","12"
"300","60.4166666667","60.4166666667","835.479166667","835.479166667","black","no","xpyriment","legacy","legacy","0","201","NA","uniform","61201","1000","0.0163396022941","1","undefined","1","0","47","47","47","0","47","47","47","NA","47","47","0","47","NA","47","47","0","47","NA","47","NA","47","0","0","47","47","0","47","47","48","/","10/19/18 15:58:52","The main experiment item","yes","FIN__AB__M21__7%3A10%3A17.osexp","C:\Users\ERP Testing Room\Desktop\Joanna\morph21","no","mono","no","18","no","white","no","yes","1080","legacy","47","47","C:/Users/ERP Testing Room/Desktop/Joanna/morph21/subject-143.csv","xpyriment","Jazzy James","3.1.4","0","/","NA","NA","NA","NA","space","/","900","NA","NA","NA","NA","108035","900","2","legacy","1024","2","48000","-16","AB_m21","143","odd","CW_S","DETECTABLE","2405","284250","281149","282740","110449","NA","NA","NA","NA","282733","281646","NA","280649","NA","280639","282733","2414","284550","NA","NA","281740","2406","2406","282132","280639","2405","281740","284550","morph21_Oliver/Morris","29","40103","48","yes","1280","1"
"200","61.2244897959","61.2244897959","833.979591837","833.979591837","black","no","xpyriment","legacy","legacy","0","207","NA","uniform","55436","1000","0.0180388195396","1","undefined","1","0","48","48","48","0","48","48","48","NA","48","48","0","48","NA","48","48","0","48","NA","48","NA","48","0","0","48","48","0","48","48","49","/","10/19/18 15:58:52","The main experiment item","yes","FIN__AB__M21__7%3A10%3A17.osexp","C:\Users\ERP Testing Room\Desktop\Joanna\morph21","no","mono","no","18","no","white","no","yes","1080","legacy","48","48","C:/Users/ERP Testing Room/Desktop/Joanna/morph21/subject-143.csv","xpyriment","Jazzy James","3.1.4","0","/","NA","NA","NA","NA","space","/","762","NA","NA","NA","NA","108035","762","2","legacy","1024","2","48000","-16","AB_m21","143","odd","FILL_W","FLOAT","2405","287375","285792","282740","110449","NA","NA","NA","NA","287371","286289","NA","285292","NA","285281","287371","2414","287575","NA","NA","286375","2406","2406","286775","285281","2405","286375","287575","morph21_Oliver/Morris","30","40865","49","yes","1280","30"
"300","62","62","829.48","829.48","black","no","xpyriment","legacy","legacy","0","207","NA","uniform","69655","1000","0.0143564711794","1","undefined","1","0","49","49","49","0","49","49","49","NA","49","49","0","49","NA","49","49","0","49","NA","49","NA","49","0","0","49","49","0","49","49","50","/","10/19/18 15:58:52","The main experiment item","yes","FIN__AB__M21__7%3A10%3A17.osexp","C:\Users\ERP Testing Room\Desktop\Joanna\morph21","no","mono","no","18","no","white","no","yes","1080","legacy","49","49","C:/Users/ERP Testing Room/Desktop/Joanna/morph21/subject-143.csv","xpyriment","Jazzy James","3.1.4","0","/","NA","NA","NA","NA","space","/","609","NA","NA","NA","NA","108035","609","2","legacy","1024","2","48000","-16","AB_m21","143","odd","FILL_W","BOX","2405","290392","288808","282740","110449","NA","NA","NA","NA","290386","289306","NA","288308","NA","288304","290386","2414","290692","NA","NA","289392","2406","2406","289783","288304","2405","289392","290692","morph21_Oliver/Morris","31","41474","50","yes","1280","42"
"400","62.7450980392","62.7450980392","829.843137255","829.843137255","black","no","xpyriment","legacy","legacy","0","208","NA","uniform","63368","1000","0.0157808357531","1","undefined","1","0","50","50","50","0","50","50","50","NA","50","50","0","50","NA","50","50","0","50","NA","50","NA","50","0","0","50","50","0","50","50","51","z","10/19/18 15:58:52","The main experiment item","yes","FIN__AB__M21__7%3A10%3A17.osexp","C:\Users\ERP Testing Room\Desktop\Joanna\morph21","no","mono","no","18","no","white","no","yes","1080","legacy","50","50","C:/Users/ERP Testing Room/Desktop/Joanna/morph21/subject-143.csv","xpyriment","Jazzy James","3.1.4","0","z","NA","NA","NA","NA","space","z","848","NA","NA","NA","NA","108035","848","2","legacy","1024","2","48000","-16","AB_m21","143","odd","FILL_NW","BUTE","2405","294942","291850","293434","110449","NA","NA","NA","NA","293428","292347","NA","291350","NA","291345","293428","2414","295342","NA","NA","292433","2406","2406","292825","291345","2405","292433","295342","morph21_Oliver/Morris","32","42322","51","yes","1280","5"
"350","61.5384615385","61.5384615385","833.019230769","833.019230769","black","no","xpyriment","legacy","legacy","0","202","NA","uniform","59141","1000","0.0169087435113","0","undefined","0","0","51","51","51","0","51","51","51","NA","51","51","0","51","NA","51","51","0","51","NA","51","NA","51","0","0","51","51","0","51","51","52","/","10/19/18 15:58:52","The main experiment item","yes","FIN__AB__M21__7%3A10%3A17.osexp","C:\Users\ERP Testing Room\Desktop\Joanna\morph21","no","mono","no","18","no","white","no","yes","1080","legacy","51","51","C:/Users/ERP Testing Room/Desktop/Joanna/morph21/subject-143.csv","xpyriment","Jazzy James","3.1.4","0","None","NA","NA","NA","NA","space","None","995","NA","NA","NA","NA","108035","995","2","legacy","1024","2","48000","-16","AB_m21","143","odd","CW_L","BARKER","2405","298150","296534","293434","110449","NA","NA","NA","NA","293428","297031","NA","296034","NA","296026","298145","2414","298500","NA","NA","297150","2406","2406","297542","296026","2405","297150","298500","morph21_Oliver/Morris","32","43317","52","yes","1280","2"
"200","62.2641509434","62.2641509434","830.377358491","830.377358491","black","no","xpyriment","legacy","legacy","0","202","NA","uniform","70334","1000","0.0142178747121","1","undefined","1","0","52","52","52","0","52","52","52","NA","52","52","0","52","NA","52","52","0","52","NA","52","NA","52","0","0","52","52","0","52","52","53","/","10/19/18 15:58:52","The main experiment item","yes","FIN__AB__M21__7%3A10%3A17.osexp","C:\Users\ERP Testing Room\Desktop\Joanna\morph21","no","mono","no","18","no","white","no","yes","1080","legacy","52","52","C:/Users/ERP Testing Room/Desktop/Joanna/morph21/subject-143.csv","xpyriment","Jazzy James","3.1.4","0","/","NA","NA","NA","NA","space","/","693","NA","NA","NA","NA","108035","693","2","legacy","1024","2","48000","-16","AB_m21","143","odd","CW_L","SAILOR","2405","301285","299700","293434","110449","NA","NA","NA","NA","301277","300198","NA","299200","NA","299195","301277","2414","301485","NA","NA","300284","2406","2406","300675","299195","2405","300284","301485","morph21_Oliver/Morris","33","44010","53","yes","1280","43"
"350","62.962962963","62.962962963","826.481481481","826.481481481","black","no","xpyriment","legacy","legacy","0","207","NA","uniform","73236","1000","0.0136544868644","1","undefined","1","0","53","53","53","0","53","53","53","NA","53","53","0","53","NA","53","53","0","53","NA","53","NA","53","0","0","53","53","0","53","53","54","/","10/19/18 15:58:52","The main experiment item","yes","FIN__AB__M21__7%3A10%3A17.osexp","C:\Users\ERP Testing Room\Desktop\Joanna\morph21","no","mono","no","18","no","white","no","yes","1080","legacy","53","53","C:/Users/ERP Testing Room/Desktop/Joanna/morph21/subject-143.csv","xpyriment","Jazzy James","3.1.4","0","/","NA","NA","NA","NA","space","/","620","NA","NA","NA","NA","108035","620","2","legacy","1024","2","48000","-16","AB_m21","143","odd","FILL_W","LEAK","2405","305802","302693","304293","110449","NA","NA","NA","NA","304288","303190","NA","302193","NA","302183","304288","2414","306152","NA","NA","303293","2406","2406","303685","302183","2405","303293","306152","morph21_Oliver/Morris","34","44630","54","yes","1280","9"
"200","63.6363636364","63.6363636364","825.872727273","825.872727273","black","no","xpyriment","legacy","legacy","0","207","NA","uniform","65632","1000","0.0152364700146","1","undefined","1","0","54","54","54","0","54","54","54","NA","54","54","0","54","NA","54","54","0","54","NA","54","NA","54","0","0","54","54","0","54","54","55","/","10/19/18 15:58:52","The main experiment item","yes","FIN__AB__M21__7%3A10%3A17.osexp","C:\Users\ERP Testing Room\Desktop\Joanna\morph21","no","mono","no","18","no","white","no","yes","1080","legacy","54","54","C:/Users/ERP Testing Room/Desktop/Joanna/morph21/subject-143.csv","xpyriment","Jazzy James","3.1.4","0","/","NA","NA","NA","NA","space","/","793","NA","NA","NA","NA","108035","793","2","legacy","1024","2","48000","-16","AB_m21","143","odd","FILL_W","BRASS","2405","308960","307377","304293","110449","NA","NA","NA","NA","308956","307874","NA","306869","NA","306860","308956","2414","309160","NA","NA","307960","2406","2406","308360","306860","2405","307960","309160","morph21_Oliver/Morris","35","45423","55","yes","1280","10"
"300","62.5","62.5","828.875","828.875","black","no","xpyriment","legacy","legacy","0","205","NA","uniform","58454","1000","0.017107469121","0","undefined","0","0","55","55","55","0","55","55","55","NA","55","55","0","55","NA","55","55","0","55","NA","55","NA","55","0","0","55","55","0","55","55","56","z","10/19/18 15:58:52","The main experiment item","yes","FIN__AB__M21__7%3A10%3A17.osexp","C:\Users\ERP Testing Room\Desktop\Joanna\morph21","no","mono","no","18","no","white","no","yes","1080","legacy","55","55","C:/Users/ERP Testing Room/Desktop/Joanna/morph21/subject-143.csv","xpyriment","Jazzy James","3.1.4","0","None","NA","NA","NA","NA","space","None","994","NA","NA","NA","NA","108035","994","2","legacy","1024","2","48000","-16","AB_m21","143","odd","NW_S_SIMP","FEVERIME","2405","311910","310327","304293","110449","NA","NA","NA","NA","308956","310824","NA","309827","NA","309817","311904","2414","312210","NA","NA","310910","2406","2406","311302","309817","2405","310910","312210","morph21_Oliver/Morris","35","46417","56","yes","1280","24"
"250","63.1578947368","63.1578947368","825.701754386","825.701754386","black","no","xpyriment","legacy","legacy","0","207","NA","uniform","71347","1000","0.0140160062792","1","undefined","1","0","56","56","56","0","56","56","56","NA","56","56","0","56","NA","56","56","0","56","NA","56","NA","56","0","0","56","56","0","56","56","57","/","10/19/18 15:58:52","The main experiment item","yes","FIN__AB__M21__7%3A10%3A17.osexp","C:\Users\ERP Testing Room\Desktop\Joanna\morph21","no","mono","no","18","no","white","no","yes","1080","legacy","56","56","C:/Users/ERP Testing Room/Desktop/Joanna/morph21/subject-143.csv","xpyriment","Jazzy James","3.1.4","0","/","NA","NA","NA","NA","space","/","648","NA","NA","NA","NA","108035","648","2","legacy","1024","2","48000","-16","AB_m21","143","odd","FILL_W","SHIP","2405","316444","313352","314935","110449","NA","NA","NA","NA","314927","313849","NA","312852","NA","312848","314927","2414","316694","NA","NA","313936","2406","2406","314327","312848","2405","313935","316694","morph21_Oliver/Morris","36","47065","57","yes","1280","37"
"400","63.7931034483","63.7931034483","828.155172414","828.155172414","black","no","xpyriment","legacy","legacy","0","204","NA","uniform","61759","1000","0.0161919720203","1","undefined","1","0","57","57","57","0","57","57","57","NA","57","57","0","57","NA","57","57","0","57","NA","57","NA","57","0","0","57","57","0","57","57","58","z","10/19/18 15:58:52","The main experiment item","yes","FIN__AB__M21__7%3A10%3A17.osexp","C:\Users\ERP Testing Room\Desktop\Joanna\morph21","no","mono","no","18","no","white","no","yes","1080","legacy","57","57","C:/Users/ERP Testing Room/Desktop/Joanna/morph21/subject-143.csv","xpyriment","Jazzy James","3.1.4","0","z","NA","NA","NA","NA","space","z","968","NA","NA","NA","NA","108035","968","2","legacy","1024","2","48000","-16","AB_m21","143","odd","NW_L_COMP","BOILOUS","2405","319537","317902","314935","110449","NA","NA","NA","NA","319526","318399","NA","317402","NA","317396","319526","2414","319937","NA","NA","318537","2406","2406","318928","317396","2405","318537","319937","morph21_Oliver/Morris","37","48033","58","yes","1280","18"
"300","64.406779661","64.406779661","825.813559322","825.813559322","black","no","xpyriment","legacy","legacy","0","207","NA","uniform","62016","1000","0.016124871001","1","undefined","1","0","58","58","58","0","58","58","58","NA","58","58","0","58","NA","58","58","0","58","NA","58","NA","58","0","0","58","58","0","58","58","59","/","10/19/18 15:58:52","The main experiment item","yes","FIN__AB__M21__7%3A10%3A17.osexp","C:\Users\ERP Testing Room\Desktop\Joanna\morph21","no","mono","no","18","no","white","no","yes","1080","legacy","58","58","C:/Users/ERP Testing Room/Desktop/Joanna/morph21/subject-143.csv","xpyriment","Jazzy James","3.1.4","0","/","NA","NA","NA","NA","space","/","690","NA","NA","NA","NA","108035","690","2","legacy","1024","2","48000","-16","AB_m21","143","odd","FILL_W","BALD","2405","322703","321120","314935","110449","NA","NA","NA","NA","322697","321617","NA","320620","NA","320613","322697","2414","323003","NA","NA","321703","2406","2406","322095","320613","2405","321703","323003","morph21_Oliver/Morris","38","48723","59","yes","1280","3"
"250","63.3333333333","63.3333333333","828.583333333","828.583333333","black","no","xpyriment","legacy","legacy","0","208","NA","uniform","59234","1000","0.0168821960361","0","undefined","0","0","59","59","59","0","59","59","59","NA","59","59","0","59","NA","59","59","0","59","NA","59","NA","59","0","0","59","59","0","59","59","60","z","10/19/18 15:58:52","The main experiment item","yes","FIN__AB__M21__7%3A10%3A17.osexp","C:\Users\ERP Testing Room\Desktop\Joanna\morph21","no","mono","no","18","no","white","no","yes","1080","legacy","59","59","C:/Users/ERP Testing Room/Desktop/Joanna/morph21/subject-143.csv","xpyriment","Jazzy James","3.1.4","0","None","NA","NA","NA","NA","space","None","992","NA","NA","NA","NA","108035","992","2","legacy","1024","2","48000","-16","AB_m21","143","odd","FILL_NW","DOWED","2405","327337","324245","325829","110449","NA","NA","NA","NA","322697","324742","NA","323745","NA","323736","325821","2414","327587","NA","NA","324829","2406","2406","325220","323736","2405","324829","327587","morph21_Oliver/Morris","38","49715","60","yes","1280","16"
"200","63.9344262295","63.9344262295","828.967213115","828.967213115","black","no","xpyriment","legacy","legacy","0","208","NA","uniform","67517","1000","0.0148110846157","1","undefined","1","0","60","60","60","0","60","60","60","NA","60","60","0","60","NA","60","60","0","60","NA","60","NA","60","0","0","60","60","0","60","60","61","z","10/19/18 15:58:52","The main experiment item","yes","FIN__AB__M21__7%3A10%3A17.osexp","C:\Users\ERP Testing Room\Desktop\Joanna\morph21","no","mono","no","18","no","white","no","yes","1080","legacy","60","60","C:/Users/ERP Testing Room/Desktop/Joanna/morph21/subject-143.csv","xpyriment","Jazzy James","3.1.4","0","z","NA","NA","NA","NA","space","z","852","NA","NA","NA","NA","108035","852","2","legacy","1024","2","48000","-16","AB_m21","143","odd","FILL_NW","DARM","2405","330412","328820","325829","110449","NA","NA","NA","NA","330404","329318","NA","328320","NA","328315","330404","2414","330612","NA","NA","329412","2406","2406","329804","328315","2405","329412","330612","morph21_Oliver/Morris","39","50567","61","yes","1280","11"
"200","62.9032258065","62.9032258065","831.629032258","831.629032258","black","no","xpyriment","legacy","legacy","0","208","NA","uniform","63293","1000","0.0157995354937","0","undefined","0","0","61","61","61","0","61","61","61","NA","61","61","0","61","NA","61","61","0","61","NA","61","NA","61","0","0","61","61","0","61","61","62","z","10/19/18 15:58:52","The main experiment item","yes","FIN__AB__M21__7%3A10%3A17.osexp","C:\Users\ERP Testing Room\Desktop\Joanna\morph21","no","mono","no","18","no","white","no","yes","1080","legacy","61","61","C:/Users/ERP Testing Room/Desktop/Joanna/morph21/subject-143.csv","xpyriment","Jazzy James","3.1.4","0","None","NA","NA","NA","NA","space","None","994","NA","NA","NA","NA","108035","994","2","legacy","1024","2","48000","-16","AB_m21","143","odd","FILL_NW","FALONS","2405","333404","331821","325829","110449","NA","NA","NA","NA","330404","332318","NA","331321","NA","331313","333398","2414","333604","NA","NA","332404","2406","2406","332796","331313","2405","332404","333604","morph21_Oliver/Morris","39","51561","62","yes","1280","19"
"200","63.4920634921","63.4920634921","827.936507937","827.936507937","black","no","xpyriment","legacy","legacy","0","207","NA","uniform","76795","1000","0.013021681099","1","undefined","1","0","62","62","62","0","62","62","62","NA","62","62","0","62","NA","62","62","0","62","NA","62","NA","62","0","0","62","62","0","62","62","63","/","10/19/18 15:58:52","The main experiment item","yes","FIN__AB__M21__7%3A10%3A17.osexp","C:\Users\ERP Testing Room\Desktop\Joanna\morph21","no","mono","no","18","no","white","no","yes","1080","legacy","62","62","C:/Users/ERP Testing Room/Desktop/Joanna/morph21/subject-143.csv","xpyriment","Jazzy James","3.1.4","0","/","NA","NA","NA","NA","space","/","599","NA","NA","NA","NA","108035","599","2","legacy","1024","2","48000","-16","AB_m21","143","odd","FILL_W","TEST","2405","337863","334771","336355","110449","NA","NA","NA","NA","336347","335268","NA","334271","NA","334263","336347","2414","338064","NA","NA","335354","2406","2406","335747","334263","2405","335354","338064","morph21_Oliver/Morris","40","52160","63","yes","1280","47"
"400","64.0625","64.0625","825.34375","825.34375","black","no","xpyriment","legacy","legacy","0","207","NA","uniform","75005","1000","0.0133324445037","1","undefined","1","0","63","63","63","0","63","63","63","NA","63","63","0","63","NA","63","63","0","63","NA","63","NA","63","0","0","63","63","0","63","63","64","/","10/19/18 15:58:52","The main experiment item","yes","FIN__AB__M21__7%3A10%3A17.osexp","C:\Users\ERP Testing Room\Desktop\Joanna\morph21","no","mono","no","18","no","white","no","yes","1080","legacy","63","63","C:/Users/ERP Testing Room/Desktop/Joanna/morph21/subject-143.csv","xpyriment","Jazzy James","3.1.4","0","/","NA","NA","NA","NA","space","/","662","NA","NA","NA","NA","108035","662","2","legacy","1024","2","48000","-16","AB_m21","143","odd","FILL_W","DRUNK","2405","340947","339364","336355","110449","NA","NA","NA","NA","340941","339861","NA","338864","NA","338856","340941","2414","341347","NA","NA","339947","2406","2406","340339","338856","2405","339947","341347","morph21_Oliver/Morris","41","52822","64","yes","1280","19"
"400","64.6153846154","64.6153846154","823.092307692","823.092307692","black","no","xpyriment","legacy","legacy","0","201","NA","uniform","70250","1000","0.0142348754448","1","undefined","1","0","64","64","64","0","64","64","64","NA","64","64","0","64","NA","64","64","0","64","NA","64","NA","64","0","0","64","64","0","64","64","65","/","10/19/18 15:58:52","The main experiment item","yes","FIN__AB__M21__7%3A10%3A17.osexp","C:\Users\ERP Testing Room\Desktop\Joanna\morph21","no","mono","no","18","no","white","no","yes","1080","legacy","64","64","C:/Users/ERP Testing Room/Desktop/Joanna/morph21/subject-143.csv","xpyriment","Jazzy James","3.1.4","0","/","NA","NA","NA","NA","space","/","679","NA","NA","NA","NA","108035","679","2","legacy","1024","2","48000","-16","AB_m21","143","odd","CW_S","WIDOWED","2405","344114","342505","336355","110449","NA","NA","NA","NA","344108","343003","NA","342005","NA","341997","344108","2414","344514","NA","NA","343114","2406","2406","343505","341997","2405","343114","344514","morph21_Oliver/Morris","42","53501","65","yes","1280","7"
"250","65.1515151515","65.1515151515","823.090909091","823.090909091","black","no","xpyriment","legacy","legacy","0","208","NA","uniform","67361","1000","0.014845385312","1","undefined","1","0","65","65","65","0","65","65","65","NA","65","65","0","65","NA","65","65","0","65","NA","65","NA","65","0","0","65","65","0","65","65","66","z","10/19/18 15:58:52","The main experiment item","yes","FIN__AB__M21__7%3A10%3A17.osexp","C:\Users\ERP Testing Room\Desktop\Joanna\morph21","no","mono","no","18","no","white","no","yes","1080","legacy","65","65","C:/Users/ERP Testing Room/Desktop/Joanna/morph21/subject-143.csv","xpyriment","Jazzy James","3.1.4","0","z","NA","NA","NA","NA","space","z","823","NA","NA","NA","NA","108035","823","2","legacy","1024","2","48000","-16","AB_m21","143","odd","FILL_NW","PHEEKS","2405","348789","345697","347280","110449","NA","NA","NA","NA","347273","346194","NA","345197","NA","345192","347273","2414","349039","NA","NA","346281","2406","2406","346672","345192","2405","346280","349039","morph21_Oliver/Morris","43","54324","66","yes","1280","35"
"400","65.671641791","65.671641791","819.28358209","819.28358209","black","no","xpyriment","legacy","legacy","0","201","NA","uniform","71034","1000","0.014077765577","1","undefined","1","0","66","66","66","0","66","66","66","NA","66","66","0","66","NA","66","66","0","66","NA","66","NA","66","0","0","66","66","0","66","66","67","/","10/19/18 15:58:52","The main experiment item","yes","FIN__AB__M21__7%3A10%3A17.osexp","C:\Users\ERP Testing Room\Desktop\Joanna\morph21","no","mono","no","18","no","white","no","yes","1080","legacy","66","66","C:/Users/ERP Testing Room/Desktop/Joanna/morph21/subject-143.csv","xpyriment","Jazzy James","3.1.4","0","/","NA","NA","NA","NA","space","/","568","NA","NA","NA","NA","108035","568","2","legacy","1024","2","48000","-16","AB_m21","143","odd","CW_S","RAIDER","2405","351856","350264","347280","110449","NA","NA","NA","NA","351851","350761","NA","349764","NA","349757","351851","2414","352256","NA","NA","350856","2406","2406","351256","349756","2405","350856","352256","morph21_Oliver/Morris","44","54892","67","yes","1280","12"
"200","64.7058823529","64.7058823529","821.838235294","821.838235294","black","no","xpyriment","legacy","legacy","0","203","NA","uniform","62468","1000","0.0160081961965","0","undefined","0","0","67","67","67","0","67","67","67","NA","67","67","0","67","NA","67","67","0","67","NA","67","NA","67","0","0","67","67","0","67","67","68","z","10/19/18 15:58:52","The main experiment item","yes","FIN__AB__M21__7%3A10%3A17.osexp","C:\Users\ERP Testing Room\Desktop\Joanna\morph21","no","mono","no","18","no","white","no","yes","1080","legacy","67","67","C:/Users/ERP Testing Room/Desktop/Joanna/morph21/subject-143.csv","xpyriment","Jazzy James","3.1.4","0","None","NA","NA","NA","NA","space","None","993","NA","NA","NA","NA","108035","993","2","legacy","1024","2","48000","-16","AB_m21","143","odd","NW_S_COMP","MELTANCE","2405","355098","353498","347280","110449","NA","NA","NA","NA","351851","353996","NA","352997","NA","352992","355092","2414","355299","NA","NA","354099","2406","2406","354490","352992","2405","354098","355299","morph21_Oliver/Morris","44","55885","68","yes","1280","1"
"250","63.768115942","63.768115942","824.289855072","824.289855072","black","no","xpyriment","legacy","legacy","0","204","NA","uniform","58141","1000","0.0171995665709","0","undefined","0","0","68","68","68","0","68","68","68","NA","68","68","0","68","NA","68","68","0","68","NA","68","NA","68","0","0","68","68","0","68","68","69","z","10/19/18 15:58:52","The main experiment item","yes","FIN__AB__M21__7%3A10%3A17.osexp","C:\Users\ERP Testing Room\Desktop\Joanna\morph21","no","mono","no","18","no","white","no","yes","1080","legacy","68","68","C:/Users/ERP Testing Room/Desktop/Joanna/morph21/subject-143.csv","xpyriment","Jazzy James","3.1.4","0","None","NA","NA","NA","NA","space","None","991","NA","NA","NA","NA","108035","991","2","legacy","1024","2","48000","-16","AB_m21","143","odd","NW_L_COMP","MUDLY","2405","359557","356465","358049","110449","NA","NA","NA","NA","351851","356962","NA","355965","NA","355956","358041","2414","359807","NA","NA","357049","2406","2406","357440","355956","2405","357049","359807","morph21_Oliver/Morris","44","56876","69","yes","1280","12"
"300","64.2857142857","64.2857142857","822.7","822.7","black","no","xpyriment","legacy","legacy","0","201","NA","uniform","72806","1000","0.0137351317199","1","undefined","1","0","69","69","69","0","69","69","69","NA","69","69","0","69","NA","69","69","0","69","NA","69","NA","69","0","0","69","69","0","69","69","70","/","10/19/18 15:58:52","The main experiment item","yes","FIN__AB__M21__7%3A10%3A17.osexp","C:\Users\ERP Testing Room\Desktop\Joanna\morph21","no","mono","no","18","no","white","no","yes","1080","legacy","69","69","C:/Users/ERP Testing Room/Desktop/Joanna/morph21/subject-143.csv","xpyriment","Jazzy James","3.1.4","0","/","NA","NA","NA","NA","space","/","713","NA","NA","NA","NA","108035","713","2","legacy","1024","2","48000","-16","AB_m21","143","odd","CW_S","DESTROYER","2405","362632","361040","358049","110449","NA","NA","NA","NA","362624","361538","NA","360540","NA","360535","362624","2414","362932","NA","NA","361632","2406","2406","362024","360535","2405","361632","362932","morph21_Oliver/Morris","45","57589","70","yes","1280","14"
"400","64.7887323944","64.7887323944","822.436619718","822.436619718","black","no","xpyriment","legacy","legacy","0","202","NA","uniform","69323","1000","0.0144252268367","1","undefined","1","0","70","70","70","0","70","70","70","NA","70","70","0","70","NA","70","70","0","70","NA","70","NA","70","0","0","70","70","0","70","70","71","/","10/19/18 15:58:52","The main experiment item","yes","FIN__AB__M21__7%3A10%3A17.osexp","C:\Users\ERP Testing Room\Desktop\Joanna\morph21","no","mono","no","18","no","white","no","yes","1080","legacy","70","70","C:/Users/ERP Testing Room/Desktop/Joanna/morph21/subject-143.csv","xpyriment","Jazzy James","3.1.4","0","/","NA","NA","NA","NA","space","/","804","NA","NA","NA","NA","108035","804","2","legacy","1024","2","48000","-16","AB_m21","143","odd","CW_L","BLINDNESS","2405","365716","364124","358049","110449","NA","NA","NA","NA","365711","364621","NA","363624","NA","363620","365711","2414","366116","NA","NA","364716","2406","2406","365116","363620","2405","364716","366116","morph21_Oliver/Morris","46","58393","71","yes","1280","40"
"350","65.2777777778","65.2777777778","818.625","818.625","black","no","xpyriment","legacy","legacy","0","201","NA","uniform","73833","1000","0.0135440792058","1","undefined","1","0","71","71","71","0","71","71","71","NA","71","71","0","71","NA","71","71","0","71","NA","71","NA","71","0","0","71","71","0","71","71","72","/","10/19/18 15:58:52","The main experiment item","yes","FIN__AB__M21__7%3A10%3A17.osexp","C:\Users\ERP Testing Room\Desktop\Joanna\morph21","no","mono","no","18","no","white","no","yes","1080","legacy","71","71","C:/Users/ERP Testing Room/Desktop/Joanna/morph21/subject-143.csv","xpyriment","Jazzy James","3.1.4","0","/","NA","NA","NA","NA","space","/","548","NA","NA","NA","NA","108035","548","2","legacy","1024","2","48000","-16","AB_m21","143","odd","CW_S","TOASTER","2405","370441","367349","368932","110449","NA","NA","NA","NA","368926","367846","NA","366849","NA","366838","368926","2414","370791","NA","NA","367932","2406","2406","368324","366838","2405","367932","370791","morph21_Oliver/Morris","47","58941","72","yes","1280","10"
"400","64.3835616438","64.3835616438","821","821","black","no","xpyriment","legacy","legacy","0","206","NA","uniform","62071","1000","0.016110583042","0","undefined","0","0","72","72","72","0","72","72","72","NA","72","72","0","72","NA","72","72","0","72","NA","72","NA","72","0","0","72","72","0","72","72","73","z","10/19/18 15:58:52","The main experiment item","yes","FIN__AB__M21__7%3A10%3A17.osexp","C:\Users\ERP Testing Room\Desktop\Joanna\morph21","no","mono","no","18","no","white","no","yes","1080","legacy","72","72","C:/Users/ERP Testing Room/Desktop/Joanna/morph21/subject-143.csv","xpyriment","Jazzy James","3.1.4","0","None","NA","NA","NA","NA","space","None","992","NA","NA","NA","NA","108035","992","2","legacy","1024","2","48000","-16","AB_m21","143","odd","NW_L_SIMP","POORIDY","2405","373600","371992","368932","110449","NA","NA","NA","NA","368926","372489","NA","371492","NA","371482","373592","2414","374000","NA","NA","372600","2406","2406","372992","371481","2405","372600","374000","morph21_Oliver/Morris","47","59933","73","yes","1280","13"
"400","64.8648648649","64.8648648649","818.527027027","818.527027027","black","no","xpyriment","legacy","legacy","0","202","NA","uniform","72392","1000","0.0138136810697","1","undefined","1","0","73","73","73","0","73","73","73","NA","73","73","0","73","NA","73","73","0","73","NA","73","NA","73","0","0","73","73","0","73","73","74","/","10/19/18 15:58:52","The main experiment item","yes","FIN__AB__M21__7%3A10%3A17.osexp","C:\Users\ERP Testing Room\Desktop\Joanna\morph21","no","mono","no","18","no","white","no","yes","1080","legacy","73","73","C:/Users/ERP Testing Room/Desktop/Joanna/morph21/subject-143.csv","xpyriment","Jazzy James","3.1.4","0","/","NA","NA","NA","NA","space","/","638","NA","NA","NA","NA","108035","638","2","legacy","1024","2","48000","-16","AB_m21","143","odd","CW_L","FAITHFUL","2405","376859","375225","368932","110449","NA","NA","NA","NA","376851","375723","NA","374725","NA","374720","376851","2414","377259","NA","NA","375859","2406","2406","376250","374720","2405","375859","377259","morph21_Oliver/Morris","48","60571","74","yes","1280","20"
"400","64","64","820.84","820.84","black","no","xpyriment","legacy","legacy","0","206","NA","uniform","58916","1000","0.0169733179442","undefined","undefined","0","0","74","74","74","0","74","74","74","NA","74","74","0","74","NA","74","74","0","74","NA","74","NA","74","0","0","74","74","0","74","74","75","z","10/19/18 15:58:52","The main experiment item","yes","FIN__AB__M21__7%3A10%3A17.osexp","C:\Users\ERP Testing Room\Desktop\Joanna\morph21","no","mono","no","18","no","white","no","yes","1080","legacy","74","74","C:/Users/ERP Testing Room/Desktop/Joanna/morph21/subject-143.csv","xpyriment","Jazzy James","3.1.4","0","z","z","NA","NA","NA","space","None","0","0","NA","NA","NA","108035","992","2","legacy","1024","2","48000","-16","AB_m21","143","odd","NW_L_SIMP","CLASSOES","2405","381667","378534","380159","110449","382076","NA","NA","NA","376851","379031","NA","378026","NA","378020","380151","2414","382078","NA","NA","379159","2406","2406","379551","378020","2405","379159","382068","morph21_Oliver/Morris","48","61563","75","yes","1280","18"
"400","63.1578947368","63.1578947368","823.065789474","823.065789474","black","no","xpyriment","legacy","legacy","0","201","NA","uniform","55928","1000","0.0178801315978","0","undefined","0","0","75","75","75","0","75","75","75","NA","75","75","0","75","NA","75","75","0","75","NA","75","NA","75","0","0","75","75","0","75","75","76","/","10/19/18 15:58:52","The main experiment item","yes","FIN__AB__M21__7%3A10%3A17.osexp","C:\Users\ERP Testing Room\Desktop\Joanna\morph21","no","mono","no","18","no","white","no","yes","1080","legacy","75","75","C:/Users/ERP Testing Room/Desktop/Joanna/morph21/subject-143.csv","xpyriment","Jazzy James","3.1.4","0","None","z","NA","NA","NA","space","None","990","0","NA","NA","NA","108035","990","2","legacy","1024","2","48000","-16","AB_m21","143","odd","CW_S","DESIGN","2405","384917","383309","380159","110449","382076","NA","NA","NA","376851","383806","NA","382809","NA","382804","384908","2414","385318","NA","NA","383918","2406","2406","384309","382804","2405","383917","385318","morph21_Oliver/Morris","48","62553","76","yes","1280","19"
"300","62.3376623377","62.3376623377","825.25974026","825.25974026","black","no","xpyriment","legacy","legacy","0","205","NA","uniform","61107","1000","0.0163647372641","0","undefined","0","0","76","76","76","0","76","76","76","NA","76","76","0","76","NA","76","76","0","76","NA","76","NA","76","0","0","76","76","0","76","76","77","z","10/19/18 15:58:52","The main experiment item","yes","FIN__AB__M21__7%3A10%3A17.osexp","C:\Users\ERP Testing Room\Desktop\Joanna\morph21","no","mono","no","18","no","white","no","yes","1080","legacy","76","76","C:/Users/ERP Testing Room/Desktop/Joanna/morph21/subject-143.csv","xpyriment","Jazzy James","3.1.4","0","None","z","NA","NA","NA","space","None","992","0","NA","NA","NA","108035","992","2","legacy","1024","2","48000","-16","AB_m21","143","odd","NW_S_SIMP","HELMETOES","2405","388169","386584","380159","110449","382076","NA","NA","NA","376851","387081","NA","386084","NA","386075","388160","2414","388469","NA","NA","387168","2406","2406","387559","386075","2405","387168","388469","morph21_Oliver/Morris","48","63545","77","yes","1280","14"
"400","62.8205128205","62.8205128205","825.41025641","825.41025641","black","no","xpyriment","legacy","legacy","0","207","NA","uniform","68177","1000","0.0146677031844","1","undefined","1","0","77","77","77","0","77","77","77","NA","77","77","0","77","NA","77","77","0","77","NA","77","NA","77","0","0","77","77","0","77","77","78","/","10/19/18 15:58:52","The main experiment item","yes","FIN__AB__M21__7%3A10%3A17.osexp","C:\Users\ERP Testing Room\Desktop\Joanna\morph21","no","mono","no","18","no","white","no","yes","1080","legacy","77","77","C:/Users/ERP Testing Room/Desktop/Joanna/morph21/subject-143.csv","xpyriment","Jazzy James","3.1.4","0","/","z","NA","NA","NA","space","/","837","0","NA","NA","NA","108035","837","2","legacy","1024","2","48000","-16","AB_m21","143","odd","FILL_W","CHIP","2405","392760","389669","391252","110449","382076","NA","NA","NA","391246","390166","NA","389169","NA","389159","391246","2414","393161","NA","NA","390252","2406","2406","390644","389159","2405","390252","393161","morph21_Oliver/Morris","49","64382","78","yes","1280","11"
"250","63.2911392405","63.2911392405","824.493670886","824.493670886","black","no","xpyriment","legacy","legacy","0","208","NA","uniform","71544","1000","0.0139774125014","1","undefined","1","0","78","78","78","0","78","78","78","NA","78","78","0","78","NA","78","78","0","78","NA","78","NA","78","0","0","78","78","0","78","78","79","z","10/19/18 15:58:52","The main experiment item","yes","FIN__AB__M21__7%3A10%3A17.osexp","C:\Users\ERP Testing Room\Desktop\Joanna\morph21","no","mono","no","18","no","white","no","yes","1080","legacy","78","78","C:/Users/ERP Testing Room/Desktop/Joanna/morph21/subject-143.csv","xpyriment","Jazzy James","3.1.4","0","z","z","NA","NA","NA","space","z","753","0","NA","NA","NA","108035","753","2","legacy","1024","2","48000","-16","AB_m21","143","odd","FILL_NW","PLAODS","2405","395936","394352","391252","110449","382076","NA","NA","NA","395927","394849","NA","393852","NA","393843","395927","2414","396186","NA","NA","394936","2406","2406","395327","393843","2405","394936","396186","morph21_Oliver/Morris","50","65135","79","yes","1280","37"
"400","63.75","63.75","820.225","820.225","black","no","xpyriment","legacy","legacy","0","207","NA","uniform","74536","1000","0.0134163357304","1","undefined","1","0","79","79","79","0","79","79","79","NA","79","79","0","79","NA","79","79","0","79","NA","79","NA","79","0","0","79","79","0","79","79","80","/","10/19/18 15:58:52","The main experiment item","yes","FIN__AB__M21__7%3A10%3A17.osexp","C:\Users\ERP Testing Room\Desktop\Joanna\morph21","no","mono","no","18","no","white","no","yes","1080","legacy","79","79","C:/Users/ERP Testing Room/Desktop/Joanna/morph21/subject-143.csv","xpyriment","Jazzy James","3.1.4","0","/","z","NA","NA","NA","space","/","483","0","NA","NA","NA","108035","483","2","legacy","1024","2","48000","-16","AB_m21","143","odd","FILL_W","QUIT","2405","399086","397469","391252","110449","382076","NA","NA","NA","399082","397966","NA","396969","NA","396958","399082","2414","399486","NA","NA","398086","2406","2406","398486","396958","2405","398086","399486","morph21_Oliver/Morris","51","65618","80","yes","1280","21"
"300","64.1975308642","64.1975308642","819.395061728","819.395061728","black","no","xpyriment","legacy","legacy","0","208","NA","uniform","71431","1000","0.0139995240162","1","undefined","1","0","80","80","80","0","80","80","80","NA","80","80","0","80","NA","80","80","0","80","NA","80","NA","80","0","0","80","80","0","80","80","81","z","10/19/18 15:58:52","The main experiment item","yes","FIN__AB__M21__7%3A10%3A17.osexp","C:\Users\ERP Testing Room\Desktop\Joanna\morph21","no","mono","no","18","no","white","no","yes","1080","legacy","80","80","C:/Users/ERP Testing Room/Desktop/Joanna/morph21/subject-143.csv","xpyriment","Jazzy James","3.1.4","0","z","z","NA","NA","NA","space","z","753","0","NA","NA","NA","108035","753","2","legacy","1024","2","48000","-16","AB_m21","143","odd","FILL_NW","DULKS","2405","403828","400728","402319","110449","382076","NA","NA","NA","402313","401225","NA","400228","NA","400223","402313","2414","404128","NA","NA","401319","2406","2406","401711","400223","2405","401319","404128","morph21_Oliver/Morris","52","66371","81","yes","1280","18"
"300","64.6341463415","64.6341463415","817.390243902","817.390243902","black","no","xpyriment","legacy","legacy","0","208","NA","uniform","73858","1000","0.0135394947061","1","undefined","1","0","81","81","81","0","81","81","81","NA","81","81","0","81","NA","81","81","0","81","NA","81","NA","81","0","0","81","81","0","81","81","82","z","10/19/18 15:58:52","The main experiment item","yes","FIN__AB__M21__7%3A10%3A17.osexp","C:\Users\ERP Testing Room\Desktop\Joanna\morph21","no","mono","no","18","no","white","no","yes","1080","legacy","81","81","C:/Users/ERP Testing Room/Desktop/Joanna/morph21/subject-143.csv","xpyriment","Jazzy James","3.1.4","0","z","z","NA","NA","NA","space","z","655","0","NA","NA","NA","108035","655","2","legacy","1024","2","48000","-16","AB_m21","143","odd","FILL_NW","KEMT","2405","406954","405328","402319","110449","382076","NA","NA","NA","406947","405825","NA","404828","NA","404819","406947","2414","407254","NA","NA","405954","2406","2406","406345","404819","2405","405954","407254","morph21_Oliver/Morris","53","67026","82","yes","1280","32"
"200","65.0602409639","65.0602409639","816.903614458","816.903614458","black","no","xpyriment","legacy","legacy","0","202","NA","uniform","68069","1000","0.0146909753339","1","undefined","1","0","82","82","82","0","82","82","82","NA","82","82","0","82","NA","82","82","0","82","NA","82","NA","82","0","0","82","82","0","82","82","83","/","10/19/18 15:58:52","The main experiment item","yes","FIN__AB__M21__7%3A10%3A17.osexp","C:\Users\ERP Testing Room\Desktop\Joanna\morph21","no","mono","no","18","no","white","no","yes","1080","legacy","82","82","C:/Users/ERP Testing Room/Desktop/Joanna/morph21/subject-143.csv","xpyriment","Jazzy James","3.1.4","0","/","z","NA","NA","NA","space","/","777","0","NA","NA","NA","108035","777","2","legacy","1024","2","48000","-16","AB_m21","143","odd","CW_L","BOOTLESS","2405","410096","408512","402319","110449","382076","NA","NA","NA","410087","409009","NA","408012","NA","408006","410087","2414","410296","NA","NA","409096","2406","2406","409487","408006","2405","409095","410296","morph21_Oliver/Morris","54","67803","83","yes","1280","32"
"350","64.2857142857","64.2857142857","819.011904762","819.011904762","black","no","xpyriment","legacy","legacy","0","203","NA","uniform","63366","1000","0.0157813338383","0","undefined","0","0","83","83","83","0","83","83","83","NA","83","83","0","83","NA","83","83","0","83","NA","83","NA","83","0","0","83","83","0","83","83","84","z","10/19/18 15:58:52","The main experiment item","yes","FIN__AB__M21__7%3A10%3A17.osexp","C:\Users\ERP Testing Room\Desktop\Joanna\morph21","no","mono","no","18","no","white","no","yes","1080","legacy","83","83","C:/Users/ERP Testing Room/Desktop/Joanna/morph21/subject-143.csv","xpyriment","Jazzy James","3.1.4","0","None","z","NA","NA","NA","space","None","994","0","NA","NA","NA","108035","994","2","legacy","1024","2","48000","-16","AB_m21","143","odd","NW_S_COMP","DEBTISH","2405","414554","411462","413046","110449","382076","NA","NA","NA","410087","411959","NA","410962","NA","410951","413040","2414","414904","NA","NA","412046","2406","2406","412437","410951","2405","412046","414904","morph21_Oliver/Morris","54","68797","84","yes","1280","22"
"400","63.5294117647","63.5294117647","821.070588235","821.070588235","black","no","xpyriment","legacy","legacy","0","207","NA","uniform","63479","1000","0.0157532412294","0","undefined","0","0","84","84","84","0","84","84","84","NA","84","84","0","84","NA","84","84","0","84","NA","84","NA","84","0","0","84","84","0","84","84","85","/","10/19/18 15:58:52","The main experiment item","yes","FIN__AB__M21__7%3A10%3A17.osexp","C:\Users\ERP Testing Room\Desktop\Joanna\morph21","no","mono","no","18","no","white","no","yes","1080","legacy","84","84","C:/Users/ERP Testing Room/Desktop/Joanna/morph21/subject-143.csv","xpyriment","Jazzy James","3.1.4","0","None","z","NA","NA","NA","space","None","994","0","NA","NA","NA","108035","994","2","legacy","1024","2","48000","-16","AB_m21","143","odd","FILL_W","LITHE","2405","417696","416113","413046","110449","382076","NA","NA","NA","410087","416610","NA","415612","NA","415606","417691","2414","418096","NA","NA","416696","2406","2406","417096","415605","2405","416696","418096","morph21_Oliver/Morris","54","69791","85","yes","1280","23"
"200","63.9534883721","63.9534883721","820.686046512","820.686046512","black","no","xpyriment","legacy","legacy","0","208","NA","uniform","67145","1000","0.0148931417082","1","undefined","1","0","85","85","85","0","85","85","85","NA","85","85","0","85","NA","85","85","0","85","NA","85","NA","85","0","0","85","85","0","85","85","86","z","10/19/18 15:58:52","The main experiment item","yes","FIN__AB__M21__7%3A10%3A17.osexp","C:\Users\ERP Testing Room\Desktop\Joanna\morph21","no","mono","no","18","no","white","no","yes","1080","legacy","85","85","C:/Users/ERP Testing Room/Desktop/Joanna/morph21/subject-143.csv","xpyriment","Jazzy James","3.1.4","0","z","z","NA","NA","NA","space","z","788","0","NA","NA","NA","108035","788","2","legacy","1024","2","48000","-16","AB_m21","143","odd","FILL_NW","TUEER","2405","420996","419396","413046","110449","382076","NA","NA","NA","420989","419893","NA","418896","NA","418890","420989","2414","421196","NA","NA","419996","2406","2406","420388","418890","2405","419996","421196","morph21_Oliver/Morris","55","70579","86","yes","1280","44"
"200","64.367816092","64.367816092","819.873563218","819.873563218","black","no","xpyriment","legacy","legacy","0","208","NA","uniform","66262","1000","0.0150916060487","1","undefined","1","0","86","86","86","0","86","86","86","NA","86","86","0","86","NA","86","86","0","86","NA","86","NA","86","0","0","86","86","0","86","86","87","z","10/19/18 15:58:52","The main experiment item","yes","FIN__AB__M21__7%3A10%3A17.osexp","C:\Users\ERP Testing Room\Desktop\Joanna\morph21","no","mono","no","18","no","white","no","yes","1080","legacy","86","86","C:/Users/ERP Testing Room/Desktop/Joanna/morph21/subject-143.csv","xpyriment","Jazzy James","3.1.4","0","z","z","NA","NA","NA","space","z","750","0","NA","NA","NA","108035","750","2","legacy","1024","2","48000","-16","AB_m21","143","odd","FILL_NW","CINDS","2405","425464","422371","423955","110449","382076","NA","NA","NA","423947","422868","NA","421871","NA","421859","423947","2414","425664","NA","NA","422955","2406","2406","423347","421859","2405","422954","425664","morph21_Oliver/Morris","56","71329","87","yes","1280","6"
"400","64.7727272727","64.7727272727","818.670454545","818.670454545","black","no","xpyriment","legacy","legacy","0","208","NA","uniform","73027","1000","0.0136935653936","1","undefined","1","0","87","87","87","0","87","87","87","NA","87","87","0","87","NA","87","87","0","87","NA","87","NA","87","0","0","87","87","0","87","87","88","z","10/19/18 15:58:52","The main experiment item","yes","FIN__AB__M21__7%3A10%3A17.osexp","C:\Users\ERP Testing Room\Desktop\Joanna\morph21","no","mono","no","18","no","white","no","yes","1080","legacy","87","87","C:/Users/ERP Testing Room/Desktop/Joanna/morph21/subject-143.csv","xpyriment","Jazzy James","3.1.4","0","z","z","NA","NA","NA","space","z","714","0","NA","NA","NA","108035","714","2","legacy","1024","2","48000","-16","AB_m21","143","odd","FILL_NW","GIKE","2405","428431","426847","423955","110449","382076","NA","NA","NA","428424","427344","NA","426347","NA","426344","428424","2414","428831","NA","NA","427431","2406","2406","427822","426344","2405","427431","428831","morph21_Oliver/Morris","57","72043","88","yes","1280","24"
"250","65.1685393258","65.1685393258","818.550561798","818.550561798","black","no","xpyriment","legacy","legacy","0","207","NA","uniform","67783","1000","0.0147529616571","1","undefined","1","0","88","88","88","0","88","88","88","NA","88","88","0","88","NA","88","88","0","88","NA","88","NA","88","0","0","88","88","0","88","88","89","/","10/19/18 15:58:52","The main experiment item","yes","FIN__AB__M21__7%3A10%3A17.osexp","C:\Users\ERP Testing Room\Desktop\Joanna\morph21","no","mono","no","18","no","white","no","yes","1080","legacy","88","88","C:/Users/ERP Testing Room/Desktop/Joanna/morph21/subject-143.csv","xpyriment","Jazzy James","3.1.4","0","/","z","NA","NA","NA","space","/","808","0","NA","NA","NA","108035","808","2","legacy","1024","2","48000","-16","AB_m21","143","odd","FILL_W","COOK","2405","431689","430106","423955","110449","382076","NA","NA","NA","431685","430603","NA","429606","NA","429599","431685","2414","431939","NA","NA","430689","2406","2406","431089","429599","2405","430689","431939","morph21_Oliver/Morris","58","72851","89","yes","1280","38"
"300","64.4444444444","64.4444444444","820.477777778","820.477777778","black","no","xpyriment","legacy","legacy","0","208","NA","uniform","63029","1000","0.0158657126085","0","undefined","0","0","89","89","89","0","89","89","89","NA","89","89","0","89","NA","89","89","0","89","NA","89","NA","89","0","0","89","89","0","89","89","90","z","10/19/18 15:58:52","The main experiment item","yes","FIN__AB__M21__7%3A10%3A17.osexp","C:\Users\ERP Testing Room\Desktop\Joanna\morph21","no","mono","no","18","no","white","no","yes","1080","legacy","89","89","C:/Users/ERP Testing Room/Desktop/Joanna/morph21/subject-143.csv","xpyriment","Jazzy James","3.1.4","0","None","z","NA","NA","NA","space","None","992","0","NA","NA","NA","108035","992","2","legacy","1024","2","48000","-16","AB_m21","143","odd","FILL_NW","SCURE","2405","436206","433114","434698","110449","382076","NA","NA","NA","431685","433611","NA","432614","NA","432609","434690","2414","436506","NA","NA","433698","2406","2406","434089","432609","2405","433698","436506","morph21_Oliver/Morris","58","73843","90","yes","1280","41"
"350","64.8351648352","64.8351648352","821.10989011","821.10989011","black","no","xpyriment","legacy","legacy","0","208","NA","uniform","62807","1000","0.0159217921569","1","undefined","1","0","90","90","90","0","90","90","90","NA","90","90","0","90","NA","90","90","0","90","NA","90","NA","90","0","0","90","90","0","90","90","91","z","10/19/18 15:58:52","The main experiment item","yes","FIN__AB__M21__7%3A10%3A17.osexp","C:\Users\ERP Testing Room\Desktop\Joanna\morph21","no","mono","no","18","no","white","no","yes","1080","legacy","90","90","C:/Users/ERP Testing Room/Desktop/Joanna/morph21/subject-143.csv","xpyriment","Jazzy James","3.1.4","0","z","z","NA","NA","NA","space","z","878","0","NA","NA","NA","108035","878","2","legacy","1024","2","48000","-16","AB_m21","143","odd","FILL_NW","BLANTH","2405","439306","437714","434698","110449","382076","NA","NA","NA","439301","438212","NA","437214","NA","437209","439301","2414","439656","NA","NA","438306","2406","2406","438706","437209","2405","438306","439656","morph21_Oliver/Morris","59","74721","91","yes","1280","3"
