"ITI","_prepare","acc","accuracy","average_response_time","avg_rt","background","bidi","canvas_backend","clock_backend","color_backend","compensation","cond_trig","condtrigtime","coordinates","coroutines_cycles","coroutines_duration","coroutines_mean_cycle_duration","correct","correct_instructions_1","correct_new_keyboard_response_1","count_AB_m21","count_ITI","count_blank_screen","count_blink_screen","count_block1","count_break1","count_break2","count_break3_1","count_canvas","count_close_port","count_cond_trigger","count_correct_trigger","count_def_chain","count_end_screen","count_fixation_1","count_getting_started","count_inc_counter","count_instructions_1","count_logger","count_logscript","count_new_inline_script","count_new_inline_script_2","count_new_keyboard_response_1","count_open_port","count_reset_counter_prep","count_reset_counter_run","count_reset_counter_run_1","count_response_trigger_trial","count_responsescreen","count_sequence","count_target_present","count_word_trigger","counter","cresp","datetime","description","disable_garbage_collection","experiment_file","experiment_path","font_bold","font_family","font_italic","font_size","font_underline","foreground","form_clicks","fullscreen","height","keyboard_backend","live_row","live_row_block1","logfile","mouse_backend","opensesame_codename","opensesame_version","repeat_cycle","response","response_break1","response_break2","response_break3_1","response_end_screen","response_instructions_1","response_new_keyboard_response_1","response_time","response_time_break1","response_time_break2","response_time_break3_1","response_time_end_screen","response_time_instructions_1","response_time_new_keyboard_response_1","round_decimals","sampler_backend","sound_buf_size","sound_channels","sound_freq","sound_sample_size","start","subject_nr","subject_parity","targ_type","target","time_AB_m21","time_ITI","time_blank_screen","time_blink_screen","time_block1","time_break1","time_break2","time_break3_1","time_canvas","time_close_port","time_cond_trigger","time_correct_trigger","time_def_chain","time_end_screen","time_fixation_1","time_getting_started","time_inc_counter","time_instructions_1","time_logger","time_logscript","time_new_inline_script","time_new_inline_script_2","time_new_keyboard_response_1","time_open_port","time_reset_counter_prep","time_reset_counter_run","time_reset_counter_run_1","time_response_trigger_trial","time_responsescreen","time_sequence","time_target_present","time_word_trigger","title","total_correct","total_response_time","total_responses","uniform_coordinates","width","word_trig"
"350","","0","0","1200","1200","black","no","xpyriment","legacy","legacy","0","201","NA","uniform","NA","NA","NA","0","undefined","0","0","0","0","0","0","0","0","0","NA","0","0","NA","NA","0","0","NA","0","0","0","NA","NA","NA","0","0","0","NA","NA","0","0","0","0","0","1","/","Fri Oct  6 15:02:02 2023","Executes Python code","yes","m21-ba-lexicalDecision.osexp","C:\Users\jpulido\AppData\Local\Temp\Tempdb2a031c-272f-4945-be96-479185a0a9da_m21_vsl-main (4).zip\m21_vsl-main","no","mono","no","18","no","white","no","yes","1080","legacy","0","0","C:/Users/jpulido/Desktop/data_10-6-2023/subject-220.csv","xpyriment","Lentiform Loewenfeld","3.3.11","0","None","NA","NA","NA","NA","space","None","1200","NA","NA","NA","NA","86424","1200","2","legacy","1024","2","48000","-16","AB_m21","220","even","CW_S","AMAZEMENT","1722","92594","90226","NA","88305","NA","NA","NA","NA","NA","90727","NA","NA","NA","89726","NA","89694","1880","92944","NA","NA","NA","90767","1723","1866","NA","NA","91967","91991","89693","90726","90747","morph21_Oliver/Morris","0","1200","1","yes","1920","39"
"250","","50","50","738","738","black","no","xpyriment","legacy","legacy","0","201","NA","uniform","NA","NA","NA","1","undefined","1","0","1","1","1","0","1","1","1","NA","0","1","NA","NA","0","1","NA","1","0","1","NA","NA","NA","1","0","0","NA","NA","1","1","1","1","1","2","/","Fri Oct  6 15:02:02 2023","Executes Python code","yes","m21-ba-lexicalDecision.osexp","C:\Users\jpulido\AppData\Local\Temp\Tempdb2a031c-272f-4945-be96-479185a0a9da_m21_vsl-main (4).zip\m21_vsl-main","no","mono","no","18","no","white","no","yes","1080","legacy","1","1","C:/Users/jpulido/Desktop/data_10-6-2023/subject-220.csv","xpyriment","Lentiform Loewenfeld","3.3.11","0","/","NA","NA","NA","NA","space","/","276","NA","NA","NA","NA","86424","276","2","legacy","1024","2","48000","-16","AB_m21","220","even","CW_S","COSTLY","1722","95956","94510","NA","88305","NA","NA","NA","NA","NA","95012","NA","NA","NA","94008","NA","93983","1880","96206","NA","NA","NA","95053","1723","1866","NA","NA","95329","95353","93982","95011","95032","morph21_Oliver/Morris","1","1476","2","yes","1920","36"
"250","","33.333333333333336","33.333333333333336","892","892","black","no","xpyriment","legacy","legacy","0","207","NA","uniform","NA","NA","NA","0","undefined","0","0","2","2","2","0","2","2","2","NA","0","2","NA","NA","0","2","NA","2","0","2","NA","NA","NA","2","0","0","NA","NA","2","2","2","2","2","3","/","Fri Oct  6 15:02:02 2023","Executes Python code","yes","m21-ba-lexicalDecision.osexp","C:\Users\jpulido\AppData\Local\Temp\Tempdb2a031c-272f-4945-be96-479185a0a9da_m21_vsl-main (4).zip\m21_vsl-main","no","mono","no","18","no","white","no","yes","1080","legacy","2","2","C:/Users/jpulido/Desktop/data_10-6-2023/subject-220.csv","xpyriment","Lentiform Loewenfeld","3.3.11","0","None","NA","NA","NA","NA","space","None","1200","NA","NA","NA","NA","86424","1200","2","legacy","1024","2","48000","-16","AB_m21","220","even","FILL_W","SPLICE","1722","101641","97767","100135","88305","NA","NA","NA","NA","NA","98268","NA","NA","NA","97267","NA","97241","1880","101892","NA","NA","NA","98308","1723","1866","NA","NA","99508","99531","97241","98268","98288","morph21_Oliver/Morris","1","2676","3","yes","1920","22"
"200","","50","50","945","945","black","no","xpyriment","legacy","legacy","0","205","NA","uniform","NA","NA","NA","1","undefined","1","0","3","3","3","0","3","3","3","NA","0","3","NA","NA","0","3","NA","3","0","3","NA","NA","NA","3","0","0","NA","NA","3","3","3","3","3","4","z","Fri Oct  6 15:02:02 2023","Executes Python code","yes","m21-ba-lexicalDecision.osexp","C:\Users\jpulido\AppData\Local\Temp\Tempdb2a031c-272f-4945-be96-479185a0a9da_m21_vsl-main (4).zip\m21_vsl-main","no","mono","no","18","no","white","no","yes","1080","legacy","3","3","C:/Users/jpulido/Desktop/data_10-6-2023/subject-220.csv","xpyriment","Lentiform Loewenfeld","3.3.11","0","z","NA","NA","NA","NA","space","z","1104","NA","NA","NA","NA","86424","1104","2","legacy","1024","2","48000","-16","AB_m21","220","even","NW_S_SIMP","NULLISH","1722","105749","103474","100135","88305","NA","NA","NA","NA","NA","103975","NA","NA","NA","102974","NA","102948","1880","105949","NA","NA","NA","104016","1723","1866","NA","NA","105121","105145","102948","103975","103996","morph21_Oliver/Morris","2","3780","4","yes","1920","23"
"250","","60","60","941.8","941.8","black","no","xpyriment","legacy","legacy","0","201","NA","uniform","NA","NA","NA","1","undefined","1","0","4","4","4","0","4","4","4","NA","0","4","NA","NA","0","4","NA","4","0","4","NA","NA","NA","4","0","0","NA","NA","4","4","4","4","4","5","/","Fri Oct  6 15:02:02 2023","Executes Python code","yes","m21-ba-lexicalDecision.osexp","C:\Users\jpulido\AppData\Local\Temp\Tempdb2a031c-272f-4945-be96-479185a0a9da_m21_vsl-main (4).zip\m21_vsl-main","no","mono","no","18","no","white","no","yes","1080","legacy","4","4","C:/Users/jpulido/Desktop/data_10-6-2023/subject-220.csv","xpyriment","Lentiform Loewenfeld","3.3.11","0","/","NA","NA","NA","NA","space","/","929","NA","NA","NA","NA","86424","929","2","legacy","1024","2","48000","-16","AB_m21","220","even","CW_S","JAILER","1722","109564","107465","100135","88305","NA","NA","NA","NA","NA","107966","NA","NA","NA","106965","NA","106941","1880","109814","NA","NA","NA","108007","1723","1866","NA","NA","108937","108960","106941","107966","107987","morph21_Oliver/Morris","3","4709","5","yes","1920","13"
"300","","50","50","984.8333333333334","984.8333333333334","black","no","xpyriment","legacy","legacy","0","201","NA","uniform","NA","NA","NA","0","undefined","0","0","5","5","5","0","5","5","5","NA","0","5","NA","NA","0","5","NA","5","0","5","NA","NA","NA","5","0","0","NA","NA","5","5","5","5","5","6","/","Fri Oct  6 15:02:02 2023","Executes Python code","yes","m21-ba-lexicalDecision.osexp","C:\Users\jpulido\AppData\Local\Temp\Tempdb2a031c-272f-4945-be96-479185a0a9da_m21_vsl-main (4).zip\m21_vsl-main","no","mono","no","18","no","white","no","yes","1080","legacy","5","5","C:/Users/jpulido/Desktop/data_10-6-2023/subject-220.csv","xpyriment","Lentiform Loewenfeld","3.3.11","0","None","NA","NA","NA","NA","space","None","1200","NA","NA","NA","NA","86424","1200","2","legacy","1024","2","48000","-16","AB_m21","220","even","CW_S","DETECTABLE","1722","115214","111335","113707","88305","NA","NA","NA","NA","NA","111837","NA","NA","NA","110833","NA","110808","1880","115514","NA","NA","NA","111878","1723","1866","NA","NA","113078","113103","110808","111837","111857","morph21_Oliver/Morris","3","5909","6","yes","1920","1"
"400","","57.142857142857146","57.142857142857146","969.1428571428571","969.1428571428571","black","no","xpyriment","legacy","legacy","0","203","NA","uniform","NA","NA","NA","1","undefined","1","0","6","6","6","0","6","6","6","NA","0","6","NA","NA","0","6","NA","6","0","6","NA","NA","NA","6","0","0","NA","NA","6","6","6","6","6","7","z","Fri Oct  6 15:02:02 2023","Executes Python code","yes","m21-ba-lexicalDecision.osexp","C:\Users\jpulido\AppData\Local\Temp\Tempdb2a031c-272f-4945-be96-479185a0a9da_m21_vsl-main (4).zip\m21_vsl-main","no","mono","no","18","no","white","no","yes","1080","legacy","6","6","C:/Users/jpulido/Desktop/data_10-6-2023/subject-220.csv","xpyriment","Lentiform Loewenfeld","3.3.11","0","z","NA","NA","NA","NA","space","z","875","NA","NA","NA","NA","86424","875","2","legacy","1024","2","48000","-16","AB_m21","220","even","NW_S_COMP","ALTARIG","1722","119101","117056","113707","88305","NA","NA","NA","NA","NA","117556","NA","NA","NA","116556","NA","116528","1880","119501","NA","NA","NA","117597","1723","1866","NA","NA","118472","118497","116527","117556","117577","morph21_Oliver/Morris","4","6784","7","yes","1920","7"
"400","","50","50","975","975","black","no","xpyriment","legacy","legacy","0","202","NA","uniform","NA","NA","NA","0","undefined","0","0","7","7","7","0","7","7","7","NA","0","7","NA","NA","0","7","NA","7","0","7","NA","NA","NA","7","0","0","NA","NA","7","7","7","7","7","8","/","Fri Oct  6 15:02:02 2023","Executes Python code","yes","m21-ba-lexicalDecision.osexp","C:\Users\jpulido\AppData\Local\Temp\Tempdb2a031c-272f-4945-be96-479185a0a9da_m21_vsl-main (4).zip\m21_vsl-main","no","mono","no","18","no","white","no","yes","1080","legacy","7","7","C:/Users/jpulido/Desktop/data_10-6-2023/subject-220.csv","xpyriment","Lentiform Loewenfeld","3.3.11","0","z","NA","NA","NA","NA","space","z","1016","NA","NA","NA","NA","86424","1016","2","legacy","1024","2","48000","-16","AB_m21","220","even","CW_L","FAITHFUL","1722","123212","121027","113707","88305","NA","NA","NA","NA","NA","121527","NA","NA","NA","120526","NA","120497","1880","123613","NA","NA","NA","121568","1723","1866","NA","NA","122584","122609","120497","121527","121548","morph21_Oliver/Morris","4","7800","8","yes","1920","20"
"250","","44.44444444444444","44.44444444444444","1000","1000","black","no","xpyriment","legacy","legacy","0","201","NA","uniform","NA","NA","NA","0","undefined","0","0","8","8","8","0","8","8","8","NA","0","8","NA","NA","0","8","NA","8","0","8","NA","NA","NA","8","0","0","NA","NA","8","8","8","8","8","9","/","Fri Oct  6 15:02:02 2023","Executes Python code","yes","m21-ba-lexicalDecision.osexp","C:\Users\jpulido\AppData\Local\Temp\Tempdb2a031c-272f-4945-be96-479185a0a9da_m21_vsl-main (4).zip\m21_vsl-main","no","mono","no","18","no","white","no","yes","1080","legacy","8","8","C:/Users/jpulido/Desktop/data_10-6-2023/subject-220.csv","xpyriment","Lentiform Loewenfeld","3.3.11","0","None","NA","NA","NA","NA","space","None","1200","NA","NA","NA","NA","86424","1200","2","legacy","1024","2","48000","-16","AB_m21","220","even","CW_S","MILDNESS","1722","129009","125133","127504","88305","NA","NA","NA","NA","NA","125635","NA","NA","NA","124631","NA","124605","1880","129259","NA","NA","NA","125675","1723","1866","NA","NA","126875","126898","124605","125634","125655","morph21_Oliver/Morris","4","9000","9","yes","1920","42"
"250","","50","50","971.8","971.8","black","no","xpyriment","legacy","legacy","0","202","NA","uniform","NA","NA","NA","1","undefined","1","0","9","9","9","0","9","9","9","NA","0","9","NA","NA","0","9","NA","9","0","9","NA","NA","NA","9","0","0","NA","NA","9","9","9","9","9","10","/","Fri Oct  6 15:02:02 2023","Executes Python code","yes","m21-ba-lexicalDecision.osexp","C:\Users\jpulido\AppData\Local\Temp\Tempdb2a031c-272f-4945-be96-479185a0a9da_m21_vsl-main (4).zip\m21_vsl-main","no","mono","no","18","no","white","no","yes","1080","legacy","9","9","C:/Users/jpulido/Desktop/data_10-6-2023/subject-220.csv","xpyriment","Lentiform Loewenfeld","3.3.11","0","/","NA","NA","NA","NA","space","/","718","NA","NA","NA","NA","86424","718","2","legacy","1024","2","48000","-16","AB_m21","220","even","CW_L","LAUGHING","1722","132707","130821","127504","88305","NA","NA","NA","NA","NA","131321","NA","NA","NA","130321","NA","130292","1880","132957","NA","NA","NA","131362","1723","1866","NA","NA","132080","132104","130292","131321","131342","morph21_Oliver/Morris","5","9718","10","yes","1920","27"
"400","","54.54545454545455","54.54545454545455","943.2727272727273","943.2727272727273","black","no","xpyriment","legacy","legacy","0","202","NA","uniform","NA","NA","NA","1","undefined","1","0","10","10","10","0","10","10","10","NA","0","10","NA","NA","0","10","NA","10","0","10","NA","NA","NA","10","0","0","NA","NA","10","10","10","10","10","11","/","Fri Oct  6 15:02:02 2023","Executes Python code","yes","m21-ba-lexicalDecision.osexp","C:\Users\jpulido\AppData\Local\Temp\Tempdb2a031c-272f-4945-be96-479185a0a9da_m21_vsl-main (4).zip\m21_vsl-main","no","mono","no","18","no","white","no","yes","1080","legacy","10","10","C:/Users/jpulido/Desktop/data_10-6-2023/subject-220.csv","xpyriment","Lentiform Loewenfeld","3.3.11","0","/","NA","NA","NA","NA","space","/","658","NA","NA","NA","NA","86424","658","2","legacy","1024","2","48000","-16","AB_m21","220","even","CW_L","CLEANER","1722","136351","134520","127504","88305","NA","NA","NA","NA","NA","135021","NA","NA","NA","134020","NA","133991","1880","136751","NA","NA","NA","135062","1723","1866","NA","NA","135721","135747","133991","135021","135042","morph21_Oliver/Morris","6","10376","11","yes","1920","15"
"200","","58.333333333333336","58.333333333333336","930.6666666666666","930.6666666666666","black","no","xpyriment","legacy","legacy","0","208","NA","uniform","NA","NA","NA","1","undefined","1","0","11","11","11","0","11","11","11","NA","0","11","NA","NA","0","11","NA","11","0","11","NA","NA","NA","11","0","0","NA","NA","11","11","11","11","11","12","z","Fri Oct  6 15:02:02 2023","Executes Python code","yes","m21-ba-lexicalDecision.osexp","C:\Users\jpulido\AppData\Local\Temp\Tempdb2a031c-272f-4945-be96-479185a0a9da_m21_vsl-main (4).zip\m21_vsl-main","no","mono","no","18","no","white","no","yes","1080","legacy","11","11","C:/Users/jpulido/Desktop/data_10-6-2023/subject-220.csv","xpyriment","Lentiform Loewenfeld","3.3.11","0","z","NA","NA","NA","NA","space","z","792","NA","NA","NA","NA","86424","792","2","legacy","1024","2","48000","-16","AB_m21","220","even","FILL_NW","VUNKS","1722","141749","138283","140246","88305","NA","NA","NA","NA","NA","138783","NA","NA","NA","137783","NA","137756","1880","141949","NA","NA","NA","138824","1723","1866","NA","NA","139617","139643","137756","138783","138803","morph21_Oliver/Morris","7","11168","12","yes","1920","49"
"250","","61.53846153846154","61.53846153846154","919.9230769230769","919.9230769230769","black","no","xpyriment","legacy","legacy","0","208","NA","uniform","NA","NA","NA","1","undefined","1","0","12","12","12","0","12","12","12","NA","0","12","NA","NA","0","12","NA","12","0","12","NA","NA","NA","12","0","0","NA","NA","12","12","12","12","12","13","z","Fri Oct  6 15:02:02 2023","Executes Python code","yes","m21-ba-lexicalDecision.osexp","C:\Users\jpulido\AppData\Local\Temp\Tempdb2a031c-272f-4945-be96-479185a0a9da_m21_vsl-main (4).zip\m21_vsl-main","no","mono","no","18","no","white","no","yes","1080","legacy","12","12","C:/Users/jpulido/Desktop/data_10-6-2023/subject-220.csv","xpyriment","Lentiform Loewenfeld","3.3.11","0","z","NA","NA","NA","NA","space","z","791","NA","NA","NA","NA","86424","791","2","legacy","1024","2","48000","-16","AB_m21","220","even","FILL_NW","PHEEKS","1722","145437","143476","140246","88305","NA","NA","NA","NA","NA","143977","NA","NA","NA","142975","NA","142947","1880","145687","NA","NA","NA","144017","1723","1866","NA","NA","144808","144832","142947","143977","143997","morph21_Oliver/Morris","8","11959","13","yes","1920","35"
"350","","64.28571428571429","64.28571428571429","896.4285714285714","896.4285714285714","black","no","xpyriment","legacy","legacy","0","202","NA","uniform","NA","NA","NA","1","undefined","1","0","13","13","13","0","13","13","13","NA","0","13","NA","NA","0","13","NA","13","0","13","NA","NA","NA","13","0","0","NA","NA","13","13","13","13","13","14","/","Fri Oct  6 15:02:02 2023","Executes Python code","yes","m21-ba-lexicalDecision.osexp","C:\Users\jpulido\AppData\Local\Temp\Tempdb2a031c-272f-4945-be96-479185a0a9da_m21_vsl-main (4).zip\m21_vsl-main","no","mono","no","18","no","white","no","yes","1080","legacy","13","13","C:/Users/jpulido/Desktop/data_10-6-2023/subject-220.csv","xpyriment","Lentiform Loewenfeld","3.3.11","0","/","NA","NA","NA","NA","space","/","591","NA","NA","NA","NA","86424","591","2","legacy","1024","2","48000","-16","AB_m21","220","even","CW_L","PUNCHER","1722","148978","147209","140246","88305","NA","NA","NA","NA","NA","147711","NA","NA","NA","146708","NA","146681","1880","149328","NA","NA","NA","147753","1723","1866","NA","NA","148345","148372","146681","147711","147732","morph21_Oliver/Morris","9","12550","14","yes","1920","1"
"250","","66.66666666666667","66.66666666666667","887.1333333333333","887.1333333333333","black","no","xpyriment","legacy","legacy","0","201","NA","uniform","NA","NA","NA","1","undefined","1","0","14","14","14","0","14","14","14","NA","0","14","NA","NA","0","14","NA","14","0","14","NA","NA","NA","14","0","0","NA","NA","14","14","14","14","14","15","/","Fri Oct  6 15:02:02 2023","Executes Python code","yes","m21-ba-lexicalDecision.osexp","C:\Users\jpulido\AppData\Local\Temp\Tempdb2a031c-272f-4945-be96-479185a0a9da_m21_vsl-main (4).zip\m21_vsl-main","no","mono","no","18","no","white","no","yes","1080","legacy","14","14","C:/Users/jpulido/Desktop/data_10-6-2023/subject-220.csv","xpyriment","Lentiform Loewenfeld","3.3.11","0","/","NA","NA","NA","NA","space","/","757","NA","NA","NA","NA","86424","757","2","legacy","1024","2","48000","-16","AB_m21","220","even","CW_S","SEEKER","1722","154332","150901","152828","88305","NA","NA","NA","NA","NA","151402","NA","NA","NA","150398","NA","150367","1880","154582","NA","NA","NA","151443","1723","1866","NA","NA","152201","152224","150367","151402","151423","morph21_Oliver/Morris","10","13307","15","yes","1920","16"
"300","","68.75","68.75","869.3125","869.3125","black","no","xpyriment","legacy","legacy","0","202","NA","uniform","NA","NA","NA","1","undefined","1","0","15","15","15","0","15","15","15","NA","0","15","NA","NA","0","15","NA","15","0","15","NA","NA","NA","15","0","0","NA","NA","15","15","15","15","15","16","/","Fri Oct  6 15:02:02 2023","Executes Python code","yes","m21-ba-lexicalDecision.osexp","C:\Users\jpulido\AppData\Local\Temp\Tempdb2a031c-272f-4945-be96-479185a0a9da_m21_vsl-main (4).zip\m21_vsl-main","no","mono","no","18","no","white","no","yes","1080","legacy","15","15","C:/Users/jpulido/Desktop/data_10-6-2023/subject-220.csv","xpyriment","Lentiform Loewenfeld","3.3.11","0","/","NA","NA","NA","NA","space","/","602","NA","NA","NA","NA","86424","602","2","legacy","1024","2","48000","-16","AB_m21","220","even","CW_L","COMPOSER","1722","157891","156121","152828","88305","NA","NA","NA","NA","NA","156622","NA","NA","NA","155621","NA","155594","1880","158191","NA","NA","NA","156662","1723","1866","NA","NA","157264","157288","155594","156622","156642","morph21_Oliver/Morris","11","13909","16","yes","1920","6"
"400","","70.58823529411765","70.58823529411765","865.3529411764706","865.3529411764706","black","no","xpyriment","legacy","legacy","0","207","NA","uniform","NA","NA","NA","1","undefined","1","0","16","16","16","0","16","16","16","NA","0","16","NA","NA","0","16","NA","16","0","16","NA","NA","NA","16","0","0","NA","NA","16","16","16","16","16","17","/","Fri Oct  6 15:02:02 2023","Executes Python code","yes","m21-ba-lexicalDecision.osexp","C:\Users\jpulido\AppData\Local\Temp\Tempdb2a031c-272f-4945-be96-479185a0a9da_m21_vsl-main (4).zip\m21_vsl-main","no","mono","no","18","no","white","no","yes","1080","legacy","16","16","C:/Users/jpulido/Desktop/data_10-6-2023/subject-220.csv","xpyriment","Lentiform Loewenfeld","3.3.11","0","/","NA","NA","NA","NA","space","/","802","NA","NA","NA","NA","86424","802","2","legacy","1024","2","48000","-16","AB_m21","220","even","FILL_W","CEASE","1722","161718","159743","152828","88305","NA","NA","NA","NA","NA","160245","NA","NA","NA","159243","NA","159216","1880","162118","NA","NA","NA","160286","1723","1866","NA","NA","161089","161114","159216","160245","160266","morph21_Oliver/Morris","12","14711","17","yes","1920","18"
"250","","72.22222222222223","72.22222222222223","854.1111111111111","854.1111111111111","black","no","xpyriment","legacy","legacy","0","202","NA","uniform","NA","NA","NA","1","undefined","1","0","17","17","17","0","17","17","17","NA","0","17","NA","NA","0","17","NA","17","0","17","NA","NA","NA","17","0","0","NA","NA","17","17","17","17","17","18","/","Fri Oct  6 15:02:02 2023","Executes Python code","yes","m21-ba-lexicalDecision.osexp","C:\Users\jpulido\AppData\Local\Temp\Tempdb2a031c-272f-4945-be96-479185a0a9da_m21_vsl-main (4).zip\m21_vsl-main","no","mono","no","18","no","white","no","yes","1080","legacy","17","17","C:/Users/jpulido/Desktop/data_10-6-2023/subject-220.csv","xpyriment","Lentiform Loewenfeld","3.3.11","0","/","NA","NA","NA","NA","space","/","663","NA","NA","NA","NA","86424","663","2","legacy","1024","2","48000","-16","AB_m21","220","even","CW_L","PUSHER","1722","166997","163660","165493","88305","NA","NA","NA","NA","NA","164160","NA","NA","NA","163159","NA","163129","1880","167247","NA","NA","NA","164201","1723","1866","NA","NA","164864","164889","163129","164160","164181","morph21_Oliver/Morris","13","15374","18","yes","1920","13"
"350","","73.6842105263158","73.6842105263158","842.1578947368421","842.1578947368421","black","no","xpyriment","legacy","legacy","0","207","NA","uniform","NA","NA","NA","1","undefined","1","0","18","18","18","0","18","18","18","NA","0","18","NA","NA","0","18","NA","18","0","18","NA","NA","NA","18","0","0","NA","NA","18","18","18","18","18","19","/","Fri Oct  6 15:02:02 2023","Executes Python code","yes","m21-ba-lexicalDecision.osexp","C:\Users\jpulido\AppData\Local\Temp\Tempdb2a031c-272f-4945-be96-479185a0a9da_m21_vsl-main (4).zip\m21_vsl-main","no","mono","no","18","no","white","no","yes","1080","legacy","18","18","C:/Users/jpulido/Desktop/data_10-6-2023/subject-220.csv","xpyriment","Lentiform Loewenfeld","3.3.11","0","/","NA","NA","NA","NA","space","/","627","NA","NA","NA","NA","86424","627","2","legacy","1024","2","48000","-16","AB_m21","220","even","FILL_W","WEIRD","1722","170573","168773","165493","88305","NA","NA","NA","NA","NA","169274","NA","NA","NA","168272","NA","168245","1880","170923","NA","NA","NA","169316","1723","1866","NA","NA","169944","169968","168245","169274","169295","morph21_Oliver/Morris","14","16001","19","yes","1920","2"
"250","","75","75","838.85","838.85","black","no","xpyriment","legacy","legacy","0","207","NA","uniform","NA","NA","NA","1","undefined","1","0","19","19","19","0","19","19","19","NA","0","19","NA","NA","0","19","NA","19","0","19","NA","NA","NA","19","0","0","NA","NA","19","19","19","19","19","20","/","Fri Oct  6 15:02:02 2023","Executes Python code","yes","m21-ba-lexicalDecision.osexp","C:\Users\jpulido\AppData\Local\Temp\Tempdb2a031c-272f-4945-be96-479185a0a9da_m21_vsl-main (4).zip\m21_vsl-main","no","mono","no","18","no","white","no","yes","1080","legacy","19","19","C:/Users/jpulido/Desktop/data_10-6-2023/subject-220.csv","xpyriment","Lentiform Loewenfeld","3.3.11","0","/","NA","NA","NA","NA","space","/","776","NA","NA","NA","NA","86424","776","2","legacy","1024","2","48000","-16","AB_m21","220","even","FILL_W","FIERCE","1722","174388","172442","165493","88305","NA","NA","NA","NA","NA","172943","NA","NA","NA","171939","NA","171914","1880","174639","NA","NA","NA","172984","1723","1866","NA","NA","173761","173785","171914","172943","172964","morph21_Oliver/Morris","15","16777","20","yes","1920","24"
"200","","76.19047619047619","76.19047619047619","829.9047619047619","829.9047619047619","black","no","xpyriment","legacy","legacy","0","202","NA","uniform","NA","NA","NA","1","undefined","1","0","20","20","20","0","20","20","20","NA","0","20","NA","NA","0","20","NA","20","0","20","NA","NA","NA","20","0","0","NA","NA","20","20","20","20","20","21","/","Fri Oct  6 15:02:02 2023","Executes Python code","yes","m21-ba-lexicalDecision.osexp","C:\Users\jpulido\AppData\Local\Temp\Tempdb2a031c-272f-4945-be96-479185a0a9da_m21_vsl-main (4).zip\m21_vsl-main","no","mono","no","18","no","white","no","yes","1080","legacy","20","20","C:/Users/jpulido/Desktop/data_10-6-2023/subject-220.csv","xpyriment","Lentiform Loewenfeld","3.3.11","0","/","NA","NA","NA","NA","space","/","651","NA","NA","NA","NA","86424","651","2","legacy","1024","2","48000","-16","AB_m21","220","even","CW_L","BONELESS","1722","179482","176161","177980","88305","NA","NA","NA","NA","NA","176661","NA","NA","NA","175661","NA","175632","1880","179682","NA","NA","NA","176701","1723","1866","NA","NA","177352","177377","175632","176661","176681","morph21_Oliver/Morris","16","17428","21","yes","1920","34"
"250","","77.27272727272727","77.27272727272727","830.7727272727273","830.7727272727273","black","no","xpyriment","legacy","legacy","0","203","NA","uniform","NA","NA","NA","1","undefined","1","0","21","21","21","0","21","21","21","NA","0","21","NA","NA","0","21","NA","21","0","21","NA","NA","NA","21","0","0","NA","NA","21","21","21","21","21","22","z","Fri Oct  6 15:02:02 2023","Executes Python code","yes","m21-ba-lexicalDecision.osexp","C:\Users\jpulido\AppData\Local\Temp\Tempdb2a031c-272f-4945-be96-479185a0a9da_m21_vsl-main (4).zip\m21_vsl-main","no","mono","no","18","no","white","no","yes","1080","legacy","21","21","C:/Users/jpulido/Desktop/data_10-6-2023/subject-220.csv","xpyriment","Lentiform Loewenfeld","3.3.11","0","z","NA","NA","NA","NA","space","z","849","NA","NA","NA","NA","86424","849","2","legacy","1024","2","48000","-16","AB_m21","220","even","NW_S_COMP","LIDADY","1722","183270","181250","177980","88305","NA","NA","NA","NA","NA","181750","NA","NA","NA","180748","NA","180721","1880","183520","NA","NA","NA","181791","1723","1866","NA","NA","182641","182665","180721","181750","181771","morph21_Oliver/Morris","17","18277","22","yes","1920","3"
"250","","78.26086956521739","78.26086956521739","835.1304347826087","835.1304347826087","black","no","xpyriment","legacy","legacy","0","204","NA","uniform","NA","NA","NA","1","undefined","1","0","22","22","22","0","22","22","22","NA","0","22","NA","NA","0","22","NA","22","0","22","NA","NA","NA","22","0","0","NA","NA","22","22","22","22","22","23","z","Fri Oct  6 15:02:02 2023","Executes Python code","yes","m21-ba-lexicalDecision.osexp","C:\Users\jpulido\AppData\Local\Temp\Tempdb2a031c-272f-4945-be96-479185a0a9da_m21_vsl-main (4).zip\m21_vsl-main","no","mono","no","18","no","white","no","yes","1080","legacy","22","22","C:/Users/jpulido/Desktop/data_10-6-2023/subject-220.csv","xpyriment","Lentiform Loewenfeld","3.3.11","0","z","NA","NA","NA","NA","space","z","931","NA","NA","NA","NA","86424","931","2","legacy","1024","2","48000","-16","AB_m21","220","even","NW_L_COMP","FREENELS","1722","187148","185048","177980","88305","NA","NA","NA","NA","NA","185549","NA","NA","NA","184548","NA","184514","1880","187399","NA","NA","NA","185589","1723","1866","NA","NA","186521","186545","184514","185549","185569","morph21_Oliver/Morris","18","19208","23","yes","1920","15"
"250","","79.16666666666667","79.16666666666667","833.25","833.25","black","no","xpyriment","legacy","legacy","0","204","NA","uniform","NA","NA","NA","1","undefined","1","0","23","23","23","0","23","23","23","NA","0","23","NA","NA","0","23","NA","23","0","23","NA","NA","NA","23","0","0","NA","NA","23","23","23","23","23","24","z","Fri Oct  6 15:02:02 2023","Executes Python code","yes","m21-ba-lexicalDecision.osexp","C:\Users\jpulido\AppData\Local\Temp\Tempdb2a031c-272f-4945-be96-479185a0a9da_m21_vsl-main (4).zip\m21_vsl-main","no","mono","no","18","no","white","no","yes","1080","legacy","23","23","C:/Users/jpulido/Desktop/data_10-6-2023/subject-220.csv","xpyriment","Lentiform Loewenfeld","3.3.11","0","z","NA","NA","NA","NA","space","z","790","NA","NA","NA","NA","86424","790","2","legacy","1024","2","48000","-16","AB_m21","220","even","NW_L_COMP","BREAKIDY","1722","192388","188925","190885","88305","NA","NA","NA","NA","NA","189425","NA","NA","NA","188425","NA","188399","1880","192638","NA","NA","NA","189466","1723","1866","NA","NA","190256","190282","188399","189425","189446","morph21_Oliver/Morris","19","19998","24","yes","1920","23"
"250","","80","80","846.84","846.84","black","no","xpyriment","legacy","legacy","0","203","NA","uniform","NA","NA","NA","1","undefined","1","0","24","24","24","0","24","24","24","NA","0","24","NA","NA","0","24","NA","24","0","24","NA","NA","NA","24","0","0","NA","NA","24","24","24","24","24","25","z","Fri Oct  6 15:02:02 2023","Executes Python code","yes","m21-ba-lexicalDecision.osexp","C:\Users\jpulido\AppData\Local\Temp\Tempdb2a031c-272f-4945-be96-479185a0a9da_m21_vsl-main (4).zip\m21_vsl-main","no","mono","no","18","no","white","no","yes","1080","legacy","24","24","C:/Users/jpulido/Desktop/data_10-6-2023/subject-220.csv","xpyriment","Lentiform Loewenfeld","3.3.11","0","z","NA","NA","NA","NA","space","z","1173","NA","NA","NA","NA","86424","1173","2","legacy","1024","2","48000","-16","AB_m21","220","even","NW_S_COMP","TREASONIME","1722","196518","194173","190885","88305","NA","NA","NA","NA","NA","194674","NA","NA","NA","193672","NA","193646","1880","196768","NA","NA","NA","194715","1723","1866","NA","NA","195888","195914","193646","194674","194695","morph21_Oliver/Morris","20","21171","25","yes","1920","14"
"350","","80.76923076923077","80.76923076923077","844.3076923076923","844.3076923076923","black","no","xpyriment","legacy","legacy","0","202","NA","uniform","NA","NA","NA","1","undefined","1","0","25","25","25","0","25","25","25","NA","0","25","NA","NA","0","25","NA","25","0","25","NA","NA","NA","25","0","0","NA","NA","25","25","25","25","25","26","/","Fri Oct  6 15:02:02 2023","Executes Python code","yes","m21-ba-lexicalDecision.osexp","C:\Users\jpulido\AppData\Local\Temp\Tempdb2a031c-272f-4945-be96-479185a0a9da_m21_vsl-main (4).zip\m21_vsl-main","no","mono","no","18","no","white","no","yes","1080","legacy","25","25","C:/Users/jpulido/Desktop/data_10-6-2023/subject-220.csv","xpyriment","Lentiform Loewenfeld","3.3.11","0","/","NA","NA","NA","NA","space","/","781","NA","NA","NA","NA","86424","781","2","legacy","1024","2","48000","-16","AB_m21","220","even","CW_L","PARKING","1722","200252","198301","190885","88305","NA","NA","NA","NA","NA","198802","NA","NA","NA","197800","NA","197774","1880","200602","NA","NA","NA","198843","1723","1866","NA","NA","199624","199648","197774","198802","198823","morph21_Oliver/Morris","21","21952","26","yes","1920","25"
"400","","81.48148148148148","81.48148148148148","844.6296296296297","844.6296296296297","black","no","xpyriment","legacy","legacy","0","207","NA","uniform","NA","NA","NA","1","undefined","1","0","26","26","26","0","26","26","26","NA","0","26","NA","NA","0","26","NA","26","0","26","NA","NA","NA","26","0","0","NA","NA","26","26","26","26","26","27","/","Fri Oct  6 15:02:02 2023","Executes Python code","yes","m21-ba-lexicalDecision.osexp","C:\Users\jpulido\AppData\Local\Temp\Tempdb2a031c-272f-4945-be96-479185a0a9da_m21_vsl-main (4).zip\m21_vsl-main","no","mono","no","18","no","white","no","yes","1080","legacy","26","26","C:/Users/jpulido/Desktop/data_10-6-2023/subject-220.csv","xpyriment","Lentiform Loewenfeld","3.3.11","0","/","NA","NA","NA","NA","space","/","853","NA","NA","NA","NA","86424","853","2","legacy","1024","2","48000","-16","AB_m21","220","even","FILL_W","LITHE","1722","205655","202126","204151","88305","NA","NA","NA","NA","NA","202626","NA","NA","NA","201625","NA","201598","1880","206055","NA","NA","NA","202667","1723","1866","NA","NA","203520","203548","201598","202626","202647","morph21_Oliver/Morris","22","22805","27","yes","1920","23"
"250","","82.14285714285714","82.14285714285714","839.6428571428571","839.6428571428571","black","no","xpyriment","legacy","legacy","0","207","NA","uniform","NA","NA","NA","1","undefined","1","0","27","27","27","0","27","27","27","NA","0","27","NA","NA","0","27","NA","27","0","27","NA","NA","NA","27","0","0","NA","NA","27","27","27","27","27","28","/","Fri Oct  6 15:02:02 2023","Executes Python code","yes","m21-ba-lexicalDecision.osexp","C:\Users\jpulido\AppData\Local\Temp\Tempdb2a031c-272f-4945-be96-479185a0a9da_m21_vsl-main (4).zip\m21_vsl-main","no","mono","no","18","no","white","no","yes","1080","legacy","27","27","C:/Users/jpulido/Desktop/data_10-6-2023/subject-220.csv","xpyriment","Lentiform Loewenfeld","3.3.11","0","/","NA","NA","NA","NA","space","/","705","NA","NA","NA","NA","86424","705","2","legacy","1024","2","48000","-16","AB_m21","220","even","FILL_W","PACK","1722","209491","207616","204151","88305","NA","NA","NA","NA","NA","208116","NA","NA","NA","207116","NA","207090","1880","209741","NA","NA","NA","208158","1723","1866","NA","NA","208864","208888","207090","208116","208137","morph21_Oliver/Morris","23","23510","28","yes","1920","41"
"400","","82.75862068965517","82.75862068965517","843.4827586206897","843.4827586206897","black","no","xpyriment","legacy","legacy","0","208","NA","uniform","NA","NA","NA","1","undefined","1","0","28","28","28","0","28","28","28","NA","0","28","NA","NA","0","28","NA","28","0","28","NA","NA","NA","28","0","0","NA","NA","28","28","28","28","28","29","z","Fri Oct  6 15:02:02 2023","Executes Python code","yes","m21-ba-lexicalDecision.osexp","C:\Users\jpulido\AppData\Local\Temp\Tempdb2a031c-272f-4945-be96-479185a0a9da_m21_vsl-main (4).zip\m21_vsl-main","no","mono","no","18","no","white","no","yes","1080","legacy","28","28","C:/Users/jpulido/Desktop/data_10-6-2023/subject-220.csv","xpyriment","Lentiform Loewenfeld","3.3.11","0","z","NA","NA","NA","NA","space","z","951","NA","NA","NA","NA","86424","951","2","legacy","1024","2","48000","-16","AB_m21","220","even","FILL_NW","BALFS","1722","213395","211275","204151","88305","NA","NA","NA","NA","NA","211776","NA","NA","NA","210774","NA","210749","1880","213795","NA","NA","NA","211817","1723","1866","NA","NA","212769","212792","210749","211776","211796","morph21_Oliver/Morris","24","24461","29","yes","1920","2"
"350","","83.33333333333333","83.33333333333333","847.2333333333333","847.2333333333333","black","no","xpyriment","legacy","legacy","0","201","NA","uniform","NA","NA","NA","1","undefined","1","0","29","29","29","0","29","29","29","NA","0","29","NA","NA","0","29","NA","29","0","29","NA","NA","NA","29","0","0","NA","NA","29","29","29","29","29","30","/","Fri Oct  6 15:02:02 2023","Executes Python code","yes","m21-ba-lexicalDecision.osexp","C:\Users\jpulido\AppData\Local\Temp\Tempdb2a031c-272f-4945-be96-479185a0a9da_m21_vsl-main (4).zip\m21_vsl-main","no","mono","no","18","no","white","no","yes","1080","legacy","29","29","C:/Users/jpulido/Desktop/data_10-6-2023/subject-220.csv","xpyriment","Lentiform Loewenfeld","3.3.11","0","/","NA","NA","NA","NA","space","/","956","NA","NA","NA","NA","86424","956","2","legacy","1024","2","48000","-16","AB_m21","220","even","CW_S","NEATLY","1722","218958","215327","217453","88305","NA","NA","NA","NA","NA","215827","NA","NA","NA","214827","NA","214803","1880","219308","NA","NA","NA","215868","1723","1866","NA","NA","216824","216849","214803","215827","215848","morph21_Oliver/Morris","25","25417","30","yes","1920","33"
"350","","83.87096774193549","83.87096774193549","840.5806451612904","840.5806451612904","black","no","xpyriment","legacy","legacy","0","202","NA","uniform","NA","NA","NA","1","undefined","1","0","30","30","30","0","30","30","30","NA","0","30","NA","NA","0","30","NA","30","0","30","NA","NA","NA","30","0","0","NA","NA","30","30","30","30","30","31","/","Fri Oct  6 15:02:02 2023","Executes Python code","yes","m21-ba-lexicalDecision.osexp","C:\Users\jpulido\AppData\Local\Temp\Tempdb2a031c-272f-4945-be96-479185a0a9da_m21_vsl-main (4).zip\m21_vsl-main","no","mono","no","18","no","white","no","yes","1080","legacy","30","30","C:/Users/jpulido/Desktop/data_10-6-2023/subject-220.csv","xpyriment","Lentiform Loewenfeld","3.3.11","0","/","NA","NA","NA","NA","space","/","641","NA","NA","NA","NA","86424","641","2","legacy","1024","2","48000","-16","AB_m21","220","even","CW_L","HUNTER","1722","222669","220858","217453","88305","NA","NA","NA","NA","NA","221358","NA","NA","NA","220358","NA","220330","1880","223019","NA","NA","NA","221399","1723","1866","NA","NA","222040","222065","220330","221358","221379","morph21_Oliver/Morris","26","26058","31","yes","1920","10"
"250","","84.375","84.375","836.375","836.375","black","no","xpyriment","legacy","legacy","0","202","NA","uniform","NA","NA","NA","1","undefined","1","0","31","31","31","0","31","31","31","NA","0","31","NA","NA","0","31","NA","31","0","31","NA","NA","NA","31","0","0","NA","NA","31","31","31","31","31","32","/","Fri Oct  6 15:02:02 2023","Executes Python code","yes","m21-ba-lexicalDecision.osexp","C:\Users\jpulido\AppData\Local\Temp\Tempdb2a031c-272f-4945-be96-479185a0a9da_m21_vsl-main (4).zip\m21_vsl-main","no","mono","no","18","no","white","no","yes","1080","legacy","31","31","C:/Users/jpulido/Desktop/data_10-6-2023/subject-220.csv","xpyriment","Lentiform Loewenfeld","3.3.11","0","/","NA","NA","NA","NA","space","/","706","NA","NA","NA","NA","86424","706","2","legacy","1024","2","48000","-16","AB_m21","220","even","CW_L","DEAFNESS","1722","226428","224553","217453","88305","NA","NA","NA","NA","NA","225054","NA","NA","NA","224053","NA","224025","1880","226678","NA","NA","NA","225094","1723","1866","NA","NA","225800","225824","224025","225053","225074","morph21_Oliver/Morris","27","26764","32","yes","1920","39"
"400","","84.84848484848484","84.84848484848484","835.6363636363636","835.6363636363636","black","no","xpyriment","legacy","legacy","0","201","NA","uniform","NA","NA","NA","1","undefined","1","0","32","32","32","0","32","32","32","NA","0","32","NA","NA","0","32","NA","32","0","32","NA","NA","NA","32","0","0","NA","NA","32","32","32","32","32","33","/","Fri Oct  6 15:02:02 2023","Executes Python code","yes","m21-ba-lexicalDecision.osexp","C:\Users\jpulido\AppData\Local\Temp\Tempdb2a031c-272f-4945-be96-479185a0a9da_m21_vsl-main (4).zip\m21_vsl-main","no","mono","no","18","no","white","no","yes","1080","legacy","32","32","C:/Users/jpulido/Desktop/data_10-6-2023/subject-220.csv","xpyriment","Lentiform Loewenfeld","3.3.11","0","/","NA","NA","NA","NA","space","/","812","NA","NA","NA","NA","86424","812","2","legacy","1024","2","48000","-16","AB_m21","220","even","CW_S","DESIGN","1722","231692","228207","230188","88305","NA","NA","NA","NA","NA","228708","NA","NA","NA","227704","NA","227680","1880","232093","NA","NA","NA","228748","1723","1866","NA","NA","229560","229584","227680","228708","228728","morph21_Oliver/Morris","28","27576","33","yes","1920","19"
"300","","85.29411764705883","85.29411764705883","832.8235294117648","832.8235294117648","black","no","xpyriment","legacy","legacy","0","205","NA","uniform","NA","NA","NA","1","undefined","1","0","33","33","33","0","33","33","33","NA","0","33","NA","NA","0","33","NA","33","0","33","NA","NA","NA","33","0","0","NA","NA","33","33","33","33","33","34","z","Fri Oct  6 15:02:02 2023","Executes Python code","yes","m21-ba-lexicalDecision.osexp","C:\Users\jpulido\AppData\Local\Temp\Tempdb2a031c-272f-4945-be96-479185a0a9da_m21_vsl-main (4).zip\m21_vsl-main","no","mono","no","18","no","white","no","yes","1080","legacy","33","33","C:/Users/jpulido/Desktop/data_10-6-2023/subject-220.csv","xpyriment","Lentiform Loewenfeld","3.3.11","0","z","NA","NA","NA","NA","space","z","740","NA","NA","NA","NA","86424","740","2","legacy","1024","2","48000","-16","AB_m21","220","even","NW_S_SIMP","HELMETOUS","1722","235567","233654","230188","88305","NA","NA","NA","NA","NA","234154","NA","NA","NA","233153","NA","233125","1880","235867","NA","NA","NA","234195","1723","1866","NA","NA","234936","234962","233125","234154","234175","morph21_Oliver/Morris","29","28316","34","yes","1920","14"
"250","","85.71428571428571","85.71428571428571","828.1142857142858","828.1142857142858","black","no","xpyriment","legacy","legacy","0","202","NA","uniform","NA","NA","NA","1","undefined","1","0","34","34","34","0","34","34","34","NA","0","34","NA","NA","0","34","NA","34","0","34","NA","NA","NA","34","0","0","NA","NA","34","34","34","34","34","35","/","Fri Oct  6 15:02:02 2023","Executes Python code","yes","m21-ba-lexicalDecision.osexp","C:\Users\jpulido\AppData\Local\Temp\Tempdb2a031c-272f-4945-be96-479185a0a9da_m21_vsl-main (4).zip\m21_vsl-main","no","mono","no","18","no","white","no","yes","1080","legacy","34","34","C:/Users/jpulido/Desktop/data_10-6-2023/subject-220.csv","xpyriment","Lentiform Loewenfeld","3.3.11","0","/","NA","NA","NA","NA","space","/","668","NA","NA","NA","NA","86424","668","2","legacy","1024","2","48000","-16","AB_m21","220","even","CW_L","FLEXIBLE","1722","239246","237407","230188","88305","NA","NA","NA","NA","NA","237908","NA","NA","NA","236906","NA","236880","1880","239496","NA","NA","NA","237948","1723","1866","NA","NA","238616","238642","236880","237908","237928","morph21_Oliver/Morris","30","28984","35","yes","1920","22"
"350","","86.11111111111111","86.11111111111111","824.1944444444445","824.1944444444445","black","no","xpyriment","legacy","legacy","0","201","NA","uniform","NA","NA","NA","1","undefined","1","0","35","35","35","0","35","35","35","NA","0","35","NA","NA","0","35","NA","35","0","35","NA","NA","NA","35","0","0","NA","NA","35","35","35","35","35","36","/","Fri Oct  6 15:02:02 2023","Executes Python code","yes","m21-ba-lexicalDecision.osexp","C:\Users\jpulido\AppData\Local\Temp\Tempdb2a031c-272f-4945-be96-479185a0a9da_m21_vsl-main (4).zip\m21_vsl-main","no","mono","no","18","no","white","no","yes","1080","legacy","35","35","C:/Users/jpulido/Desktop/data_10-6-2023/subject-220.csv","xpyriment","Lentiform Loewenfeld","3.3.11","0","/","NA","NA","NA","NA","space","/","687","NA","NA","NA","NA","86424","687","2","legacy","1024","2","48000","-16","AB_m21","220","even","CW_S","DULLNESS","1722","244433","241073","242930","88305","NA","NA","NA","NA","NA","241574","NA","NA","NA","240572","NA","240547","1880","244783","NA","NA","NA","241616","1723","1866","NA","NA","242304","242327","240547","241574","241595","morph21_Oliver/Morris","31","29671","36","yes","1920","43"
"250","","86.48648648648648","86.48648648648648","819.7837837837837","819.7837837837837","black","no","xpyriment","legacy","legacy","0","202","NA","uniform","NA","NA","NA","1","undefined","1","0","36","36","36","0","36","36","36","NA","0","36","NA","NA","0","36","NA","36","0","36","NA","NA","NA","36","0","0","NA","NA","36","36","36","36","36","37","/","Fri Oct  6 15:02:02 2023","Executes Python code","yes","m21-ba-lexicalDecision.osexp","C:\Users\jpulido\AppData\Local\Temp\Tempdb2a031c-272f-4945-be96-479185a0a9da_m21_vsl-main (4).zip\m21_vsl-main","no","mono","no","18","no","white","no","yes","1080","legacy","36","36","C:/Users/jpulido/Desktop/data_10-6-2023/subject-220.csv","xpyriment","Lentiform Loewenfeld","3.3.11","0","/","NA","NA","NA","NA","space","/","661","NA","NA","NA","NA","86424","661","2","legacy","1024","2","48000","-16","AB_m21","220","even","CW_L","DREAMER","1722","248155","246326","242930","88305","NA","NA","NA","NA","NA","246827","NA","NA","NA","245825","NA","245797","1880","248405","NA","NA","NA","246867","1723","1866","NA","NA","247528","247552","245796","246826","246847","morph21_Oliver/Morris","32","30332","37","yes","1920","12"
"250","","86.84210526315789","86.84210526315789","819.6315789473684","819.6315789473684","black","no","xpyriment","legacy","legacy","0","208","NA","uniform","NA","NA","NA","1","undefined","1","0","37","37","37","0","37","37","37","NA","0","37","NA","NA","0","37","NA","37","0","37","NA","NA","NA","37","0","0","NA","NA","37","37","37","37","37","38","z","Fri Oct  6 15:02:02 2023","Executes Python code","yes","m21-ba-lexicalDecision.osexp","C:\Users\jpulido\AppData\Local\Temp\Tempdb2a031c-272f-4945-be96-479185a0a9da_m21_vsl-main (4).zip\m21_vsl-main","no","mono","no","18","no","white","no","yes","1080","legacy","37","37","C:/Users/jpulido/Desktop/data_10-6-2023/subject-220.csv","xpyriment","Lentiform Loewenfeld","3.3.11","0","z","NA","NA","NA","NA","space","z","814","NA","NA","NA","NA","86424","814","2","legacy","1024","2","48000","-16","AB_m21","220","even","FILL_NW","BUWL","1722","251948","249962","242930","88305","NA","NA","NA","NA","NA","250465","NA","NA","NA","249462","NA","249436","1880","252198","NA","NA","NA","250505","1723","1866","NA","NA","251320","251344","249436","250464","250485","morph21_Oliver/Morris","33","31146","38","yes","1920","9"
"400","","84.61538461538461","84.61538461538461","826","826","black","no","xpyriment","legacy","legacy","0","206","NA","uniform","NA","NA","NA","0","undefined","0","0","38","38","38","0","38","38","38","NA","0","38","NA","NA","0","38","NA","38","0","38","NA","NA","NA","38","0","0","NA","NA","38","38","38","38","38","39","z","Fri Oct  6 15:02:02 2023","Executes Python code","yes","m21-ba-lexicalDecision.osexp","C:\Users\jpulido\AppData\Local\Temp\Tempdb2a031c-272f-4945-be96-479185a0a9da_m21_vsl-main (4).zip\m21_vsl-main","no","mono","no","18","no","white","no","yes","1080","legacy","38","38","C:/Users/jpulido/Desktop/data_10-6-2023/subject-220.csv","xpyriment","Lentiform Loewenfeld","3.3.11","0","/","NA","NA","NA","NA","space","/","1068","NA","NA","NA","NA","86424","1068","2","legacy","1024","2","48000","-16","AB_m21","220","even","NW_L_SIMP","VALIDER","1722","257482","253733","255976","88305","NA","NA","NA","NA","NA","254234","NA","NA","NA","253233","NA","253208","1880","257882","NA","NA","NA","254276","1723","1866","NA","NA","255344","255371","253208","254234","254255","morph21_Oliver/Morris","33","32214","39","yes","1920","23"
"300","","85","85","831.5","831.5","black","no","xpyriment","legacy","legacy","0","204","NA","uniform","NA","NA","NA","1","undefined","1","0","39","39","39","0","39","39","39","NA","0","39","NA","NA","0","39","NA","39","0","39","NA","NA","NA","39","0","0","NA","NA","39","39","39","39","39","40","z","Fri Oct  6 15:02:02 2023","Executes Python code","yes","m21-ba-lexicalDecision.osexp","C:\Users\jpulido\AppData\Local\Temp\Tempdb2a031c-272f-4945-be96-479185a0a9da_m21_vsl-main (4).zip\m21_vsl-main","no","mono","no","18","no","white","no","yes","1080","legacy","39","39","C:/Users/jpulido/Desktop/data_10-6-2023/subject-220.csv","xpyriment","Lentiform Loewenfeld","3.3.11","0","z","NA","NA","NA","NA","space","z","1046","NA","NA","NA","NA","86424","1046","2","legacy","1024","2","48000","-16","AB_m21","220","even","NW_L_COMP","IME","1722","261639","259421","255976","88305","NA","NA","NA","NA","NA","259922","NA","NA","NA","258921","NA","258893","1880","261939","NA","NA","NA","259962","1723","1866","NA","NA","261008","261033","258893","259921","259942","morph21_Oliver/Morris","34","33260","40","yes","1920","20"
"350","","85.36585365853658","85.36585365853658","830.390243902439","830.390243902439","black","no","xpyriment","legacy","legacy","0","201","NA","uniform","NA","NA","NA","1","undefined","1","0","40","40","40","0","40","40","40","NA","0","40","NA","NA","0","40","NA","40","0","40","NA","NA","NA","40","0","0","NA","NA","40","40","40","40","40","41","/","Fri Oct  6 15:02:02 2023","Executes Python code","yes","m21-ba-lexicalDecision.osexp","C:\Users\jpulido\AppData\Local\Temp\Tempdb2a031c-272f-4945-be96-479185a0a9da_m21_vsl-main (4).zip\m21_vsl-main","no","mono","no","18","no","white","no","yes","1080","legacy","40","40","C:/Users/jpulido/Desktop/data_10-6-2023/subject-220.csv","xpyriment","Lentiform Loewenfeld","3.3.11","0","/","NA","NA","NA","NA","space","/","786","NA","NA","NA","NA","86424","786","2","legacy","1024","2","48000","-16","AB_m21","220","even","CW_S","BOSSY","1722","265427","263472","255976","88305","NA","NA","NA","NA","NA","263973","NA","NA","NA","262970","NA","262945","1880","265777","NA","NA","NA","264014","1723","1866","NA","NA","264801","264824","262945","263973","263994","morph21_Oliver/Morris","35","34046","41","yes","1920","49"
"350","","85.71428571428571","85.71428571428571","827.5238095238095","827.5238095238095","black","no","xpyriment","legacy","legacy","0","207","NA","uniform","NA","NA","NA","1","undefined","1","0","41","41","41","0","41","41","41","NA","0","41","NA","NA","0","41","NA","41","0","41","NA","NA","NA","41","0","0","NA","NA","41","41","41","41","41","42","/","Fri Oct  6 15:02:02 2023","Executes Python code","yes","m21-ba-lexicalDecision.osexp","C:\Users\jpulido\AppData\Local\Temp\Tempdb2a031c-272f-4945-be96-479185a0a9da_m21_vsl-main (4).zip\m21_vsl-main","no","mono","no","18","no","white","no","yes","1080","legacy","41","41","C:/Users/jpulido/Desktop/data_10-6-2023/subject-220.csv","xpyriment","Lentiform Loewenfeld","3.3.11","0","/","NA","NA","NA","NA","space","/","710","NA","NA","NA","NA","86424","710","2","legacy","1024","2","48000","-16","AB_m21","220","even","FILL_W","LEAK","1722","270715","267331","269212","88305","NA","NA","NA","NA","NA","267832","NA","NA","NA","266830","NA","266802","1880","271066","NA","NA","NA","267873","1723","1866","NA","NA","268584","268609","266802","267832","267853","morph21_Oliver/Morris","36","34756","42","yes","1920","9"
"300","","86.04651162790698","86.04651162790698","829.7441860465116","829.7441860465116","black","no","xpyriment","legacy","legacy","0","201","NA","uniform","NA","NA","NA","1","undefined","1","0","42","42","42","0","42","42","42","NA","0","42","NA","NA","0","42","NA","42","0","42","NA","NA","NA","42","0","0","NA","NA","42","42","42","42","42","43","/","Fri Oct  6 15:02:02 2023","Executes Python code","yes","m21-ba-lexicalDecision.osexp","C:\Users\jpulido\AppData\Local\Temp\Tempdb2a031c-272f-4945-be96-479185a0a9da_m21_vsl-main (4).zip\m21_vsl-main","no","mono","no","18","no","white","no","yes","1080","legacy","42","42","C:/Users/jpulido/Desktop/data_10-6-2023/subject-220.csv","xpyriment","Lentiform Loewenfeld","3.3.11","0","/","NA","NA","NA","NA","space","/","923","NA","NA","NA","NA","86424","923","2","legacy","1024","2","48000","-16","AB_m21","220","even","CW_S","MAGICAL","1722","274700","272607","269212","88305","NA","NA","NA","NA","NA","273108","NA","NA","NA","272104","NA","272079","1880","275000","NA","NA","NA","273149","1723","1866","NA","NA","274072","274096","272079","273108","273129","morph21_Oliver/Morris","37","35679","43","yes","1920","4"
"200","","86.36363636363636","86.36363636363636","834.9772727272727","834.9772727272727","black","no","xpyriment","legacy","legacy","0","205","NA","uniform","NA","NA","NA","1","undefined","1","0","43","43","43","0","43","43","43","NA","0","43","NA","NA","0","43","NA","43","0","43","NA","NA","NA","43","0","0","NA","NA","43","43","43","43","43","44","z","Fri Oct  6 15:02:02 2023","Executes Python code","yes","m21-ba-lexicalDecision.osexp","C:\Users\jpulido\AppData\Local\Temp\Tempdb2a031c-272f-4945-be96-479185a0a9da_m21_vsl-main (4).zip\m21_vsl-main","no","mono","no","18","no","white","no","yes","1080","legacy","43","43","C:/Users/jpulido/Desktop/data_10-6-2023/subject-220.csv","xpyriment","Lentiform Loewenfeld","3.3.11","0","z","NA","NA","NA","NA","space","z","1060","NA","NA","NA","NA","86424","1060","2","legacy","1024","2","48000","-16","AB_m21","220","even","NW_S_SIMP","THRILLANCE","1722","278782","276550","269212","88305","NA","NA","NA","NA","NA","277051","NA","NA","NA","276048","NA","276021","1880","278982","NA","NA","NA","277092","1723","1866","NA","NA","278152","278178","276021","277051","277071","morph21_Oliver/Morris","38","36739","44","yes","1920","22"
"350","","86.66666666666667","86.66666666666667","833.6444444444444","833.6444444444444","black","no","xpyriment","legacy","legacy","0","208","NA","uniform","NA","NA","NA","1","undefined","1","0","44","44","44","0","44","44","44","NA","0","44","NA","NA","0","44","NA","44","0","44","NA","NA","NA","44","0","0","NA","NA","44","44","44","44","44","45","z","Fri Oct  6 15:02:02 2023","Executes Python code","yes","m21-ba-lexicalDecision.osexp","C:\Users\jpulido\AppData\Local\Temp\Tempdb2a031c-272f-4945-be96-479185a0a9da_m21_vsl-main (4).zip\m21_vsl-main","no","mono","no","18","no","white","no","yes","1080","legacy","44","44","C:/Users/jpulido/Desktop/data_10-6-2023/subject-220.csv","xpyriment","Lentiform Loewenfeld","3.3.11","0","z","NA","NA","NA","NA","space","z","775","NA","NA","NA","NA","86424","775","2","legacy","1024","2","48000","-16","AB_m21","220","even","FILL_NW","HEAS","1722","283953","280506","282450","88305","NA","NA","NA","NA","NA","281007","NA","NA","NA","280004","NA","279979","1880","284303","NA","NA","NA","281048","1723","1866","NA","NA","281824","281848","279978","281007","281028","morph21_Oliver/Morris","39","37514","45","yes","1920","26"
"400","","86.95652173913044","86.95652173913044","830.4565217391304","830.4565217391304","black","no","xpyriment","legacy","legacy","0","208","NA","uniform","NA","NA","NA","1","undefined","1","0","45","45","45","0","45","45","45","NA","0","45","NA","NA","0","45","NA","45","0","45","NA","NA","NA","45","0","0","NA","NA","45","45","45","45","45","46","z","Fri Oct  6 15:02:02 2023","Executes Python code","yes","m21-ba-lexicalDecision.osexp","C:\Users\jpulido\AppData\Local\Temp\Tempdb2a031c-272f-4945-be96-479185a0a9da_m21_vsl-main (4).zip\m21_vsl-main","no","mono","no","18","no","white","no","yes","1080","legacy","45","45","C:/Users/jpulido/Desktop/data_10-6-2023/subject-220.csv","xpyriment","Lentiform Loewenfeld","3.3.11","0","z","NA","NA","NA","NA","space","z","687","NA","NA","NA","NA","86424","687","2","legacy","1024","2","48000","-16","AB_m21","220","even","FILL_NW","CORG","1722","287709","285851","282450","88305","NA","NA","NA","NA","NA","286351","NA","NA","NA","285350","NA","285323","1880","288109","NA","NA","NA","286392","1723","1866","NA","NA","287080","287105","285323","286351","286372","morph21_Oliver/Morris","40","38201","46","yes","1920","7"
"250","","87.23404255319149","87.23404255319149","830.9148936170212","830.9148936170212","black","no","xpyriment","legacy","legacy","0","201","NA","uniform","NA","NA","NA","1","undefined","1","0","46","46","46","0","46","46","46","NA","0","46","NA","NA","0","46","NA","46","0","46","NA","NA","NA","46","0","0","NA","NA","46","46","46","46","46","47","/","Fri Oct  6 15:02:02 2023","Executes Python code","yes","m21-ba-lexicalDecision.osexp","C:\Users\jpulido\AppData\Local\Temp\Tempdb2a031c-272f-4945-be96-479185a0a9da_m21_vsl-main (4).zip\m21_vsl-main","no","mono","no","18","no","white","no","yes","1080","legacy","46","46","C:/Users/jpulido/Desktop/data_10-6-2023/subject-220.csv","xpyriment","Lentiform Loewenfeld","3.3.11","0","/","NA","NA","NA","NA","space","/","852","NA","NA","NA","NA","86424","852","2","legacy","1024","2","48000","-16","AB_m21","220","even","CW_S","HUGELY","1722","291658","289636","282450","88305","NA","NA","NA","NA","NA","290138","NA","NA","NA","289134","NA","289108","1880","291909","NA","NA","NA","290179","1723","1866","NA","NA","291032","291055","289108","290138","290159","morph21_Oliver/Morris","41","39053","47","yes","1920","35"
"300","","87.5","87.5","828.625","828.625","black","no","xpyriment","legacy","legacy","0","206","NA","uniform","NA","NA","NA","1","undefined","1","0","47","47","47","0","47","47","47","NA","0","47","NA","NA","0","47","NA","47","0","47","NA","NA","NA","47","0","0","NA","NA","47","47","47","47","47","48","z","Fri Oct  6 15:02:02 2023","Executes Python code","yes","m21-ba-lexicalDecision.osexp","C:\Users\jpulido\AppData\Local\Temp\Tempdb2a031c-272f-4945-be96-479185a0a9da_m21_vsl-main (4).zip\m21_vsl-main","no","mono","no","18","no","white","no","yes","1080","legacy","47","47","C:/Users/jpulido/Desktop/data_10-6-2023/subject-220.csv","xpyriment","Lentiform Loewenfeld","3.3.11","0","z","NA","NA","NA","NA","space","z","721","NA","NA","NA","NA","86424","721","2","legacy","1024","2","48000","-16","AB_m21","220","even","NW_L_SIMP","BEANISH","1722","296833","293441","295330","88305","NA","NA","NA","NA","NA","293942","NA","NA","NA","292939","NA","292915","1880","297134","NA","NA","NA","293982","1723","1866","NA","NA","294704","294727","292914","293942","293962","morph21_Oliver/Morris","42","39774","48","yes","1920","8"
"300","","87.75510204081633","87.75510204081633","824.4897959183673","824.4897959183673","black","no","xpyriment","legacy","legacy","0","208","NA","uniform","NA","NA","NA","1","undefined","1","0","48","48","48","0","48","48","48","NA","0","48","NA","NA","0","48","NA","48","0","48","NA","NA","NA","48","0","0","NA","NA","48","48","48","48","48","49","z","Fri Oct  6 15:02:02 2023","Executes Python code","yes","m21-ba-lexicalDecision.osexp","C:\Users\jpulido\AppData\Local\Temp\Tempdb2a031c-272f-4945-be96-479185a0a9da_m21_vsl-main (4).zip\m21_vsl-main","no","mono","no","18","no","white","no","yes","1080","legacy","48","48","C:/Users/jpulido/Desktop/data_10-6-2023/subject-220.csv","xpyriment","Lentiform Loewenfeld","3.3.11","0","z","NA","NA","NA","NA","space","z","626","NA","NA","NA","NA","86424","626","2","legacy","1024","2","48000","-16","AB_m21","220","even","FILL_NW","KEMT","1722","300471","298671","295330","88305","NA","NA","NA","NA","NA","299173","NA","NA","NA","298170","NA","298145","1880","300771","NA","NA","NA","299213","1723","1866","NA","NA","299840","299866","298145","299173","299193","morph21_Oliver/Morris","43","40400","49","yes","1920","32"
"200","","88","88","822.28","822.28","black","no","xpyriment","legacy","legacy","0","201","NA","uniform","NA","NA","NA","1","undefined","1","0","49","49","49","0","49","49","49","NA","0","49","NA","NA","0","49","NA","49","0","49","NA","NA","NA","49","0","0","NA","NA","49","49","49","49","49","50","/","Fri Oct  6 15:02:02 2023","Executes Python code","yes","m21-ba-lexicalDecision.osexp","C:\Users\jpulido\AppData\Local\Temp\Tempdb2a031c-272f-4945-be96-479185a0a9da_m21_vsl-main (4).zip\m21_vsl-main","no","mono","no","18","no","white","no","yes","1080","legacy","49","49","C:/Users/jpulido/Desktop/data_10-6-2023/subject-220.csv","xpyriment","Lentiform Loewenfeld","3.3.11","0","/","NA","NA","NA","NA","space","/","714","NA","NA","NA","NA","86424","714","2","legacy","1024","2","48000","-16","AB_m21","220","even","CW_S","THRUSTER","1722","304205","302321","295330","88305","NA","NA","NA","NA","NA","302822","NA","NA","NA","301821","NA","301793","1880","304405","NA","NA","NA","302862","1723","1866","NA","NA","303576","303601","301793","302821","302842","morph21_Oliver/Morris","44","41114","50","yes","1920","24"
"300","","88.23529411764706","88.23529411764706","818.5294117647059","818.5294117647059","black","no","xpyriment","legacy","legacy","0","202","NA","uniform","NA","NA","NA","1","undefined","1","0","50","50","50","0","50","50","50","NA","0","50","NA","NA","0","50","NA","50","0","50","NA","NA","NA","50","0","0","NA","NA","50","50","50","50","50","51","/","Fri Oct  6 15:02:02 2023","Executes Python code","yes","m21-ba-lexicalDecision.osexp","C:\Users\jpulido\AppData\Local\Temp\Tempdb2a031c-272f-4945-be96-479185a0a9da_m21_vsl-main (4).zip\m21_vsl-main","no","mono","no","18","no","white","no","yes","1080","legacy","50","50","C:/Users/jpulido/Desktop/data_10-6-2023/subject-220.csv","xpyriment","Lentiform Loewenfeld","3.3.11","0","/","NA","NA","NA","NA","space","/","631","NA","NA","NA","NA","86424","631","2","legacy","1024","2","48000","-16","AB_m21","220","even","CW_L","KNOCKER","1722","309237","305931","307732","88305","NA","NA","NA","NA","NA","306432","NA","NA","NA","305430","NA","305405","1880","309537","NA","NA","NA","306472","1723","1866","NA","NA","307104","307128","305404","306431","306452","morph21_Oliver/Morris","45","41745","51","yes","1920","4"
"250","","88.46153846153847","88.46153846153847","817.2884615384615","817.2884615384615","black","no","xpyriment","legacy","legacy","0","201","NA","uniform","NA","NA","NA","1","undefined","1","0","51","51","51","0","51","51","51","NA","0","51","NA","NA","0","51","NA","51","0","51","NA","NA","NA","51","0","0","NA","NA","51","51","51","51","51","52","/","Fri Oct  6 15:02:02 2023","Executes Python code","yes","m21-ba-lexicalDecision.osexp","C:\Users\jpulido\AppData\Local\Temp\Tempdb2a031c-272f-4945-be96-479185a0a9da_m21_vsl-main (4).zip\m21_vsl-main","no","mono","no","18","no","white","no","yes","1080","legacy","51","51","C:/Users/jpulido/Desktop/data_10-6-2023/subject-220.csv","xpyriment","Lentiform Loewenfeld","3.3.11","0","/","NA","NA","NA","NA","space","/","754","NA","NA","NA","NA","86424","754","2","legacy","1024","2","48000","-16","AB_m21","220","even","CW_S","PEAKING","1722","312987","311064","307732","88305","NA","NA","NA","NA","NA","311565","NA","NA","NA","310564","NA","310533","1880","313237","NA","NA","NA","311605","1723","1866","NA","NA","312360","312384","310533","311564","311585","morph21_Oliver/Morris","46","42499","52","yes","1920","28"
"250","","88.67924528301887","88.67924528301887","814.4528301886793","814.4528301886793","black","no","xpyriment","legacy","legacy","0","203","NA","uniform","NA","NA","NA","1","undefined","1","0","52","52","52","0","52","52","52","NA","0","52","NA","NA","0","52","NA","52","0","52","NA","NA","NA","52","0","0","NA","NA","52","52","52","52","52","53","z","Fri Oct  6 15:02:02 2023","Executes Python code","yes","m21-ba-lexicalDecision.osexp","C:\Users\jpulido\AppData\Local\Temp\Tempdb2a031c-272f-4945-be96-479185a0a9da_m21_vsl-main (4).zip\m21_vsl-main","no","mono","no","18","no","white","no","yes","1080","legacy","52","52","C:/Users/jpulido/Desktop/data_10-6-2023/subject-220.csv","xpyriment","Lentiform Loewenfeld","3.3.11","0","z","NA","NA","NA","NA","space","z","667","NA","NA","NA","NA","86424","667","2","legacy","1024","2","48000","-16","AB_m21","220","even","NW_S_COMP","BRANCHEL","1722","316612","314774","307732","88305","NA","NA","NA","NA","NA","315276","NA","NA","NA","314271","NA","314246","1880","316862","NA","NA","NA","315316","1723","1866","NA","NA","315984","316009","314246","315275","315296","morph21_Oliver/Morris","47","43166","53","yes","1920","16"
"300","","88.88888888888889","88.88888888888889","814.3148148148148","814.3148148148148","black","no","xpyriment","legacy","legacy","0","207","NA","uniform","NA","NA","NA","1","undefined","1","0","53","53","53","0","53","53","53","NA","0","53","NA","NA","0","53","NA","53","0","53","NA","NA","NA","53","0","0","NA","NA","53","53","53","53","53","54","/","Fri Oct  6 15:02:02 2023","Executes Python code","yes","m21-ba-lexicalDecision.osexp","C:\Users\jpulido\AppData\Local\Temp\Tempdb2a031c-272f-4945-be96-479185a0a9da_m21_vsl-main (4).zip\m21_vsl-main","no","mono","no","18","no","white","no","yes","1080","legacy","53","53","C:/Users/jpulido/Desktop/data_10-6-2023/subject-220.csv","xpyriment","Lentiform Loewenfeld","3.3.11","0","/","NA","NA","NA","NA","space","/","807","NA","NA","NA","NA","86424","807","2","legacy","1024","2","48000","-16","AB_m21","220","even","FILL_W","MOURN","1722","321880","318395","320374","88305","NA","NA","NA","NA","NA","318896","NA","NA","NA","317895","NA","317870","1880","322180","NA","NA","NA","318937","1723","1866","NA","NA","319744","319770","317870","318896","318917","morph21_Oliver/Morris","48","43973","54","yes","1920","26"
"200","","89.0909090909091","89.0909090909091","813.9090909090909","813.9090909090909","black","no","xpyriment","legacy","legacy","0","208","NA","uniform","NA","NA","NA","1","undefined","1","0","54","54","54","0","54","54","54","NA","0","54","NA","NA","0","54","NA","54","0","54","NA","NA","NA","54","0","0","NA","NA","54","54","54","54","54","55","z","Fri Oct  6 15:02:02 2023","Executes Python code","yes","m21-ba-lexicalDecision.osexp","C:\Users\jpulido\AppData\Local\Temp\Tempdb2a031c-272f-4945-be96-479185a0a9da_m21_vsl-main (4).zip\m21_vsl-main","no","mono","no","18","no","white","no","yes","1080","legacy","54","54","C:/Users/jpulido/Desktop/data_10-6-2023/subject-220.csv","xpyriment","Lentiform Loewenfeld","3.3.11","0","z","NA","NA","NA","NA","space","z","792","NA","NA","NA","NA","86424","792","2","legacy","1024","2","48000","-16","AB_m21","220","even","FILL_NW","HESK","1722","325677","323713","320374","88305","NA","NA","NA","NA","NA","324215","NA","NA","NA","323213","NA","323186","1880","325877","NA","NA","NA","324255","1723","1866","NA","NA","325048","325073","323186","324215","324235","morph21_Oliver/Morris","49","44765","55","yes","1920","29"
"200","","89.28571428571429","89.28571428571429","813.2678571428571","813.2678571428571","black","no","xpyriment","legacy","legacy","0","208","NA","uniform","NA","NA","NA","1","undefined","1","0","55","55","55","0","55","55","55","NA","0","55","NA","NA","0","55","NA","55","0","55","NA","NA","NA","55","0","0","NA","NA","55","55","55","55","55","56","z","Fri Oct  6 15:02:02 2023","Executes Python code","yes","m21-ba-lexicalDecision.osexp","C:\Users\jpulido\AppData\Local\Temp\Tempdb2a031c-272f-4945-be96-479185a0a9da_m21_vsl-main (4).zip\m21_vsl-main","no","mono","no","18","no","white","no","yes","1080","legacy","55","55","C:/Users/jpulido/Desktop/data_10-6-2023/subject-220.csv","xpyriment","Lentiform Loewenfeld","3.3.11","0","z","NA","NA","NA","NA","space","z","778","NA","NA","NA","NA","86424","778","2","legacy","1024","2","48000","-16","AB_m21","220","even","FILL_NW","PORDS","1722","329357","327407","320374","88305","NA","NA","NA","NA","NA","327909","NA","NA","NA","326905","NA","326880","1880","329557","NA","NA","NA","327949","1723","1866","NA","NA","328728","328753","326880","327909","327929","morph21_Oliver/Morris","50","45543","56","yes","1920","39"
"350","","89.47368421052632","89.47368421052632","809.5087719298245","809.5087719298245","black","no","xpyriment","legacy","legacy","0","201","NA","uniform","NA","NA","NA","1","undefined","1","0","56","56","56","0","56","56","56","NA","0","56","NA","NA","0","56","NA","56","0","56","NA","NA","NA","56","0","0","NA","NA","56","56","56","56","56","57","/","Fri Oct  6 15:02:02 2023","Executes Python code","yes","m21-ba-lexicalDecision.osexp","C:\Users\jpulido\AppData\Local\Temp\Tempdb2a031c-272f-4945-be96-479185a0a9da_m21_vsl-main (4).zip\m21_vsl-main","no","mono","no","18","no","white","no","yes","1080","legacy","56","56","C:/Users/jpulido/Desktop/data_10-6-2023/subject-220.csv","xpyriment","Lentiform Loewenfeld","3.3.11","0","/","NA","NA","NA","NA","space","/","599","NA","NA","NA","NA","86424","599","2","legacy","1024","2","48000","-16","AB_m21","220","even","CW_S","STRANGENESS","1722","334348","331073","332845","88305","NA","NA","NA","NA","NA","331575","NA","NA","NA","330571","NA","330545","1880","334698","NA","NA","NA","331616","1723","1866","NA","NA","332216","332241","330545","331575","331596","morph21_Oliver/Morris","51","46142","57","yes","1920","46"
"300","","89.65517241379311","89.65517241379311","807.1551724137931","807.1551724137931","black","no","xpyriment","legacy","legacy","0","204","NA","uniform","NA","NA","NA","1","undefined","1","0","57","57","57","0","57","57","57","NA","0","57","NA","NA","0","57","NA","57","0","57","NA","NA","NA","57","0","0","NA","NA","57","57","57","57","57","58","z","Fri Oct  6 15:02:02 2023","Executes Python code","yes","m21-ba-lexicalDecision.osexp","C:\Users\jpulido\AppData\Local\Temp\Tempdb2a031c-272f-4945-be96-479185a0a9da_m21_vsl-main (4).zip\m21_vsl-main","no","mono","no","18","no","white","no","yes","1080","legacy","57","57","C:/Users/jpulido/Desktop/data_10-6-2023/subject-220.csv","xpyriment","Lentiform Loewenfeld","3.3.11","0","z","NA","NA","NA","NA","space","z","673","NA","NA","NA","NA","86424","673","2","legacy","1024","2","48000","-16","AB_m21","220","even","NW_L_COMP","SHEETEL","1722","338075","336232","332845","88305","NA","NA","NA","NA","NA","336734","NA","NA","NA","335731","NA","335706","1880","338375","NA","NA","NA","336774","1723","1866","NA","NA","337447","337472","335706","336734","336754","morph21_Oliver/Morris","52","46815","58","yes","1920","5"
"200","","89.83050847457628","89.83050847457628","806.3050847457627","806.3050847457627","black","no","xpyriment","legacy","legacy","0","202","NA","uniform","NA","NA","NA","1","undefined","1","0","58","58","58","0","58","58","58","NA","0","58","NA","NA","0","58","NA","58","0","58","NA","NA","NA","58","0","0","NA","NA","58","58","58","58","58","59","/","Fri Oct  6 15:02:02 2023","Executes Python code","yes","m21-ba-lexicalDecision.osexp","C:\Users\jpulido\AppData\Local\Temp\Tempdb2a031c-272f-4945-be96-479185a0a9da_m21_vsl-main (4).zip\m21_vsl-main","no","mono","no","18","no","white","no","yes","1080","legacy","58","58","C:/Users/jpulido/Desktop/data_10-6-2023/subject-220.csv","xpyriment","Lentiform Loewenfeld","3.3.11","0","/","NA","NA","NA","NA","space","/","757","NA","NA","NA","NA","86424","757","2","legacy","1024","2","48000","-16","AB_m21","220","even","CW_L","SHAMEFUL","1722","341858","339931","332845","88305","NA","NA","NA","NA","NA","340434","NA","NA","NA","339430","NA","339406","1880","342058","NA","NA","NA","340474","1723","1866","NA","NA","341232","341255","339406","340433","340454","morph21_Oliver/Morris","53","47572","59","yes","1920","19"
"200","","90","90","801.9333333333333","801.9333333333333","black","no","xpyriment","legacy","legacy","0","207","NA","uniform","NA","NA","NA","1","undefined","1","0","59","59","59","0","59","59","59","NA","0","59","NA","NA","0","59","NA","59","0","59","NA","NA","NA","59","0","0","NA","NA","59","59","59","59","59","60","/","Fri Oct  6 15:02:02 2023","Executes Python code","yes","m21-ba-lexicalDecision.osexp","C:\Users\jpulido\AppData\Local\Temp\Tempdb2a031c-272f-4945-be96-479185a0a9da_m21_vsl-main (4).zip\m21_vsl-main","no","mono","no","18","no","white","no","yes","1080","legacy","59","59","C:/Users/jpulido/Desktop/data_10-6-2023/subject-220.csv","xpyriment","Lentiform Loewenfeld","3.3.11","0","/","NA","NA","NA","NA","space","/","544","NA","NA","NA","NA","86424","544","2","legacy","1024","2","48000","-16","AB_m21","220","even","FILL_W","OLD","1722","346804","343586","345299","88305","NA","NA","NA","NA","NA","344086","NA","NA","NA","343084","NA","343058","1880","347005","NA","NA","NA","344127","1723","1866","NA","NA","344672","344696","343058","344086","344107","morph21_Oliver/Morris","54","48116","60","yes","1920","44"
"400","","90.1639344262295","90.1639344262295","798.5573770491803","798.5573770491803","black","no","xpyriment","legacy","legacy","0","202","NA","uniform","NA","NA","NA","1","undefined","1","0","60","60","60","0","60","60","60","NA","0","60","NA","NA","0","60","NA","60","0","60","NA","NA","NA","60","0","0","NA","NA","60","60","60","60","60","61","/","Fri Oct  6 15:02:02 2023","Executes Python code","yes","m21-ba-lexicalDecision.osexp","C:\Users\jpulido\AppData\Local\Temp\Tempdb2a031c-272f-4945-be96-479185a0a9da_m21_vsl-main (4).zip\m21_vsl-main","no","mono","no","18","no","white","no","yes","1080","legacy","60","60","C:/Users/jpulido/Desktop/data_10-6-2023/subject-220.csv","xpyriment","Lentiform Loewenfeld","3.3.11","0","/","NA","NA","NA","NA","space","/","596","NA","NA","NA","NA","86424","596","2","legacy","1024","2","48000","-16","AB_m21","220","even","CW_L","DRYNESS","1722","350293","348526","345299","88305","NA","NA","NA","NA","NA","349026","NA","NA","NA","348026","NA","347996","1880","350693","NA","NA","NA","349068","1723","1866","NA","NA","349664","349690","347996","349026","349048","morph21_Oliver/Morris","55","48712","61","yes","1920","42"
"250","","90.3225806451613","90.3225806451613","799.3548387096774","799.3548387096774","black","no","xpyriment","legacy","legacy","0","201","NA","uniform","NA","NA","NA","1","undefined","1","0","61","61","61","0","61","61","61","NA","0","61","NA","NA","0","61","NA","61","0","61","NA","NA","NA","61","0","0","NA","NA","61","61","61","61","61","62","/","Fri Oct  6 15:02:02 2023","Executes Python code","yes","m21-ba-lexicalDecision.osexp","C:\Users\jpulido\AppData\Local\Temp\Tempdb2a031c-272f-4945-be96-479185a0a9da_m21_vsl-main (4).zip\m21_vsl-main","no","mono","no","18","no","white","no","yes","1080","legacy","61","61","C:/Users/jpulido/Desktop/data_10-6-2023/subject-220.csv","xpyriment","Lentiform Loewenfeld","3.3.11","0","/","NA","NA","NA","NA","space","/","848","NA","NA","NA","NA","86424","848","2","legacy","1024","2","48000","-16","AB_m21","220","even","CW_S","TOSSING","1722","354238","352219","345299","88305","NA","NA","NA","NA","NA","352719","NA","NA","NA","351719","NA","351690","1880","354488","NA","NA","NA","352760","1723","1866","NA","NA","353608","353634","351690","352719","352740","morph21_Oliver/Morris","56","49560","62","yes","1920","26"
"350","","90.47619047619048","90.47619047619048","797.4761904761905","797.4761904761905","black","no","xpyriment","legacy","legacy","0","201","NA","uniform","NA","NA","NA","1","undefined","1","0","62","62","62","0","62","62","62","NA","0","62","NA","NA","0","62","NA","62","0","62","NA","NA","NA","62","0","0","NA","NA","62","62","62","62","62","63","/","Fri Oct  6 15:02:02 2023","Executes Python code","yes","m21-ba-lexicalDecision.osexp","C:\Users\jpulido\AppData\Local\Temp\Tempdb2a031c-272f-4945-be96-479185a0a9da_m21_vsl-main (4).zip\m21_vsl-main","no","mono","no","18","no","white","no","yes","1080","legacy","62","62","C:/Users/jpulido/Desktop/data_10-6-2023/subject-220.csv","xpyriment","Lentiform Loewenfeld","3.3.11","0","/","NA","NA","NA","NA","space","/","681","NA","NA","NA","NA","86424","681","2","legacy","1024","2","48000","-16","AB_m21","220","even","CW_S","DENSELY","1722","359405","356051","357901","88305","NA","NA","NA","NA","NA","356551","NA","NA","NA","355551","NA","355523","1880","359755","NA","NA","NA","356591","1723","1866","NA","NA","357272","357297","355523","356551","356571","morph21_Oliver/Morris","57","50241","63","yes","1920","32"
"200","","90.625","90.625","794.953125","794.953125","black","no","xpyriment","legacy","legacy","0","207","NA","uniform","NA","NA","NA","1","undefined","1","0","63","63","63","0","63","63","63","NA","0","63","NA","NA","0","63","NA","63","0","63","NA","NA","NA","63","0","0","NA","NA","63","63","63","63","63","64","/","Fri Oct  6 15:02:02 2023","Executes Python code","yes","m21-ba-lexicalDecision.osexp","C:\Users\jpulido\AppData\Local\Temp\Tempdb2a031c-272f-4945-be96-479185a0a9da_m21_vsl-main (4).zip\m21_vsl-main","no","mono","no","18","no","white","no","yes","1080","legacy","63","63","C:/Users/jpulido/Desktop/data_10-6-2023/subject-220.csv","xpyriment","Lentiform Loewenfeld","3.3.11","0","/","NA","NA","NA","NA","space","/","636","NA","NA","NA","NA","86424","636","2","legacy","1024","2","48000","-16","AB_m21","220","even","FILL_W","BRASS","1722","363090","361285","357901","88305","NA","NA","NA","NA","NA","361786","NA","NA","NA","360785","NA","360757","1880","363290","NA","NA","NA","361827","1723","1866","NA","NA","362464","362487","360757","361786","361807","morph21_Oliver/Morris","58","50877","64","yes","1920","10"
"300","","89.23076923076923","89.23076923076923","801.1846153846154","801.1846153846154","black","no","xpyriment","legacy","legacy","0","204","NA","uniform","NA","NA","NA","0","undefined","0","0","64","64","64","0","64","64","64","NA","0","64","NA","NA","0","64","NA","64","0","64","NA","NA","NA","64","0","0","NA","NA","64","64","64","64","64","65","z","Fri Oct  6 15:02:02 2023","Executes Python code","yes","m21-ba-lexicalDecision.osexp","C:\Users\jpulido\AppData\Local\Temp\Tempdb2a031c-272f-4945-be96-479185a0a9da_m21_vsl-main (4).zip\m21_vsl-main","no","mono","no","18","no","white","no","yes","1080","legacy","64","64","C:/Users/jpulido/Desktop/data_10-6-2023/subject-220.csv","xpyriment","Lentiform Loewenfeld","3.3.11","0","None","NA","NA","NA","NA","space","None","1200","NA","NA","NA","NA","86424","1200","2","legacy","1024","2","48000","-16","AB_m21","220","even","NW_L_COMP","KINGILM","1722","367196","364830","357901","88305","NA","NA","NA","NA","NA","365330","NA","NA","NA","364330","NA","364304","1880","367496","NA","NA","NA","365370","1723","1866","NA","NA","366570","366593","364304","365330","365350","morph21_Oliver/Morris","58","52077","65","yes","1920","19"
"250","","89.39393939393939","89.39393939393939","800.8030303030303","800.8030303030303","black","no","xpyriment","legacy","legacy","0","203","NA","uniform","NA","NA","NA","1","undefined","1","0","65","65","65","0","65","65","65","NA","0","65","NA","NA","0","65","NA","65","0","65","NA","NA","NA","65","0","0","NA","NA","65","65","65","65","65","66","z","Fri Oct  6 15:02:02 2023","Executes Python code","yes","m21-ba-lexicalDecision.osexp","C:\Users\jpulido\AppData\Local\Temp\Tempdb2a031c-272f-4945-be96-479185a0a9da_m21_vsl-main (4).zip\m21_vsl-main","no","mono","no","18","no","white","no","yes","1080","legacy","65","65","C:/Users/jpulido/Desktop/data_10-6-2023/subject-220.csv","xpyriment","Lentiform Loewenfeld","3.3.11","0","z","NA","NA","NA","NA","space","z","776","NA","NA","NA","NA","86424","776","2","legacy","1024","2","48000","-16","AB_m21","220","even","NW_S_COMP","BEEREL","1722","372477","369027","370974","88305","NA","NA","NA","NA","NA","369527","NA","NA","NA","368527","NA","368497","1880","372727","NA","NA","NA","369567","1723","1866","NA","NA","370344","370370","368497","369527","369547","morph21_Oliver/Morris","59","52853","66","yes","1920","5"
"400","","89.55223880597015","89.55223880597015","798.1641791044776","798.1641791044776","black","no","xpyriment","legacy","legacy","0","202","NA","uniform","NA","NA","NA","1","undefined","1","0","66","66","66","0","66","66","66","NA","0","66","NA","NA","0","66","NA","66","0","66","NA","NA","NA","66","0","0","NA","NA","66","66","66","66","66","67","/","Fri Oct  6 15:02:02 2023","Executes Python code","yes","m21-ba-lexicalDecision.osexp","C:\Users\jpulido\AppData\Local\Temp\Tempdb2a031c-272f-4945-be96-479185a0a9da_m21_vsl-main (4).zip\m21_vsl-main","no","mono","no","18","no","white","no","yes","1080","legacy","66","66","C:/Users/jpulido/Desktop/data_10-6-2023/subject-220.csv","xpyriment","Lentiform Loewenfeld","3.3.11","0","/","NA","NA","NA","NA","space","/","624","NA","NA","NA","NA","86424","624","2","legacy","1024","2","48000","-16","AB_m21","220","even","CW_L","CLOUDLESS","1722","376051","374259","370974","88305","NA","NA","NA","NA","NA","374759","NA","NA","NA","373758","NA","373728","1880","376451","NA","NA","NA","374799","1723","1866","NA","NA","375424","375448","373728","374759","374779","morph21_Oliver/Morris","60","53477","67","yes","1920","33"
"400","","89.70588235294117","89.70588235294117","795.3676470588235","795.3676470588235","black","no","xpyriment","legacy","legacy","0","208","NA","uniform","NA","NA","NA","1","undefined","1","0","67","67","67","0","67","67","67","NA","0","67","NA","NA","0","67","NA","67","0","67","NA","NA","NA","67","0","0","NA","NA","67","67","67","67","67","68","z","Fri Oct  6 15:02:02 2023","Executes Python code","yes","m21-ba-lexicalDecision.osexp","C:\Users\jpulido\AppData\Local\Temp\Tempdb2a031c-272f-4945-be96-479185a0a9da_m21_vsl-main (4).zip\m21_vsl-main","no","mono","no","18","no","white","no","yes","1080","legacy","67","67","C:/Users/jpulido/Desktop/data_10-6-2023/subject-220.csv","xpyriment","Lentiform Loewenfeld","3.3.11","0","z","NA","NA","NA","NA","space","z","608","NA","NA","NA","NA","86424","608","2","legacy","1024","2","48000","-16","AB_m21","220","even","FILL_NW","BORMS","1722","379772","377994","370974","88305","NA","NA","NA","NA","NA","378494","NA","NA","NA","377494","NA","377465","1880","380172","NA","NA","NA","378535","1723","1866","NA","NA","379144","379168","377465","378494","378515","morph21_Oliver/Morris","61","54085","68","yes","1920","50"
"350","","89.85507246376811","89.85507246376811","793.2028985507246","793.2028985507246","black","no","xpyriment","legacy","legacy","0","202","NA","uniform","NA","NA","NA","1","undefined","1","0","68","68","68","0","68","68","68","NA","0","68","NA","NA","0","68","NA","68","0","68","NA","NA","NA","68","0","0","NA","NA","68","68","68","68","68","69","/","Fri Oct  6 15:02:02 2023","Executes Python code","yes","m21-ba-lexicalDecision.osexp","C:\Users\jpulido\AppData\Local\Temp\Tempdb2a031c-272f-4945-be96-479185a0a9da_m21_vsl-main (4).zip\m21_vsl-main","no","mono","no","18","no","white","no","yes","1080","legacy","68","68","C:/Users/jpulido/Desktop/data_10-6-2023/subject-220.csv","xpyriment","Lentiform Loewenfeld","3.3.11","0","/","NA","NA","NA","NA","space","/","646","NA","NA","NA","NA","86424","646","2","legacy","1024","2","48000","-16","AB_m21","220","even","CW_L","JUMPING","1722","385027","381707","383524","88305","NA","NA","NA","NA","NA","382208","NA","NA","NA","381205","NA","381180","1880","385377","NA","NA","NA","382249","1723","1866","NA","NA","382896","382920","381180","382208","382229","morph21_Oliver/Morris","62","54731","69","yes","1920","30"
"200","","90","90","797.0142857142857","797.0142857142857","black","no","xpyriment","legacy","legacy","0","202","NA","uniform","NA","NA","NA","1","undefined","1","0","69","69","69","0","69","69","69","NA","0","69","NA","NA","0","69","NA","69","0","69","NA","NA","NA","69","0","0","NA","NA","69","69","69","69","69","70","/","Fri Oct  6 15:02:02 2023","Executes Python code","yes","m21-ba-lexicalDecision.osexp","C:\Users\jpulido\AppData\Local\Temp\Tempdb2a031c-272f-4945-be96-479185a0a9da_m21_vsl-main (4).zip\m21_vsl-main","no","mono","no","18","no","white","no","yes","1080","legacy","69","69","C:/Users/jpulido/Desktop/data_10-6-2023/subject-220.csv","xpyriment","Lentiform Loewenfeld","3.3.11","0","/","NA","NA","NA","NA","space","/","1060","NA","NA","NA","NA","86424","1060","2","legacy","1024","2","48000","-16","AB_m21","220","even","CW_L","BOOTLESS","1722","389130","386902","383524","88305","NA","NA","NA","NA","NA","387403","NA","NA","NA","386401","NA","386376","1880","389330","NA","NA","NA","387443","1723","1866","NA","NA","388504","388527","386376","387403","387423","morph21_Oliver/Morris","63","55791","70","yes","1920","32"
"400","","90.14084507042253","90.14084507042253","794.2957746478874","794.2957746478874","black","no","xpyriment","legacy","legacy","0","207","NA","uniform","NA","NA","NA","1","undefined","1","0","70","70","70","0","70","70","70","NA","0","70","NA","NA","0","70","NA","70","0","70","NA","NA","NA","70","0","0","NA","NA","70","70","70","70","70","71","/","Fri Oct  6 15:02:02 2023","Executes Python code","yes","m21-ba-lexicalDecision.osexp","C:\Users\jpulido\AppData\Local\Temp\Tempdb2a031c-272f-4945-be96-479185a0a9da_m21_vsl-main (4).zip\m21_vsl-main","no","mono","no","18","no","white","no","yes","1080","legacy","70","70","C:/Users/jpulido/Desktop/data_10-6-2023/subject-220.csv","xpyriment","Lentiform Loewenfeld","3.3.11","0","/","NA","NA","NA","NA","space","/","604","NA","NA","NA","NA","86424","604","2","legacy","1024","2","48000","-16","AB_m21","220","even","FILL_W","CHIP","1722","392643","390868","383524","88305","NA","NA","NA","NA","NA","391369","NA","NA","NA","390365","NA","390341","1880","393044","NA","NA","NA","391411","1723","1866","NA","NA","392015","392040","390341","391369","391390","morph21_Oliver/Morris","64","56395","71","yes","1920","11"
"200","","90.27777777777777","90.27777777777777","792.6805555555555","792.6805555555555","black","no","xpyriment","legacy","legacy","0","208","NA","uniform","NA","NA","NA","1","undefined","1","0","71","71","71","0","71","71","71","NA","0","71","NA","NA","0","71","NA","71","0","71","NA","NA","NA","71","0","0","NA","NA","71","71","71","71","71","72","z","Fri Oct  6 15:02:02 2023","Executes Python code","yes","m21-ba-lexicalDecision.osexp","C:\Users\jpulido\AppData\Local\Temp\Tempdb2a031c-272f-4945-be96-479185a0a9da_m21_vsl-main (4).zip\m21_vsl-main","no","mono","no","18","no","white","no","yes","1080","legacy","71","71","C:/Users/jpulido/Desktop/data_10-6-2023/subject-220.csv","xpyriment","Lentiform Loewenfeld","3.3.11","0","z","NA","NA","NA","NA","space","z","678","NA","NA","NA","NA","86424","678","2","legacy","1024","2","48000","-16","AB_m21","220","even","FILL_NW","PUCTS","1722","397923","394571","396420","88305","NA","NA","NA","NA","NA","395073","NA","NA","NA","394070","NA","394046","1880","398123","NA","NA","NA","395113","1723","1866","NA","NA","395792","395816","394046","395073","395093","morph21_Oliver/Morris","65","57073","72","yes","1920","40"
"300","","90.41095890410959","90.41095890410959","789.931506849315","789.931506849315","black","no","xpyriment","legacy","legacy","0","201","NA","uniform","NA","NA","NA","1","undefined","1","0","72","72","72","0","72","72","72","NA","0","72","NA","NA","0","72","NA","72","0","72","NA","NA","NA","72","0","0","NA","NA","72","72","72","72","72","73","/","Fri Oct  6 15:02:02 2023","Executes Python code","yes","m21-ba-lexicalDecision.osexp","C:\Users\jpulido\AppData\Local\Temp\Tempdb2a031c-272f-4945-be96-479185a0a9da_m21_vsl-main (4).zip\m21_vsl-main","no","mono","no","18","no","white","no","yes","1080","legacy","72","72","C:/Users/jpulido/Desktop/data_10-6-2023/subject-220.csv","xpyriment","Lentiform Loewenfeld","3.3.11","0","/","NA","NA","NA","NA","space","/","592","NA","NA","NA","NA","86424","592","2","legacy","1024","2","48000","-16","AB_m21","220","even","CW_S","DESTROYER","1722","401413","399651","396420","88305","NA","NA","NA","NA","NA","400151","NA","NA","NA","399150","NA","399121","1880","401713","NA","NA","NA","400191","1723","1866","NA","NA","400784","400809","399121","400151","400171","morph21_Oliver/Morris","66","57665","73","yes","1920","14"
"300","","90.54054054054055","90.54054054054055","789.8648648648649","789.8648648648649","black","no","xpyriment","legacy","legacy","0","208","NA","uniform","NA","NA","NA","1","undefined","1","0","73","73","73","0","73","73","73","NA","0","73","NA","NA","0","73","NA","73","0","73","NA","NA","NA","73","0","0","NA","NA","73","73","73","73","73","74","z","Fri Oct  6 15:02:02 2023","Executes Python code","yes","m21-ba-lexicalDecision.osexp","C:\Users\jpulido\AppData\Local\Temp\Tempdb2a031c-272f-4945-be96-479185a0a9da_m21_vsl-main (4).zip\m21_vsl-main","no","mono","no","18","no","white","no","yes","1080","legacy","73","73","C:/Users/jpulido/Desktop/data_10-6-2023/subject-220.csv","xpyriment","Lentiform Loewenfeld","3.3.11","0","z","NA","NA","NA","NA","space","z","785","NA","NA","NA","NA","86424","785","2","legacy","1024","2","48000","-16","AB_m21","220","even","FILL_NW","BAFED","1722","405211","403257","396420","88305","NA","NA","NA","NA","NA","403757","NA","NA","NA","402757","NA","402730","1880","405512","NA","NA","NA","403798","1723","1866","NA","NA","404583","404608","402730","403757","403778","morph21_Oliver/Morris","67","58450","74","yes","1920","1"
"400","","90.66666666666667","90.66666666666667","787.6533333333333","787.6533333333333","black","no","xpyriment","legacy","legacy","0","207","NA","uniform","NA","NA","NA","undefined","undefined","1","0","74","74","74","0","74","74","74","NA","0","74","NA","NA","0","74","NA","74","0","74","NA","NA","NA","74","0","0","NA","NA","74","74","74","74","74","75","/","Fri Oct  6 15:02:02 2023","Executes Python code","yes","m21-ba-lexicalDecision.osexp","C:\Users\jpulido\AppData\Local\Temp\Tempdb2a031c-272f-4945-be96-479185a0a9da_m21_vsl-main (4).zip\m21_vsl-main","no","mono","no","18","no","white","no","yes","1080","legacy","74","74","C:/Users/jpulido/Desktop/data_10-6-2023/subject-220.csv","xpyriment","Lentiform Loewenfeld","3.3.11","0","space","space","NA","NA","NA","space","/","19302","19302","NA","NA","NA","86424","624","2","legacy","1024","2","48000","-16","AB_m21","220","even","FILL_W","CRUNCH","1722","410348","407049","408843","88305","410753","NA","NA","NA","NA","407550","NA","NA","NA","406547","NA","406521","1880","430056","NA","NA","NA","407591","1723","1866","NA","NA","408216","408240","406521","407550","407571","morph21_Oliver/Morris","68","59074","75","yes","1920","20"
"400","","90.78947368421052","90.78947368421052","790.0394736842105","790.0394736842105","black","no","xpyriment","legacy","legacy","0","206","NA","uniform","NA","NA","NA","1","undefined","1","0","75","75","75","0","75","75","75","NA","0","75","NA","NA","0","75","NA","75","0","75","NA","NA","NA","75","0","0","NA","NA","75","75","75","75","75","76","z","Fri Oct  6 15:02:02 2023","Executes Python code","yes","m21-ba-lexicalDecision.osexp","C:\Users\jpulido\AppData\Local\Temp\Tempdb2a031c-272f-4945-be96-479185a0a9da_m21_vsl-main (4).zip\m21_vsl-main","no","mono","no","18","no","white","no","yes","1080","legacy","75","75","C:/Users/jpulido/Desktop/data_10-6-2023/subject-220.csv","xpyriment","Lentiform Loewenfeld","3.3.11","0","z","space","NA","NA","NA","space","z","969","19302","NA","NA","NA","86424","969","2","legacy","1024","2","48000","-16","AB_m21","220","even","NW_L_SIMP","CLASSOUS","1722","433839","431697","408843","88305","410753","NA","NA","NA","NA","432197","NA","NA","NA","431196","NA","431169","1880","434239","NA","NA","NA","432238","1723","1866","NA","NA","433208","433233","431169","432197","432218","morph21_Oliver/Morris","69","60043","76","yes","1920","18"
"200","","90.9090909090909","90.9090909090909","788.6233766233767","788.6233766233767","black","no","xpyriment","legacy","legacy","0","203","NA","uniform","NA","NA","NA","1","undefined","1","0","76","76","76","0","76","76","76","NA","0","76","NA","NA","0","76","NA","76","0","76","NA","NA","NA","76","0","0","NA","NA","76","76","76","76","76","77","z","Fri Oct  6 15:02:02 2023","Executes Python code","yes","m21-ba-lexicalDecision.osexp","C:\Users\jpulido\AppData\Local\Temp\Tempdb2a031c-272f-4945-be96-479185a0a9da_m21_vsl-main (4).zip\m21_vsl-main","no","mono","no","18","no","white","no","yes","1080","legacy","76","76","C:/Users/jpulido/Desktop/data_10-6-2023/subject-220.csv","xpyriment","Lentiform Loewenfeld","3.3.11","0","z","space","NA","NA","NA","space","z","681","19302","NA","NA","NA","86424","681","2","legacy","1024","2","48000","-16","AB_m21","220","even","NW_S_COMP","ANTILM","1722","437659","435807","408843","88305","410753","NA","NA","NA","NA","436309","NA","NA","NA","435306","NA","435280","1880","437859","NA","NA","NA","436350","1723","1866","NA","NA","437032","437055","435280","436309","436330","morph21_Oliver/Morris","70","60724","77","yes","1920","8"
"200","","91.02564102564102","91.02564102564102","785.4487179487179","785.4487179487179","black","no","xpyriment","legacy","legacy","0","207","NA","uniform","NA","NA","NA","1","undefined","1","0","77","77","77","0","77","77","77","NA","0","77","NA","NA","0","77","NA","77","0","77","NA","NA","NA","77","0","0","NA","NA","77","77","77","77","77","78","/","Fri Oct  6 15:02:02 2023","Executes Python code","yes","m21-ba-lexicalDecision.osexp","C:\Users\jpulido\AppData\Local\Temp\Tempdb2a031c-272f-4945-be96-479185a0a9da_m21_vsl-main (4).zip\m21_vsl-main","no","mono","no","18","no","white","no","yes","1080","legacy","77","77","C:/Users/jpulido/Desktop/data_10-6-2023/subject-220.csv","xpyriment","Lentiform Loewenfeld","3.3.11","0","/","space","NA","NA","NA","space","/","541","19302","NA","NA","NA","86424","541","2","legacy","1024","2","48000","-16","AB_m21","220","even","FILL_W","GOLF","1722","442635","439421","441131","88305","410753","NA","NA","NA","NA","439921","NA","NA","NA","438921","NA","438893","1880","442835","NA","NA","NA","439962","1723","1866","NA","NA","440503","440527","438893","439921","439942","morph21_Oliver/Morris","71","61265","78","yes","1920","28"
"400","","91.13924050632912","91.13924050632912","783.1518987341772","783.1518987341772","black","no","xpyriment","legacy","legacy","0","202","NA","uniform","NA","NA","NA","1","undefined","1","0","78","78","78","0","78","78","78","NA","0","78","NA","NA","0","78","NA","78","0","78","NA","NA","NA","78","0","0","NA","NA","78","78","78","78","78","79","/","Fri Oct  6 15:02:02 2023","Executes Python code","yes","m21-ba-lexicalDecision.osexp","C:\Users\jpulido\AppData\Local\Temp\Tempdb2a031c-272f-4945-be96-479185a0a9da_m21_vsl-main (4).zip\m21_vsl-main","no","mono","no","18","no","white","no","yes","1080","legacy","78","78","C:/Users/jpulido/Desktop/data_10-6-2023/subject-220.csv","xpyriment","Lentiform Loewenfeld","3.3.11","0","/","space","NA","NA","NA","space","/","604","19302","NA","NA","NA","86424","604","2","legacy","1024","2","48000","-16","AB_m21","220","even","CW_L","CONDUCTOR","1722","446131","444358","441131","88305","410753","NA","NA","NA","NA","444858","NA","NA","NA","443857","NA","443831","1880","446531","NA","NA","NA","444898","1723","1866","NA","NA","445503","445528","443831","444858","444878","morph21_Oliver/Morris","72","61869","79","yes","1920","44"
"350","","91.25","91.25","782.7625","782.7625","black","no","xpyriment","legacy","legacy","0","208","NA","uniform","NA","NA","NA","1","undefined","1","0","79","79","79","0","79","79","79","NA","0","79","NA","NA","0","79","NA","79","0","79","NA","NA","NA","79","0","0","NA","NA","79","79","79","79","79","80","z","Fri Oct  6 15:02:02 2023","Executes Python code","yes","m21-ba-lexicalDecision.osexp","C:\Users\jpulido\AppData\Local\Temp\Tempdb2a031c-272f-4945-be96-479185a0a9da_m21_vsl-main (4).zip\m21_vsl-main","no","mono","no","18","no","white","no","yes","1080","legacy","79","79","C:/Users/jpulido/Desktop/data_10-6-2023/subject-220.csv","xpyriment","Lentiform Loewenfeld","3.3.11","0","z","space","NA","NA","NA","space","z","752","19302","NA","NA","NA","86424","752","2","legacy","1024","2","48000","-16","AB_m21","220","even","FILL_NW","DASP","1722","449987","448065","441131","88305","410753","NA","NA","NA","NA","448565","NA","NA","NA","447565","NA","447536","1880","450337","NA","NA","NA","448606","1723","1866","NA","NA","449359","449383","447536","448565","448586","morph21_Oliver/Morris","73","62621","80","yes","1920","13"
"350","","91.35802469135803","91.35802469135803","779.8518518518518","779.8518518518518","black","no","xpyriment","legacy","legacy","0","201","NA","uniform","NA","NA","NA","1","undefined","1","0","80","80","80","0","80","80","80","NA","0","80","NA","NA","0","80","NA","80","0","80","NA","NA","NA","80","0","0","NA","NA","80","80","80","80","80","81","/","Fri Oct  6 15:02:02 2023","Executes Python code","yes","m21-ba-lexicalDecision.osexp","C:\Users\jpulido\AppData\Local\Temp\Tempdb2a031c-272f-4945-be96-479185a0a9da_m21_vsl-main (4).zip\m21_vsl-main","no","mono","no","18","no","white","no","yes","1080","legacy","80","80","C:/Users/jpulido/Desktop/data_10-6-2023/subject-220.csv","xpyriment","Lentiform Loewenfeld","3.3.11","0","/","space","NA","NA","NA","space","/","547","19302","NA","NA","NA","86424","547","2","legacy","1024","2","48000","-16","AB_m21","220","even","CW_S","LENDER","1722","455109","451887","453606","88305","410753","NA","NA","NA","NA","452387","NA","NA","NA","451387","NA","451360","1880","455459","NA","NA","NA","452428","1723","1866","NA","NA","452975","453001","451360","452387","452407","morph21_Oliver/Morris","74","63168","81","yes","1920","11"
"250","","91.46341463414635","91.46341463414635","780.3780487804878","780.3780487804878","black","no","xpyriment","legacy","legacy","0","207","NA","uniform","NA","NA","NA","1","undefined","1","0","81","81","81","0","81","81","81","NA","0","81","NA","NA","0","81","NA","81","0","81","NA","NA","NA","81","0","0","NA","NA","81","81","81","81","81","82","/","Fri Oct  6 15:02:02 2023","Executes Python code","yes","m21-ba-lexicalDecision.osexp","C:\Users\jpulido\AppData\Local\Temp\Tempdb2a031c-272f-4945-be96-479185a0a9da_m21_vsl-main (4).zip\m21_vsl-main","no","mono","no","18","no","white","no","yes","1080","legacy","81","81","C:/Users/jpulido/Desktop/data_10-6-2023/subject-220.csv","xpyriment","Lentiform Loewenfeld","3.3.11","0","/","space","NA","NA","NA","space","/","823","19302","NA","NA","NA","86424","823","2","legacy","1024","2","48000","-16","AB_m21","220","even","FILL_W","TREAT","1722","459011","457020","453606","88305","410753","NA","NA","NA","NA","457520","NA","NA","NA","456518","NA","456491","1880","459262","NA","NA","NA","457560","1723","1866","NA","NA","458384","458408","456491","457520","457540","morph21_Oliver/Morris","75","63991","82","yes","1920","48"
"250","","91.56626506024097","91.56626506024097","777.9397590361446","777.9397590361446","black","no","xpyriment","legacy","legacy","0","207","NA","uniform","NA","NA","NA","1","undefined","1","0","82","82","82","0","82","82","82","NA","0","82","NA","NA","0","82","NA","82","0","82","NA","NA","NA","82","0","0","NA","NA","82","82","82","82","82","83","/","Fri Oct  6 15:02:02 2023","Executes Python code","yes","m21-ba-lexicalDecision.osexp","C:\Users\jpulido\AppData\Local\Temp\Tempdb2a031c-272f-4945-be96-479185a0a9da_m21_vsl-main (4).zip\m21_vsl-main","no","mono","no","18","no","white","no","yes","1080","legacy","82","82","C:/Users/jpulido/Desktop/data_10-6-2023/subject-220.csv","xpyriment","Lentiform Loewenfeld","3.3.11","0","/","space","NA","NA","NA","space","/","578","19302","NA","NA","NA","86424","578","2","legacy","1024","2","48000","-16","AB_m21","220","even","FILL_W","SLIM","1722","462547","460800","453606","88305","410753","NA","NA","NA","NA","461301","NA","NA","NA","460298","NA","460274","1880","462797","NA","NA","NA","461341","1723","1866","NA","NA","461919","461943","460274","461301","461321","morph21_Oliver/Morris","76","64569","83","yes","1920","6"
"300","","91.66666666666667","91.66666666666667","775.0119047619048","775.0119047619048","black","no","xpyriment","legacy","legacy","0","205","NA","uniform","NA","NA","NA","1","undefined","1","0","83","83","83","0","83","83","83","NA","0","83","NA","NA","0","83","NA","83","0","83","NA","NA","NA","83","0","0","NA","NA","83","83","83","83","83","84","z","Fri Oct  6 15:02:02 2023","Executes Python code","yes","m21-ba-lexicalDecision.osexp","C:\Users\jpulido\AppData\Local\Temp\Tempdb2a031c-272f-4945-be96-479185a0a9da_m21_vsl-main (4).zip\m21_vsl-main","no","mono","no","18","no","white","no","yes","1080","legacy","83","83","C:/Users/jpulido/Desktop/data_10-6-2023/subject-220.csv","xpyriment","Lentiform Loewenfeld","3.3.11","0","z","space","NA","NA","NA","space","z","532","19302","NA","NA","NA","86424","532","2","legacy","1024","2","48000","-16","AB_m21","220","even","NW_S_SIMP","WINKITY","1722","467529","464325","466027","88305","410753","NA","NA","NA","NA","464825","NA","NA","NA","463824","NA","463793","1880","467829","NA","NA","NA","464866","1723","1866","NA","NA","465399","465424","463793","464825","464846","morph21_Oliver/Morris","77","65101","84","yes","1920","21"
