"ITI","_prepare","acc","accuracy","average_response_time","avg_rt","background","bidi","canvas_backend","clock_backend","color_backend","compensation","cond_trig","condtrigtime","coordinates","coroutines_cycles","coroutines_duration","coroutines_mean_cycle_duration","correct","correct_instructions_1","correct_new_keyboard_response_1","count_AB_m21","count_ITI","count_blank_screen","count_blink_screen","count_block1","count_break1","count_break2","count_break3_1","count_canvas","count_close_port","count_cond_trigger","count_correct_trigger","count_def_chain","count_end_screen","count_fixation_1","count_getting_started","count_inc_counter","count_instructions_1","count_logger","count_logscript","count_new_inline_script","count_new_inline_script_2","count_new_keyboard_response_1","count_open_port","count_reset_counter_prep","count_reset_counter_run","count_reset_counter_run_1","count_response_trigger_trial","count_responsescreen","count_sequence","count_target_present","count_word_trigger","counter","cresp","datetime","description","disable_garbage_collection","experiment_file","experiment_path","font_bold","font_family","font_italic","font_size","font_underline","foreground","form_clicks","fullscreen","height","keyboard_backend","live_row","live_row_block1","logfile","mouse_backend","opensesame_codename","opensesame_version","repeat_cycle","response","response_break1","response_break2","response_break3_1","response_end_screen","response_instructions_1","response_new_keyboard_response_1","response_time","response_time_break1","response_time_break2","response_time_break3_1","response_time_end_screen","response_time_instructions_1","response_time_new_keyboard_response_1","round_decimals","sampler_backend","sound_buf_size","sound_channels","sound_freq","sound_sample_size","start","subject_nr","subject_parity","targ_type","target","time_AB_m21","time_ITI","time_blank_screen","time_blink_screen","time_block1","time_break1","time_break2","time_break3_1","time_canvas","time_close_port","time_cond_trigger","time_correct_trigger","time_def_chain","time_end_screen","time_fixation_1","time_getting_started","time_inc_counter","time_instructions_1","time_logger","time_logscript","time_new_inline_script","time_new_inline_script_2","time_new_keyboard_response_1","time_open_port","time_reset_counter_prep","time_reset_counter_run","time_reset_counter_run_1","time_response_trigger_trial","time_responsescreen","time_sequence","time_target_present","time_word_trigger","title","total_correct","total_response_time","total_responses","uniform_coordinates","width","word_trig"
"200","","0","0","1200","1200","black","no","xpyriment","legacy","legacy","0","204","NA","uniform","NA","NA","NA","0","undefined","0","0","0","0","0","0","0","0","0","NA","0","0","NA","NA","0","0","NA","0","0","0","NA","NA","NA","0","0","0","NA","NA","0","0","0","0","0","1","z","Tue Oct 17 15:36:31 2023","Executes Python code","yes","m21-ba-lexicalDecision.osexp","C:\Users\ekealey\Desktop","no","mono","no","18","no","white","no","yes","1080","legacy","0","0","C:/Users/ekealey/Desktop/subject-222.csv","xpyriment","Lentiform Loewenfeld","3.3.11","0","None","NA","NA","NA","NA","enter","None","1200","NA","NA","NA","NA","47422","1200","2","legacy","1024","2","48000","-16","AB_m21","222","even","NW_L_COMP","PITCHODY","1775","53677","51310","NA","49366","NA","NA","NA","NA","NA","51810","NA","NA","NA","50809","NA","50776","1943","53877","NA","NA","NA","51851","1775","1932","NA","NA","53051","53074","50776","51810","51831","morph21_Oliver/Morris","0","1200","1","yes","1920","25"
"300","","0","0","1200","1200","black","no","xpyriment","legacy","legacy","0","201","NA","uniform","NA","NA","NA","0","undefined","0","0","1","1","1","0","1","1","1","NA","0","1","NA","NA","0","1","NA","1","0","1","NA","NA","NA","1","0","0","NA","NA","1","1","1","1","1","2","/","Tue Oct 17 15:36:31 2023","Executes Python code","yes","m21-ba-lexicalDecision.osexp","C:\Users\ekealey\Desktop","no","mono","no","18","no","white","no","yes","1080","legacy","1","1","C:/Users/ekealey/Desktop/subject-222.csv","xpyriment","Lentiform Loewenfeld","3.3.11","0","None","NA","NA","NA","NA","enter","None","1200","NA","NA","NA","NA","47422","1200","2","legacy","1024","2","48000","-16","AB_m21","222","even","CW_S","ATTACKER","1775","57833","55462","NA","49366","NA","NA","NA","NA","NA","55964","NA","NA","NA","54960","NA","54934","1943","58133","NA","NA","NA","56005","1775","1932","NA","NA","57205","57230","54934","55964","55985","morph21_Oliver/Morris","0","2400","2","yes","1920","20"
"250","","33.333333333333336","33.333333333333336","1117.3333333333333","1117.3333333333333","black","no","xpyriment","legacy","legacy","0","201","NA","uniform","NA","NA","NA","1","undefined","1","0","2","2","2","0","2","2","2","NA","0","2","NA","NA","0","2","NA","2","0","2","NA","NA","NA","2","0","0","NA","NA","2","2","2","2","2","3","/","Tue Oct 17 15:36:31 2023","Executes Python code","yes","m21-ba-lexicalDecision.osexp","C:\Users\ekealey\Desktop","no","mono","no","18","no","white","no","yes","1080","legacy","2","2","C:/Users/ekealey/Desktop/subject-222.csv","xpyriment","Lentiform Loewenfeld","3.3.11","0","/","NA","NA","NA","NA","enter","/","952","NA","NA","NA","NA","47422","952","2","legacy","1024","2","48000","-16","AB_m21","222","even","CW_S","HUGELY","1775","63338","59711","61834","49366","NA","NA","NA","NA","NA","60212","NA","NA","NA","59211","NA","59183","1943","63588","NA","NA","NA","60253","1775","1932","NA","NA","61206","61230","59183","60212","60233","morph21_Oliver/Morris","1","3352","3","yes","1920","35"
"250","","25","25","1138","1138","black","no","xpyriment","legacy","legacy","0","207","NA","uniform","NA","NA","NA","0","undefined","0","0","3","3","3","0","3","3","3","NA","0","3","NA","NA","0","3","NA","3","0","3","NA","NA","NA","3","0","0","NA","NA","3","3","3","3","3","4","/","Tue Oct 17 15:36:31 2023","Executes Python code","yes","m21-ba-lexicalDecision.osexp","C:\Users\ekealey\Desktop","no","mono","no","18","no","white","no","yes","1080","legacy","3","3","C:/Users/ekealey/Desktop/subject-222.csv","xpyriment","Lentiform Loewenfeld","3.3.11","0","None","NA","NA","NA","NA","enter","None","1200","NA","NA","NA","NA","47422","1200","2","legacy","1024","2","48000","-16","AB_m21","222","even","FILL_W","WEAVE","1775","67561","65192","61834","49366","NA","NA","NA","NA","NA","65693","NA","NA","NA","64690","NA","64657","1943","67811","NA","NA","NA","65734","1775","1932","NA","NA","66934","66958","64657","65693","65714","morph21_Oliver/Morris","1","4552","4","yes","1920","12"
"400","","20","20","1150.4","1150.4","black","no","xpyriment","legacy","legacy","0","205","NA","uniform","NA","NA","NA","0","undefined","0","0","4","4","4","0","4","4","4","NA","0","4","NA","NA","0","4","NA","4","0","4","NA","NA","NA","4","0","0","NA","NA","4","4","4","4","4","5","z","Tue Oct 17 15:36:31 2023","Executes Python code","yes","m21-ba-lexicalDecision.osexp","C:\Users\ekealey\Desktop","no","mono","no","18","no","white","no","yes","1080","legacy","4","4","C:/Users/ekealey/Desktop/subject-222.csv","xpyriment","Lentiform Loewenfeld","3.3.11","0","None","NA","NA","NA","NA","enter","None","1200","NA","NA","NA","NA","47422","1200","2","legacy","1024","2","48000","-16","AB_m21","222","even","NW_S_SIMP","RAMPIZE","1775","71744","69377","61834","49366","NA","NA","NA","NA","NA","69877","NA","NA","NA","68877","NA","68849","1943","72145","NA","NA","NA","69918","1775","1932","NA","NA","71118","71141","68848","69877","69898","morph21_Oliver/Morris","1","5752","5","yes","1920","6"
"300","","16.666666666666668","16.666666666666668","1158.6666666666667","1158.6666666666667","black","no","xpyriment","legacy","legacy","0","202","NA","uniform","NA","NA","NA","0","undefined","0","0","5","5","5","0","5","5","5","NA","0","5","NA","NA","0","5","NA","5","0","5","NA","NA","NA","5","0","0","NA","NA","5","5","5","5","5","6","/","Tue Oct 17 15:36:31 2023","Executes Python code","yes","m21-ba-lexicalDecision.osexp","C:\Users\ekealey\Desktop","no","mono","no","18","no","white","no","yes","1080","legacy","5","5","C:/Users/ekealey/Desktop/subject-222.csv","xpyriment","Lentiform Loewenfeld","3.3.11","0","None","NA","NA","NA","NA","enter","None","1200","NA","NA","NA","NA","47422","1200","2","legacy","1024","2","48000","-16","AB_m21","222","even","CW_L","DAMPISH","1775","77579","73707","76075","49366","NA","NA","NA","NA","NA","74207","NA","NA","NA","73206","NA","73178","1943","77879","NA","NA","NA","74249","1775","1932","NA","NA","75449","75472","73178","74207","74228","morph21_Oliver/Morris","1","6952","6","yes","1920","28"
"200","","28.571428571428573","28.571428571428573","1072.4285714285713","1072.4285714285713","black","no","xpyriment","legacy","legacy","0","207","NA","uniform","NA","NA","NA","1","undefined","1","0","6","6","6","0","6","6","6","NA","0","6","NA","NA","0","6","NA","6","0","6","NA","NA","NA","6","0","0","NA","NA","6","6","6","6","6","7","/","Tue Oct 17 15:36:31 2023","Executes Python code","yes","m21-ba-lexicalDecision.osexp","C:\Users\ekealey\Desktop","no","mono","no","18","no","white","no","yes","1080","legacy","6","6","C:/Users/ekealey/Desktop/subject-222.csv","xpyriment","Lentiform Loewenfeld","3.3.11","0","/","NA","NA","NA","NA","enter","/","555","NA","NA","NA","NA","47422","555","2","legacy","1024","2","48000","-16","AB_m21","222","even","FILL_W","SAVE","1775","81227","79501","76075","49366","NA","NA","NA","NA","NA","80001","NA","NA","NA","79001","NA","78974","1943","81428","NA","NA","NA","80042","1775","1932","NA","NA","80597","80623","78974","80001","80022","morph21_Oliver/Morris","2","7507","7","yes","1920","46"
"350","","37.5","37.5","987.25","987.25","black","no","xpyriment","legacy","legacy","0","207","NA","uniform","NA","NA","NA","1","undefined","1","0","7","7","7","0","7","7","7","NA","0","7","NA","NA","0","7","NA","7","0","7","NA","NA","NA","7","0","0","NA","NA","7","7","7","7","7","8","/","Tue Oct 17 15:36:31 2023","Executes Python code","yes","m21-ba-lexicalDecision.osexp","C:\Users\ekealey\Desktop","no","mono","no","18","no","white","no","yes","1080","legacy","7","7","C:/Users/ekealey/Desktop/subject-222.csv","xpyriment","Lentiform Loewenfeld","3.3.11","0","/","NA","NA","NA","NA","enter","/","391","NA","NA","NA","NA","47422","391","2","legacy","1024","2","48000","-16","AB_m21","222","even","FILL_W","WEIRD","1775","84546","82984","76075","49366","NA","NA","NA","NA","NA","83486","NA","NA","NA","82484","NA","82460","1943","84896","NA","NA","NA","83526","1775","1932","NA","NA","83917","83943","82460","83485","83506","morph21_Oliver/Morris","3","7898","8","yes","1920","2"
"300","","33.333333333333336","33.333333333333336","921.2222222222222","921.2222222222222","black","no","xpyriment","legacy","legacy","0","205","NA","uniform","NA","NA","NA","0","undefined","0","0","8","8","8","0","8","8","8","NA","0","8","NA","NA","0","8","NA","8","0","8","NA","NA","NA","8","0","0","NA","NA","8","8","8","8","8","9","z","Tue Oct 17 15:36:31 2023","Executes Python code","yes","m21-ba-lexicalDecision.osexp","C:\Users\ekealey\Desktop","no","mono","no","18","no","white","no","yes","1080","legacy","8","8","C:/Users/ekealey/Desktop/subject-222.csv","xpyriment","Lentiform Loewenfeld","3.3.11","0","/","NA","NA","NA","NA","enter","/","393","NA","NA","NA","NA","47422","393","2","legacy","1024","2","48000","-16","AB_m21","222","even","NW_S_SIMP","HEIRIC","1775","89597","86526","88092","49366","NA","NA","NA","NA","NA","87027","NA","NA","NA","86026","NA","86000","1943","89897","NA","NA","NA","87068","1775","1932","NA","NA","87462","87488","86000","87027","87048","morph21_Oliver/Morris","3","8291","9","yes","1920","3"
"200","","40","40","922","922","black","no","xpyriment","legacy","legacy","0","208","NA","uniform","NA","NA","NA","1","undefined","1","0","9","9","9","0","9","9","9","NA","0","9","NA","NA","0","9","NA","9","0","9","NA","NA","NA","9","0","0","NA","NA","9","9","9","9","9","10","z","Tue Oct 17 15:36:31 2023","Executes Python code","yes","m21-ba-lexicalDecision.osexp","C:\Users\ekealey\Desktop","no","mono","no","18","no","white","no","yes","1080","legacy","9","9","C:/Users/ekealey/Desktop/subject-222.csv","xpyriment","Lentiform Loewenfeld","3.3.11","0","z","NA","NA","NA","NA","enter","z","929","NA","NA","NA","NA","47422","929","2","legacy","1024","2","48000","-16","AB_m21","222","even","FILL_NW","HESK","1775","93569","91471","88092","49366","NA","NA","NA","NA","NA","91972","NA","NA","NA","90969","NA","90936","1943","93769","NA","NA","NA","92012","1775","1932","NA","NA","92942","92966","90936","91972","91992","morph21_Oliver/Morris","4","9220","10","yes","1920","29"
"300","","36.36363636363637","36.36363636363637","947.2727272727273","947.2727272727273","black","no","xpyriment","legacy","legacy","0","205","NA","uniform","NA","NA","NA","0","undefined","0","0","10","10","10","0","10","10","10","NA","0","10","NA","NA","0","10","NA","10","0","10","NA","NA","NA","10","0","0","NA","NA","10","10","10","10","10","11","z","Tue Oct 17 15:36:31 2023","Executes Python code","yes","m21-ba-lexicalDecision.osexp","C:\Users\ekealey\Desktop","no","mono","no","18","no","white","no","yes","1080","legacy","10","10","C:/Users/ekealey/Desktop/subject-222.csv","xpyriment","Lentiform Loewenfeld","3.3.11","0","None","NA","NA","NA","NA","enter","None","1200","NA","NA","NA","NA","47422","1200","2","legacy","1024","2","48000","-16","AB_m21","222","even","NW_S_SIMP","TILTARY","1775","97711","95342","88092","49366","NA","NA","NA","NA","NA","95843","NA","NA","NA","94842","NA","94813","1943","98011","NA","NA","NA","95883","1775","1932","NA","NA","97083","97107","94813","95843","95863","morph21_Oliver/Morris","4","10420","11","yes","1920","17"
"250","","41.666666666666664","41.666666666666664","937.4166666666666","937.4166666666666","black","no","xpyriment","legacy","legacy","0","208","NA","uniform","NA","NA","NA","1","undefined","1","0","11","11","11","0","11","11","11","NA","0","11","NA","NA","0","11","NA","11","0","11","NA","NA","NA","11","0","0","NA","NA","11","11","11","11","11","12","z","Tue Oct 17 15:36:31 2023","Executes Python code","yes","m21-ba-lexicalDecision.osexp","C:\Users\ekealey\Desktop","no","mono","no","18","no","white","no","yes","1080","legacy","11","11","C:/Users/ekealey/Desktop/subject-222.csv","xpyriment","Lentiform Loewenfeld","3.3.11","0","z","NA","NA","NA","NA","enter","z","829","NA","NA","NA","NA","47422","829","2","legacy","1024","2","48000","-16","AB_m21","222","even","FILL_NW","PHEEKS","1775","103074","99571","101570","49366","NA","NA","NA","NA","NA","100071","NA","NA","NA","99071","NA","99043","1943","103325","NA","NA","NA","100112","1775","1932","NA","NA","100942","100966","99043","100071","100092","morph21_Oliver/Morris","5","11249","12","yes","1920","35"
"250","","46.15384615384615","46.15384615384615","908.1538461538462","908.1538461538462","black","no","xpyriment","legacy","legacy","0","201","NA","uniform","NA","NA","NA","1","undefined","1","0","12","12","12","0","12","12","12","NA","0","12","NA","NA","0","12","NA","12","0","12","NA","NA","NA","12","0","0","NA","NA","12","12","12","12","12","13","/","Tue Oct 17 15:36:31 2023","Executes Python code","yes","m21-ba-lexicalDecision.osexp","C:\Users\ekealey\Desktop","no","mono","no","18","no","white","no","yes","1080","legacy","12","12","C:/Users/ekealey/Desktop/subject-222.csv","xpyriment","Lentiform Loewenfeld","3.3.11","0","/","NA","NA","NA","NA","enter","/","557","NA","NA","NA","NA","47422","557","2","legacy","1024","2","48000","-16","AB_m21","222","even","CW_S","TUTORING","1775","106652","104923","101570","49366","NA","NA","NA","NA","NA","105424","NA","NA","NA","104422","NA","104397","1943","106902","NA","NA","NA","105464","1775","1932","NA","NA","106022","106047","104397","105424","105444","morph21_Oliver/Morris","6","11806","13","yes","1920","27"
"250","","50","50","896.2857142857143","896.2857142857143","black","no","xpyriment","legacy","legacy","0","203","NA","uniform","NA","NA","NA","1","undefined","1","0","13","13","13","0","13","13","13","NA","0","13","NA","NA","0","13","NA","13","0","13","NA","NA","NA","13","0","0","NA","NA","13","13","13","13","13","14","z","Tue Oct 17 15:36:31 2023","Executes Python code","yes","m21-ba-lexicalDecision.osexp","C:\Users\ekealey\Desktop","no","mono","no","18","no","white","no","yes","1080","legacy","13","13","C:/Users/ekealey/Desktop/subject-222.csv","xpyriment","Lentiform Loewenfeld","3.3.11","0","z","NA","NA","NA","NA","enter","z","742","NA","NA","NA","NA","47422","742","2","legacy","1024","2","48000","-16","AB_m21","222","even","NW_S_COMP","BEEREL","1775","110363","108449","101570","49366","NA","NA","NA","NA","NA","108950","NA","NA","NA","107948","NA","107919","1943","110613","NA","NA","NA","108991","1775","1932","NA","NA","109733","109759","107919","108949","108971","morph21_Oliver/Morris","7","12548","14","yes","1920","5"
"300","","53.333333333333336","53.333333333333336","903.2","903.2","black","no","xpyriment","legacy","legacy","0","204","NA","uniform","NA","NA","NA","1","undefined","1","0","14","14","14","0","14","14","14","NA","0","14","NA","NA","0","14","NA","14","0","14","NA","NA","NA","14","0","0","NA","NA","14","14","14","14","14","15","z","Tue Oct 17 15:36:31 2023","Executes Python code","yes","m21-ba-lexicalDecision.osexp","C:\Users\ekealey\Desktop","no","mono","no","18","no","white","no","yes","1080","legacy","14","14","C:/Users/ekealey/Desktop/subject-222.csv","xpyriment","Lentiform Loewenfeld","3.3.11","0","z","NA","NA","NA","NA","enter","z","1000","NA","NA","NA","NA","47422","1000","2","legacy","1024","2","48000","-16","AB_m21","222","even","NW_L_COMP","FELLOWOES","1775","115842","112168","114336","49366","NA","NA","NA","NA","NA","112669","NA","NA","NA","111668","NA","111641","1943","116142","NA","NA","NA","112709","1775","1932","NA","NA","113709","113733","111641","112669","112689","morph21_Oliver/Morris","8","13548","15","yes","1920","17"
"250","","56.25","56.25","883.1875","883.1875","black","no","xpyriment","legacy","legacy","0","202","NA","uniform","NA","NA","NA","1","undefined","1","0","15","15","15","0","15","15","15","NA","0","15","NA","NA","0","15","NA","15","0","15","NA","NA","NA","15","0","0","NA","NA","15","15","15","15","15","16","/","Tue Oct 17 15:36:31 2023","Executes Python code","yes","m21-ba-lexicalDecision.osexp","C:\Users\ekealey\Desktop","no","mono","no","18","no","white","no","yes","1080","legacy","15","15","C:/Users/ekealey/Desktop/subject-222.csv","xpyriment","Lentiform Loewenfeld","3.3.11","0","/","NA","NA","NA","NA","enter","/","583","NA","NA","NA","NA","47422","583","2","legacy","1024","2","48000","-16","AB_m21","222","even","CW_L","PUSHER","1775","119459","117705","114336","49366","NA","NA","NA","NA","NA","118205","NA","NA","NA","117205","NA","117174","1943","119709","NA","NA","NA","118246","1775","1932","NA","NA","118829","118855","117174","118205","118226","morph21_Oliver/Morris","9","14131","16","yes","1920","13"
"250","","58.8235294117647","58.8235294117647","859.2941176470588","859.2941176470588","black","no","xpyriment","legacy","legacy","0","207","NA","uniform","NA","NA","NA","1","undefined","1","0","16","16","16","0","16","16","16","NA","0","16","NA","NA","0","16","NA","16","0","16","NA","NA","NA","16","0","0","NA","NA","16","16","16","16","16","17","/","Tue Oct 17 15:36:31 2023","Executes Python code","yes","m21-ba-lexicalDecision.osexp","C:\Users\ekealey\Desktop","no","mono","no","18","no","white","no","yes","1080","legacy","16","16","C:/Users/ekealey/Desktop/subject-222.csv","xpyriment","Lentiform Loewenfeld","3.3.11","0","/","NA","NA","NA","NA","enter","/","477","NA","NA","NA","NA","47422","477","2","legacy","1024","2","48000","-16","AB_m21","222","even","FILL_W","SOFT","1775","122923","121275","114336","49366","NA","NA","NA","NA","NA","121775","NA","NA","NA","120775","NA","120746","1943","123173","NA","NA","NA","121816","1775","1932","NA","NA","122293","122318","120746","121775","121795","morph21_Oliver/Morris","10","14608","17","yes","1920","43"
"400","","55.55555555555556","55.55555555555556","878.2222222222222","878.2222222222222","black","no","xpyriment","legacy","legacy","0","206","NA","uniform","NA","NA","NA","0","undefined","0","0","17","17","17","0","17","17","17","NA","0","17","NA","NA","0","17","NA","17","0","17","NA","NA","NA","17","0","0","NA","NA","17","17","17","17","17","18","z","Tue Oct 17 15:36:31 2023","Executes Python code","yes","m21-ba-lexicalDecision.osexp","C:\Users\ekealey\Desktop","no","mono","no","18","no","white","no","yes","1080","legacy","17","17","C:/Users/ekealey/Desktop/subject-222.csv","xpyriment","Lentiform Loewenfeld","3.3.11","0","None","NA","NA","NA","NA","enter","None","1200","NA","NA","NA","NA","47422","1200","2","legacy","1024","2","48000","-16","AB_m21","222","even","NW_L_SIMP","VALIDER","1775","128614","124741","127109","49366","NA","NA","NA","NA","NA","125242","NA","NA","NA","124240","NA","124212","1943","129014","NA","NA","NA","125282","1775","1932","NA","NA","126482","126505","124211","125242","125262","morph21_Oliver/Morris","10","15808","18","yes","1920","23"
"350","","57.89473684210526","57.89473684210526","878.4736842105264","878.4736842105264","black","no","xpyriment","legacy","legacy","0","202","NA","uniform","NA","NA","NA","1","undefined","1","0","18","18","18","0","18","18","18","NA","0","18","NA","NA","0","18","NA","18","0","18","NA","NA","NA","18","0","0","NA","NA","18","18","18","18","18","19","/","Tue Oct 17 15:36:31 2023","Executes Python code","yes","m21-ba-lexicalDecision.osexp","C:\Users\ekealey\Desktop","no","mono","no","18","no","white","no","yes","1080","legacy","18","18","C:/Users/ekealey/Desktop/subject-222.csv","xpyriment","Lentiform Loewenfeld","3.3.11","0","/","NA","NA","NA","NA","enter","/","883","NA","NA","NA","NA","47422","883","2","legacy","1024","2","48000","-16","AB_m21","222","even","CW_L","PUNCHER","1775","132648","130596","127109","49366","NA","NA","NA","NA","NA","131097","NA","NA","NA","130095","NA","130069","1943","132998","NA","NA","NA","131138","1775","1932","NA","NA","132022","132045","130069","131097","131118","morph21_Oliver/Morris","11","16691","19","yes","1920","1"
"200","","60","60","867.6","867.6","black","no","xpyriment","legacy","legacy","0","201","NA","uniform","NA","NA","NA","1","undefined","1","0","19","19","19","0","19","19","19","NA","0","19","NA","NA","0","19","NA","19","0","19","NA","NA","NA","19","0","0","NA","NA","19","19","19","19","19","20","/","Tue Oct 17 15:36:31 2023","Executes Python code","yes","m21-ba-lexicalDecision.osexp","C:\Users\ekealey\Desktop","no","mono","no","18","no","white","no","yes","1080","legacy","19","19","C:/Users/ekealey/Desktop/subject-222.csv","xpyriment","Lentiform Loewenfeld","3.3.11","0","/","NA","NA","NA","NA","enter","/","661","NA","NA","NA","NA","47422","661","2","legacy","1024","2","48000","-16","AB_m21","222","even","CW_S","ANGELIC","1775","136408","134579","127109","49366","NA","NA","NA","NA","NA","135079","NA","NA","NA","134079","NA","134050","1943","136608","NA","NA","NA","135120","1775","1932","NA","NA","135781","135805","134050","135079","135100","morph21_Oliver/Morris","12","17352","20","yes","1920","25"
"350","","61.904761904761905","61.904761904761905","861.6666666666666","861.6666666666666","black","no","xpyriment","legacy","legacy","0","208","NA","uniform","NA","NA","NA","1","undefined","1","0","20","20","20","0","20","20","20","NA","0","20","NA","NA","0","20","NA","20","0","20","NA","NA","NA","20","0","0","NA","NA","20","20","20","20","20","21","z","Tue Oct 17 15:36:31 2023","Executes Python code","yes","m21-ba-lexicalDecision.osexp","C:\Users\ekealey\Desktop","no","mono","no","18","no","white","no","yes","1080","legacy","20","20","C:/Users/ekealey/Desktop/subject-222.csv","xpyriment","Lentiform Loewenfeld","3.3.11","0","z","NA","NA","NA","NA","enter","z","743","NA","NA","NA","NA","47422","743","2","legacy","1024","2","48000","-16","AB_m21","222","even","FILL_NW","KRAISE","1775","141615","138201","140112","49366","NA","NA","NA","NA","NA","138701","NA","NA","NA","137700","NA","137674","1943","141965","NA","NA","NA","138742","1775","1932","NA","NA","139486","139509","137674","138701","138722","morph21_Oliver/Morris","13","18095","21","yes","1920","33"
"200","","63.63636363636363","63.63636363636363","857.2727272727273","857.2727272727273","black","no","xpyriment","legacy","legacy","0","205","NA","uniform","NA","NA","NA","1","undefined","1","0","21","21","21","0","21","21","21","NA","0","21","NA","NA","0","21","NA","21","0","21","NA","NA","NA","21","0","0","NA","NA","21","21","21","21","21","22","z","Tue Oct 17 15:36:31 2023","Executes Python code","yes","m21-ba-lexicalDecision.osexp","C:\Users\ekealey\Desktop","no","mono","no","18","no","white","no","yes","1080","legacy","21","21","C:/Users/ekealey/Desktop/subject-222.csv","xpyriment","Lentiform Loewenfeld","3.3.11","0","z","NA","NA","NA","NA","enter","z","765","NA","NA","NA","NA","47422","765","2","legacy","1024","2","48000","-16","AB_m21","222","even","NW_S_SIMP","JAWLY","1775","145468","143530","140112","49366","NA","NA","NA","NA","NA","144032","NA","NA","NA","143029","NA","142996","1943","145668","NA","NA","NA","144072","1775","1932","NA","NA","144838","144864","142996","144031","144052","morph21_Oliver/Morris","14","18860","22","yes","1920","7"
"300","","65.21739130434783","65.21739130434783","855.0869565217391","855.0869565217391","black","no","xpyriment","legacy","legacy","0","204","NA","uniform","NA","NA","NA","1","undefined","1","0","22","22","22","0","22","22","22","NA","0","22","NA","NA","0","22","NA","22","0","22","NA","NA","NA","22","0","0","NA","NA","22","22","22","22","22","23","z","Tue Oct 17 15:36:31 2023","Executes Python code","yes","m21-ba-lexicalDecision.osexp","C:\Users\ekealey\Desktop","no","mono","no","18","no","white","no","yes","1080","legacy","22","22","C:/Users/ekealey/Desktop/subject-222.csv","xpyriment","Lentiform Loewenfeld","3.3.11","0","z","NA","NA","NA","NA","enter","z","807","NA","NA","NA","NA","47422","807","2","legacy","1024","2","48000","-16","AB_m21","222","even","NW_L_COMP","BINDIG","1775","149195","147217","140112","49366","NA","NA","NA","NA","NA","147717","NA","NA","NA","146717","NA","146686","1943","149495","NA","NA","NA","147758","1775","1932","NA","NA","148565","148591","146686","147717","147738","morph21_Oliver/Morris","15","19667","23","yes","1920","22"
"350","","66.66666666666667","66.66666666666667","855.7916666666666","855.7916666666666","black","no","xpyriment","legacy","legacy","0","203","NA","uniform","NA","NA","NA","1","undefined","1","0","23","23","23","0","23","23","23","NA","0","23","NA","NA","0","23","NA","23","0","23","NA","NA","NA","23","0","0","NA","NA","23","23","23","23","23","24","z","Tue Oct 17 15:36:31 2023","Executes Python code","yes","m21-ba-lexicalDecision.osexp","C:\Users\ekealey\Desktop","no","mono","no","18","no","white","no","yes","1080","legacy","23","23","C:/Users/ekealey/Desktop/subject-222.csv","xpyriment","Lentiform Loewenfeld","3.3.11","0","z","NA","NA","NA","NA","enter","z","872","NA","NA","NA","NA","47422","872","2","legacy","1024","2","48000","-16","AB_m21","222","even","NW_S_COMP","HEIGHTENGE","1775","154596","151048","153090","49366","NA","NA","NA","NA","NA","151548","NA","NA","NA","150548","NA","150524","1943","154946","NA","NA","NA","151589","1775","1932","NA","NA","152462","152485","150524","151548","151569","morph21_Oliver/Morris","16","20539","24","yes","1920","18"
"400","","64","64","844.64","844.64","black","no","xpyriment","legacy","legacy","0","204","NA","uniform","NA","NA","NA","0","undefined","0","0","24","24","24","0","24","24","24","NA","0","24","NA","NA","0","24","NA","24","0","24","NA","NA","NA","24","0","0","NA","NA","24","24","24","24","24","25","z","Tue Oct 17 15:36:31 2023","Executes Python code","yes","m21-ba-lexicalDecision.osexp","C:\Users\ekealey\Desktop","no","mono","no","18","no","white","no","yes","1080","legacy","24","24","C:/Users/ekealey/Desktop/subject-222.csv","xpyriment","Lentiform Loewenfeld","3.3.11","0","/","NA","NA","NA","NA","enter","/","577","NA","NA","NA","NA","47422","577","2","legacy","1024","2","48000","-16","AB_m21","222","even","NW_L_COMP","BOIL","1775","158265","156518","153090","49366","NA","NA","NA","NA","NA","157020","NA","NA","NA","156016","NA","155984","1943","158665","NA","NA","NA","157060","1775","1932","NA","NA","157637","157662","155984","157020","157040","morph21_Oliver/Morris","16","21116","25","yes","1920","18"
"200","","61.53846153846154","61.53846153846154","858.3076923076923","858.3076923076923","black","no","xpyriment","legacy","legacy","0","206","NA","uniform","NA","NA","NA","0","undefined","0","0","25","25","25","0","25","25","25","NA","0","25","NA","NA","0","25","NA","25","0","25","NA","NA","NA","25","0","0","NA","NA","25","25","25","25","25","26","z","Tue Oct 17 15:36:31 2023","Executes Python code","yes","m21-ba-lexicalDecision.osexp","C:\Users\ekealey\Desktop","no","mono","no","18","no","white","no","yes","1080","legacy","25","25","C:/Users/ekealey/Desktop/subject-222.csv","xpyriment","Lentiform Loewenfeld","3.3.11","0","None","NA","NA","NA","NA","enter","None","1200","NA","NA","NA","NA","47422","1200","2","legacy","1024","2","48000","-16","AB_m21","222","even","NW_L_SIMP","TOWERLY","1775","162607","160238","153090","49366","NA","NA","NA","NA","NA","160738","NA","NA","NA","159738","NA","159712","1943","162807","NA","NA","NA","160779","1775","1932","NA","NA","161979","162004","159711","160738","160758","morph21_Oliver/Morris","16","22316","26","yes","1920","15"
"300","","62.96296296296296","62.96296296296296","869.4814814814815","869.4814814814815","black","no","xpyriment","legacy","legacy","0","205","NA","uniform","NA","NA","NA","1","undefined","1","0","26","26","26","0","26","26","26","NA","0","26","NA","NA","0","26","NA","26","0","26","NA","NA","NA","26","0","0","NA","NA","26","26","26","26","26","27","z","Tue Oct 17 15:36:31 2023","Executes Python code","yes","m21-ba-lexicalDecision.osexp","C:\Users\ekealey\Desktop","no","mono","no","18","no","white","no","yes","1080","legacy","26","26","C:/Users/ekealey/Desktop/subject-222.csv","xpyriment","Lentiform Loewenfeld","3.3.11","0","z","NA","NA","NA","NA","enter","z","1160","NA","NA","NA","NA","47422","1160","2","legacy","1024","2","48000","-16","AB_m21","222","even","NW_S_SIMP","SOCKETER","1775","168210","164377","166705","49366","NA","NA","NA","NA","NA","164877","NA","NA","NA","163876","NA","163848","1943","168510","NA","NA","NA","164917","1775","1932","NA","NA","166077","166102","163848","164877","164897","morph21_Oliver/Morris","17","23476","27","yes","1920","1"
"350","","64.28571428571429","64.28571428571429","872.3571428571429","872.3571428571429","black","no","xpyriment","legacy","legacy","0","208","NA","uniform","NA","NA","NA","1","undefined","1","0","27","27","27","0","27","27","27","NA","0","27","NA","NA","0","27","NA","27","0","27","NA","NA","NA","27","0","0","NA","NA","27","27","27","27","27","28","z","Tue Oct 17 15:36:31 2023","Executes Python code","yes","m21-ba-lexicalDecision.osexp","C:\Users\ekealey\Desktop","no","mono","no","18","no","white","no","yes","1080","legacy","27","27","C:/Users/ekealey/Desktop/subject-222.csv","xpyriment","Lentiform Loewenfeld","3.3.11","0","z","NA","NA","NA","NA","enter","z","950","NA","NA","NA","NA","47422","950","2","legacy","1024","2","48000","-16","AB_m21","222","even","FILL_NW","DOADS","1775","172216","170097","166705","49366","NA","NA","NA","NA","NA","170598","NA","NA","NA","169597","NA","169563","1943","172567","NA","NA","NA","170639","1775","1932","NA","NA","171590","171613","169563","170598","170619","morph21_Oliver/Morris","18","24426","28","yes","1920","15"
"250","","65.51724137931035","65.51724137931035","867.2413793103449","867.2413793103449","black","no","xpyriment","legacy","legacy","0","201","NA","uniform","NA","NA","NA","1","undefined","1","0","28","28","28","0","28","28","28","NA","0","28","NA","NA","0","28","NA","28","0","28","NA","NA","NA","28","0","0","NA","NA","28","28","28","28","28","29","/","Tue Oct 17 15:36:31 2023","Executes Python code","yes","m21-ba-lexicalDecision.osexp","C:\Users\ekealey\Desktop","no","mono","no","18","no","white","no","yes","1080","legacy","28","28","C:/Users/ekealey/Desktop/subject-222.csv","xpyriment","Lentiform Loewenfeld","3.3.11","0","/","NA","NA","NA","NA","enter","/","724","NA","NA","NA","NA","47422","724","2","legacy","1024","2","48000","-16","AB_m21","222","even","CW_S","TOSSING","1775","176027","174131","166705","49366","NA","NA","NA","NA","NA","174632","NA","NA","NA","173630","NA","173599","1943","176277","NA","NA","NA","174673","1775","1932","NA","NA","175397","175422","173599","174632","174653","morph21_Oliver/Morris","19","25150","29","yes","1920","26"
"350","","63.333333333333336","63.333333333333336","878.3333333333334","878.3333333333334","black","no","xpyriment","legacy","legacy","0","203","NA","uniform","NA","NA","NA","0","undefined","0","0","29","29","29","0","29","29","29","NA","0","29","NA","NA","0","29","NA","29","0","29","NA","NA","NA","29","0","0","NA","NA","29","29","29","29","29","30","z","Tue Oct 17 15:36:31 2023","Executes Python code","yes","m21-ba-lexicalDecision.osexp","C:\Users\ekealey\Desktop","no","mono","no","18","no","white","no","yes","1080","legacy","29","29","C:/Users/ekealey/Desktop/subject-222.csv","xpyriment","Lentiform Loewenfeld","3.3.11","0","None","NA","NA","NA","NA","enter","None","1200","NA","NA","NA","NA","47422","1200","2","legacy","1024","2","48000","-16","AB_m21","222","even","NW_S_COMP","DEBTITH","1775","181705","177830","180200","49366","NA","NA","NA","NA","NA","178331","NA","NA","NA","177329","NA","177299","1943","182055","NA","NA","NA","178372","1775","1932","NA","NA","179572","179596","177299","178331","178352","morph21_Oliver/Morris","19","26350","30","yes","1920","22"
"400","","64.51612903225806","64.51612903225806","876.8387096774194","876.8387096774194","black","no","xpyriment","legacy","legacy","0","202","NA","uniform","NA","NA","NA","1","undefined","1","0","30","30","30","0","30","30","30","NA","0","30","NA","NA","0","30","NA","30","0","30","NA","NA","NA","30","0","0","NA","NA","30","30","30","30","30","31","/","Tue Oct 17 15:36:31 2023","Executes Python code","yes","m21-ba-lexicalDecision.osexp","C:\Users\ekealey\Desktop","no","mono","no","18","no","white","no","yes","1080","legacy","30","30","C:/Users/ekealey/Desktop/subject-222.csv","xpyriment","Lentiform Loewenfeld","3.3.11","0","/","NA","NA","NA","NA","enter","/","832","NA","NA","NA","NA","47422","832","2","legacy","1024","2","48000","-16","AB_m21","222","even","CW_L","CONDUCTOR","1775","185634","183632","180200","49366","NA","NA","NA","NA","NA","184133","NA","NA","NA","183131","NA","183101","1943","186034","NA","NA","NA","184173","1775","1932","NA","NA","185005","185030","183101","184133","184153","morph21_Oliver/Morris","20","27182","31","yes","1920","44"
"350","","65.625","65.625","871.875","871.875","black","no","xpyriment","legacy","legacy","0","201","NA","uniform","NA","NA","NA","1","undefined","1","0","31","31","31","0","31","31","31","NA","0","31","NA","NA","0","31","NA","31","0","31","NA","NA","NA","31","0","0","NA","NA","31","31","31","31","31","32","/","Tue Oct 17 15:36:31 2023","Executes Python code","yes","m21-ba-lexicalDecision.osexp","C:\Users\ekealey\Desktop","no","mono","no","18","no","white","no","yes","1080","legacy","31","31","C:/Users/ekealey/Desktop/subject-222.csv","xpyriment","Lentiform Loewenfeld","3.3.11","0","/","NA","NA","NA","NA","enter","/","718","NA","NA","NA","NA","47422","718","2","legacy","1024","2","48000","-16","AB_m21","222","even","CW_S","AMAZEMENT","1775","189481","187592","180200","49366","NA","NA","NA","NA","NA","188093","NA","NA","NA","187091","NA","187065","1943","189831","NA","NA","NA","188134","1775","1932","NA","NA","188853","188877","187065","188093","188114","morph21_Oliver/Morris","21","27900","32","yes","1920","39"
"400","","66.66666666666667","66.66666666666667","881.0909090909091","881.0909090909091","black","no","xpyriment","legacy","legacy","0","205","NA","uniform","NA","NA","NA","1","undefined","1","0","32","32","32","0","32","32","32","NA","0","32","NA","NA","0","32","NA","32","0","32","NA","NA","NA","32","0","0","NA","NA","32","32","32","32","32","33","z","Tue Oct 17 15:36:31 2023","Executes Python code","yes","m21-ba-lexicalDecision.osexp","C:\Users\ekealey\Desktop","no","mono","no","18","no","white","no","yes","1080","legacy","32","32","C:/Users/ekealey/Desktop/subject-222.csv","xpyriment","Lentiform Loewenfeld","3.3.11","0","z","NA","NA","NA","NA","enter","z","1176","NA","NA","NA","NA","47422","1176","2","legacy","1024","2","48000","-16","AB_m21","222","even","NW_S_SIMP","SCHEMENESS","1775","195216","191367","193712","49366","NA","NA","NA","NA","NA","191869","NA","NA","NA","190866","NA","190837","1943","195616","NA","NA","NA","191909","1775","1932","NA","NA","193085","193109","190837","191869","191889","morph21_Oliver/Morris","22","29076","33","yes","1920","15"
"300","","67.6470588235294","67.6470588235294","871.2647058823529","871.2647058823529","black","no","xpyriment","legacy","legacy","0","207","NA","uniform","NA","NA","NA","1","undefined","1","0","33","33","33","0","33","33","33","NA","0","33","NA","NA","0","33","NA","33","0","33","NA","NA","NA","33","0","0","NA","NA","33","33","33","33","33","34","/","Tue Oct 17 15:36:31 2023","Executes Python code","yes","m21-ba-lexicalDecision.osexp","C:\Users\ekealey\Desktop","no","mono","no","18","no","white","no","yes","1080","legacy","33","33","C:/Users/ekealey/Desktop/subject-222.csv","xpyriment","Lentiform Loewenfeld","3.3.11","0","/","NA","NA","NA","NA","enter","/","547","NA","NA","NA","NA","47422","547","2","legacy","1024","2","48000","-16","AB_m21","222","even","FILL_W","MOURN","1775","198899","197181","193712","49366","NA","NA","NA","NA","NA","197681","NA","NA","NA","196680","NA","196649","1943","199199","NA","NA","NA","197722","1775","1932","NA","NA","198269","198295","196649","197681","197702","morph21_Oliver/Morris","23","29623","34","yes","1920","26"
"400","","68.57142857142857","68.57142857142857","872.0285714285715","872.0285714285715","black","no","xpyriment","legacy","legacy","0","204","NA","uniform","NA","NA","NA","1","undefined","1","0","34","34","34","0","34","34","34","NA","0","34","NA","NA","0","34","NA","34","0","34","NA","NA","NA","34","0","0","NA","NA","34","34","34","34","34","35","z","Tue Oct 17 15:36:31 2023","Executes Python code","yes","m21-ba-lexicalDecision.osexp","C:\Users\ekealey\Desktop","no","mono","no","18","no","white","no","yes","1080","legacy","34","34","C:/Users/ekealey/Desktop/subject-222.csv","xpyriment","Lentiform Loewenfeld","3.3.11","0","z","NA","NA","NA","NA","enter","z","898","NA","NA","NA","NA","47422","898","2","legacy","1024","2","48000","-16","AB_m21","222","even","NW_L_COMP","PASSMANT","1775","202815","200749","193712","49366","NA","NA","NA","NA","NA","201250","NA","NA","NA","200249","NA","200222","1943","203215","NA","NA","NA","201290","1775","1932","NA","NA","202189","202212","200222","201250","201270","morph21_Oliver/Morris","24","30521","35","yes","1920","14"
"200","","69.44444444444444","69.44444444444444","867.2222222222222","867.2222222222222","black","no","xpyriment","legacy","legacy","0","202","NA","uniform","NA","NA","NA","1","undefined","1","0","35","35","35","0","35","35","35","NA","0","35","NA","NA","0","35","NA","35","0","35","NA","NA","NA","35","0","0","NA","NA","35","35","35","35","35","36","/","Tue Oct 17 15:36:31 2023","Executes Python code","yes","m21-ba-lexicalDecision.osexp","C:\Users\ekealey\Desktop","no","mono","no","18","no","white","no","yes","1080","legacy","35","35","C:/Users/ekealey/Desktop/subject-222.csv","xpyriment","Lentiform Loewenfeld","3.3.11","0","/","NA","NA","NA","NA","enter","/","699","NA","NA","NA","NA","47422","699","2","legacy","1024","2","48000","-16","AB_m21","222","even","CW_L","COLLECTOR","1775","208144","204774","206640","49366","NA","NA","NA","NA","NA","205274","NA","NA","NA","204274","NA","204246","1943","208344","NA","NA","NA","205314","1775","1932","NA","NA","206013","206037","204246","205274","205294","morph21_Oliver/Morris","25","31220","36","yes","1920","46"
"400","","67.56756756756756","67.56756756756756","876.2162162162163","876.2162162162163","black","no","xpyriment","legacy","legacy","0","208","NA","uniform","NA","NA","NA","0","undefined","0","0","36","36","36","0","36","36","36","NA","0","36","NA","NA","0","36","NA","36","0","36","NA","NA","NA","36","0","0","NA","NA","36","36","36","36","36","37","z","Tue Oct 17 15:36:31 2023","Executes Python code","yes","m21-ba-lexicalDecision.osexp","C:\Users\ekealey\Desktop","no","mono","no","18","no","white","no","yes","1080","legacy","36","36","C:/Users/ekealey/Desktop/subject-222.csv","xpyriment","Lentiform Loewenfeld","3.3.11","0","None","NA","NA","NA","NA","enter","None","1200","NA","NA","NA","NA","47422","1200","2","legacy","1024","2","48000","-16","AB_m21","222","even","FILL_NW","CORG","1775","212314","209946","206640","49366","NA","NA","NA","NA","NA","210446","NA","NA","NA","209446","NA","209419","1943","212714","NA","NA","NA","210486","1775","1932","NA","NA","211686","211710","209419","210446","210466","morph21_Oliver/Morris","25","32420","37","yes","1920","7"
"300","","68.42105263157895","68.42105263157895","873.5263157894736","873.5263157894736","black","no","xpyriment","legacy","legacy","0","201","NA","uniform","NA","NA","NA","1","undefined","1","0","37","37","37","0","37","37","37","NA","0","37","NA","NA","0","37","NA","37","0","37","NA","NA","NA","37","0","0","NA","NA","37","37","37","37","37","38","/","Tue Oct 17 15:36:31 2023","Executes Python code","yes","m21-ba-lexicalDecision.osexp","C:\Users\ekealey\Desktop","no","mono","no","18","no","white","no","yes","1080","legacy","37","37","C:/Users/ekealey/Desktop/subject-222.csv","xpyriment","Lentiform Loewenfeld","3.3.11","0","/","NA","NA","NA","NA","enter","/","774","NA","NA","NA","NA","47422","774","2","legacy","1024","2","48000","-16","AB_m21","222","even","CW_S","DETECTABLE","1775","216234","214289","206640","49366","NA","NA","NA","NA","NA","214790","NA","NA","NA","213788","NA","213763","1943","216534","NA","NA","NA","214831","1775","1932","NA","NA","215605","215630","213763","214790","214811","morph21_Oliver/Morris","26","33194","38","yes","1920","1"
"300","","69.23076923076923","69.23076923076923","872.4358974358975","872.4358974358975","black","no","xpyriment","legacy","legacy","0","207","NA","uniform","NA","NA","NA","1","undefined","1","0","38","38","38","0","38","38","38","NA","0","38","NA","NA","0","38","NA","38","0","38","NA","NA","NA","38","0","0","NA","NA","38","38","38","38","38","39","/","Tue Oct 17 15:36:31 2023","Executes Python code","yes","m21-ba-lexicalDecision.osexp","C:\Users\ekealey\Desktop","no","mono","no","18","no","white","no","yes","1080","legacy","38","38","C:/Users/ekealey/Desktop/subject-222.csv","xpyriment","Lentiform Loewenfeld","3.3.11","0","/","NA","NA","NA","NA","enter","/","831","NA","NA","NA","NA","47422","831","2","legacy","1024","2","48000","-16","AB_m21","222","even","FILL_W","BLUNT","1775","221587","218082","220080","49366","NA","NA","NA","NA","NA","218582","NA","NA","NA","217582","NA","217550","1943","221887","NA","NA","NA","218622","1775","1932","NA","NA","219453","219477","217550","218582","218602","morph21_Oliver/Morris","27","34025","39","yes","1920","4"
"350","","70","70","872","872","black","no","xpyriment","legacy","legacy","0","203","NA","uniform","NA","NA","NA","1","undefined","1","0","39","39","39","0","39","39","39","NA","0","39","NA","NA","0","39","NA","39","0","39","NA","NA","NA","39","0","0","NA","NA","39","39","39","39","39","40","z","Tue Oct 17 15:36:31 2023","Executes Python code","yes","m21-ba-lexicalDecision.osexp","C:\Users\ekealey\Desktop","no","mono","no","18","no","white","no","yes","1080","legacy","39","39","C:/Users/ekealey/Desktop/subject-222.csv","xpyriment","Lentiform Loewenfeld","3.3.11","0","z","NA","NA","NA","NA","enter","z","855","NA","NA","NA","NA","47422","855","2","legacy","1024","2","48000","-16","AB_m21","222","even","NW_S_COMP","WELDIG","1775","225490","223465","220080","49366","NA","NA","NA","NA","NA","223965","NA","NA","NA","222965","NA","222936","1943","225840","NA","NA","NA","224005","1775","1932","NA","NA","224861","224885","222936","223965","223985","morph21_Oliver/Morris","28","34880","40","yes","1920","21"
"400","","68.29268292682927","68.29268292682927","871.0975609756098","871.0975609756098","black","no","xpyriment","legacy","legacy","0","208","NA","uniform","NA","NA","NA","0","undefined","0","0","40","40","40","0","40","40","40","NA","0","40","NA","NA","0","40","NA","40","0","40","NA","NA","NA","40","0","0","NA","NA","40","40","40","40","40","41","z","Tue Oct 17 15:36:31 2023","Executes Python code","yes","m21-ba-lexicalDecision.osexp","C:\Users\ekealey\Desktop","no","mono","no","18","no","white","no","yes","1080","legacy","40","40","C:/Users/ekealey/Desktop/subject-222.csv","xpyriment","Lentiform Loewenfeld","3.3.11","0","/","NA","NA","NA","NA","enter","/","835","NA","NA","NA","NA","47422","835","2","legacy","1024","2","48000","-16","AB_m21","222","even","FILL_NW","HEND","1775","229401","227395","220080","49366","NA","NA","NA","NA","NA","227896","NA","NA","NA","226893","NA","226862","1943","229801","NA","NA","NA","227937","1775","1932","NA","NA","228773","228798","226862","227896","227917","morph21_Oliver/Morris","28","35715","41","yes","1920","28"
"200","","69.04761904761905","69.04761904761905","868.2857142857143","868.2857142857143","black","no","xpyriment","legacy","legacy","0","208","NA","uniform","NA","NA","NA","1","undefined","1","0","41","41","41","0","41","41","41","NA","0","41","NA","NA","0","41","NA","41","0","41","NA","NA","NA","41","0","0","NA","NA","41","41","41","41","41","42","z","Tue Oct 17 15:36:31 2023","Executes Python code","yes","m21-ba-lexicalDecision.osexp","C:\Users\ekealey\Desktop","no","mono","no","18","no","white","no","yes","1080","legacy","41","41","C:/Users/ekealey/Desktop/subject-222.csv","xpyriment","Lentiform Loewenfeld","3.3.11","0","z","NA","NA","NA","NA","enter","z","753","NA","NA","NA","NA","47422","753","2","legacy","1024","2","48000","-16","AB_m21","222","even","FILL_NW","PORDS","1775","234802","231375","233298","49366","NA","NA","NA","NA","NA","231875","NA","NA","NA","230875","NA","230848","1943","235003","NA","NA","NA","231916","1775","1932","NA","NA","232670","232694","230848","231875","231896","morph21_Oliver/Morris","29","36468","42","yes","1920","39"
"250","","69.76744186046511","69.76744186046511","866.4418604651163","866.4418604651163","black","no","xpyriment","legacy","legacy","0","208","NA","uniform","NA","NA","NA","1","undefined","1","0","42","42","42","0","42","42","42","NA","0","42","NA","NA","0","42","NA","42","0","42","NA","NA","NA","42","0","0","NA","NA","42","42","42","42","42","43","z","Tue Oct 17 15:36:31 2023","Executes Python code","yes","m21-ba-lexicalDecision.osexp","C:\Users\ekealey\Desktop","no","mono","no","18","no","white","no","yes","1080","legacy","42","42","C:/Users/ekealey/Desktop/subject-222.csv","xpyriment","Lentiform Loewenfeld","3.3.11","0","z","NA","NA","NA","NA","enter","z","789","NA","NA","NA","NA","47422","789","2","legacy","1024","2","48000","-16","AB_m21","222","even","FILL_NW","PIFTH","1775","238521","236563","233298","49366","NA","NA","NA","NA","NA","237064","NA","NA","NA","236061","NA","236033","1943","238771","NA","NA","NA","237104","1775","1932","NA","NA","237893","237917","236033","237064","237084","morph21_Oliver/Morris","30","37257","43","yes","1920","36"
"350","","70.45454545454545","70.45454545454545","860.5227272727273","860.5227272727273","black","no","xpyriment","legacy","legacy","0","201","NA","uniform","NA","NA","NA","1","undefined","1","0","43","43","43","0","43","43","43","NA","0","43","NA","NA","0","43","NA","43","0","43","NA","NA","NA","43","0","0","NA","NA","43","43","43","43","43","44","/","Tue Oct 17 15:36:31 2023","Executes Python code","yes","m21-ba-lexicalDecision.osexp","C:\Users\ekealey\Desktop","no","mono","no","18","no","white","no","yes","1080","legacy","43","43","C:/Users/ekealey/Desktop/subject-222.csv","xpyriment","Lentiform Loewenfeld","3.3.11","0","/","NA","NA","NA","NA","enter","/","606","NA","NA","NA","NA","47422","606","2","legacy","1024","2","48000","-16","AB_m21","222","even","CW_S","SINGER","1775","242097","240321","233298","49366","NA","NA","NA","NA","NA","240823","NA","NA","NA","239820","NA","239790","1943","242447","NA","NA","NA","240863","1775","1932","NA","NA","241470","241494","239790","240823","240843","morph21_Oliver/Morris","31","37863","44","yes","1920","17"
"300","","71.11111111111111","71.11111111111111","858.2444444444444","858.2444444444444","black","no","xpyriment","legacy","legacy","0","205","NA","uniform","NA","NA","NA","1","undefined","1","0","44","44","44","0","44","44","44","NA","0","44","NA","NA","0","44","NA","44","0","44","NA","NA","NA","44","0","0","NA","NA","44","44","44","44","44","45","z","Tue Oct 17 15:36:31 2023","Executes Python code","yes","m21-ba-lexicalDecision.osexp","C:\Users\ekealey\Desktop","no","mono","no","18","no","white","no","yes","1080","legacy","44","44","C:/Users/ekealey/Desktop/subject-222.csv","xpyriment","Lentiform Loewenfeld","3.3.11","0","z","NA","NA","NA","NA","enter","z","758","NA","NA","NA","NA","47422","758","2","legacy","1024","2","48000","-16","AB_m21","222","even","NW_S_SIMP","BOLTOUS","1775","247428","243992","245924","49366","NA","NA","NA","NA","NA","244494","NA","NA","NA","243491","NA","243461","1943","247729","NA","NA","NA","244534","1775","1932","NA","NA","245293","245318","243461","244493","244514","morph21_Oliver/Morris","32","38621","45","yes","1920","13"
"300","","71.73913043478261","71.73913043478261","859","859","black","no","xpyriment","legacy","legacy","0","204","NA","uniform","NA","NA","NA","1","undefined","1","0","45","45","45","0","45","45","45","NA","0","45","NA","NA","0","45","NA","45","0","45","NA","NA","NA","45","0","0","NA","NA","45","45","45","45","45","46","z","Tue Oct 17 15:36:31 2023","Executes Python code","yes","m21-ba-lexicalDecision.osexp","C:\Users\ekealey\Desktop","no","mono","no","18","no","white","no","yes","1080","legacy","45","45","C:/Users/ekealey/Desktop/subject-222.csv","xpyriment","Lentiform Loewenfeld","3.3.11","0","z","NA","NA","NA","NA","enter","z","893","NA","NA","NA","NA","47422","893","2","legacy","1024","2","48000","-16","AB_m21","222","even","NW_L_COMP","ADDMANT","1775","251440","249379","245924","49366","NA","NA","NA","NA","NA","249879","NA","NA","NA","248879","NA","248851","1943","251740","NA","NA","NA","249920","1775","1932","NA","NA","250814","250837","248851","249879","249900","morph21_Oliver/Morris","33","39514","46","yes","1920","13"
"200","","72.34042553191489","72.34042553191489","861.8510638297872","861.8510638297872","black","no","xpyriment","legacy","legacy","0","203","NA","uniform","NA","NA","NA","1","undefined","1","0","46","46","46","0","46","46","46","NA","0","46","NA","NA","0","46","NA","46","0","46","NA","NA","NA","46","0","0","NA","NA","46","46","46","46","46","47","z","Tue Oct 17 15:36:31 2023","Executes Python code","yes","m21-ba-lexicalDecision.osexp","C:\Users\ekealey\Desktop","no","mono","no","18","no","white","no","yes","1080","legacy","46","46","C:/Users/ekealey/Desktop/subject-222.csv","xpyriment","Lentiform Loewenfeld","3.3.11","0","z","NA","NA","NA","NA","enter","z","993","NA","NA","NA","NA","47422","993","2","legacy","1024","2","48000","-16","AB_m21","222","even","NW_S_COMP","PILLIME","1775","255456","253293","245924","49366","NA","NA","NA","NA","NA","253794","NA","NA","NA","252791","NA","252761","1943","255657","NA","NA","NA","253835","1775","1932","NA","NA","254829","254852","252761","253794","253815","morph21_Oliver/Morris","34","40507","47","yes","1920","13"
"400","","72.91666666666667","72.91666666666667","856.9583333333334","856.9583333333334","black","no","xpyriment","legacy","legacy","0","207","NA","uniform","NA","NA","NA","1","undefined","1","0","47","47","47","0","47","47","47","NA","0","47","NA","NA","0","47","NA","47","0","47","NA","NA","NA","47","0","0","NA","NA","47","47","47","47","47","48","/","Tue Oct 17 15:36:31 2023","Executes Python code","yes","m21-ba-lexicalDecision.osexp","C:\Users\ekealey\Desktop","no","mono","no","18","no","white","no","yes","1080","legacy","47","47","C:/Users/ekealey/Desktop/subject-222.csv","xpyriment","Lentiform Loewenfeld","3.3.11","0","/","NA","NA","NA","NA","enter","/","627","NA","NA","NA","NA","47422","627","2","legacy","1024","2","48000","-16","AB_m21","222","even","FILL_W","QUIT","1775","260531","257227","259026","49366","NA","NA","NA","NA","NA","257729","NA","NA","NA","256727","NA","256700","1943","260931","NA","NA","NA","257769","1775","1932","NA","NA","258397","258423","256700","257729","257749","morph21_Oliver/Morris","35","41134","48","yes","1920","21"
"350","","73.46938775510205","73.46938775510205","851.7755102040817","851.7755102040817","black","no","xpyriment","legacy","legacy","0","202","NA","uniform","NA","NA","NA","1","undefined","1","0","48","48","48","0","48","48","48","NA","0","48","NA","NA","0","48","NA","48","0","48","NA","NA","NA","48","0","0","NA","NA","48","48","48","48","48","49","/","Tue Oct 17 15:36:31 2023","Executes Python code","yes","m21-ba-lexicalDecision.osexp","C:\Users\ekealey\Desktop","no","mono","no","18","no","white","no","yes","1080","legacy","48","48","C:/Users/ekealey/Desktop/subject-222.csv","xpyriment","Lentiform Loewenfeld","3.3.11","0","/","NA","NA","NA","NA","enter","/","603","NA","NA","NA","NA","47422","603","2","legacy","1024","2","48000","-16","AB_m21","222","even","CW_L","PAINTER","1775","264265","262492","259026","49366","NA","NA","NA","NA","NA","262993","NA","NA","NA","261991","NA","261956","1943","264615","NA","NA","NA","263033","1775","1932","NA","NA","263637","263661","261956","262993","263013","morph21_Oliver/Morris","36","41737","49","yes","1920","18"
"350","","74","74","852.3","852.3","black","no","xpyriment","legacy","legacy","0","201","NA","uniform","NA","NA","NA","1","undefined","1","0","49","49","49","0","49","49","49","NA","0","49","NA","NA","0","49","NA","49","0","49","NA","NA","NA","49","0","0","NA","NA","49","49","49","49","49","50","/","Tue Oct 17 15:36:31 2023","Executes Python code","yes","m21-ba-lexicalDecision.osexp","C:\Users\ekealey\Desktop","no","mono","no","18","no","white","no","yes","1080","legacy","49","49","C:/Users/ekealey/Desktop/subject-222.csv","xpyriment","Lentiform Loewenfeld","3.3.11","0","/","NA","NA","NA","NA","enter","/","878","NA","NA","NA","NA","47422","878","2","legacy","1024","2","48000","-16","AB_m21","222","even","CW_S","STRANGENESS","1775","268209","266161","259026","49366","NA","NA","NA","NA","NA","266663","NA","NA","NA","265659","NA","265634","1943","268559","NA","NA","NA","266703","1775","1932","NA","NA","267581","267606","265634","266662","266683","morph21_Oliver/Morris","37","42615","50","yes","1920","46"
"250","","74.50980392156863","74.50980392156863","849.6666666666666","849.6666666666666","black","no","xpyriment","legacy","legacy","0","204","NA","uniform","NA","NA","NA","1","undefined","1","0","50","50","50","0","50","50","50","NA","0","50","NA","NA","0","50","NA","50","0","50","NA","NA","NA","50","0","0","NA","NA","50","50","50","50","50","51","z","Tue Oct 17 15:36:31 2023","Executes Python code","yes","m21-ba-lexicalDecision.osexp","C:\Users\ekealey\Desktop","no","mono","no","18","no","white","no","yes","1080","legacy","50","50","C:/Users/ekealey/Desktop/subject-222.csv","xpyriment","Lentiform Loewenfeld","3.3.11","0","z","NA","NA","NA","NA","enter","z","718","NA","NA","NA","NA","47422","718","2","legacy","1024","2","48000","-16","AB_m21","222","even","NW_L_COMP","MUDLA","1775","273522","270127","272017","49366","NA","NA","NA","NA","NA","270630","NA","NA","NA","269625","NA","269599","1943","273772","NA","NA","NA","270670","1775","1932","NA","NA","271389","271414","269599","270629","270650","morph21_Oliver/Morris","38","43333","51","yes","1920","12"
"250","","75","75","843.4230769230769","843.4230769230769","black","no","xpyriment","legacy","legacy","0","207","NA","uniform","NA","NA","NA","1","undefined","1","0","51","51","51","0","51","51","51","NA","0","51","NA","NA","0","51","NA","51","0","51","NA","NA","NA","51","0","0","NA","NA","51","51","51","51","51","52","/","Tue Oct 17 15:36:31 2023","Executes Python code","yes","m21-ba-lexicalDecision.osexp","C:\Users\ekealey\Desktop","no","mono","no","18","no","white","no","yes","1080","legacy","51","51","C:/Users/ekealey/Desktop/subject-222.csv","xpyriment","Lentiform Loewenfeld","3.3.11","0","/","NA","NA","NA","NA","enter","/","525","NA","NA","NA","NA","47422","525","2","legacy","1024","2","48000","-16","AB_m21","222","even","FILL_W","COOK","1775","277072","275379","272017","49366","NA","NA","NA","NA","NA","275879","NA","NA","NA","274878","NA","274850","1943","277322","NA","NA","NA","275920","1775","1932","NA","NA","276445","276469","274850","275879","275900","morph21_Oliver/Morris","39","43858","52","yes","1920","38"
"250","","75.47169811320755","75.47169811320755","841.5849056603773","841.5849056603773","black","no","xpyriment","legacy","legacy","0","202","NA","uniform","NA","NA","NA","1","undefined","1","0","52","52","52","0","52","52","52","NA","0","52","NA","NA","0","52","NA","52","0","52","NA","NA","NA","52","0","0","NA","NA","52","52","52","52","52","53","/","Tue Oct 17 15:36:31 2023","Executes Python code","yes","m21-ba-lexicalDecision.osexp","C:\Users\ekealey\Desktop","no","mono","no","18","no","white","no","yes","1080","legacy","52","52","C:/Users/ekealey/Desktop/subject-222.csv","xpyriment","Lentiform Loewenfeld","3.3.11","0","/","NA","NA","NA","NA","enter","/","746","NA","NA","NA","NA","47422","746","2","legacy","1024","2","48000","-16","AB_m21","222","even","CW_L","DEAFNESS","1775","280827","278909","272017","49366","NA","NA","NA","NA","NA","279409","NA","NA","NA","278409","NA","278380","1943","281077","NA","NA","NA","279450","1775","1932","NA","NA","280197","280222","278380","279409","279430","morph21_Oliver/Morris","40","44604","53","yes","1920","39"
"200","","75.92592592592592","75.92592592592592","842.0370370370371","842.0370370370371","black","no","xpyriment","legacy","legacy","0","201","NA","uniform","NA","NA","NA","1","undefined","1","0","53","53","53","0","53","53","53","NA","0","53","NA","NA","0","53","NA","53","0","53","NA","NA","NA","53","0","0","NA","NA","53","53","53","53","53","54","/","Tue Oct 17 15:36:31 2023","Executes Python code","yes","m21-ba-lexicalDecision.osexp","C:\Users\ekealey\Desktop","no","mono","no","18","no","white","no","yes","1080","legacy","53","53","C:/Users/ekealey/Desktop/subject-222.csv","xpyriment","Lentiform Loewenfeld","3.3.11","0","/","NA","NA","NA","NA","enter","/","866","NA","NA","NA","NA","47422","866","2","legacy","1024","2","48000","-16","AB_m21","222","even","CW_S","CAMPAIGNER","1775","286186","282645","284681","49366","NA","NA","NA","NA","NA","283145","NA","NA","NA","282143","NA","282112","1943","286386","NA","NA","NA","283186","1775","1932","NA","NA","284053","284078","282111","283145","283166","morph21_Oliver/Morris","41","45470","54","yes","1920","15"
"400","","76.36363636363636","76.36363636363636","842.9272727272727","842.9272727272727","black","no","xpyriment","legacy","legacy","0","201","NA","uniform","NA","NA","NA","1","undefined","1","0","54","54","54","0","54","54","54","NA","0","54","NA","NA","0","54","NA","54","0","54","NA","NA","NA","54","0","0","NA","NA","54","54","54","54","54","55","/","Tue Oct 17 15:36:31 2023","Executes Python code","yes","m21-ba-lexicalDecision.osexp","C:\Users\ekealey\Desktop","no","mono","no","18","no","white","no","yes","1080","legacy","54","54","C:/Users/ekealey/Desktop/subject-222.csv","xpyriment","Lentiform Loewenfeld","3.3.11","0","/","NA","NA","NA","NA","enter","/","891","NA","NA","NA","NA","47422","891","2","legacy","1024","2","48000","-16","AB_m21","222","even","CW_S","RAIDER","1775","290048","287987","284681","49366","NA","NA","NA","NA","NA","288488","NA","NA","NA","287486","NA","287459","1943","290449","NA","NA","NA","288529","1775","1932","NA","NA","289422","289445","287459","288488","288509","morph21_Oliver/Morris","42","46361","55","yes","1920","12"
"350","","76.78571428571429","76.78571428571429","839.7678571428571","839.7678571428571","black","no","xpyriment","legacy","legacy","0","207","NA","uniform","NA","NA","NA","1","undefined","1","0","55","55","55","0","55","55","55","NA","0","55","NA","NA","0","55","NA","55","0","55","NA","NA","NA","55","0","0","NA","NA","55","55","55","55","55","56","/","Tue Oct 17 15:36:31 2023","Executes Python code","yes","m21-ba-lexicalDecision.osexp","C:\Users\ekealey\Desktop","no","mono","no","18","no","white","no","yes","1080","legacy","55","55","C:/Users/ekealey/Desktop/subject-222.csv","xpyriment","Lentiform Loewenfeld","3.3.11","0","/","NA","NA","NA","NA","enter","/","666","NA","NA","NA","NA","47422","666","2","legacy","1024","2","48000","-16","AB_m21","222","even","FILL_W","FOLLOW","1775","293858","292020","284681","49366","NA","NA","NA","NA","NA","292522","NA","NA","NA","291519","NA","291495","1943","294208","NA","NA","NA","292562","1775","1932","NA","NA","293229","293253","291495","292522","292542","morph21_Oliver/Morris","43","47027","56","yes","1920","17"
"400","","77.19298245614036","77.19298245614036","842.719298245614","842.719298245614","black","no","xpyriment","legacy","legacy","0","205","NA","uniform","NA","NA","NA","1","undefined","1","0","56","56","56","0","56","56","56","NA","0","56","NA","NA","0","56","NA","56","0","56","NA","NA","NA","56","0","0","NA","NA","56","56","56","56","56","57","z","Tue Oct 17 15:36:31 2023","Executes Python code","yes","m21-ba-lexicalDecision.osexp","C:\Users\ekealey\Desktop","no","mono","no","18","no","white","no","yes","1080","legacy","56","56","C:/Users/ekealey/Desktop/subject-222.csv","xpyriment","Lentiform Loewenfeld","3.3.11","0","z","NA","NA","NA","NA","enter","z","1008","NA","NA","NA","NA","47422","1008","2","legacy","1024","2","48000","-16","AB_m21","222","even","NW_S_SIMP","URNIST","1775","299459","295776","297953","49366","NA","NA","NA","NA","NA","296276","NA","NA","NA","295275","NA","295247","1943","299859","NA","NA","NA","296317","1775","1932","NA","NA","297326","297350","295247","296276","296297","morph21_Oliver/Morris","44","48035","57","yes","1920","5"
"300","","77.58620689655173","77.58620689655173","844.5689655172414","844.5689655172414","black","no","xpyriment","legacy","legacy","0","204","NA","uniform","NA","NA","NA","1","undefined","1","0","57","57","57","0","57","57","57","NA","0","57","NA","NA","0","57","NA","57","0","57","NA","NA","NA","57","0","0","NA","NA","57","57","57","57","57","58","z","Tue Oct 17 15:36:31 2023","Executes Python code","yes","m21-ba-lexicalDecision.osexp","C:\Users\ekealey\Desktop","no","mono","no","18","no","white","no","yes","1080","legacy","57","57","C:/Users/ekealey/Desktop/subject-222.csv","xpyriment","Lentiform Loewenfeld","3.3.11","0","z","NA","NA","NA","NA","enter","z","950","NA","NA","NA","NA","47422","950","2","legacy","1024","2","48000","-16","AB_m21","222","even","NW_L_COMP","EMPLOYNELS","1775","303562","301441","297953","49366","NA","NA","NA","NA","NA","301941","NA","NA","NA","300941","NA","300911","1943","303862","NA","NA","NA","301982","1775","1932","NA","NA","302933","302957","300911","301941","301962","morph21_Oliver/Morris","45","48985","58","yes","1920","21"
"300","","77.96610169491525","77.96610169491525","846.5932203389831","846.5932203389831","black","no","xpyriment","legacy","legacy","0","206","NA","uniform","NA","NA","NA","1","undefined","1","0","58","58","58","0","58","58","58","NA","0","58","NA","NA","0","58","NA","58","0","58","NA","NA","NA","58","0","0","NA","NA","58","58","58","58","58","59","z","Tue Oct 17 15:36:31 2023","Executes Python code","yes","m21-ba-lexicalDecision.osexp","C:\Users\ekealey\Desktop","no","mono","no","18","no","white","no","yes","1080","legacy","58","58","C:/Users/ekealey/Desktop/subject-222.csv","xpyriment","Lentiform Loewenfeld","3.3.11","0","z","NA","NA","NA","NA","enter","z","964","NA","NA","NA","NA","47422","964","2","legacy","1024","2","48000","-16","AB_m21","222","even","NW_L_SIMP","BEGENCE","1775","307552","305420","297953","49366","NA","NA","NA","NA","NA","305920","NA","NA","NA","304918","NA","304889","1943","307852","NA","NA","NA","305960","1775","1932","NA","NA","306925","306949","304889","305920","305940","morph21_Oliver/Morris","46","49949","59","yes","1920","4"
"400","","78.33333333333333","78.33333333333333","845.0166666666667","845.0166666666667","black","no","xpyriment","legacy","legacy","0","208","NA","uniform","NA","NA","NA","1","undefined","1","0","59","59","59","0","59","59","59","NA","0","59","NA","NA","0","59","NA","59","0","59","NA","NA","NA","59","0","0","NA","NA","59","59","59","59","59","60","z","Tue Oct 17 15:36:31 2023","Executes Python code","yes","m21-ba-lexicalDecision.osexp","C:\Users\ekealey\Desktop","no","mono","no","18","no","white","no","yes","1080","legacy","59","59","C:/Users/ekealey/Desktop/subject-222.csv","xpyriment","Lentiform Loewenfeld","3.3.11","0","z","NA","NA","NA","NA","enter","z","752","NA","NA","NA","NA","47422","752","2","legacy","1024","2","48000","-16","AB_m21","222","even","FILL_NW","FROES","1775","312891","309464","311387","49366","NA","NA","NA","NA","NA","309964","NA","NA","NA","308964","NA","308938","1943","313291","NA","NA","NA","310005","1775","1932","NA","NA","310757","310782","308938","309964","309985","morph21_Oliver/Morris","47","50701","60","yes","1920","21"
"200","","77.04918032786885","77.04918032786885","850.8360655737705","850.8360655737705","black","no","xpyriment","legacy","legacy","0","203","NA","uniform","NA","NA","NA","0","undefined","0","0","60","60","60","0","60","60","60","NA","0","60","NA","NA","0","60","NA","60","0","60","NA","NA","NA","60","0","0","NA","NA","60","60","60","60","60","61","z","Tue Oct 17 15:36:31 2023","Executes Python code","yes","m21-ba-lexicalDecision.osexp","C:\Users\ekealey\Desktop","no","mono","no","18","no","white","no","yes","1080","legacy","60","60","C:/Users/ekealey/Desktop/subject-222.csv","xpyriment","Lentiform Loewenfeld","3.3.11","0","None","NA","NA","NA","NA","enter","None","1200","NA","NA","NA","NA","47422","1200","2","legacy","1024","2","48000","-16","AB_m21","222","even","NW_S_COMP","ELMILT","1775","317217","314847","311387","49366","NA","NA","NA","NA","NA","315347","NA","NA","NA","314346","NA","314310","1943","317417","NA","NA","NA","315388","1775","1932","NA","NA","316588","316613","314310","315347","315368","morph21_Oliver/Morris","47","51901","61","yes","1920","10"
"300","","77.41935483870968","77.41935483870968","853.3064516129032","853.3064516129032","black","no","xpyriment","legacy","legacy","0","202","NA","uniform","NA","NA","NA","1","undefined","1","0","61","61","61","0","61","61","61","NA","0","61","NA","NA","0","61","NA","61","0","61","NA","NA","NA","61","0","0","NA","NA","61","61","61","61","61","62","/","Tue Oct 17 15:36:31 2023","Executes Python code","yes","m21-ba-lexicalDecision.osexp","C:\Users\ekealey\Desktop","no","mono","no","18","no","white","no","yes","1080","legacy","61","61","C:/Users/ekealey/Desktop/subject-222.csv","xpyriment","Lentiform Loewenfeld","3.3.11","0","/","NA","NA","NA","NA","enter","/","1004","NA","NA","NA","NA","47422","1004","2","legacy","1024","2","48000","-16","AB_m21","222","even","CW_L","COMPOSER","1775","321145","318970","311387","49366","NA","NA","NA","NA","NA","319471","NA","NA","NA","318469","NA","318442","1943","321445","NA","NA","NA","319512","1775","1932","NA","NA","320517","320542","318442","319471","319492","morph21_Oliver/Morris","48","52905","62","yes","1920","6"
"400","","76.19047619047619","76.19047619047619","858.8095238095239","858.8095238095239","black","no","xpyriment","legacy","legacy","0","203","NA","uniform","NA","NA","NA","0","undefined","0","0","62","62","62","0","62","62","62","NA","0","62","NA","NA","0","62","NA","62","0","62","NA","NA","NA","62","0","0","NA","NA","62","62","62","62","62","63","z","Tue Oct 17 15:36:31 2023","Executes Python code","yes","m21-ba-lexicalDecision.osexp","C:\Users\ekealey\Desktop","no","mono","no","18","no","white","no","yes","1080","legacy","62","62","C:/Users/ekealey/Desktop/subject-222.csv","xpyriment","Lentiform Loewenfeld","3.3.11","0","None","NA","NA","NA","NA","enter","None","1200","NA","NA","NA","NA","47422","1200","2","legacy","1024","2","48000","-16","AB_m21","222","even","NW_S_COMP","ARIDILM","1775","326882","323009","325378","49366","NA","NA","NA","NA","NA","323509","NA","NA","NA","322509","NA","322481","1943","327282","NA","NA","NA","323550","1775","1932","NA","NA","324750","324774","322481","323509","323530","morph21_Oliver/Morris","48","54105","63","yes","1920","9"
"250","","76.5625","76.5625","857.03125","857.03125","black","no","xpyriment","legacy","legacy","0","201","NA","uniform","NA","NA","NA","1","undefined","1","0","63","63","63","0","63","63","63","NA","0","63","NA","NA","0","63","NA","63","0","63","NA","NA","NA","63","0","0","NA","NA","63","63","63","63","63","64","/","Tue Oct 17 15:36:31 2023","Executes Python code","yes","m21-ba-lexicalDecision.osexp","C:\Users\ekealey\Desktop","no","mono","no","18","no","white","no","yes","1080","legacy","63","63","C:/Users/ekealey/Desktop/subject-222.csv","xpyriment","Lentiform Loewenfeld","3.3.11","0","/","NA","NA","NA","NA","enter","/","745","NA","NA","NA","NA","47422","745","2","legacy","1024","2","48000","-16","AB_m21","222","even","CW_S","MILDNESS","1775","330767","328852","325378","49366","NA","NA","NA","NA","NA","329354","NA","NA","NA","328351","NA","328320","1943","331017","NA","NA","NA","329395","1775","1932","NA","NA","330141","330164","328320","329354","329375","morph21_Oliver/Morris","49","54850","64","yes","1920","42"
"350","","76.92307692307692","76.92307692307692","853.6461538461539","853.6461538461539","black","no","xpyriment","legacy","legacy","0","201","NA","uniform","NA","NA","NA","1","undefined","1","0","64","64","64","0","64","64","64","NA","0","64","NA","NA","0","64","NA","64","0","64","NA","NA","NA","64","0","0","NA","NA","64","64","64","64","64","65","/","Tue Oct 17 15:36:31 2023","Executes Python code","yes","m21-ba-lexicalDecision.osexp","C:\Users\ekealey\Desktop","no","mono","no","18","no","white","no","yes","1080","legacy","64","64","C:/Users/ekealey/Desktop/subject-222.csv","xpyriment","Lentiform Loewenfeld","3.3.11","0","/","NA","NA","NA","NA","enter","/","637","NA","NA","NA","NA","47422","637","2","legacy","1024","2","48000","-16","AB_m21","222","even","CW_S","CHILLY","1775","334409","332603","325378","49366","NA","NA","NA","NA","NA","333103","NA","NA","NA","332103","NA","332075","1943","334759","NA","NA","NA","333144","1775","1932","NA","NA","333781","333806","332075","333103","333124","morph21_Oliver/Morris","50","55487","65","yes","1920","48"
"350","","77.27272727272727","77.27272727272727","856.7272727272727","856.7272727272727","black","no","xpyriment","legacy","legacy","0","206","NA","uniform","NA","NA","NA","1","undefined","1","0","65","65","65","0","65","65","65","NA","0","65","NA","NA","0","65","NA","65","0","65","NA","NA","NA","65","0","0","NA","NA","65","65","65","65","65","66","z","Tue Oct 17 15:36:31 2023","Executes Python code","yes","m21-ba-lexicalDecision.osexp","C:\Users\ekealey\Desktop","no","mono","no","18","no","white","no","yes","1080","legacy","65","65","C:/Users/ekealey/Desktop/subject-222.csv","xpyriment","Lentiform Loewenfeld","3.3.11","0","z","NA","NA","NA","NA","enter","z","1057","NA","NA","NA","NA","47422","1057","2","legacy","1024","2","48000","-16","AB_m21","222","even","NW_L_SIMP","WITCHISH","1775","340049","336318","338544","49366","NA","NA","NA","NA","NA","336818","NA","NA","NA","335817","NA","335789","1943","340399","NA","NA","NA","336859","1775","1932","NA","NA","337917","337940","335789","336818","336839","morph21_Oliver/Morris","51","56544","66","yes","1920","11"
"300","","77.61194029850746","77.61194029850746","861.6268656716418","861.6268656716418","black","no","xpyriment","legacy","legacy","0","208","NA","uniform","NA","NA","NA","1","undefined","1","0","66","66","66","0","66","66","66","NA","0","66","NA","NA","0","66","NA","66","0","66","NA","NA","NA","66","0","0","NA","NA","66","66","66","66","66","67","z","Tue Oct 17 15:36:31 2023","Executes Python code","yes","m21-ba-lexicalDecision.osexp","C:\Users\ekealey\Desktop","no","mono","no","18","no","white","no","yes","1080","legacy","66","66","C:/Users/ekealey/Desktop/subject-222.csv","xpyriment","Lentiform Loewenfeld","3.3.11","0","z","NA","NA","NA","NA","enter","z","1185","NA","NA","NA","NA","47422","1185","2","legacy","1024","2","48000","-16","AB_m21","222","even","FILL_NW","SCURE","1775","344320","341965","338544","49366","NA","NA","NA","NA","NA","342466","NA","NA","NA","341465","NA","341439","1943","344620","NA","NA","NA","342507","1775","1932","NA","NA","343693","343716","341439","342466","342487","morph21_Oliver/Morris","52","57729","67","yes","1920","41"
"400","","77.94117647058823","77.94117647058823","861.1911764705883","861.1911764705883","black","no","xpyriment","legacy","legacy","0","208","NA","uniform","NA","NA","NA","1","undefined","1","0","67","67","67","0","67","67","67","NA","0","67","NA","NA","0","67","NA","67","0","67","NA","NA","NA","67","0","0","NA","NA","67","67","67","67","67","68","z","Tue Oct 17 15:36:31 2023","Executes Python code","yes","m21-ba-lexicalDecision.osexp","C:\Users\ekealey\Desktop","no","mono","no","18","no","white","no","yes","1080","legacy","67","67","C:/Users/ekealey/Desktop/subject-222.csv","xpyriment","Lentiform Loewenfeld","3.3.11","0","z","NA","NA","NA","NA","enter","z","832","NA","NA","NA","NA","47422","832","2","legacy","1024","2","48000","-16","AB_m21","222","even","FILL_NW","BORMS","1775","348187","346183","338544","49366","NA","NA","NA","NA","NA","346684","NA","NA","NA","345682","NA","345657","1943","348587","NA","NA","NA","346725","1775","1932","NA","NA","347557","347581","345657","346684","346705","morph21_Oliver/Morris","53","58561","68","yes","1920","50"
"300","","78.26086956521739","78.26086956521739","857.9855072463768","857.9855072463768","black","no","xpyriment","legacy","legacy","0","208","NA","uniform","NA","NA","NA","1","undefined","1","0","68","68","68","0","68","68","68","NA","0","68","NA","NA","0","68","NA","68","0","68","NA","NA","NA","68","0","0","NA","NA","68","68","68","68","68","69","z","Tue Oct 17 15:36:31 2023","Executes Python code","yes","m21-ba-lexicalDecision.osexp","C:\Users\ekealey\Desktop","no","mono","no","18","no","white","no","yes","1080","legacy","68","68","C:/Users/ekealey/Desktop/subject-222.csv","xpyriment","Lentiform Loewenfeld","3.3.11","0","z","NA","NA","NA","NA","enter","z","640","NA","NA","NA","NA","47422","640","2","legacy","1024","2","48000","-16","AB_m21","222","even","FILL_NW","HEEM","1775","353467","350151","351963","49366","NA","NA","NA","NA","NA","350651","NA","NA","NA","349651","NA","349626","1943","353767","NA","NA","NA","350692","1775","1932","NA","NA","351333","351358","349626","350651","350672","morph21_Oliver/Morris","54","59201","69","yes","1920","27"
"200","","78.57142857142857","78.57142857142857","855.0714285714286","855.0714285714286","black","no","xpyriment","legacy","legacy","0","207","NA","uniform","NA","NA","NA","1","undefined","1","0","69","69","69","0","69","69","69","NA","0","69","NA","NA","0","69","NA","69","0","69","NA","NA","NA","69","0","0","NA","NA","69","69","69","69","69","70","/","Tue Oct 17 15:36:31 2023","Executes Python code","yes","m21-ba-lexicalDecision.osexp","C:\Users\ekealey\Desktop","no","mono","no","18","no","white","no","yes","1080","legacy","69","69","C:/Users/ekealey/Desktop/subject-222.csv","xpyriment","Lentiform Loewenfeld","3.3.11","0","/","NA","NA","NA","NA","enter","/","654","NA","NA","NA","NA","47422","654","2","legacy","1024","2","48000","-16","AB_m21","222","even","FILL_W","STALK","1775","357241","355417","351963","49366","NA","NA","NA","NA","NA","355917","NA","NA","NA","354916","NA","354886","1943","357441","NA","NA","NA","355958","1775","1932","NA","NA","356613","356637","354886","355917","355938","morph21_Oliver/Morris","55","59855","70","yes","1920","27"
"400","","77.46478873239437","77.46478873239437","859.9295774647887","859.9295774647887","black","no","xpyriment","legacy","legacy","0","202","NA","uniform","NA","NA","NA","0","undefined","0","0","70","70","70","0","70","70","70","NA","0","70","NA","NA","0","70","NA","70","0","70","NA","NA","NA","70","0","0","NA","NA","70","70","70","70","70","71","/","Tue Oct 17 15:36:31 2023","Executes Python code","yes","m21-ba-lexicalDecision.osexp","C:\Users\ekealey\Desktop","no","mono","no","18","no","white","no","yes","1080","legacy","70","70","C:/Users/ekealey/Desktop/subject-222.csv","xpyriment","Lentiform Loewenfeld","3.3.11","0","None","NA","NA","NA","NA","enter","None","1200","NA","NA","NA","NA","47422","1200","2","legacy","1024","2","48000","-16","AB_m21","222","even","CW_L","CLOUDLESS","1775","361363","358991","351963","49366","NA","NA","NA","NA","NA","359493","NA","NA","NA","358490","NA","358465","1943","361763","NA","NA","NA","359533","1775","1932","NA","NA","360733","360759","358465","359493","359513","morph21_Oliver/Morris","55","61055","71","yes","1920","33"
"350","","77.77777777777777","77.77777777777777","861.2916666666666","861.2916666666666","black","no","xpyriment","legacy","legacy","0","201","NA","uniform","NA","NA","NA","1","undefined","1","0","71","71","71","0","71","71","71","NA","0","71","NA","NA","0","71","NA","71","0","71","NA","NA","NA","71","0","0","NA","NA","71","71","71","71","71","72","/","Tue Oct 17 15:36:31 2023","Executes Python code","yes","m21-ba-lexicalDecision.osexp","C:\Users\ekealey\Desktop","no","mono","no","18","no","white","no","yes","1080","legacy","71","71","C:/Users/ekealey/Desktop/subject-222.csv","xpyriment","Lentiform Loewenfeld","3.3.11","0","/","NA","NA","NA","NA","enter","/","958","NA","NA","NA","NA","47422","958","2","legacy","1024","2","48000","-16","AB_m21","222","even","CW_S","DULLNESS","1775","366971","363338","365465","49366","NA","NA","NA","NA","NA","363838","NA","NA","NA","362837","NA","362805","1943","367321","NA","NA","NA","363878","1775","1932","NA","NA","364837","364861","362805","363838","363858","morph21_Oliver/Morris","56","62013","72","yes","1920","43"
"200","","78.08219178082192","78.08219178082192","863.8219178082192","863.8219178082192","black","no","xpyriment","legacy","legacy","0","201","NA","uniform","NA","NA","NA","1","undefined","1","0","72","72","72","0","72","72","72","NA","0","72","NA","NA","0","72","NA","72","0","72","NA","NA","NA","72","0","0","NA","NA","72","72","72","72","72","73","/","Tue Oct 17 15:36:31 2023","Executes Python code","yes","m21-ba-lexicalDecision.osexp","C:\Users\ekealey\Desktop","no","mono","no","18","no","white","no","yes","1080","legacy","72","72","C:/Users/ekealey/Desktop/subject-222.csv","xpyriment","Lentiform Loewenfeld","3.3.11","0","/","NA","NA","NA","NA","enter","/","1046","NA","NA","NA","NA","47422","1046","2","legacy","1024","2","48000","-16","AB_m21","222","even","CW_S","ENJOYMENT","1775","371111","368897","365465","49366","NA","NA","NA","NA","NA","369397","NA","NA","NA","368396","NA","368366","1943","371311","NA","NA","NA","369438","1775","1932","NA","NA","370485","370508","368365","369397","369418","morph21_Oliver/Morris","57","63059","73","yes","1920","40"
"300","","77.02702702702703","77.02702702702703","861.4459459459459","861.4459459459459","black","no","xpyriment","legacy","legacy","0","206","NA","uniform","NA","NA","NA","0","undefined","0","0","73","73","73","0","73","73","73","NA","0","73","NA","NA","0","73","NA","73","0","73","NA","NA","NA","73","0","0","NA","NA","73","73","73","73","73","74","z","Tue Oct 17 15:36:31 2023","Executes Python code","yes","m21-ba-lexicalDecision.osexp","C:\Users\ekealey\Desktop","no","mono","no","18","no","white","no","yes","1080","legacy","73","73","C:/Users/ekealey/Desktop/subject-222.csv","xpyriment","Lentiform Loewenfeld","3.3.11","0","/","NA","NA","NA","NA","enter","/","688","NA","NA","NA","NA","47422","688","2","legacy","1024","2","48000","-16","AB_m21","222","even","NW_L_SIMP","TAXFUL","1775","374761","372903","365465","49366","NA","NA","NA","NA","NA","373404","NA","NA","NA","372401","NA","372375","1943","375061","NA","NA","NA","373444","1775","1932","NA","NA","374133","374157","372375","373404","373424","morph21_Oliver/Morris","57","63747","74","yes","1920","6"
"400","","77.33333333333333","77.33333333333333","861.3866666666667","861.3866666666667","black","no","xpyriment","legacy","legacy","0","202","NA","uniform","NA","NA","NA","undefined","undefined","1","0","74","74","74","0","74","74","74","NA","0","74","NA","NA","0","74","NA","74","0","74","NA","NA","NA","74","0","0","NA","NA","74","74","74","74","74","75","/","Tue Oct 17 15:36:31 2023","Executes Python code","yes","m21-ba-lexicalDecision.osexp","C:\Users\ekealey\Desktop","no","mono","no","18","no","white","no","yes","1080","legacy","74","74","C:/Users/ekealey/Desktop/subject-222.csv","xpyriment","Lentiform Loewenfeld","3.3.11","0","space","space","NA","NA","NA","enter","/","43383","43383","NA","NA","NA","47422","857","2","legacy","1024","2","48000","-16","AB_m21","222","even","CW_L","STYLISH","1775","380152","376620","378647","49366","380556","NA","NA","NA","NA","377122","NA","NA","NA","376118","NA","376092","1943","423940","NA","NA","NA","377163","1775","1932","NA","NA","378021","378044","376092","377122","377143","morph21_Oliver/Morris","58","64604","75","yes","1920","29"
"400","","77.63157894736842","77.63157894736842","864.9736842105264","864.9736842105264","black","no","xpyriment","legacy","legacy","0","208","NA","uniform","NA","NA","NA","1","undefined","1","0","75","75","75","0","75","75","75","NA","0","75","NA","NA","0","75","NA","75","0","75","NA","NA","NA","75","0","0","NA","NA","75","75","75","75","75","76","z","Tue Oct 17 15:36:31 2023","Executes Python code","yes","m21-ba-lexicalDecision.osexp","C:\Users\ekealey\Desktop","no","mono","no","18","no","white","no","yes","1080","legacy","75","75","C:/Users/ekealey/Desktop/subject-222.csv","xpyriment","Lentiform Loewenfeld","3.3.11","0","z","space","NA","NA","NA","enter","z","1134","43383","NA","NA","NA","47422","1134","2","legacy","1024","2","48000","-16","AB_m21","222","even","FILL_NW","BUTE","1775","427834","425528","378647","49366","380556","NA","NA","NA","NA","426030","NA","NA","NA","425027","NA","425001","1943","428234","NA","NA","NA","426070","1775","1932","NA","NA","427204","427231","425001","426029","426050","morph21_Oliver/Morris","59","65738","76","yes","1920","5"
"300","","76.62337662337663","76.62337662337663","865.2987012987013","865.2987012987013","black","no","xpyriment","legacy","legacy","0","202","NA","uniform","NA","NA","NA","0","undefined","0","0","76","76","76","0","76","76","76","NA","0","76","NA","NA","0","76","NA","76","0","76","NA","NA","NA","76","0","0","NA","NA","76","76","76","76","76","77","/","Tue Oct 17 15:36:31 2023","Executes Python code","yes","m21-ba-lexicalDecision.osexp","C:\Users\ekealey\Desktop","no","mono","no","18","no","white","no","yes","1080","legacy","76","76","C:/Users/ekealey/Desktop/subject-222.csv","xpyriment","Lentiform Loewenfeld","3.3.11","0","z","space","NA","NA","NA","enter","z","890","43383","NA","NA","NA","47422","890","2","legacy","1024","2","48000","-16","AB_m21","222","even","CW_L","WEEDY","1775","431840","429781","378647","49366","380556","NA","NA","NA","NA","430281","NA","NA","NA","429281","NA","429251","1943","432140","NA","NA","NA","430322","1775","1932","NA","NA","431213","431237","429251","430281","430302","morph21_Oliver/Morris","59","66628","77","yes","1920","48"
"200","","76.92307692307692","76.92307692307692","862.5769230769231","862.5769230769231","black","no","xpyriment","legacy","legacy","0","207","NA","uniform","NA","NA","NA","1","undefined","1","0","77","77","77","0","77","77","77","NA","0","77","NA","NA","0","77","NA","77","0","77","NA","NA","NA","77","0","0","NA","NA","77","77","77","77","77","78","/","Tue Oct 17 15:36:31 2023","Executes Python code","yes","m21-ba-lexicalDecision.osexp","C:\Users\ekealey\Desktop","no","mono","no","18","no","white","no","yes","1080","legacy","77","77","C:/Users/ekealey/Desktop/subject-222.csv","xpyriment","Lentiform Loewenfeld","3.3.11","0","/","space","NA","NA","NA","enter","/","653","43383","NA","NA","NA","47422","653","2","legacy","1024","2","48000","-16","AB_m21","222","even","FILL_W","BRASS","1775","437047","433721","435544","49366","380556","NA","NA","NA","NA","434222","NA","NA","NA","433219","NA","433194","1943","437247","NA","NA","NA","434263","1775","1932","NA","NA","434917","434940","433194","434222","434243","morph21_Oliver/Morris","60","67281","78","yes","1920","10"
"250","","77.21518987341773","77.21518987341773","857.7974683544304","857.7974683544304","black","no","xpyriment","legacy","legacy","0","207","NA","uniform","NA","NA","NA","1","undefined","1","0","78","78","78","0","78","78","78","NA","0","78","NA","NA","0","78","NA","78","0","78","NA","NA","NA","78","0","0","NA","NA","78","78","78","78","78","79","/","Tue Oct 17 15:36:31 2023","Executes Python code","yes","m21-ba-lexicalDecision.osexp","C:\Users\ekealey\Desktop","no","mono","no","18","no","white","no","yes","1080","legacy","78","78","C:/Users/ekealey/Desktop/subject-222.csv","xpyriment","Lentiform Loewenfeld","3.3.11","0","/","space","NA","NA","NA","enter","/","485","43383","NA","NA","NA","47422","485","2","legacy","1024","2","48000","-16","AB_m21","222","even","FILL_W","SMOKE","1775","440458","438802","435544","49366","380556","NA","NA","NA","NA","439303","NA","NA","NA","438302","NA","438270","1943","440708","NA","NA","NA","439343","1775","1932","NA","NA","439829","439852","438270","439303","439323","morph21_Oliver/Morris","61","67766","79","yes","1920","50"
"250","","77.5","77.5","856.9875","856.9875","black","no","xpyriment","legacy","legacy","0","204","NA","uniform","NA","NA","NA","1","undefined","1","0","79","79","79","0","79","79","79","NA","0","79","NA","NA","0","79","NA","79","0","79","NA","NA","NA","79","0","0","NA","NA","79","79","79","79","79","80","z","Tue Oct 17 15:36:31 2023","Executes Python code","yes","m21-ba-lexicalDecision.osexp","C:\Users\ekealey\Desktop","no","mono","no","18","no","white","no","yes","1080","legacy","79","79","C:/Users/ekealey/Desktop/subject-222.csv","xpyriment","Lentiform Loewenfeld","3.3.11","0","z","space","NA","NA","NA","enter","z","793","43383","NA","NA","NA","47422","793","2","legacy","1024","2","48000","-16","AB_m21","222","even","NW_L_COMP","BREAKIDY","1775","444239","442278","435544","49366","380556","NA","NA","NA","NA","442778","NA","NA","NA","441777","NA","441748","1943","444490","NA","NA","NA","442819","1775","1932","NA","NA","443613","443636","441748","442778","442799","morph21_Oliver/Morris","62","68559","80","yes","1920","23"
"400","","77.77777777777777","77.77777777777777","852.4320987654321","852.4320987654321","black","no","xpyriment","legacy","legacy","0","202","NA","uniform","NA","NA","NA","1","undefined","1","0","80","80","80","0","80","80","80","NA","0","80","NA","NA","0","80","NA","80","0","80","NA","NA","NA","80","0","0","NA","NA","80","80","80","80","80","81","/","Tue Oct 17 15:36:31 2023","Executes Python code","yes","m21-ba-lexicalDecision.osexp","C:\Users\ekealey\Desktop","no","mono","no","18","no","white","no","yes","1080","legacy","80","80","C:/Users/ekealey/Desktop/subject-222.csv","xpyriment","Lentiform Loewenfeld","3.3.11","0","/","space","NA","NA","NA","enter","/","488","43383","NA","NA","NA","47422","488","2","legacy","1024","2","48000","-16","AB_m21","222","even","CW_L","SHAPELY","1775","449199","446039","447696","49366","380556","NA","NA","NA","NA","446539","NA","NA","NA","445538","NA","445510","1943","449600","NA","NA","NA","446580","1775","1932","NA","NA","447069","447093","445510","446539","446560","morph21_Oliver/Morris","63","69047","81","yes","1920","35"
"350","","78.04878048780488","78.04878048780488","849.7560975609756","849.7560975609756","black","no","xpyriment","legacy","legacy","0","201","NA","uniform","NA","NA","NA","1","undefined","1","0","81","81","81","0","81","81","81","NA","0","81","NA","NA","0","81","NA","81","0","81","NA","NA","NA","81","0","0","NA","NA","81","81","81","81","81","82","/","Tue Oct 17 15:36:31 2023","Executes Python code","yes","m21-ba-lexicalDecision.osexp","C:\Users\ekealey\Desktop","no","mono","no","18","no","white","no","yes","1080","legacy","81","81","C:/Users/ekealey/Desktop/subject-222.csv","xpyriment","Lentiform Loewenfeld","3.3.11","0","/","space","NA","NA","NA","enter","/","633","43383","NA","NA","NA","47422","633","2","legacy","1024","2","48000","-16","AB_m21","222","even","CW_S","LENDER","1775","452953","451150","447696","49366","380556","NA","NA","NA","NA","451651","NA","NA","NA","450650","NA","450617","1943","453303","NA","NA","NA","451691","1775","1932","NA","NA","452325","452348","450617","451650","451671","morph21_Oliver/Morris","64","69680","82","yes","1920","11"
"200","","78.3132530120482","78.3132530120482","845.4939759036145","845.4939759036145","black","no","xpyriment","legacy","legacy","0","202","NA","uniform","NA","NA","NA","1","undefined","1","0","82","82","82","0","82","82","82","NA","0","82","NA","NA","0","82","NA","82","0","82","NA","NA","NA","82","0","0","NA","NA","82","82","82","82","82","83","/","Tue Oct 17 15:36:31 2023","Executes Python code","yes","m21-ba-lexicalDecision.osexp","C:\Users\ekealey\Desktop","no","mono","no","18","no","white","no","yes","1080","legacy","82","82","C:/Users/ekealey/Desktop/subject-222.csv","xpyriment","Lentiform Loewenfeld","3.3.11","0","/","space","NA","NA","NA","enter","/","496","43383","NA","NA","NA","47422","496","2","legacy","1024","2","48000","-16","AB_m21","222","even","CW_L","SHAMEFUL","1775","456530","454862","447696","49366","380556","NA","NA","NA","NA","455364","NA","NA","NA","454360","NA","454335","1943","456730","NA","NA","NA","455404","1775","1932","NA","NA","455901","455926","454335","455364","455384","morph21_Oliver/Morris","65","70176","83","yes","1920","19"
"200","","78.57142857142857","78.57142857142857","841.4166666666666","841.4166666666666","black","no","xpyriment","legacy","legacy","0","202","NA","uniform","NA","NA","NA","1","undefined","1","0","83","83","83","0","83","83","83","NA","0","83","NA","NA","0","83","NA","83","0","83","NA","NA","NA","83","0","0","NA","NA","83","83","83","83","83","84","/","Tue Oct 17 15:36:31 2023","Executes Python code","yes","m21-ba-lexicalDecision.osexp","C:\Users\ekealey\Desktop","no","mono","no","18","no","white","no","yes","1080","legacy","83","83","C:/Users/ekealey/Desktop/subject-222.csv","xpyriment","Lentiform Loewenfeld","3.3.11","0","/","space","NA","NA","NA","enter","/","503","43383","NA","NA","NA","47422","503","2","legacy","1024","2","48000","-16","AB_m21","222","even","CW_L","VERBAL","1775","461454","458279","459951","49366","380556","NA","NA","NA","NA","458779","NA","NA","NA","457779","NA","457751","1943","461655","NA","NA","NA","458820","1775","1932","NA","NA","459324","459348","457751","458779","458800","morph21_Oliver/Morris","66","70679","84","yes","1920","50"
"200","","78.82352941176471","78.82352941176471","839.6823529411764","839.6823529411764","black","no","xpyriment","legacy","legacy","0","204","NA","uniform","NA","NA","NA","1","undefined","1","0","84","84","84","0","84","84","84","NA","0","84","NA","NA","0","84","NA","84","0","84","NA","NA","NA","84","0","0","NA","NA","84","84","84","84","84","85","z","Tue Oct 17 15:36:31 2023","Executes Python code","yes","m21-ba-lexicalDecision.osexp","C:\Users\ekealey\Desktop","no","mono","no","18","no","white","no","yes","1080","legacy","84","84","C:/Users/ekealey/Desktop/subject-222.csv","xpyriment","Lentiform Loewenfeld","3.3.11","0","z","space","NA","NA","NA","enter","z","694","43383","NA","NA","NA","47422","694","2","legacy","1024","2","48000","-16","AB_m21","222","even","NW_L_COMP","GASFIL","1775","465079","463217","459951","49366","380556","NA","NA","NA","NA","463717","NA","NA","NA","462717","NA","462686","1943","465279","NA","NA","NA","463758","1775","1932","NA","NA","464453","464476","462686","463717","463738","morph21_Oliver/Morris","67","71373","85","yes","1920","6"
"350","","79.06976744186046","79.06976744186046","837.453488372093","837.453488372093","black","no","xpyriment","legacy","legacy","0","204","NA","uniform","NA","NA","NA","1","undefined","1","0","85","85","85","0","85","85","85","NA","0","85","NA","NA","0","85","NA","85","0","85","NA","NA","NA","85","0","0","NA","NA","85","85","85","85","85","86","z","Tue Oct 17 15:36:31 2023","Executes Python code","yes","m21-ba-lexicalDecision.osexp","C:\Users\ekealey\Desktop","no","mono","no","18","no","white","no","yes","1080","legacy","85","85","C:/Users/ekealey/Desktop/subject-222.csv","xpyriment","Lentiform Loewenfeld","3.3.11","0","z","space","NA","NA","NA","enter","z","648","43383","NA","NA","NA","47422","648","2","legacy","1024","2","48000","-16","AB_m21","222","even","NW_L_COMP","INKILM","1775","468659","466838","459951","49366","380556","NA","NA","NA","NA","467338","NA","NA","NA","466338","NA","466309","1943","469009","NA","NA","NA","467379","1775","1932","NA","NA","468028","468054","466309","467338","467359","morph21_Oliver/Morris","68","72021","86","yes","1920","8"
"300","","79.3103448275862","79.3103448275862","836.5747126436781","836.5747126436781","black","no","xpyriment","legacy","legacy","0","208","NA","uniform","NA","NA","NA","1","undefined","1","0","86","86","86","0","86","86","86","NA","0","86","NA","NA","0","86","NA","86","0","86","NA","NA","NA","86","0","0","NA","NA","86","86","86","86","86","87","z","Tue Oct 17 15:36:31 2023","Executes Python code","yes","m21-ba-lexicalDecision.osexp","C:\Users\ekealey\Desktop","no","mono","no","18","no","white","no","yes","1080","legacy","86","86","C:/Users/ekealey/Desktop/subject-222.csv","xpyriment","Lentiform Loewenfeld","3.3.11","0","z","space","NA","NA","NA","enter","z","761","43383","NA","NA","NA","47422","761","2","legacy","1024","2","48000","-16","AB_m21","222","even","FILL_NW","TREMP","1775","474024","470588","472520","49366","380556","NA","NA","NA","NA","471090","NA","NA","NA","470087","NA","470062","1943","474324","NA","NA","NA","471130","1775","1932","NA","NA","471892","471917","470062","471090","471110","morph21_Oliver/Morris","69","72782","87","yes","1920","20"
"250","","79.54545454545455","79.54545454545455","832.7045454545455","832.7045454545455","black","no","xpyriment","legacy","legacy","0","207","NA","uniform","NA","NA","NA","1","undefined","1","0","87","87","87","0","87","87","87","NA","0","87","NA","NA","0","87","NA","87","0","87","NA","NA","NA","87","0","0","NA","NA","87","87","87","87","87","88","/","Tue Oct 17 15:36:31 2023","Executes Python code","yes","m21-ba-lexicalDecision.osexp","C:\Users\ekealey\Desktop","no","mono","no","18","no","white","no","yes","1080","legacy","87","87","C:/Users/ekealey/Desktop/subject-222.csv","xpyriment","Lentiform Loewenfeld","3.3.11","0","/","space","NA","NA","NA","enter","/","496","43383","NA","NA","NA","47422","496","2","legacy","1024","2","48000","-16","AB_m21","222","even","FILL_W","PREACH","1775","477536","475871","472520","49366","380556","NA","NA","NA","NA","476371","NA","NA","NA","475371","NA","475340","1943","477786","NA","NA","NA","476412","1775","1932","NA","NA","476909","476933","475340","476371","476392","morph21_Oliver/Morris","70","73278","88","yes","1920","7"
"200","","79.7752808988764","79.7752808988764","832.2471910112359","832.2471910112359","black","no","xpyriment","legacy","legacy","0","208","NA","uniform","NA","NA","NA","1","undefined","1","0","88","88","88","0","88","88","88","NA","0","88","NA","NA","0","88","NA","88","0","88","NA","NA","NA","88","0","0","NA","NA","88","88","88","88","88","89","z","Tue Oct 17 15:36:31 2023","Executes Python code","yes","m21-ba-lexicalDecision.osexp","C:\Users\ekealey\Desktop","no","mono","no","18","no","white","no","yes","1080","legacy","88","88","C:/Users/ekealey/Desktop/subject-222.csv","xpyriment","Lentiform Loewenfeld","3.3.11","0","z","space","NA","NA","NA","enter","z","792","43383","NA","NA","NA","47422","792","2","legacy","1024","2","48000","-16","AB_m21","222","even","FILL_NW","BLAYS","1775","481289","479327","472520","49366","380556","NA","NA","NA","NA","479828","NA","NA","NA","478826","NA","478798","1943","481489","NA","NA","NA","479868","1775","1932","NA","NA","480661","480684","478798","479828","479848","morph21_Oliver/Morris","71","74070","89","yes","1920","8"
"400","","80","80","829.2","829.2","black","no","xpyriment","legacy","legacy","0","208","NA","uniform","NA","NA","NA","1","undefined","1","0","89","89","89","0","89","89","89","NA","0","89","NA","NA","0","89","NA","89","0","89","NA","NA","NA","89","0","0","NA","NA","89","89","89","89","89","90","z","Tue Oct 17 15:36:31 2023","Executes Python code","yes","m21-ba-lexicalDecision.osexp","C:\Users\ekealey\Desktop","no","mono","no","18","no","white","no","yes","1080","legacy","89","89","C:/Users/ekealey/Desktop/subject-222.csv","xpyriment","Lentiform Loewenfeld","3.3.11","0","z","space","NA","NA","NA","enter","z","558","43383","NA","NA","NA","47422","558","2","legacy","1024","2","48000","-16","AB_m21","222","even","FILL_NW","SOISE","1775","486264","483032","484761","49366","380556","NA","NA","NA","NA","483533","NA","NA","NA","482531","NA","482504","1943","486664","NA","NA","NA","483573","1775","1932","NA","NA","484132","484157","482504","483533","483553","morph21_Oliver/Morris","72","74628","90","yes","1920","43"
"200","","80.21978021978022","80.21978021978022","828.3516483516484","828.3516483516484","black","no","xpyriment","legacy","legacy","0","208","NA","uniform","NA","NA","NA","1","undefined","1","0","90","90","90","0","90","90","90","NA","0","90","NA","NA","0","90","NA","90","0","90","NA","NA","NA","90","0","0","NA","NA","90","90","90","90","90","91","z","Tue Oct 17 15:36:31 2023","Executes Python code","yes","m21-ba-lexicalDecision.osexp","C:\Users\ekealey\Desktop","no","mono","no","18","no","white","no","yes","1080","legacy","90","90","C:/Users/ekealey/Desktop/subject-222.csv","xpyriment","Lentiform Loewenfeld","3.3.11","0","z","space","NA","NA","NA","enter","z","752","43383","NA","NA","NA","47422","752","2","legacy","1024","2","48000","-16","AB_m21","222","even","FILL_NW","VUNKS","1775","490169","488247","484761","49366","380556","NA","NA","NA","NA","488747","NA","NA","NA","487747","NA","487721","1943","490369","NA","NA","NA","488788","1775","1932","NA","NA","489541","489565","487721","488747","488768","morph21_Oliver/Morris","73","75380","91","yes","1920","49"
