"ITI","acc","accuracy","average_response_time","avg_rt","background","bidi","canvas_backend","clock_backend","color_backend","compensation","cond_trig","condtrigtime","coordinates","coroutines_cycles","coroutines_duration","coroutines_mean_cycle_duration","correct","correct_instructions_1","correct_new_keyboard_response_1","count_AB_m21","count_ITI","count_blank_screen","count_blink_screen","count_block1","count_break1","count_break2","count_break3_1","count_canvas","count_correct_trigger","count_def_chain","count_end_screen","count_fixation_1","count_getting_started","count_inc_counter","count_incorrect_trigger","count_instructions_1","count_logger","count_logscript","count_new_coroutines","count_new_inline_script","count_new_keyboard_response_1","count_reset_counter_prep","count_reset_counter_run","count_responsescreen","count_sequence","count_start_trigger","count_target_present","count_word_trigger","counter","cresp","datetime","description","disable_garbage_collection","experiment_file","experiment_path","font_bold","font_family","font_italic","font_size","font_underline","foreground","form_clicks","fullscreen","height","keyboard_backend","live_row","live_row_block1","logfile","mouse_backend","opensesame_codename","opensesame_version","repeat_cycle","response","response_break1","response_break2","response_break3_1","response_end_screen","response_instructions_1","response_new_keyboard_response_1","response_time","response_time_break1","response_time_break2","response_time_break3_1","response_time_end_screen","response_time_instructions_1","response_time_new_keyboard_response_1","round_decimals","sampler_backend","sound_buf_size","sound_channels","sound_freq","sound_sample_size","start","subject_nr","subject_parity","targ_type","target","time_AB_m21","time_ITI","time_blank_screen","time_blink_screen","time_block1","time_break1","time_break2","time_break3_1","time_canvas","time_correct_trigger","time_def_chain","time_end_screen","time_fixation_1","time_getting_started","time_inc_counter","time_incorrect_trigger","time_instructions_1","time_logger","time_logscript","time_new_inline_script","time_new_keyboard_response_1","time_reset_counter_prep","time_reset_counter_run","time_responsescreen","time_sequence","time_start_trigger","time_target_present","time_word_trigger","title","total_correct","total_response_time","total_responses","uniform_coordinates","width","word_trig"
"200","0","0","993","993","black","no","xpyriment","legacy","legacy","0","208","NA","uniform","52544","1000","0.0190316686967","0","undefined","0","0","0","0","0","0","0","0","0","NA","0","0","0","0","NA","0","0","0","0","NA","0","NA","0","0","0","0","0","0","0","0","1","z","02/21/19 17:48:25","The main experiment item","yes","FIN__AB__M21__7%3A10%3A17.osexp","C:\Users\ERP Testing Room\Desktop\Joanna\morph21","no","mono","no","18","no","white","no","yes","1080","legacy","0","0","C:/Users/ERP Testing Room/Desktop/Joanna/morph21/subject-160.csv","xpyriment","Kafkaesque Koffka","3.2.5","0","None","NA","NA","NA","NA","space","None","993","NA","NA","NA","NA","174712","993","2","legacy","1024","2","48000","-16","AB_m21","160","even","FILL_NW","DARM","1865","179497","177839","NA","176587","NA","NA","NA","NA","NA","178336","NA","177331","NA","177254","179490","1874","179697","NA","NA","178497","1865","1865","178889","177254","1865","178497","179697","morph21_Oliver/Morris","0","993","1","yes","1280","11"
"300","50","50","844.5","844.5","black","no","xpyriment","legacy","legacy","0","205","NA","uniform","65758","1000","0.0152072751604","1","undefined","1","0","1","1","1","0","1","1","1","NA","1","1","0","1","NA","1","1","0","1","NA","1","NA","1","0","0","1","1","0","1","1","2","z","02/21/19 17:48:25","The main experiment item","yes","FIN__AB__M21__7%3A10%3A17.osexp","C:\Users\ERP Testing Room\Desktop\Joanna\morph21","no","mono","no","18","no","white","no","yes","1080","legacy","1","1","C:/Users/ERP Testing Room/Desktop/Joanna/morph21/subject-160.csv","xpyriment","Kafkaesque Koffka","3.2.5","0","z","NA","NA","NA","NA","space","z","696","NA","NA","NA","NA","174712","696","2","legacy","1024","2","48000","-16","AB_m21","160","even","NW_S_SIMP","TILTADY","1865","182556","180905","NA","176587","NA","NA","NA","NA","182550","181402","NA","180405","NA","180396","182550","1874","182856","NA","NA","181555","1865","1865","181948","180396","1865","181555","182856","morph21_Oliver/Morris","1","1689","2","yes","1280","17"
"200","66.6666666667","66.6666666667","851.333333333","851.333333333","black","no","xpyriment","legacy","legacy","0","207","NA","uniform","54969","1000","0.0181920718951","1","undefined","1","0","2","2","2","0","2","2","2","NA","2","2","0","2","NA","2","2","0","2","NA","2","NA","2","0","0","2","2","0","2","2","3","/","02/21/19 17:48:25","The main experiment item","yes","FIN__AB__M21__7%3A10%3A17.osexp","C:\Users\ERP Testing Room\Desktop\Joanna\morph21","no","mono","no","18","no","white","no","yes","1080","legacy","2","2","C:/Users/ERP Testing Room/Desktop/Joanna/morph21/subject-160.csv","xpyriment","Kafkaesque Koffka","3.2.5","0","/","NA","NA","NA","NA","space","/","865","NA","NA","NA","NA","174712","865","2","legacy","1024","2","48000","-16","AB_m21","160","even","FILL_W","STALK","1865","187207","184006","185698","176587","NA","NA","NA","NA","185689","184504","NA","183506","NA","183498","185689","1874","187407","NA","NA","184698","1865","1865","185090","183498","1865","184698","187407","morph21_Oliver/Morris","2","2554","3","yes","1280","27"
"250","75","75","867.5","867.5","black","no","xpyriment","legacy","legacy","0","204","NA","uniform","57921","1000","0.0172648952884","1","undefined","1","0","3","3","3","0","3","3","3","NA","3","3","0","3","NA","3","3","0","3","NA","3","NA","3","0","0","3","3","0","3","3","4","z","02/21/19 17:48:25","The main experiment item","yes","FIN__AB__M21__7%3A10%3A17.osexp","C:\Users\ERP Testing Room\Desktop\Joanna\morph21","no","mono","no","18","no","white","no","yes","1080","legacy","3","3","C:/Users/ERP Testing Room/Desktop/Joanna/morph21/subject-160.csv","xpyriment","Kafkaesque Koffka","3.2.5","0","z","NA","NA","NA","NA","space","z","916","NA","NA","NA","NA","174712","916","2","legacy","1024","2","48000","-16","AB_m21","160","even","NW_L_COMP","MUDLY","1865","190173","188473","185698","176587","NA","NA","NA","NA","190170","188970","NA","187973","NA","187968","190170","1874","190423","NA","NA","189182","1865","1865","189573","187968","1865","189182","190423","morph21_Oliver/Morris","3","3470","4","yes","1280","12"
"350","60","60","892.8","892.8","black","no","xpyriment","legacy","legacy","0","207","NA","uniform","50222","1000","0.0199115925292","0","undefined","0","0","4","4","4","0","4","4","4","NA","4","4","0","4","NA","4","4","0","4","NA","4","NA","4","0","0","4","4","0","4","4","5","/","02/21/19 17:48:25","The main experiment item","yes","FIN__AB__M21__7%3A10%3A17.osexp","C:\Users\ERP Testing Room\Desktop\Joanna\morph21","no","mono","no","18","no","white","no","yes","1080","legacy","4","4","C:/Users/ERP Testing Room/Desktop/Joanna/morph21/subject-160.csv","xpyriment","Kafkaesque Koffka","3.2.5","0","None","NA","NA","NA","NA","space","None","994","NA","NA","NA","NA","174712","994","2","legacy","1024","2","48000","-16","AB_m21","160","even","FILL_W","FAINT","1865","193165","191507","185698","176587","NA","NA","NA","NA","190170","192004","NA","191007","NA","191000","193159","1874","193515","NA","NA","192165","1865","1865","192557","191000","1865","192165","193515","morph21_Oliver/Morris","3","4464","5","yes","1280","31"
"300","66.6666666667","66.6666666667","876.166666667","876.166666667","black","no","xpyriment","legacy","legacy","0","207","NA","uniform","59145","1000","0.0169075999662","1","undefined","1","0","5","5","5","0","5","5","5","NA","5","5","0","5","NA","5","5","0","5","NA","5","NA","5","0","0","5","5","0","5","5","6","/","02/21/19 17:48:25","The main experiment item","yes","FIN__AB__M21__7%3A10%3A17.osexp","C:\Users\ERP Testing Room\Desktop\Joanna\morph21","no","mono","no","18","no","white","no","yes","1080","legacy","5","5","C:/Users/ERP Testing Room/Desktop/Joanna/morph21/subject-160.csv","xpyriment","Kafkaesque Koffka","3.2.5","0","/","NA","NA","NA","NA","space","/","793","NA","NA","NA","NA","174712","793","2","legacy","1024","2","48000","-16","AB_m21","160","even","FILL_W","BOX","1865","197957","194740","196449","176587","NA","NA","NA","NA","196438","195237","NA","194240","NA","194232","196438","1874","198257","NA","NA","195449","1865","1865","195840","194231","1865","195449","198257","morph21_Oliver/Morris","4","5257","6","yes","1280","42"
"350","57.1428571429","57.1428571429","892.857142857","892.857142857","black","no","xpyriment","legacy","legacy","0","205","NA","uniform","51145","1000","0.0195522533972","0","undefined","0","0","6","6","6","0","6","6","6","NA","6","6","0","6","NA","6","6","0","6","NA","6","NA","6","0","0","6","6","0","6","6","7","z","02/21/19 17:48:25","The main experiment item","yes","FIN__AB__M21__7%3A10%3A17.osexp","C:\Users\ERP Testing Room\Desktop\Joanna\morph21","no","mono","no","18","no","white","no","yes","1080","legacy","6","6","C:/Users/ERP Testing Room/Desktop/Joanna/morph21/subject-160.csv","xpyriment","Kafkaesque Koffka","3.2.5","0","None","NA","NA","NA","NA","space","None","993","NA","NA","NA","NA","174712","993","2","legacy","1024","2","48000","-16","AB_m21","160","even","NW_S_SIMP","ACREMANT","1865","201108","199408","196449","176587","NA","NA","NA","NA","196438","199905","NA","198907","NA","198900","201101","1874","201458","NA","NA","200108","1865","1865","200500","198900","1865","200108","201458","morph21_Oliver/Morris","4","6250","7","yes","1280","16"
"350","62.5","62.5","883.375","883.375","black","no","xpyriment","legacy","legacy","0","206","NA","uniform","56817","1000","0.0176003660876","1","undefined","1","0","7","7","7","0","7","7","7","NA","7","7","0","7","NA","7","7","0","7","NA","7","NA","7","0","0","7","7","0","7","7","8","z","02/21/19 17:48:25","The main experiment item","yes","FIN__AB__M21__7%3A10%3A17.osexp","C:\Users\ERP Testing Room\Desktop\Joanna\morph21","no","mono","no","18","no","white","no","yes","1080","legacy","7","7","C:/Users/ERP Testing Room/Desktop/Joanna/morph21/subject-160.csv","xpyriment","Kafkaesque Koffka","3.2.5","0","z","NA","NA","NA","NA","space","z","817","NA","NA","NA","NA","174712","817","2","legacy","1024","2","48000","-16","AB_m21","160","even","NW_L_SIMP","HABITIG","1865","204233","202575","196449","176587","NA","NA","NA","NA","204230","203072","NA","202075","NA","202067","204230","1874","204583","NA","NA","203242","1865","1865","203633","202067","1865","203242","204583","morph21_Oliver/Morris","5","7067","8","yes","1280","7"
"350","66.6666666667","66.6666666667","862.333333333","862.333333333","black","no","xpyriment","legacy","legacy","0","202","NA","uniform","61441","1000","0.0162757767614","1","undefined","1","0","8","8","8","0","8","8","8","NA","8","8","0","8","NA","8","8","0","8","NA","8","NA","8","0","0","8","8","0","8","8","9","/","02/21/19 17:48:25","The main experiment item","yes","FIN__AB__M21__7%3A10%3A17.osexp","C:\Users\ERP Testing Room\Desktop\Joanna\morph21","no","mono","no","18","no","white","no","yes","1080","legacy","8","8","C:/Users/ERP Testing Room/Desktop/Joanna/morph21/subject-160.csv","xpyriment","Kafkaesque Koffka","3.2.5","0","/","NA","NA","NA","NA","space","/","694","NA","NA","NA","NA","174712","694","2","legacy","1024","2","48000","-16","AB_m21","160","even","CW_L","PAINTER","1865","209000","205758","207492","176587","NA","NA","NA","NA","207481","206256","NA","205258","NA","205254","207481","1874","209350","NA","NA","206492","1865","1865","206883","205254","1865","206492","209350","morph21_Oliver/Morris","6","7761","9","yes","1280","18"
"200","70","70","841.9","841.9","black","no","xpyriment","legacy","legacy","0","208","NA","uniform","64627","1000","0.0154734089467","1","undefined","1","0","9","9","9","0","9","9","9","NA","9","9","0","9","NA","9","9","0","9","NA","9","NA","9","0","0","9","9","0","9","9","10","z","02/21/19 17:48:25","The main experiment item","yes","FIN__AB__M21__7%3A10%3A17.osexp","C:\Users\ERP Testing Room\Desktop\Joanna\morph21","no","mono","no","18","no","white","no","yes","1080","legacy","9","9","C:/Users/ERP Testing Room/Desktop/Joanna/morph21/subject-160.csv","xpyriment","Kafkaesque Koffka","3.2.5","0","z","NA","NA","NA","NA","space","z","658","NA","NA","NA","NA","174712","658","2","legacy","1024","2","48000","-16","AB_m21","160","even","FILL_NW","SMADE","1865","212192","210525","207492","176587","NA","NA","NA","NA","212187","211022","NA","210025","NA","210016","212187","1874","212392","NA","NA","211192","1865","1865","211592","210016","1865","211192","212392","morph21_Oliver/Morris","7","8419","10","yes","1280","42"
"350","72.7272727273","72.7272727273","838.818181818","838.818181818","black","no","xpyriment","legacy","legacy","0","207","NA","uniform","55744","1000","0.0179391504018","1","undefined","1","0","10","10","10","0","10","10","10","NA","10","10","0","10","NA","10","10","0","10","NA","10","NA","10","0","0","10","10","0","10","10","11","/","02/21/19 17:48:25","The main experiment item","yes","FIN__AB__M21__7%3A10%3A17.osexp","C:\Users\ERP Testing Room\Desktop\Joanna\morph21","no","mono","no","18","no","white","no","yes","1080","legacy","10","10","C:/Users/ERP Testing Room/Desktop/Joanna/morph21/subject-160.csv","xpyriment","Kafkaesque Koffka","3.2.5","0","/","NA","NA","NA","NA","space","/","808","NA","NA","NA","NA","174712","808","2","legacy","1024","2","48000","-16","AB_m21","160","even","FILL_W","LEAK","1865","215426","213725","207492","176587","NA","NA","NA","NA","215415","214223","NA","213225","NA","213219","215415","1874","215776","NA","NA","214426","1865","1865","214817","213219","1865","214425","215776","morph21_Oliver/Morris","8","9227","11","yes","1280","9"
"350","75","75","818.75","818.75","black","no","xpyriment","legacy","legacy","0","202","NA","uniform","53158","1000","0.0188118439369","1","undefined","1","0","11","11","11","0","11","11","11","NA","11","11","0","11","NA","11","11","0","11","NA","11","NA","11","0","0","11","11","0","11","11","12","/","02/21/19 17:48:25","The main experiment item","yes","FIN__AB__M21__7%3A10%3A17.osexp","C:\Users\ERP Testing Room\Desktop\Joanna\morph21","no","mono","no","18","no","white","no","yes","1080","legacy","11","11","C:/Users/ERP Testing Room/Desktop/Joanna/morph21/subject-160.csv","xpyriment","Kafkaesque Koffka","3.2.5","0","/","NA","NA","NA","NA","space","/","598","NA","NA","NA","NA","174712","598","2","legacy","1024","2","48000","-16","AB_m21","160","even","CW_L","GUARDING","1865","220202","216968","218693","176587","NA","NA","NA","NA","218684","217465","NA","216467","NA","216463","218684","1874","220552","NA","NA","217693","1865","1865","218085","216463","1865","217693","220552","morph21_Oliver/Morris","9","9825","12","yes","1280","26"
"250","76.9230769231","76.9230769231","800.307692308","800.307692308","black","no","xpyriment","legacy","legacy","0","201","NA","uniform","64302","1000","0.0155516158129","1","undefined","1","0","12","12","12","0","12","12","12","NA","12","12","0","12","NA","12","12","0","12","NA","12","NA","12","0","0","12","12","0","12","12","13","/","02/21/19 17:48:25","The main experiment item","yes","FIN__AB__M21__7%3A10%3A17.osexp","C:\Users\ERP Testing Room\Desktop\Joanna\morph21","no","mono","no","18","no","white","no","yes","1080","legacy","12","12","C:/Users/ERP Testing Room/Desktop/Joanna/morph21/subject-160.csv","xpyriment","Kafkaesque Koffka","3.2.5","0","/","NA","NA","NA","NA","space","/","579","NA","NA","NA","NA","174712","579","2","legacy","1024","2","48000","-16","AB_m21","160","even","CW_S","MILDNESS","1865","223352","221668","218693","176587","NA","NA","NA","NA","223344","222166","NA","221168","NA","221164","223344","1874","223602","NA","NA","222352","1865","1865","222743","221164","1865","222352","223602","morph21_Oliver/Morris","10","10404","13","yes","1280","42"
"250","78.5714285714","78.5714285714","783.357142857","783.357142857","black","no","xpyriment","legacy","legacy","0","201","NA","uniform","64057","1000","0.0156110963673","1","undefined","1","0","13","13","13","0","13","13","13","NA","13","13","0","13","NA","13","13","0","13","NA","13","NA","13","0","0","13","13","0","13","13","14","/","02/21/19 17:48:25","The main experiment item","yes","FIN__AB__M21__7%3A10%3A17.osexp","C:\Users\ERP Testing Room\Desktop\Joanna\morph21","no","mono","no","18","no","white","no","yes","1080","legacy","13","13","C:/Users/ERP Testing Room/Desktop/Joanna/morph21/subject-160.csv","xpyriment","Kafkaesque Koffka","3.2.5","0","/","NA","NA","NA","NA","space","/","563","NA","NA","NA","NA","174712","563","2","legacy","1024","2","48000","-16","AB_m21","160","even","CW_S","PEAKING","1865","226552","224885","218693","176587","NA","NA","NA","NA","226547","225382","NA","224385","NA","224377","226547","1874","226802","NA","NA","225552","1865","1865","225952","224377","1865","225552","226802","morph21_Oliver/Morris","11","10967","14","yes","1280","28"
"250","80","80","779.6","779.6","black","no","xpyriment","legacy","legacy","0","203","NA","uniform","61815","1000","0.0161773032435","1","undefined","1","0","14","14","14","0","14","14","14","NA","14","14","0","14","NA","14","14","0","14","NA","14","NA","14","0","0","14","14","0","14","14","15","z","02/21/19 17:48:25","The main experiment item","yes","FIN__AB__M21__7%3A10%3A17.osexp","C:\Users\ERP Testing Room\Desktop\Joanna\morph21","no","mono","no","18","no","white","no","yes","1080","legacy","14","14","C:/Users/ERP Testing Room/Desktop/Joanna/morph21/subject-160.csv","xpyriment","Kafkaesque Koffka","3.2.5","0","z","NA","NA","NA","NA","space","z","727","NA","NA","NA","NA","174712","727","2","legacy","1024","2","48000","-16","AB_m21","160","even","NW_S_COMP","LIDARY","1865","231127","227944","229619","176587","NA","NA","NA","NA","229611","228441","NA","227444","NA","227436","229611","1874","231377","NA","NA","228619","1865","1865","229010","227436","1865","228619","231377","morph21_Oliver/Morris","12","11694","15","yes","1280","3"
"200","81.25","81.25","787.6875","787.6875","black","no","xpyriment","legacy","legacy","0","208","NA","uniform","56153","1000","0.0178084875252","1","undefined","1","0","15","15","15","0","15","15","15","NA","15","15","0","15","NA","15","15","0","15","NA","15","NA","15","0","0","15","15","0","15","15","16","z","02/21/19 17:48:25","The main experiment item","yes","FIN__AB__M21__7%3A10%3A17.osexp","C:\Users\ERP Testing Room\Desktop\Joanna\morph21","no","mono","no","18","no","white","no","yes","1080","legacy","15","15","C:/Users/ERP Testing Room/Desktop/Joanna/morph21/subject-160.csv","xpyriment","Kafkaesque Koffka","3.2.5","0","z","NA","NA","NA","NA","space","z","909","NA","NA","NA","NA","174712","909","2","legacy","1024","2","48000","-16","AB_m21","160","even","FILL_NW","PORDS","1865","234262","232552","229619","176587","NA","NA","NA","NA","234255","233049","NA","232052","NA","232041","234255","1874","234462","NA","NA","233261","1865","1865","233652","232041","1865","233261","234462","morph21_Oliver/Morris","13","12603","16","yes","1280","39"
"250","82.3529411765","82.3529411765","779.411764706","779.411764706","black","no","xpyriment","legacy","legacy","0","202","NA","uniform","56013","1000","0.0178529984111","1","undefined","1","0","16","16","16","0","16","16","16","NA","16","16","0","16","NA","16","16","0","16","NA","16","NA","16","0","0","16","16","0","16","16","17","/","02/21/19 17:48:25","The main experiment item","yes","FIN__AB__M21__7%3A10%3A17.osexp","C:\Users\ERP Testing Room\Desktop\Joanna\morph21","no","mono","no","18","no","white","no","yes","1080","legacy","16","16","C:/Users/ERP Testing Room/Desktop/Joanna/morph21/subject-160.csv","xpyriment","Kafkaesque Koffka","3.2.5","0","/","NA","NA","NA","NA","space","/","647","NA","NA","NA","NA","174712","647","2","legacy","1024","2","48000","-16","AB_m21","160","even","CW_L","DANCER","1865","237212","235520","229619","176587","NA","NA","NA","NA","237202","236017","NA","235020","NA","235012","237202","1874","237462","NA","NA","236212","1865","1865","236603","235012","1865","236212","237462","morph21_Oliver/Morris","14","13250","17","yes","1280","11"
"300","83.3333333333","83.3333333333","783.611111111","783.611111111","black","no","xpyriment","legacy","legacy","0","204","NA","uniform","55152","1000","0.0181317087322","1","undefined","1","0","17","17","17","0","17","17","17","NA","17","17","0","17","NA","17","17","0","17","NA","17","NA","17","0","0","17","17","0","17","17","18","z","02/21/19 17:48:25","The main experiment item","yes","FIN__AB__M21__7%3A10%3A17.osexp","C:\Users\ERP Testing Room\Desktop\Joanna\morph21","no","mono","no","18","no","white","no","yes","1080","legacy","17","17","C:/Users/ERP Testing Room/Desktop/Joanna/morph21/subject-160.csv","xpyriment","Kafkaesque Koffka","3.2.5","0","z","NA","NA","NA","NA","space","z","855","NA","NA","NA","NA","174712","855","2","legacy","1024","2","48000","-16","AB_m21","160","even","NW_L_COMP","ILLIST","1865","241912","238728","240403","176587","NA","NA","NA","NA","240393","239226","NA","238228","NA","238221","240393","1874","242212","NA","NA","239404","1865","1865","239795","238221","1865","239403","242212","morph21_Oliver/Morris","15","14105","18","yes","1280","9"
"400","84.2105263158","84.2105263158","782.105263158","782.105263158","black","no","xpyriment","legacy","legacy","0","208","NA","uniform","62005","1000","0.0161277316345","1","undefined","1","0","18","18","18","0","18","18","18","NA","18","18","0","18","NA","18","18","0","18","NA","18","NA","18","0","0","18","18","0","18","18","19","z","02/21/19 17:48:25","The main experiment item","yes","FIN__AB__M21__7%3A10%3A17.osexp","C:\Users\ERP Testing Room\Desktop\Joanna\morph21","no","mono","no","18","no","white","no","yes","1080","legacy","18","18","C:/Users/ERP Testing Room/Desktop/Joanna/morph21/subject-160.csv","xpyriment","Kafkaesque Koffka","3.2.5","0","z","NA","NA","NA","NA","space","z","755","NA","NA","NA","NA","174712","755","2","legacy","1024","2","48000","-16","AB_m21","160","even","FILL_NW","BUTE","1865","245079","243429","240403","176587","NA","NA","NA","NA","245071","243926","NA","242929","NA","242923","245071","1874","245479","NA","NA","244079","1865","1865","244470","242923","1865","244079","245479","morph21_Oliver/Morris","16","14860","19","yes","1280","5"
"250","85","85","773.95","773.95","black","no","xpyriment","legacy","legacy","0","207","NA","uniform","62632","1000","0.0159662792183","1","undefined","1","0","19","19","19","0","19","19","19","NA","19","19","0","19","NA","19","19","0","19","NA","19","NA","19","0","0","19","19","0","19","19","20","/","02/21/19 17:48:25","The main experiment item","yes","FIN__AB__M21__7%3A10%3A17.osexp","C:\Users\ERP Testing Room\Desktop\Joanna\morph21","no","mono","no","18","no","white","no","yes","1080","legacy","19","19","C:/Users/ERP Testing Room/Desktop/Joanna/morph21/subject-160.csv","xpyriment","Kafkaesque Koffka","3.2.5","0","/","NA","NA","NA","NA","space","/","619","NA","NA","NA","NA","174712","619","2","legacy","1024","2","48000","-16","AB_m21","160","even","FILL_W","SMOKE","1865","248471","246729","240403","176587","NA","NA","NA","NA","248463","247226","NA","246229","NA","246222","248463","1874","248721","NA","NA","247471","1865","1865","247862","246222","1865","247470","248721","morph21_Oliver/Morris","17","15479","20","yes","1280","50"
"350","85.7142857143","85.7142857143","765.857142857","765.857142857","black","no","xpyriment","legacy","legacy","0","206","NA","uniform","59774","1000","0.0167296818015","1","undefined","1","0","20","20","20","0","20","20","20","NA","20","20","0","20","NA","20","20","0","20","NA","20","NA","20","0","0","20","20","0","20","20","21","z","02/21/19 17:48:25","The main experiment item","yes","FIN__AB__M21__7%3A10%3A17.osexp","C:\Users\ERP Testing Room\Desktop\Joanna\morph21","no","mono","no","18","no","white","no","yes","1080","legacy","20","20","C:/Users/ERP Testing Room/Desktop/Joanna/morph21/subject-160.csv","xpyriment","Kafkaesque Koffka","3.2.5","0","z","NA","NA","NA","NA","space","z","604","NA","NA","NA","NA","174712","604","2","legacy","1024","2","48000","-16","AB_m21","160","even","NW_L_SIMP","WITCHITH","1865","253155","249962","251646","176587","NA","NA","NA","NA","251642","250459","NA","249462","NA","249457","251642","1874","253505","NA","NA","250646","1865","1865","251046","249457","1865","250646","253505","morph21_Oliver/Morris","18","16083","21","yes","1280","11"
"300","86.3636363636","86.3636363636","760.227272727","760.227272727","black","no","xpyriment","legacy","legacy","0","204","NA","uniform","65994","1000","0.0151528926872","1","undefined","1","0","21","21","21","0","21","21","21","NA","21","21","0","21","NA","21","21","0","21","NA","21","NA","21","0","0","21","21","0","21","21","22","z","02/21/19 17:48:25","The main experiment item","yes","FIN__AB__M21__7%3A10%3A17.osexp","C:\Users\ERP Testing Room\Desktop\Joanna\morph21","no","mono","no","18","no","white","no","yes","1080","legacy","21","21","C:/Users/ERP Testing Room/Desktop/Joanna/morph21/subject-160.csv","xpyriment","Kafkaesque Koffka","3.2.5","0","z","NA","NA","NA","NA","space","z","642","NA","NA","NA","NA","174712","642","2","legacy","1024","2","48000","-16","AB_m21","160","even","NW_L_COMP","BINDIC","1865","256288","254622","251646","176587","NA","NA","NA","NA","256284","255119","NA","254122","NA","254115","256284","1874","256589","NA","NA","255289","1865","1865","255689","254115","1865","255288","256589","morph21_Oliver/Morris","19","16725","22","yes","1280","22"
"300","86.9565217391","86.9565217391","763.086956522","763.086956522","black","no","xpyriment","legacy","legacy","0","206","NA","uniform","57335","1000","0.017441353449","1","undefined","1","0","22","22","22","0","22","22","22","NA","22","22","0","22","NA","22","22","0","22","NA","22","NA","22","0","0","22","22","0","22","22","23","z","02/21/19 17:48:25","The main experiment item","yes","FIN__AB__M21__7%3A10%3A17.osexp","C:\Users\ERP Testing Room\Desktop\Joanna\morph21","no","mono","no","18","no","white","no","yes","1080","legacy","22","22","C:/Users/ERP Testing Room/Desktop/Joanna/morph21/subject-160.csv","xpyriment","Kafkaesque Koffka","3.2.5","0","z","NA","NA","NA","NA","space","z","826","NA","NA","NA","NA","174712","826","2","legacy","1024","2","48000","-16","AB_m21","160","even","NW_L_SIMP","ELBOWILM","1865","259472","257764","251646","176587","NA","NA","NA","NA","259464","258261","NA","257264","NA","257256","259464","1874","259772","NA","NA","258472","1865","1865","258864","257256","1865","258472","259772","morph21_Oliver/Morris","20","17551","23","yes","1280","10"
"200","87.5","87.5","754","754","black","no","xpyriment","legacy","legacy","0","207","NA","uniform","68742","1000","0.0145471473044","1","undefined","1","0","23","23","23","0","23","23","23","NA","23","23","0","23","NA","23","23","0","23","NA","23","NA","23","0","0","23","23","0","23","23","24","/","02/21/19 17:48:25","The main experiment item","yes","FIN__AB__M21__7%3A10%3A17.osexp","C:\Users\ERP Testing Room\Desktop\Joanna\morph21","no","mono","no","18","no","white","no","yes","1080","legacy","23","23","C:/Users/ERP Testing Room/Desktop/Joanna/morph21/subject-160.csv","xpyriment","Kafkaesque Koffka","3.2.5","0","/","NA","NA","NA","NA","space","/","545","NA","NA","NA","NA","174712","545","2","legacy","1024","2","48000","-16","AB_m21","160","even","FILL_W","BLEAK","1865","264181","261014","262672","176587","NA","NA","NA","NA","262669","261511","NA","260514","NA","260504","262669","1874","264381","NA","NA","261681","1865","1865","262072","260503","1865","261681","264381","morph21_Oliver/Morris","21","18096","24","yes","1280","5"
"200","84","84","753.52","753.52","black","no","xpyriment","legacy","legacy","0","203","NA","uniform","62489","1000","0.0160028164957","0","undefined","0","0","24","24","24","0","24","24","24","NA","24","24","0","24","NA","24","24","0","24","NA","24","NA","24","0","0","24","24","0","24","24","25","z","02/21/19 17:48:25","The main experiment item","yes","FIN__AB__M21__7%3A10%3A17.osexp","C:\Users\ERP Testing Room\Desktop\Joanna\morph21","no","mono","no","18","no","white","no","yes","1080","legacy","24","24","C:/Users/ERP Testing Room/Desktop/Joanna/morph21/subject-160.csv","xpyriment","Kafkaesque Koffka","3.2.5","0","/","NA","NA","NA","NA","space","/","742","NA","NA","NA","NA","174712","742","2","legacy","1024","2","48000","-16","AB_m21","160","even","NW_S_COMP","HAPPENANCE","1865","267164","265464","262672","176587","NA","NA","NA","NA","262669","265961","NA","264964","NA","264958","267159","1874","267364","NA","NA","266164","1865","1865","266564","264958","1865","266164","267364","morph21_Oliver/Morris","21","18838","25","yes","1280","2"
"250","84.6153846154","84.6153846154","746.615384615","746.615384615","black","no","xpyriment","legacy","legacy","0","202","NA","uniform","65259","1000","0.015323556904","1","undefined","1","0","25","25","25","0","25","25","25","NA","25","25","0","25","NA","25","25","0","25","NA","25","NA","25","0","0","25","25","0","25","25","26","/","02/21/19 17:48:25","The main experiment item","yes","FIN__AB__M21__7%3A10%3A17.osexp","C:\Users\ERP Testing Room\Desktop\Joanna\morph21","no","mono","no","18","no","white","no","yes","1080","legacy","25","25","C:/Users/ERP Testing Room/Desktop/Joanna/morph21/subject-160.csv","xpyriment","Kafkaesque Koffka","3.2.5","0","/","NA","NA","NA","NA","space","/","574","NA","NA","NA","NA","174712","574","2","legacy","1024","2","48000","-16","AB_m21","160","even","CW_L","DREAMER","1865","270357","268664","262672","176587","NA","NA","NA","NA","270353","269161","NA","268164","NA","268157","270353","1874","270607","NA","NA","269357","1865","1865","269757","268157","1865","269357","270607","morph21_Oliver/Morris","22","19412","26","yes","1280","12"
"400","85.1851851852","85.1851851852","743.259259259","743.259259259","black","no","xpyriment","legacy","legacy","0","204","NA","uniform","62793","1000","0.0159253419967","1","undefined","1","0","26","26","26","0","26","26","26","NA","26","26","0","26","NA","26","26","0","26","NA","26","NA","26","0","0","26","26","0","26","26","27","z","02/21/19 17:48:25","The main experiment item","yes","FIN__AB__M21__7%3A10%3A17.osexp","C:\Users\ERP Testing Room\Desktop\Joanna\morph21","no","mono","no","18","no","white","no","yes","1080","legacy","26","26","C:/Users/ERP Testing Room/Desktop/Joanna/morph21/subject-160.csv","xpyriment","Kafkaesque Koffka","3.2.5","0","z","NA","NA","NA","NA","space","z","656","NA","NA","NA","NA","174712","656","2","legacy","1024","2","48000","-16","AB_m21","160","even","NW_L_COMP","COLDITY","1865","275024","271832","273515","176587","NA","NA","NA","NA","273507","272329","NA","271324","NA","271312","273507","1874","275424","NA","NA","272515","1865","1865","272907","271312","1865","272515","275424","morph21_Oliver/Morris","23","20068","27","yes","1280","10"
"300","85.7142857143","85.7142857143","747.107142857","747.107142857","black","no","xpyriment","legacy","legacy","0","206","NA","uniform","53701","1000","0.0186216271578","1","undefined","1","0","27","27","27","0","27","27","27","NA","27","27","0","27","NA","27","27","0","27","NA","27","NA","27","0","0","27","27","0","27","27","28","z","02/21/19 17:48:25","The main experiment item","yes","FIN__AB__M21__7%3A10%3A17.osexp","C:\Users\ERP Testing Room\Desktop\Joanna\morph21","no","mono","no","18","no","white","no","yes","1080","legacy","27","27","C:/Users/ERP Testing Room/Desktop/Joanna/morph21/subject-160.csv","xpyriment","Kafkaesque Koffka","3.2.5","0","z","NA","NA","NA","NA","space","z","851","NA","NA","NA","NA","174712","851","2","legacy","1024","2","48000","-16","AB_m21","160","even","NW_L_SIMP","EARILT","1865","278224","276532","273515","176587","NA","NA","NA","NA","278218","277029","NA","276032","NA","276027","278218","1874","278524","NA","NA","277224","1865","1865","277615","276027","1865","277224","278524","morph21_Oliver/Morris","24","20919","28","yes","1280","12"
"250","82.7586206897","82.7586206897","755.620689655","755.620689655","black","no","xpyriment","legacy","legacy","0","202","NA","uniform","48273","1000","0.0207155138483","0","undefined","0","0","28","28","28","0","28","28","28","NA","28","28","0","28","NA","28","28","0","28","NA","28","NA","28","0","0","28","28","0","28","28","29","/","02/21/19 17:48:25","The main experiment item","yes","FIN__AB__M21__7%3A10%3A17.osexp","C:\Users\ERP Testing Room\Desktop\Joanna\morph21","no","mono","no","18","no","white","no","yes","1080","legacy","28","28","C:/Users/ERP Testing Room/Desktop/Joanna/morph21/subject-160.csv","xpyriment","Kafkaesque Koffka","3.2.5","0","None","NA","NA","NA","NA","space","None","994","NA","NA","NA","NA","174712","994","2","legacy","1024","2","48000","-16","AB_m21","160","even","CW_L","STRIKER","1865","281366","279707","273515","176587","NA","NA","NA","NA","278218","280204","NA","279207","NA","279201","281360","1874","281616","NA","NA","280366","1865","1865","280757","279201","1865","280366","281616","morph21_Oliver/Morris","24","21913","29","yes","1280","17"
"350","80","80","757.133333333","757.133333333","black","no","xpyriment","legacy","legacy","0","207","NA","uniform","53620","1000","0.0186497575532","0","undefined","0","0","29","29","29","0","29","29","29","NA","29","29","0","29","NA","29","29","0","29","NA","29","NA","29","0","0","29","29","0","29","29","30","/","02/21/19 17:48:25","The main experiment item","yes","FIN__AB__M21__7%3A10%3A17.osexp","C:\Users\ERP Testing Room\Desktop\Joanna\morph21","no","mono","no","18","no","white","no","yes","1080","legacy","29","29","C:/Users/ERP Testing Room/Desktop/Joanna/morph21/subject-160.csv","xpyriment","Kafkaesque Koffka","3.2.5","0","z","NA","NA","NA","NA","space","z","801","NA","NA","NA","NA","174712","801","2","legacy","1024","2","48000","-16","AB_m21","160","even","FILL_W","WEIRD","1865","285958","282799","284449","176587","NA","NA","NA","NA","278218","283296","NA","282299","NA","282291","284442","1874","286308","NA","NA","283449","1865","1865","283841","282290","1865","283449","286308","morph21_Oliver/Morris","24","22714","30","yes","1280","2"
"400","80.6451612903","80.6451612903","755.387096774","755.387096774","black","no","xpyriment","legacy","legacy","0","202","NA","uniform","58697","1000","0.0170366458252","1","undefined","1","0","30","30","30","0","30","30","30","NA","30","30","0","30","NA","30","30","0","30","NA","30","NA","30","0","0","30","30","0","30","30","31","/","02/21/19 17:48:25","The main experiment item","yes","FIN__AB__M21__7%3A10%3A17.osexp","C:\Users\ERP Testing Room\Desktop\Joanna\morph21","no","mono","no","18","no","white","no","yes","1080","legacy","30","30","C:/Users/ERP Testing Room/Desktop/Joanna/morph21/subject-160.csv","xpyriment","Kafkaesque Koffka","3.2.5","0","/","NA","NA","NA","NA","space","/","703","NA","NA","NA","NA","174712","703","2","legacy","1024","2","48000","-16","AB_m21","160","even","CW_L","STYLISH","1865","289084","287417","284449","176587","NA","NA","NA","NA","289079","287914","NA","286917","NA","286913","289079","1874","289484","NA","NA","288084","1865","1865","288484","286913","1865","288084","289484","morph21_Oliver/Morris","25","23417","31","yes","1280","29"
"300","81.25","81.25","752.1875","752.1875","black","no","xpyriment","legacy","legacy","0","208","NA","uniform","65281","1000","0.0153183927942","1","undefined","1","0","31","31","31","0","31","31","31","NA","31","31","0","31","NA","31","31","0","31","NA","31","NA","31","0","0","31","31","0","31","31","32","z","02/21/19 17:48:25","The main experiment item","yes","FIN__AB__M21__7%3A10%3A17.osexp","C:\Users\ERP Testing Room\Desktop\Joanna\morph21","no","mono","no","18","no","white","no","yes","1080","legacy","31","31","C:/Users/ERP Testing Room/Desktop/Joanna/morph21/subject-160.csv","xpyriment","Kafkaesque Koffka","3.2.5","0","z","NA","NA","NA","NA","space","z","653","NA","NA","NA","NA","174712","653","2","legacy","1024","2","48000","-16","AB_m21","160","even","FILL_NW","VOGS","1865","292342","290684","284449","176587","NA","NA","NA","NA","292335","291181","NA","290184","NA","290178","292335","1874","292642","NA","NA","291342","1865","1865","291734","290178","1865","291342","292642","morph21_Oliver/Morris","26","24070","32","yes","1280","47"
"400","78.7878787879","78.7878787879","758.272727273","758.272727273","black","no","xpyriment","legacy","legacy","0","208","NA","uniform","52187","1000","0.0191618602334","0","undefined","0","0","32","32","32","0","32","32","32","NA","32","32","0","32","NA","32","32","0","32","NA","32","NA","32","0","0","32","32","0","32","32","33","z","02/21/19 17:48:25","The main experiment item","yes","FIN__AB__M21__7%3A10%3A17.osexp","C:\Users\ERP Testing Room\Desktop\Joanna\morph21","no","mono","no","18","no","white","no","yes","1080","legacy","32","32","C:/Users/ERP Testing Room/Desktop/Joanna/morph21/subject-160.csv","xpyriment","Kafkaesque Koffka","3.2.5","0","/","NA","NA","NA","NA","space","/","953","NA","NA","NA","NA","174712","953","2","legacy","1024","2","48000","-16","AB_m21","160","even","FILL_NW","FROES","1865","296951","293784","295442","176587","NA","NA","NA","NA","292335","294281","NA","293276","NA","293264","295436","1874","297351","NA","NA","294442","1865","1865","294834","293264","1865","294442","297351","morph21_Oliver/Morris","26","25023","33","yes","1280","21"
"350","79.4117647059","79.4117647059","755.382352941","755.382352941","black","no","xpyriment","legacy","legacy","0","206","NA","uniform","59537","1000","0.0167962779448","1","undefined","1","0","33","33","33","0","33","33","33","NA","33","33","0","33","NA","33","33","0","33","NA","33","NA","33","0","0","33","33","0","33","33","34","z","02/21/19 17:48:25","The main experiment item","yes","FIN__AB__M21__7%3A10%3A17.osexp","C:\Users\ERP Testing Room\Desktop\Joanna\morph21","no","mono","no","18","no","white","no","yes","1080","legacy","33","33","C:/Users/ERP Testing Room/Desktop/Joanna/morph21/subject-160.csv","xpyriment","Kafkaesque Koffka","3.2.5","0","z","NA","NA","NA","NA","space","z","660","NA","NA","NA","NA","174712","660","2","legacy","1024","2","48000","-16","AB_m21","160","even","NW_L_SIMP","WIGITH","1865","300126","298467","295442","176587","NA","NA","NA","NA","300117","298964","NA","297967","NA","297956","300117","1874","300476","NA","NA","299126","1865","1865","299517","297956","1865","299126","300476","morph21_Oliver/Morris","27","25683","34","yes","1280","9"
"200","80","80","749.657142857","749.657142857","black","no","xpyriment","legacy","legacy","0","207","NA","uniform","70026","1000","0.0142804101334","1","undefined","1","0","34","34","34","0","34","34","34","NA","34","34","0","34","NA","34","34","0","34","NA","34","NA","34","0","0","34","34","0","34","34","35","/","02/21/19 17:48:25","The main experiment item","yes","FIN__AB__M21__7%3A10%3A17.osexp","C:\Users\ERP Testing Room\Desktop\Joanna\morph21","no","mono","no","18","no","white","no","yes","1080","legacy","34","34","C:/Users/ERP Testing Room/Desktop/Joanna/morph21/subject-160.csv","xpyriment","Kafkaesque Koffka","3.2.5","0","/","NA","NA","NA","NA","space","/","555","NA","NA","NA","NA","174712","555","2","legacy","1024","2","48000","-16","AB_m21","160","even","FILL_W","BRASS","1865","303351","301659","295442","176587","NA","NA","NA","NA","303344","302156","NA","301159","NA","301153","303344","1874","303551","NA","NA","302351","1865","1865","302743","301153","1865","302351","303551","morph21_Oliver/Morris","28","26238","35","yes","1280","10"
"250","77.7777777778","77.7777777778","756.333333333","756.333333333","black","no","xpyriment","legacy","legacy","0","208","NA","uniform","49492","1000","0.0202052857027","0","undefined","0","0","35","35","35","0","35","35","35","NA","35","35","0","35","NA","35","35","0","35","NA","35","NA","35","0","0","35","35","0","35","35","36","z","02/21/19 17:48:25","The main experiment item","yes","FIN__AB__M21__7%3A10%3A17.osexp","C:\Users\ERP Testing Room\Desktop\Joanna\morph21","no","mono","no","18","no","white","no","yes","1080","legacy","35","35","C:/Users/ERP Testing Room/Desktop/Joanna/morph21/subject-160.csv","xpyriment","Kafkaesque Koffka","3.2.5","0","None","NA","NA","NA","NA","space","None","990","NA","NA","NA","NA","174712","990","2","legacy","1024","2","48000","-16","AB_m21","160","even","FILL_NW","DOWED","1865","307802","304627","306294","176587","NA","NA","NA","NA","303344","305124","NA","304126","NA","304120","306284","1874","308052","NA","NA","305294","1865","1865","305685","304120","1865","305294","308052","morph21_Oliver/Morris","28","27228","36","yes","1280","16"
"300","75.6756756757","75.6756756757","762.621621622","762.621621622","black","no","xpyriment","legacy","legacy","0","208","NA","uniform","51688","1000","0.0193468503328","0","undefined","0","0","36","36","36","0","36","36","36","NA","36","36","0","36","NA","36","36","0","36","NA","36","NA","36","0","0","36","36","0","36","36","37","z","02/21/19 17:48:25","The main experiment item","yes","FIN__AB__M21__7%3A10%3A17.osexp","C:\Users\ERP Testing Room\Desktop\Joanna\morph21","no","mono","no","18","no","white","no","yes","1080","legacy","36","36","C:/Users/ERP Testing Room/Desktop/Joanna/morph21/subject-160.csv","xpyriment","Kafkaesque Koffka","3.2.5","0","None","NA","NA","NA","NA","space","None","989","NA","NA","NA","NA","174712","989","2","legacy","1024","2","48000","-16","AB_m21","160","even","FILL_NW","VOOFS","1865","310969","309244","306294","176587","NA","NA","NA","NA","303344","309741","NA","308744","NA","308737","310958","1874","311269","NA","NA","309969","1865","1865","310361","308737","1865","309969","311269","morph21_Oliver/Morris","28","28217","37","yes","1280","48"
"350","76.3157894737","76.3157894737","761.105263158","761.105263158","black","no","xpyriment","legacy","legacy","0","202","NA","uniform","54251","1000","0.0184328399477","1","undefined","1","0","37","37","37","0","37","37","37","NA","37","37","0","37","NA","37","37","0","37","NA","37","NA","37","0","0","37","37","0","37","37","38","/","02/21/19 17:48:25","The main experiment item","yes","FIN__AB__M21__7%3A10%3A17.osexp","C:\Users\ERP Testing Room\Desktop\Joanna\morph21","no","mono","no","18","no","white","no","yes","1080","legacy","37","37","C:/Users/ERP Testing Room/Desktop/Joanna/morph21/subject-160.csv","xpyriment","Kafkaesque Koffka","3.2.5","0","/","NA","NA","NA","NA","space","/","705","NA","NA","NA","NA","174712","705","2","legacy","1024","2","48000","-16","AB_m21","160","even","CW_L","EDITOR","1865","314186","312469","306294","176587","NA","NA","NA","NA","314175","312966","NA","311969","NA","311960","314175","1874","314536","NA","NA","313186","1865","1865","313577","311960","1865","313186","314536","morph21_Oliver/Morris","29","28922","38","yes","1280","45"
"300","76.9230769231","76.9230769231","756.153846154","756.153846154","black","no","xpyriment","legacy","legacy","0","201","NA","uniform","65896","1000","0.0151754279471","1","undefined","1","0","38","38","38","0","38","38","38","NA","38","38","0","38","NA","38","38","0","38","NA","38","NA","38","0","0","38","38","0","38","38","39","/","02/21/19 17:48:25","The main experiment item","yes","FIN__AB__M21__7%3A10%3A17.osexp","C:\Users\ERP Testing Room\Desktop\Joanna\morph21","no","mono","no","18","no","white","no","yes","1080","legacy","38","38","C:/Users/ERP Testing Room/Desktop/Joanna/morph21/subject-160.csv","xpyriment","Kafkaesque Koffka","3.2.5","0","/","NA","NA","NA","NA","space","/","568","NA","NA","NA","NA","174712","568","2","legacy","1024","2","48000","-16","AB_m21","160","even","CW_S","MAGICAL","1865","318894","315694","317386","176587","NA","NA","NA","NA","317375","316191","NA","315194","NA","315188","317375","1874","319194","NA","NA","316386","1865","1865","316777","315188","1865","316386","319194","morph21_Oliver/Morris","30","29490","39","yes","1280","4"
"300","77.5","77.5","751.775","751.775","black","no","xpyriment","legacy","legacy","0","202","NA","uniform","66967","1000","0.0149327280601","1","undefined","1","0","39","39","39","0","39","39","39","NA","39","39","0","39","NA","39","39","0","39","NA","39","NA","39","0","0","39","39","0","39","39","40","/","02/21/19 17:48:25","The main experiment item","yes","FIN__AB__M21__7%3A10%3A17.osexp","C:\Users\ERP Testing Room\Desktop\Joanna\morph21","no","mono","no","18","no","white","no","yes","1080","legacy","39","39","C:/Users/ERP Testing Room/Desktop/Joanna/morph21/subject-160.csv","xpyriment","Kafkaesque Koffka","3.2.5","0","/","NA","NA","NA","NA","space","/","581","NA","NA","NA","NA","174712","581","2","legacy","1024","2","48000","-16","AB_m21","160","even","CW_L","PROFESSOR","1865","322079","320419","317386","176587","NA","NA","NA","NA","322075","320916","NA","319919","NA","319910","322075","1874","322379","NA","NA","321086","1865","1865","321478","319910","1865","321086","322379","morph21_Oliver/Morris","31","30071","40","yes","1280","47"
"250","78.0487804878","78.0487804878","746.390243902","746.390243902","black","no","xpyriment","legacy","legacy","0","201","NA","uniform","65332","1000","0.0153064348252","1","undefined","1","0","40","40","40","0","40","40","40","NA","40","40","0","40","NA","40","40","0","40","NA","40","NA","40","0","0","40","40","0","40","40","41","/","02/21/19 17:48:25","The main experiment item","yes","FIN__AB__M21__7%3A10%3A17.osexp","C:\Users\ERP Testing Room\Desktop\Joanna\morph21","no","mono","no","18","no","white","no","yes","1080","legacy","40","40","C:/Users/ERP Testing Room/Desktop/Joanna/morph21/subject-160.csv","xpyriment","Kafkaesque Koffka","3.2.5","0","/","NA","NA","NA","NA","space","/","531","NA","NA","NA","NA","174712","531","2","legacy","1024","2","48000","-16","AB_m21","160","even","CW_S","PLANNER","1865","325320","323620","317386","176587","NA","NA","NA","NA","325316","324118","NA","323120","NA","323111","325316","1874","325571","NA","NA","324320","1865","1865","324720","323111","1865","324320","325571","morph21_Oliver/Morris","32","30602","41","yes","1280","22"
"400","78.5714285714","78.5714285714","742.714285714","742.714285714","black","no","xpyriment","legacy","legacy","0","206","NA","uniform","71597","1000","0.0139670656592","1","undefined","1","0","41","41","41","0","41","41","41","NA","41","41","0","41","NA","41","41","0","41","NA","41","NA","41","0","0","41","41","0","41","41","42","z","02/21/19 17:48:25","The main experiment item","yes","FIN__AB__M21__7%3A10%3A17.osexp","C:\Users\ERP Testing Room\Desktop\Joanna\morph21","no","mono","no","18","no","white","no","yes","1080","legacy","41","41","C:/Users/ERP Testing Room/Desktop/Joanna/morph21/subject-160.csv","xpyriment","Kafkaesque Koffka","3.2.5","0","z","NA","NA","NA","NA","space","z","592","NA","NA","NA","NA","174712","592","2","legacy","1024","2","48000","-16","AB_m21","160","even","NW_L_SIMP","CLASSOES","1865","329896","326737","328387","176587","NA","NA","NA","NA","328381","327234","NA","326237","NA","326231","328381","1874","330296","NA","NA","327387","1865","1865","327779","326231","1865","327387","330296","morph21_Oliver/Morris","33","31194","42","yes","1280","18"
"350","79.0697674419","79.0697674419","741.860465116","741.860465116","black","no","xpyriment","legacy","legacy","0","201","NA","uniform","57258","1000","0.0174648084111","1","undefined","1","0","42","42","42","0","42","42","42","NA","42","42","0","42","NA","42","42","0","42","NA","42","NA","42","0","0","42","42","0","42","42","43","/","02/21/19 17:48:25","The main experiment item","yes","FIN__AB__M21__7%3A10%3A17.osexp","C:\Users\ERP Testing Room\Desktop\Joanna\morph21","no","mono","no","18","no","white","no","yes","1080","legacy","42","42","C:/Users/ERP Testing Room/Desktop/Joanna/morph21/subject-160.csv","xpyriment","Kafkaesque Koffka","3.2.5","0","/","NA","NA","NA","NA","space","/","706","NA","NA","NA","NA","174712","706","2","legacy","1024","2","48000","-16","AB_m21","160","even","CW_S","SINGER","1865","333112","331446","328387","176587","NA","NA","NA","NA","333109","331943","NA","330946","NA","330942","333109","1874","333463","NA","NA","332121","1865","1865","332512","330942","1865","332121","333463","morph21_Oliver/Morris","34","31900","43","yes","1280","17"
"200","79.5454545455","79.5454545455","739.795454545","739.795454545","black","no","xpyriment","legacy","legacy","0","205","NA","uniform","57783","1000","0.0173061281","1","undefined","1","0","43","43","43","0","43","43","43","NA","43","43","0","43","NA","43","43","0","43","NA","43","NA","43","0","0","43","43","0","43","43","44","z","02/21/19 17:48:25","The main experiment item","yes","FIN__AB__M21__7%3A10%3A17.osexp","C:\Users\ERP Testing Room\Desktop\Joanna\morph21","no","mono","no","18","no","white","no","yes","1080","legacy","43","43","C:/Users/ERP Testing Room/Desktop/Joanna/morph21/subject-160.csv","xpyriment","Kafkaesque Koffka","3.2.5","0","z","NA","NA","NA","NA","space","z","651","NA","NA","NA","NA","174712","651","2","legacy","1024","2","48000","-16","AB_m21","160","even","NW_S_SIMP","GUMFIL","1865","336279","334604","328387","176587","NA","NA","NA","NA","336270","335101","NA","334104","NA","334100","336270","1874","336479","NA","NA","335279","1865","1865","335671","334100","1865","335279","336479","morph21_Oliver/Morris","35","32551","44","yes","1280","2"
"400","80","80","738.844444444","738.844444444","black","no","xpyriment","legacy","legacy","0","202","NA","uniform","59996","1000","0.0166677778519","1","undefined","1","0","44","44","44","0","44","44","44","NA","44","44","0","44","NA","44","44","0","44","NA","44","NA","44","0","0","44","44","0","44","44","45","/","02/21/19 17:48:25","The main experiment item","yes","FIN__AB__M21__7%3A10%3A17.osexp","C:\Users\ERP Testing Room\Desktop\Joanna\morph21","no","mono","no","18","no","white","no","yes","1080","legacy","44","44","C:/Users/ERP Testing Room/Desktop/Joanna/morph21/subject-160.csv","xpyriment","Kafkaesque Koffka","3.2.5","0","/","NA","NA","NA","NA","space","/","697","NA","NA","NA","NA","174712","697","2","legacy","1024","2","48000","-16","AB_m21","160","even","CW_L","COOLING","1865","340839","337663","339330","176587","NA","NA","NA","NA","339320","338160","NA","337154","NA","337148","339320","1874","341239","NA","NA","338329","1865","1865","338721","337148","1865","338329","341239","morph21_Oliver/Morris","36","33248","45","yes","1280","24"
"400","80.4347826087","80.4347826087","738.543478261","738.543478261","black","no","xpyriment","legacy","legacy","0","201","NA","uniform","62598","1000","0.0159749512764","1","undefined","1","0","45","45","45","0","45","45","45","NA","45","45","0","45","NA","45","45","0","45","NA","45","NA","45","0","0","45","45","0","45","45","46","/","02/21/19 17:48:25","The main experiment item","yes","FIN__AB__M21__7%3A10%3A17.osexp","C:\Users\ERP Testing Room\Desktop\Joanna\morph21","no","mono","no","18","no","white","no","yes","1080","legacy","45","45","C:/Users/ERP Testing Room/Desktop/Joanna/morph21/subject-160.csv","xpyriment","Kafkaesque Koffka","3.2.5","0","/","NA","NA","NA","NA","space","/","725","NA","NA","NA","NA","174712","725","2","legacy","1024","2","48000","-16","AB_m21","160","even","CW_S","EFFORTLESS","1865","344022","342372","339330","176587","NA","NA","NA","NA","344017","342869","NA","341872","NA","341868","344017","1874","344422","NA","NA","343022","1865","1865","343422","341868","1865","343022","344422","morph21_Oliver/Morris","37","33973","46","yes","1280","30"
"200","80.8510638298","80.8510638298","737.425531915","737.425531915","black","no","xpyriment","legacy","legacy","0","207","NA","uniform","62203","1000","0.0160763950292","1","undefined","1","0","46","46","46","0","46","46","46","NA","46","46","0","46","NA","46","46","0","46","NA","46","NA","46","0","0","46","46","0","46","46","47","/","02/21/19 17:48:25","The main experiment item","yes","FIN__AB__M21__7%3A10%3A17.osexp","C:\Users\ERP Testing Room\Desktop\Joanna\morph21","no","mono","no","18","no","white","no","yes","1080","legacy","46","46","C:/Users/ERP Testing Room/Desktop/Joanna/morph21/subject-160.csv","xpyriment","Kafkaesque Koffka","3.2.5","0","/","NA","NA","NA","NA","space","/","686","NA","NA","NA","NA","174712","686","2","legacy","1024","2","48000","-16","AB_m21","160","even","FILL_W","FLESH","1865","347189","345514","339330","176587","NA","NA","NA","NA","347183","346011","NA","345014","NA","345008","347183","1874","347389","NA","NA","346189","1865","1865","346581","345008","1865","346189","347389","morph21_Oliver/Morris","38","34659","47","yes","1280","32"
"250","81.25","81.25","735.583333333","735.583333333","black","no","xpyriment","legacy","legacy","0","207","NA","uniform","61902","1000","0.0161545668961","1","undefined","1","0","47","47","47","0","47","47","47","NA","47","47","0","47","NA","47","47","0","47","NA","47","NA","47","0","0","47","47","0","47","47","48","/","02/21/19 17:48:25","The main experiment item","yes","FIN__AB__M21__7%3A10%3A17.osexp","C:\Users\ERP Testing Room\Desktop\Joanna\morph21","no","mono","no","18","no","white","no","yes","1080","legacy","47","47","C:/Users/ERP Testing Room/Desktop/Joanna/morph21/subject-160.csv","xpyriment","Kafkaesque Koffka","3.2.5","0","/","NA","NA","NA","NA","space","/","649","NA","NA","NA","NA","174712","649","2","legacy","1024","2","48000","-16","AB_m21","160","even","FILL_W","TREAT","1865","351781","348581","350273","176587","NA","NA","NA","NA","350266","349078","NA","348081","NA","348071","350266","1874","352031","NA","NA","349273","1865","1865","349664","348071","1865","349273","352031","morph21_Oliver/Morris","39","35308","48","yes","1280","48"
"300","81.6326530612","81.6326530612","733.204081633","733.204081633","black","no","xpyriment","legacy","legacy","0","207","NA","uniform","63505","1000","0.0157467915912","1","undefined","1","0","48","48","48","0","48","48","48","NA","48","48","0","48","NA","48","48","0","48","NA","48","NA","48","0","0","48","48","0","48","48","49","/","02/21/19 17:48:25","The main experiment item","yes","FIN__AB__M21__7%3A10%3A17.osexp","C:\Users\ERP Testing Room\Desktop\Joanna\morph21","no","mono","no","18","no","white","no","yes","1080","legacy","48","48","C:/Users/ERP Testing Room/Desktop/Joanna/morph21/subject-160.csv","xpyriment","Kafkaesque Koffka","3.2.5","0","/","NA","NA","NA","NA","space","/","619","NA","NA","NA","NA","174712","619","2","legacy","1024","2","48000","-16","AB_m21","160","even","FILL_W","BAKE","1865","354839","353173","350273","176587","NA","NA","NA","NA","354833","353670","NA","352673","NA","352666","354833","1874","355139","NA","NA","353839","1865","1865","354231","352666","1865","353839","355139","morph21_Oliver/Morris","40","35927","49","yes","1280","29"
"250","80","80","738.4","738.4","black","no","xpyriment","legacy","legacy","0","208","NA","uniform","46920","1000","0.0213128729753","0","undefined","0","0","49","49","49","0","49","49","49","NA","49","49","0","49","NA","49","49","0","49","NA","49","NA","49","0","0","49","49","0","49","49","50","z","02/21/19 17:48:25","The main experiment item","yes","FIN__AB__M21__7%3A10%3A17.osexp","C:\Users\ERP Testing Room\Desktop\Joanna\morph21","no","mono","no","18","no","white","no","yes","1080","legacy","49","49","C:/Users/ERP Testing Room/Desktop/Joanna/morph21/subject-160.csv","xpyriment","Kafkaesque Koffka","3.2.5","0","None","NA","NA","NA","NA","space","None","993","NA","NA","NA","NA","174712","993","2","legacy","1024","2","48000","-16","AB_m21","160","even","FILL_NW","LOLDS","1865","358016","356339","350273","176587","NA","NA","NA","NA","354833","356837","NA","355839","NA","355834","358009","1874","358266","NA","NA","357016","1865","1865","357407","355834","1865","357016","358266","morph21_Oliver/Morris","40","36920","50","yes","1280","34"
"300","80.3921568627","80.3921568627","743.352941176","743.352941176","black","no","xpyriment","legacy","legacy","0","201","NA","uniform","50466","1000","0.0198153212064","1","undefined","1","0","50","50","50","0","50","50","50","NA","50","50","0","50","NA","50","50","0","50","NA","50","NA","50","0","0","50","50","0","50","50","51","/","02/21/19 17:48:25","The main experiment item","yes","FIN__AB__M21__7%3A10%3A17.osexp","C:\Users\ERP Testing Room\Desktop\Joanna\morph21","no","mono","no","18","no","white","no","yes","1080","legacy","50","50","C:/Users/ERP Testing Room/Desktop/Joanna/morph21/subject-160.csv","xpyriment","Kafkaesque Koffka","3.2.5","0","/","NA","NA","NA","NA","space","/","991","NA","NA","NA","NA","174712","991","2","legacy","1024","2","48000","-16","AB_m21","160","even","CW_S","DETECTABLE","1865","362624","359441","361116","176587","NA","NA","NA","NA","361108","359938","NA","358941","NA","358935","361108","1874","362924","NA","NA","360116","1865","1865","360507","358935","1865","360116","362924","morph21_Oliver/Morris","41","37911","51","yes","1280","1"
"250","80.7692307692","80.7692307692","740.865384615","740.865384615","black","no","xpyriment","legacy","legacy","0","201","NA","uniform","66268","1000","0.015090239633","1","undefined","1","0","51","51","51","0","51","51","51","NA","51","51","0","51","NA","51","51","0","51","NA","51","NA","51","0","0","51","51","0","51","51","52","/","02/21/19 17:48:25","The main experiment item","yes","FIN__AB__M21__7%3A10%3A17.osexp","C:\Users\ERP Testing Room\Desktop\Joanna\morph21","no","mono","no","18","no","white","no","yes","1080","legacy","51","51","C:/Users/ERP Testing Room/Desktop/Joanna/morph21/subject-160.csv","xpyriment","Kafkaesque Koffka","3.2.5","0","/","NA","NA","NA","NA","space","/","614","NA","NA","NA","NA","174712","614","2","legacy","1024","2","48000","-16","AB_m21","160","even","CW_S","TOSSING","1865","365749","364057","361116","176587","NA","NA","NA","NA","365739","364555","NA","363557","NA","363553","365739","1874","365999","NA","NA","364749","1865","1865","365141","363553","1865","364749","365999","morph21_Oliver/Morris","42","38525","52","yes","1280","26"
"300","81.1320754717","81.1320754717","740.622641509","740.622641509","black","no","xpyriment","legacy","legacy","0","207","NA","uniform","60081","1000","0.0166441970007","1","undefined","1","0","52","52","52","0","52","52","52","NA","52","52","0","52","NA","52","52","0","52","NA","52","NA","52","0","0","52","52","0","52","52","53","/","02/21/19 17:48:25","The main experiment item","yes","FIN__AB__M21__7%3A10%3A17.osexp","C:\Users\ERP Testing Room\Desktop\Joanna\morph21","no","mono","no","18","no","white","no","yes","1080","legacy","52","52","C:/Users/ERP Testing Room/Desktop/Joanna/morph21/subject-160.csv","xpyriment","Kafkaesque Koffka","3.2.5","0","/","NA","NA","NA","NA","space","/","728","NA","NA","NA","NA","174712","728","2","legacy","1024","2","48000","-16","AB_m21","160","even","FILL_W","BLUNT","1865","368874","367174","361116","176587","NA","NA","NA","NA","368867","367671","NA","366674","NA","366663","368867","1874","369174","NA","NA","367874","1865","1865","368266","366663","1865","367874","369174","morph21_Oliver/Morris","43","39253","53","yes","1280","4"
"200","81.4814814815","81.4814814815","742.055555556","742.055555556","black","no","xpyriment","legacy","legacy","0","203","NA","uniform","59398","1000","0.0168355836897","1","undefined","1","0","53","53","53","0","53","53","53","NA","53","53","0","53","NA","53","53","0","53","NA","53","NA","53","0","0","53","53","0","53","53","54","z","02/21/19 17:48:25","The main experiment item","yes","FIN__AB__M21__7%3A10%3A17.osexp","C:\Users\ERP Testing Room\Desktop\Joanna\morph21","no","mono","no","18","no","white","no","yes","1080","legacy","53","53","C:/Users/ERP Testing Room/Desktop/Joanna/morph21/subject-160.csv","xpyriment","Kafkaesque Koffka","3.2.5","0","z","NA","NA","NA","NA","space","z","818","NA","NA","NA","NA","174712","818","2","legacy","1024","2","48000","-16","AB_m21","160","even","NW_S_COMP","FANFUL","1865","373516","370316","372008","176587","NA","NA","NA","NA","371998","370813","NA","369816","NA","369809","371998","1874","373716","NA","NA","371008","1865","1865","371399","369808","1865","371008","373716","morph21_Oliver/Morris","44","40071","54","yes","1280","6"
"400","81.8181818182","81.8181818182","744.290909091","744.290909091","black","no","xpyriment","legacy","legacy","0","205","NA","uniform","56649","1000","0.0176525622694","1","undefined","1","0","54","54","54","0","54","54","54","NA","54","54","0","54","NA","54","54","0","54","NA","54","NA","54","0","0","54","54","0","54","54","55","z","02/21/19 17:48:25","The main experiment item","yes","FIN__AB__M21__7%3A10%3A17.osexp","C:\Users\ERP Testing Room\Desktop\Joanna\morph21","no","mono","no","18","no","white","no","yes","1080","legacy","54","54","C:/Users/ERP Testing Room/Desktop/Joanna/morph21/subject-160.csv","xpyriment","Kafkaesque Koffka","3.2.5","0","z","NA","NA","NA","NA","space","z","865","NA","NA","NA","NA","174712","865","2","legacy","1024","2","48000","-16","AB_m21","160","even","NW_S_SIMP","URNILT","1865","376442","374784","372008","176587","NA","NA","NA","NA","376437","375281","NA","374284","NA","374277","376437","1874","376842","NA","NA","375442","1865","1865","375842","374277","1865","375442","376842","morph21_Oliver/Morris","45","40936","55","yes","1280","5"
"250","82.1428571429","82.1428571429","743.178571429","743.178571429","black","no","xpyriment","legacy","legacy","0","202","NA","uniform","56781","1000","0.0176115249819","1","undefined","1","0","55","55","55","0","55","55","55","NA","55","55","0","55","NA","55","55","0","55","NA","55","NA","55","0","0","55","55","0","55","55","56","/","02/21/19 17:48:25","The main experiment item","yes","FIN__AB__M21__7%3A10%3A17.osexp","C:\Users\ERP Testing Room\Desktop\Joanna\morph21","no","mono","no","18","no","white","no","yes","1080","legacy","55","55","C:/Users/ERP Testing Room/Desktop/Joanna/morph21/subject-160.csv","xpyriment","Kafkaesque Koffka","3.2.5","0","/","NA","NA","NA","NA","space","/","682","NA","NA","NA","NA","174712","682","2","legacy","1024","2","48000","-16","AB_m21","160","even","CW_L","PUSHER","1865","379609","377951","372008","176587","NA","NA","NA","NA","379604","378448","NA","377451","NA","377440","379604","1874","379859","NA","NA","378609","1865","1865","379009","377440","1865","378609","379859","morph21_Oliver/Morris","46","41618","56","yes","1280","13"
"200","80.701754386","80.701754386","747.561403509","747.561403509","black","no","xpyriment","legacy","legacy","0","204","NA","uniform","49264","1000","0.0202987983111","0","undefined","0","0","56","56","56","0","56","56","56","NA","56","56","0","56","NA","56","56","0","56","NA","56","NA","56","0","0","56","56","0","56","56","57","z","02/21/19 17:48:25","The main experiment item","yes","FIN__AB__M21__7%3A10%3A17.osexp","C:\Users\ERP Testing Room\Desktop\Joanna\morph21","no","mono","no","18","no","white","no","yes","1080","legacy","56","56","C:/Users/ERP Testing Room/Desktop/Joanna/morph21/subject-160.csv","xpyriment","Kafkaesque Koffka","3.2.5","0","None","NA","NA","NA","NA","space","None","993","NA","NA","NA","NA","174712","993","2","legacy","1024","2","48000","-16","AB_m21","160","even","NW_L_COMP","GASFUL","1865","384226","381068","382718","176587","NA","NA","NA","NA","379604","381565","NA","380568","NA","380556","382711","1874","384426","NA","NA","381718","1865","1865","382109","380556","1865","381717","384426","morph21_Oliver/Morris","46","42611","57","yes","1280","6"
"350","81.0344827586","81.0344827586","747.948275862","747.948275862","black","no","xpyriment","legacy","legacy","0","203","NA","uniform","58612","1000","0.017061352624","1","undefined","1","0","57","57","57","0","57","57","57","NA","57","57","0","57","NA","57","57","0","57","NA","57","NA","57","0","0","57","57","0","57","57","58","z","02/21/19 17:48:25","The main experiment item","yes","FIN__AB__M21__7%3A10%3A17.osexp","C:\Users\ERP Testing Room\Desktop\Joanna\morph21","no","mono","no","18","no","white","no","yes","1080","legacy","57","57","C:/Users/ERP Testing Room/Desktop/Joanna/morph21/subject-160.csv","xpyriment","Kafkaesque Koffka","3.2.5","0","z","NA","NA","NA","NA","space","z","770","NA","NA","NA","NA","174712","770","2","legacy","1024","2","48000","-16","AB_m21","160","even","NW_S_COMP","EJECTENCE","1865","387384","385718","382718","176587","NA","NA","NA","NA","387381","386215","NA","385218","NA","385214","387381","1874","387735","NA","NA","386384","1865","1865","386784","385214","1865","386384","387735","morph21_Oliver/Morris","47","43381","58","yes","1280","20"
"250","81.3559322034","81.3559322034","744.745762712","744.745762712","black","no","xpyriment","legacy","legacy","0","202","NA","uniform","71766","1000","0.0139341749575","1","undefined","1","0","58","58","58","0","58","58","58","NA","58","58","0","58","NA","58","58","0","58","NA","58","NA","58","0","0","58","58","0","58","58","59","/","02/21/19 17:48:25","The main experiment item","yes","FIN__AB__M21__7%3A10%3A17.osexp","C:\Users\ERP Testing Room\Desktop\Joanna\morph21","no","mono","no","18","no","white","no","yes","1080","legacy","58","58","C:/Users/ERP Testing Room/Desktop/Joanna/morph21/subject-160.csv","xpyriment","Kafkaesque Koffka","3.2.5","0","/","NA","NA","NA","NA","space","/","559","NA","NA","NA","NA","174712","559","2","legacy","1024","2","48000","-16","AB_m21","160","even","CW_L","CREAMY","1865","390643","388993","382718","176587","NA","NA","NA","NA","390634","389490","NA","388493","NA","388486","390634","1874","390893","NA","NA","389643","1865","1865","390035","388486","1865","389643","390893","morph21_Oliver/Morris","48","43940","59","yes","1280","49"
"350","81.6666666667","81.6666666667","741.633333333","741.633333333","black","no","xpyriment","legacy","legacy","0","201","NA","uniform","66966","1000","0.0149329510498","1","undefined","1","0","59","59","59","0","59","59","59","NA","59","59","0","59","NA","59","59","0","59","NA","59","NA","59","0","0","59","59","0","59","59","60","/","02/21/19 17:48:25","The main experiment item","yes","FIN__AB__M21__7%3A10%3A17.osexp","C:\Users\ERP Testing Room\Desktop\Joanna\morph21","no","mono","no","18","no","white","no","yes","1080","legacy","59","59","C:/Users/ERP Testing Room/Desktop/Joanna/morph21/subject-160.csv","xpyriment","Kafkaesque Koffka","3.2.5","0","/","NA","NA","NA","NA","space","/","558","NA","NA","NA","NA","174712","558","2","legacy","1024","2","48000","-16","AB_m21","160","even","CW_S","AMAZEMENT","1865","395378","392211","393869","176587","NA","NA","NA","NA","393866","392708","NA","391711","NA","391703","393866","1874","395728","NA","NA","392877","1865","1865","393269","391703","1865","392877","395728","morph21_Oliver/Morris","49","44498","60","yes","1280","39"
"350","81.9672131148","81.9672131148","742.672131148","742.672131148","black","no","xpyriment","legacy","legacy","0","208","NA","uniform","56144","1000","0.0178113422628","1","undefined","1","0","60","60","60","0","60","60","60","NA","60","60","0","60","NA","60","60","0","60","NA","60","NA","60","0","0","60","60","0","60","60","61","z","02/21/19 17:48:25","The main experiment item","yes","FIN__AB__M21__7%3A10%3A17.osexp","C:\Users\ERP Testing Room\Desktop\Joanna\morph21","no","mono","no","18","no","white","no","yes","1080","legacy","60","60","C:/Users/ERP Testing Room/Desktop/Joanna/morph21/subject-160.csv","xpyriment","Kafkaesque Koffka","3.2.5","0","z","NA","NA","NA","NA","space","z","805","NA","NA","NA","NA","174712","805","2","legacy","1024","2","48000","-16","AB_m21","160","even","FILL_NW","DASP","1865","398494","396819","393869","176587","NA","NA","NA","NA","398489","397316","NA","396319","NA","396313","398489","1874","398844","NA","NA","397494","1865","1865","397894","396312","1865","397494","398844","morph21_Oliver/Morris","50","45303","61","yes","1280","13"
"400","82.2580645161","82.2580645161","743.887096774","743.887096774","black","no","xpyriment","legacy","legacy","0","205","NA","uniform","54272","1000","0.0184257075472","1","undefined","1","0","61","61","61","0","61","61","61","NA","61","61","0","61","NA","61","61","0","61","NA","61","NA","61","0","0","61","61","0","61","61","62","z","02/21/19 17:48:25","The main experiment item","yes","FIN__AB__M21__7%3A10%3A17.osexp","C:\Users\ERP Testing Room\Desktop\Joanna\morph21","no","mono","no","18","no","white","no","yes","1080","legacy","61","61","C:/Users/ERP Testing Room/Desktop/Joanna/morph21/subject-160.csv","xpyriment","Kafkaesque Koffka","3.2.5","0","z","NA","NA","NA","NA","space","z","818","NA","NA","NA","NA","174712","818","2","legacy","1024","2","48000","-16","AB_m21","160","even","NW_S_SIMP","AIDIG","1865","401744","400044","393869","176587","NA","NA","NA","NA","401742","400541","NA","399544","NA","399540","401742","1874","402144","NA","NA","400753","1865","1865","401144","399540","1865","400753","402144","morph21_Oliver/Morris","51","46121","62","yes","1280","4"
"350","82.5396825397","82.5396825397","742.031746032","742.031746032","black","no","xpyriment","legacy","legacy","0","202","NA","uniform","62543","1000","0.0159889995683","1","undefined","1","0","62","62","62","0","62","62","62","NA","62","62","0","62","NA","62","62","0","62","NA","62","NA","62","0","0","62","62","0","62","62","63","/","02/21/19 17:48:25","The main experiment item","yes","FIN__AB__M21__7%3A10%3A17.osexp","C:\Users\ERP Testing Room\Desktop\Joanna\morph21","no","mono","no","18","no","white","no","yes","1080","legacy","62","62","C:/Users/ERP Testing Room/Desktop/Joanna/morph21/subject-160.csv","xpyriment","Kafkaesque Koffka","3.2.5","0","/","NA","NA","NA","NA","space","/","627","NA","NA","NA","NA","174712","627","2","legacy","1024","2","48000","-16","AB_m21","160","even","CW_L","PARKING","1865","406603","403436","405095","176587","NA","NA","NA","NA","405087","403933","NA","402936","NA","402932","405087","1874","406953","NA","NA","404095","1865","1865","404486","402932","1865","404094","406953","morph21_Oliver/Morris","52","46748","63","yes","1280","25"
"400","82.8125","82.8125","743.453125","743.453125","black","no","xpyriment","legacy","legacy","0","208","NA","uniform","54654","1000","0.0182969224576","1","undefined","1","0","63","63","63","0","63","63","63","NA","63","63","0","63","NA","63","63","0","63","NA","63","NA","63","0","0","63","63","0","63","63","64","z","02/21/19 17:48:25","The main experiment item","yes","FIN__AB__M21__7%3A10%3A17.osexp","C:\Users\ERP Testing Room\Desktop\Joanna\morph21","no","mono","no","18","no","white","no","yes","1080","legacy","63","63","C:/Users/ERP Testing Room/Desktop/Joanna/morph21/subject-160.csv","xpyriment","Kafkaesque Koffka","3.2.5","0","z","NA","NA","NA","NA","space","z","833","NA","NA","NA","NA","174712","833","2","legacy","1024","2","48000","-16","AB_m21","160","even","FILL_NW","GIKE","1865","409779","408095","405095","176587","NA","NA","NA","NA","409771","408592","NA","407595","NA","407590","409771","1874","410179","NA","NA","408778","1865","1865","409171","407590","1865","408778","410179","morph21_Oliver/Morris","53","47581","64","yes","1280","24"
"250","83.0769230769","83.0769230769","741","741","black","no","xpyriment","legacy","legacy","0","207","NA","uniform","61169","1000","0.0163481502068","1","undefined","1","0","64","64","64","0","64","64","64","NA","64","64","0","64","NA","64","64","0","64","NA","64","NA","64","0","0","64","64","0","64","64","65","/","02/21/19 17:48:25","The main experiment item","yes","FIN__AB__M21__7%3A10%3A17.osexp","C:\Users\ERP Testing Room\Desktop\Joanna\morph21","no","mono","no","18","no","white","no","yes","1080","legacy","64","64","C:/Users/ERP Testing Room/Desktop/Joanna/morph21/subject-160.csv","xpyriment","Kafkaesque Koffka","3.2.5","0","/","NA","NA","NA","NA","space","/","584","NA","NA","NA","NA","174712","584","2","legacy","1024","2","48000","-16","AB_m21","160","even","FILL_W","WEAVE","1865","412971","411287","405095","176587","NA","NA","NA","NA","412961","411785","NA","410787","NA","410783","412961","1874","413221","NA","NA","411971","1865","1865","412363","410783","1865","411971","413221","morph21_Oliver/Morris","54","48165","65","yes","1280","12"
"200","83.3333333333","83.3333333333","739.772727273","739.772727273","black","no","xpyriment","legacy","legacy","0","204","NA","uniform","59843","1000","0.0167103921929","1","undefined","1","0","65","65","65","0","65","65","65","NA","65","65","0","65","NA","65","65","0","65","NA","65","NA","65","0","0","65","65","0","65","65","66","z","02/21/19 17:48:25","The main experiment item","yes","FIN__AB__M21__7%3A10%3A17.osexp","C:\Users\ERP Testing Room\Desktop\Joanna\morph21","no","mono","no","18","no","white","no","yes","1080","legacy","65","65","C:/Users/ERP Testing Room/Desktop/Joanna/morph21/subject-160.csv","xpyriment","Kafkaesque Koffka","3.2.5","0","z","NA","NA","NA","NA","space","z","660","NA","NA","NA","NA","174712","660","2","legacy","1024","2","48000","-16","AB_m21","160","even","NW_L_COMP","FLIPORY","1865","417571","414346","416063","176587","NA","NA","NA","NA","416054","414843","NA","413846","NA","413842","416054","1874","417771","NA","NA","415063","1865","1865","415454","413842","1865","415063","417771","morph21_Oliver/Morris","55","48825","66","yes","1280","16"
"250","83.5820895522","83.5820895522","742.388059701","742.388059701","black","no","xpyriment","legacy","legacy","0","208","NA","uniform","57646","1000","0.0173472573986","1","undefined","1","0","66","66","66","0","66","66","66","NA","66","66","0","66","NA","66","66","0","66","NA","66","NA","66","0","0","66","66","0","66","66","67","z","02/21/19 17:48:25","The main experiment item","yes","FIN__AB__M21__7%3A10%3A17.osexp","C:\Users\ERP Testing Room\Desktop\Joanna\morph21","no","mono","no","18","no","white","no","yes","1080","legacy","66","66","C:/Users/ERP Testing Room/Desktop/Joanna/morph21/subject-160.csv","xpyriment","Kafkaesque Koffka","3.2.5","0","z","NA","NA","NA","NA","space","z","915","NA","NA","NA","NA","174712","915","2","legacy","1024","2","48000","-16","AB_m21","160","even","FILL_NW","BUWL","1865","420655","418963","416063","176587","NA","NA","NA","NA","420650","419460","NA","418454","NA","418447","420650","1874","420905","NA","NA","419663","1865","1865","420054","418447","1865","419663","420905","morph21_Oliver/Morris","56","49740","67","yes","1280","9"
"200","82.3529411765","82.3529411765","745.985294118","745.985294118","black","no","xpyriment","legacy","legacy","0","208","NA","uniform","52356","1000","0.01910000764","0","undefined","0","0","67","67","67","0","67","67","67","NA","67","67","0","67","NA","67","67","0","67","NA","67","NA","67","0","0","67","67","0","67","67","68","z","02/21/19 17:48:25","The main experiment item","yes","FIN__AB__M21__7%3A10%3A17.osexp","C:\Users\ERP Testing Room\Desktop\Joanna\morph21","no","mono","no","18","no","white","no","yes","1080","legacy","67","67","C:/Users/ERP Testing Room/Desktop/Joanna/morph21/subject-160.csv","xpyriment","Kafkaesque Koffka","3.2.5","0","None","NA","NA","NA","NA","space","None","987","NA","NA","NA","NA","174712","987","2","legacy","1024","2","48000","-16","AB_m21","160","even","FILL_NW","HOITS","1865","423696","421996","416063","176587","NA","NA","NA","NA","420650","422493","NA","421496","NA","421489","423692","1874","423896","NA","NA","422705","1865","1865","423096","421489","1865","422705","423896","morph21_Oliver/Morris","56","50727","68","yes","1280","30"
"200","82.6086956522","82.6086956522","749.449275362","749.449275362","black","no","xpyriment","legacy","legacy","0","208","NA","uniform","54920","1000","0.0182083029862","1","undefined","1","0","68","68","68","0","68","68","68","NA","68","68","0","68","NA","68","68","0","68","NA","68","NA","68","0","0","68","68","0","68","68","69","z","02/21/19 17:48:25","The main experiment item","yes","FIN__AB__M21__7%3A10%3A17.osexp","C:\Users\ERP Testing Room\Desktop\Joanna\morph21","no","mono","no","18","no","white","no","yes","1080","legacy","68","68","C:/Users/ERP Testing Room/Desktop/Joanna/morph21/subject-160.csv","xpyriment","Kafkaesque Koffka","3.2.5","0","z","NA","NA","NA","NA","space","z","985","NA","NA","NA","NA","174712","985","2","legacy","1024","2","48000","-16","AB_m21","160","even","FILL_NW","BLAYS","1865","428239","425038","426731","176587","NA","NA","NA","NA","426727","425535","NA","424538","NA","424532","426727","1874","428439","NA","NA","425738","1865","1865","426130","424532","1865","425738","428439","morph21_Oliver/Morris","57","51712","69","yes","1280","8"
"200","82.8571428571","82.8571428571","748.828571429","748.828571429","black","no","xpyriment","legacy","legacy","0","207","NA","uniform","55966","1000","0.0178679912804","1","undefined","1","0","69","69","69","0","69","69","69","NA","69","69","0","69","NA","69","69","0","69","NA","69","NA","69","0","0","69","69","0","69","69","70","/","02/21/19 17:48:25","The main experiment item","yes","FIN__AB__M21__7%3A10%3A17.osexp","C:\Users\ERP Testing Room\Desktop\Joanna\morph21","no","mono","no","18","no","white","no","yes","1080","legacy","69","69","C:/Users/ERP Testing Room/Desktop/Joanna/morph21/subject-160.csv","xpyriment","Kafkaesque Koffka","3.2.5","0","/","NA","NA","NA","NA","space","/","706","NA","NA","NA","NA","174712","706","2","legacy","1024","2","48000","-16","AB_m21","160","even","FILL_W","OLD","1865","431281","429614","426731","176587","NA","NA","NA","NA","431277","430111","NA","429114","NA","429105","431277","1874","431481","NA","NA","430281","1865","1865","430681","429105","1865","430281","431481","morph21_Oliver/Morris","58","52418","70","yes","1280","44"
"250","83.0985915493","83.0985915493","747.225352113","747.225352113","black","no","xpyriment","legacy","legacy","0","206","NA","uniform","60803","1000","0.0164465569133","1","undefined","1","0","70","70","70","0","70","70","70","NA","70","70","0","70","NA","70","70","0","70","NA","70","NA","70","0","0","70","70","0","70","70","71","z","02/21/19 17:48:25","The main experiment item","yes","FIN__AB__M21__7%3A10%3A17.osexp","C:\Users\ERP Testing Room\Desktop\Joanna\morph21","no","mono","no","18","no","white","no","yes","1080","legacy","70","70","C:/Users/ERP Testing Room/Desktop/Joanna/morph21/subject-160.csv","xpyriment","Kafkaesque Koffka","3.2.5","0","z","NA","NA","NA","NA","space","z","635","NA","NA","NA","NA","174712","635","2","legacy","1024","2","48000","-16","AB_m21","160","even","NW_L_SIMP"," DRESSODY","1865","434256","432598","426731","176587","NA","NA","NA","NA","434247","433095","NA","432098","NA","432087","434247","1874","434506","NA","NA","433256","1865","1865","433648","432087","1865","433256","434506","morph21_Oliver/Morris","59","53053","71","yes","1280","21"
"350","83.3333333333","83.3333333333","747.583333333","747.583333333","black","no","xpyriment","legacy","legacy","0","204","NA","uniform","62431","1000","0.0160176835226","1","undefined","1","0","71","71","71","0","71","71","71","NA","71","71","0","71","NA","71","71","0","71","NA","71","NA","71","0","0","71","71","0","71","71","72","z","02/21/19 17:48:25","The main experiment item","yes","FIN__AB__M21__7%3A10%3A17.osexp","C:\Users\ERP Testing Room\Desktop\Joanna\morph21","no","mono","no","18","no","white","no","yes","1080","legacy","71","71","C:/Users/ERP Testing Room/Desktop/Joanna/morph21/subject-160.csv","xpyriment","Kafkaesque Koffka","3.2.5","0","z","NA","NA","NA","NA","space","z","773","NA","NA","NA","NA","174712","773","2","legacy","1024","2","48000","-16","AB_m21","160","even","NW_L_COMP","MOUTHIZE","1865","438898","435698","437390","176587","NA","NA","NA","NA","437386","436195","NA","435190","NA","435186","437386","1874","439248","NA","NA","436398","1865","1865","436790","435186","1865","436398","439248","morph21_Oliver/Morris","60","53826","72","yes","1280","11"
"350","83.5616438356","83.5616438356","747.630136986","747.630136986","black","no","xpyriment","legacy","legacy","0","208","NA","uniform","61932","1000","0.0161467415875","1","undefined","1","0","72","72","72","0","72","72","72","NA","72","72","0","72","NA","72","72","0","72","NA","72","NA","72","0","0","72","72","0","72","72","73","z","02/21/19 17:48:25","The main experiment item","yes","FIN__AB__M21__7%3A10%3A17.osexp","C:\Users\ERP Testing Room\Desktop\Joanna\morph21","no","mono","no","18","no","white","no","yes","1080","legacy","72","72","C:/Users/ERP Testing Room/Desktop/Joanna/morph21/subject-160.csv","xpyriment","Kafkaesque Koffka","3.2.5","0","z","NA","NA","NA","NA","space","z","751","NA","NA","NA","NA","174712","751","2","legacy","1024","2","48000","-16","AB_m21","160","even","FILL_NW","DARF","1865","442115","440415","437390","176587","NA","NA","NA","NA","442106","440912","NA","439906","NA","439894","442106","1874","442465","NA","NA","441115","1865","1865","441506","439894","1865","441115","442465","morph21_Oliver/Morris","61","54577","73","yes","1280","10"
"300","83.7837837838","83.7837837838","745.756756757","745.756756757","black","no","xpyriment","legacy","legacy","0","201","NA","uniform","56159","1000","0.0178065848751","1","undefined","1","0","73","73","73","0","73","73","73","NA","73","73","0","73","NA","73","73","0","73","NA","73","NA","73","0","0","73","73","0","73","73","74","/","02/21/19 17:48:25","The main experiment item","yes","FIN__AB__M21__7%3A10%3A17.osexp","C:\Users\ERP Testing Room\Desktop\Joanna\morph21","no","mono","no","18","no","white","no","yes","1080","legacy","73","73","C:/Users/ERP Testing Room/Desktop/Joanna/morph21/subject-160.csv","xpyriment","Kafkaesque Koffka","3.2.5","0","/","NA","NA","NA","NA","space","/","609","NA","NA","NA","NA","174712","609","2","legacy","1024","2","48000","-16","AB_m21","160","even","CW_S","BUYER","1865","445258","443590","437390","176587","NA","NA","NA","NA","445247","444087","NA","443090","NA","443078","445247","1874","445558","NA","NA","444258","1865","1865","444649","443078","1865","444258","445558","morph21_Oliver/Morris","62","55186","74","yes","1280","21"
"200","84","84","744.08","744.08","black","no","xpyriment","legacy","legacy","0","207","NA","uniform","57893","1000","0.0172732454701","undefined","undefined","1","0","74","74","74","0","74","74","74","NA","74","74","0","74","NA","74","74","0","74","NA","74","NA","74","0","0","74","74","0","74","74","75","/","02/21/19 17:48:25","The main experiment item","yes","FIN__AB__M21__7%3A10%3A17.osexp","C:\Users\ERP Testing Room\Desktop\Joanna\morph21","no","mono","no","18","no","white","no","yes","1080","legacy","74","74","C:/Users/ERP Testing Room/Desktop/Joanna/morph21/subject-160.csv","xpyriment","Kafkaesque Koffka","3.2.5","0","space","space","NA","NA","NA","space","/","89160","89160","NA","NA","NA","174712","620","2","legacy","1024","2","48000","-16","AB_m21","160","even","FILL_W","WRECK","1865","449891","446699","448383","176587","450099","NA","NA","NA","448372","447196","NA","446199","NA","446188","448372","1874","539260","NA","NA","447383","1865","1865","447774","446188","1865","447383","450091","morph21_Oliver/Morris","63","55806","75","yes","1280","13"
"200","84.2105263158","84.2105263158","746.302631579","746.302631579","black","no","xpyriment","legacy","legacy","0","203","NA","uniform","52322","1000","0.01911241925","1","undefined","1","0","75","75","75","0","75","75","75","NA","75","75","0","75","NA","75","75","0","75","NA","75","NA","75","0","0","75","75","0","75","75","76","z","02/21/19 17:48:25","The main experiment item","yes","FIN__AB__M21__7%3A10%3A17.osexp","C:\Users\ERP Testing Room\Desktop\Joanna\morph21","no","mono","no","18","no","white","no","yes","1080","legacy","75","75","C:/Users/ERP Testing Room/Desktop/Joanna/morph21/subject-160.csv","xpyriment","Kafkaesque Koffka","3.2.5","0","z","space","NA","NA","NA","space","z","913","89160","NA","NA","NA","174712","913","2","legacy","1024","2","48000","-16","AB_m21","160","even","NW_S_COMP","PILLIZE","1865","542033","540350","448383","176587","450099","NA","NA","NA","542031","540847","NA","539850","NA","539839","542031","1874","542233","NA","NA","541042","1865","1865","541433","539839","1865","541042","542233","morph21_Oliver/Morris","64","56719","76","yes","1280","13"
"400","84.4155844156","84.4155844156","748.25974026","748.25974026","black","no","xpyriment","legacy","legacy","0","201","NA","uniform","57448","1000","0.0174070463724","1","undefined","1","0","76","76","76","0","76","76","76","NA","76","76","0","76","NA","76","76","0","76","NA","76","NA","76","0","0","76","76","0","76","76","77","/","02/21/19 17:48:25","The main experiment item","yes","FIN__AB__M21__7%3A10%3A17.osexp","C:\Users\ERP Testing Room\Desktop\Joanna\morph21","no","mono","no","18","no","white","no","yes","1080","legacy","76","76","C:/Users/ERP Testing Room/Desktop/Joanna/morph21/subject-160.csv","xpyriment","Kafkaesque Koffka","3.2.5","0","/","space","NA","NA","NA","space","/","897","89160","NA","NA","NA","174712","897","2","legacy","1024","2","48000","-16","AB_m21","160","even","CW_S","WIDOWED","1865","545033","543367","448383","176587","450099","NA","NA","NA","545026","543864","NA","542867","NA","542858","545026","1874","545434","NA","NA","544033","1865","1865","544425","542858","1865","544033","545434","morph21_Oliver/Morris","65","57616","77","yes","1280","7"
"250","84.6153846154","84.6153846154","746.525641026","746.525641026","black","no","xpyriment","legacy","legacy","0","207","NA","uniform","66816","1000","0.0149664750958","1","undefined","1","0","77","77","77","0","77","77","77","NA","77","77","0","77","NA","77","77","0","77","NA","77","NA","77","0","0","77","77","0","77","77","78","/","02/21/19 17:48:25","The main experiment item","yes","FIN__AB__M21__7%3A10%3A17.osexp","C:\Users\ERP Testing Room\Desktop\Joanna\morph21","no","mono","no","18","no","white","no","yes","1080","legacy","77","77","C:/Users/ERP Testing Room/Desktop/Joanna/morph21/subject-160.csv","xpyriment","Kafkaesque Koffka","3.2.5","0","/","space","NA","NA","NA","space","/","613","89160","NA","NA","NA","174712","613","2","legacy","1024","2","48000","-16","AB_m21","160","even","FILL_W","PREACH","1865","549835","546675","548325","176587","450099","NA","NA","NA","548318","547172","NA","546175","NA","546171","548318","1874","550085","NA","NA","547325","1865","1865","547717","546171","1865","547325","550085","morph21_Oliver/Morris","66","58229","78","yes","1280","7"
"400","84.8101265823","84.8101265823","745.493670886","745.493670886","black","no","xpyriment","legacy","legacy","0","208","NA","uniform","63524","1000","0.0157420817329","1","undefined","1","0","78","78","78","0","78","78","78","NA","78","78","0","78","NA","78","78","0","78","NA","78","NA","78","0","0","78","78","0","78","78","79","z","02/21/19 17:48:25","The main experiment item","yes","FIN__AB__M21__7%3A10%3A17.osexp","C:\Users\ERP Testing Room\Desktop\Joanna\morph21","no","mono","no","18","no","white","no","yes","1080","legacy","78","78","C:/Users/ERP Testing Room/Desktop/Joanna/morph21/subject-160.csv","xpyriment","Kafkaesque Koffka","3.2.5","0","z","space","NA","NA","NA","space","z","665","89160","NA","NA","NA","174712","665","2","legacy","1024","2","48000","-16","AB_m21","160","even","FILL_NW","SOISE","1865","552826","551185","548325","176587","450099","NA","NA","NA","552820","551682","NA","550685","NA","550673","552820","1874","553227","NA","NA","551826","1865","1865","552218","550673","1865","551826","553227","morph21_Oliver/Morris","67","58894","79","yes","1280","43"
"250","85","85","743.675","743.675","black","no","xpyriment","legacy","legacy","0","206","NA","uniform","65702","1000","0.0152202368269","1","undefined","1","0","79","79","79","0","79","79","79","NA","79","79","0","79","NA","79","79","0","79","NA","79","NA","79","0","0","79","79","0","79","79","80","z","02/21/19 17:48:25","The main experiment item","yes","FIN__AB__M21__7%3A10%3A17.osexp","C:\Users\ERP Testing Room\Desktop\Joanna\morph21","no","mono","no","18","no","white","no","yes","1080","legacy","79","79","C:/Users/ERP Testing Room/Desktop/Joanna/morph21/subject-160.csv","xpyriment","Kafkaesque Koffka","3.2.5","0","z","space","NA","NA","NA","space","z","600","89160","NA","NA","NA","174712","600","2","legacy","1024","2","48000","-16","AB_m21","160","even","NW_L_SIMP","BEARILT","1865","556027","554360","548325","176587","450099","NA","NA","NA","556016","554857","NA","553860","NA","553855","556016","1874","556277","NA","NA","555027","1865","1865","555418","553854","1865","555027","556277","morph21_Oliver/Morris","68","59494","80","yes","1280","25"
"200","85.1851851852","85.1851851852","742.111111111","742.111111111","black","no","xpyriment","legacy","legacy","0","206","NA","uniform","65761","1000","0.0152065814084","1","undefined","1","0","80","80","80","0","80","80","80","NA","80","80","0","80","NA","80","80","0","80","NA","80","NA","80","0","0","80","80","0","80","80","81","z","02/21/19 17:48:25","The main experiment item","yes","FIN__AB__M21__7%3A10%3A17.osexp","C:\Users\ERP Testing Room\Desktop\Joanna\morph21","no","mono","no","18","no","white","no","yes","1080","legacy","80","80","C:/Users/ERP Testing Room/Desktop/Joanna/morph21/subject-160.csv","xpyriment","Kafkaesque Koffka","3.2.5","0","z","space","NA","NA","NA","space","z","617","89160","NA","NA","NA","174712","617","2","legacy","1024","2","48000","-16","AB_m21","160","even","NW_L_SIMP","GROWILT","1865","560719","557560","559210","176587","450099","NA","NA","NA","559203","558057","NA","557060","NA","557056","559203","1874","560919","NA","NA","558210","1865","1865","558602","557056","1865","558210","560919","morph21_Oliver/Morris","69","60111","81","yes","1280","20"
"400","85.3658536585","85.3658536585","741.487804878","741.487804878","black","no","xpyriment","legacy","legacy","0","202","NA","uniform","55210","1000","0.0181126607499","1","undefined","1","0","81","81","81","0","81","81","81","NA","81","81","0","81","NA","81","81","0","81","NA","81","NA","81","0","0","81","81","0","81","81","82","/","02/21/19 17:48:25","The main experiment item","yes","FIN__AB__M21__7%3A10%3A17.osexp","C:\Users\ERP Testing Room\Desktop\Joanna\morph21","no","mono","no","18","no","white","no","yes","1080","legacy","81","81","C:/Users/ERP Testing Room/Desktop/Joanna/morph21/subject-160.csv","xpyriment","Kafkaesque Koffka","3.2.5","0","/","space","NA","NA","NA","space","/","691","89160","NA","NA","NA","174712","691","2","legacy","1024","2","48000","-16","AB_m21","160","even","CW_L","CLOUDLESS","1865","563727","562052","559210","176587","450099","NA","NA","NA","563721","562549","NA","561544","NA","561537","563721","1874","564127","NA","NA","562727","1865","1865","563119","561537","1865","562727","564127","morph21_Oliver/Morris","70","60802","82","yes","1280","33"
"250","85.5421686747","85.5421686747","738.987951807","738.987951807","black","no","xpyriment","legacy","legacy","0","207","NA","uniform","67896","1000","0.0147284081536","1","undefined","1","0","82","82","82","0","82","82","82","NA","82","82","0","82","NA","82","82","0","82","NA","82","NA","82","0","0","82","82","0","82","82","83","/","02/21/19 17:48:25","The main experiment item","yes","FIN__AB__M21__7%3A10%3A17.osexp","C:\Users\ERP Testing Room\Desktop\Joanna\morph21","no","mono","no","18","no","white","no","yes","1080","legacy","82","82","C:/Users/ERP Testing Room/Desktop/Joanna/morph21/subject-160.csv","xpyriment","Kafkaesque Koffka","3.2.5","0","/","space","NA","NA","NA","space","/","534","89160","NA","NA","NA","174712","534","2","legacy","1024","2","48000","-16","AB_m21","160","even","FILL_W","COOK","1865","567078","565377","559210","176587","450099","NA","NA","NA","567072","565874","NA","564877","NA","564867","567072","1874","567328","NA","NA","566077","1865","1865","566470","564867","1865","566077","567328","morph21_Oliver/Morris","71","61336","83","yes","1280","38"
"200","85.7142857143","85.7142857143","738.666666667","738.666666667","black","no","xpyriment","legacy","legacy","0","201","NA","uniform","66506","1000","0.015036237332","1","undefined","1","0","83","83","83","0","83","83","83","NA","83","83","0","83","NA","83","83","0","83","NA","83","NA","83","0","0","83","83","0","83","83","84","/","02/21/19 17:48:25","The main experiment item","yes","FIN__AB__M21__7%3A10%3A17.osexp","C:\Users\ERP Testing Room\Desktop\Joanna\morph21","no","mono","no","18","no","white","no","yes","1080","legacy","83","83","C:/Users/ERP Testing Room/Desktop/Joanna/morph21/subject-160.csv","xpyriment","Kafkaesque Koffka","3.2.5","0","/","space","NA","NA","NA","space","/","712","89160","NA","NA","NA","174712","712","2","legacy","1024","2","48000","-16","AB_m21","160","even","CW_S","LISTENER","1865","571695","568520","570187","176587","450099","NA","NA","NA","570178","569017","NA","568012","NA","568006","570178","1874","571895","NA","NA","569187","1865","1865","569578","568006","1865","569187","571895","morph21_Oliver/Morris","72","62048","84","yes","1280","18"
"400","85.8823529412","85.8823529412","739.623529412","739.623529412","black","no","xpyriment","legacy","legacy","0","208","NA","uniform","59489","1000","0.0168098303888","1","undefined","1","0","84","84","84","0","84","84","84","NA","84","84","0","84","NA","84","84","0","84","NA","84","NA","84","0","0","84","84","0","84","84","85","z","02/21/19 17:48:25","The main experiment item","yes","FIN__AB__M21__7%3A10%3A17.osexp","C:\Users\ERP Testing Room\Desktop\Joanna\morph21","no","mono","no","18","no","white","no","yes","1080","legacy","84","84","C:/Users/ERP Testing Room/Desktop/Joanna/morph21/subject-160.csv","xpyriment","Kafkaesque Koffka","3.2.5","0","z","space","NA","NA","NA","space","z","820","89160","NA","NA","NA","174712","820","2","legacy","1024","2","48000","-16","AB_m21","160","even","FILL_NW","VELT","1865","574695","572987","570187","176587","450099","NA","NA","NA","574687","573484","NA","572487","NA","572477","574687","1874","575095","NA","NA","573695","1865","1865","574087","572477","1865","573695","575095","morph21_Oliver/Morris","73","62868","85","yes","1280","46"
"250","86.0465116279","86.0465116279","737.755813953","737.755813953","black","no","xpyriment","legacy","legacy","0","201","NA","uniform","68570","1000","0.0145836371591","1","undefined","1","0","85","85","85","0","85","85","85","NA","85","85","0","85","NA","85","85","0","85","NA","85","NA","85","0","0","85","85","0","85","85","86","/","02/21/19 17:48:25","The main experiment item","yes","FIN__AB__M21__7%3A10%3A17.osexp","C:\Users\ERP Testing Room\Desktop\Joanna\morph21","no","mono","no","18","no","white","no","yes","1080","legacy","85","85","C:/Users/ERP Testing Room/Desktop/Joanna/morph21/subject-160.csv","xpyriment","Kafkaesque Koffka","3.2.5","0","/","space","NA","NA","NA","space","/","579","89160","NA","NA","NA","174712","579","2","legacy","1024","2","48000","-16","AB_m21","160","even","CW_S","COSTLY","1865","577920","576212","570187","176587","450099","NA","NA","NA","577916","576709","NA","575712","NA","575704","577916","1874","578170","NA","NA","576920","1865","1865","577320","575704","1865","576920","578170","morph21_Oliver/Morris","74","63447","86","yes","1280","36"
"200","86.2068965517","86.2068965517","736.965517241","736.965517241","black","no","xpyriment","legacy","legacy","0","208","NA","uniform","66277","1000","0.0150881904733","1","undefined","1","0","86","86","86","0","86","86","86","NA","86","86","0","86","NA","86","86","0","86","NA","86","NA","86","0","0","86","86","0","86","86","87","z","02/21/19 17:48:25","The main experiment item","yes","FIN__AB__M21__7%3A10%3A17.osexp","C:\Users\ERP Testing Room\Desktop\Joanna\morph21","no","mono","no","18","no","white","no","yes","1080","legacy","86","86","C:/Users/ERP Testing Room/Desktop/Joanna/morph21/subject-160.csv","xpyriment","Kafkaesque Koffka","3.2.5","0","z","space","NA","NA","NA","space","z","669","89160","NA","NA","NA","174712","669","2","legacy","1024","2","48000","-16","AB_m21","160","even","FILL_NW","GAIRS","1865","582529","579320","581020","176587","450099","NA","NA","NA","581017","579817","NA","578820","NA","578816","581017","1874","582729","NA","NA","580029","1865","1865","580420","578816","1865","580029","582729","morph21_Oliver/Morris","75","64116","87","yes","1280","23"
"400","86.3636363636","86.3636363636","737.5","737.5","black","no","xpyriment","legacy","legacy","0","206","NA","uniform","55461","1000","0.0180306882314","1","undefined","1","0","87","87","87","0","87","87","87","NA","87","87","0","87","NA","87","87","0","87","NA","87","NA","87","0","0","87","87","0","87","87","88","z","02/21/19 17:48:25","The main experiment item","yes","FIN__AB__M21__7%3A10%3A17.osexp","C:\Users\ERP Testing Room\Desktop\Joanna\morph21","no","mono","no","18","no","white","no","yes","1080","legacy","87","87","C:/Users/ERP Testing Room/Desktop/Joanna/morph21/subject-160.csv","xpyriment","Kafkaesque Koffka","3.2.5","0","z","space","NA","NA","NA","space","z","784","89160","NA","NA","NA","174712","784","2","legacy","1024","2","48000","-16","AB_m21","160","even","NW_L_SIMP","BOGADY","1865","585547","583870","581020","176587","450099","NA","NA","NA","585543","584368","NA","583370","NA","583364","585543","1874","585947","NA","NA","584555","1865","1865","584946","583364","1865","584555","585947","morph21_Oliver/Morris","76","64900","88","yes","1280","2"
"200","86.5168539326","86.5168539326","738.438202247","738.438202247","black","no","xpyriment","legacy","legacy","0","208","NA","uniform","58542","1000","0.0170817532712","1","undefined","1","0","88","88","88","0","88","88","88","NA","88","88","0","88","NA","88","88","0","88","NA","88","NA","88","0","0","88","88","0","88","88","89","z","02/21/19 17:48:25","The main experiment item","yes","FIN__AB__M21__7%3A10%3A17.osexp","C:\Users\ERP Testing Room\Desktop\Joanna\morph21","no","mono","no","18","no","white","no","yes","1080","legacy","88","88","C:/Users/ERP Testing Room/Desktop/Joanna/morph21/subject-160.csv","xpyriment","Kafkaesque Koffka","3.2.5","0","z","space","NA","NA","NA","space","z","821","89160","NA","NA","NA","174712","821","2","legacy","1024","2","48000","-16","AB_m21","160","even","FILL_NW","GILN","1865","588838","587180","581020","176587","450099","NA","NA","NA","588834","587677","NA","586680","NA","586670","588834","1874","589038","NA","NA","587838","1865","1865","588238","586670","1865","587838","589038","morph21_Oliver/Morris","77","65721","89","yes","1280","25"
"350","86.6666666667","86.6666666667","741.2","741.2","black","no","xpyriment","legacy","legacy","0","201","NA","uniform","49406","1000","0.0202404566247","1","undefined","1","0","89","89","89","0","89","89","89","NA","89","89","0","89","NA","89","89","0","89","NA","89","NA","89","0","0","89","89","0","89","89","90","/","02/21/19 17:48:25","The main experiment item","yes","FIN__AB__M21__7%3A10%3A17.osexp","C:\Users\ERP Testing Room\Desktop\Joanna\morph21","no","mono","no","18","no","white","no","yes","1080","legacy","89","89","C:/Users/ERP Testing Room/Desktop/Joanna/morph21/subject-160.csv","xpyriment","Kafkaesque Koffka","3.2.5","0","/","space","NA","NA","NA","space","/","987","89160","NA","NA","NA","174712","987","2","legacy","1024","2","48000","-16","AB_m21","160","even","CW_S","DULLNESS","1865","593380","590163","591872","176587","450099","NA","NA","NA","591867","590661","NA","589663","NA","589656","591867","1874","593730","NA","NA","590872","1865","1865","591272","589656","1865","590872","593730","morph21_Oliver/Morris","78","66708","90","yes","1280","43"
