"ITI","acc","accuracy","average_response_time","avg_rt","background","bidi","canvas_backend","clock_backend","color_backend","compensation","cond_trig","condtrigtime","coordinates","coroutines_cycles","coroutines_duration","coroutines_mean_cycle_duration","correct","correct_instructions_1","correct_new_keyboard_response_1","count_BA_m21","count_ITI","count_blank_screen","count_blink_screen","count_block1","count_break1","count_break2","count_break3_1","count_canvas","count_correct_trigger","count_def_chain","count_end_screen","count_fixation_1","count_getting_started","count_inc_counter","count_incorrect_trigger","count_instructions_1","count_logger","count_logscript","count_new_coroutines","count_new_inline_script","count_new_keyboard_response_1","count_reset_counter_prep","count_reset_counter_run","count_responsescreen","count_sequence","count_start_trigger","count_target_present","count_word_trigger","counter","cresp","datetime","description","disable_garbage_collection","experiment_file","experiment_path","font_bold","font_family","font_italic","font_size","font_underline","foreground","form_clicks","fullscreen","height","keyboard_backend","live_row","live_row_block1","logfile","mouse_backend","opensesame_codename","opensesame_version","repeat_cycle","response","response_break1","response_break2","response_break3_1","response_end_screen","response_instructions_1","response_new_keyboard_response_1","response_time","response_time_break1","response_time_break2","response_time_break3_1","response_time_end_screen","response_time_instructions_1","response_time_new_keyboard_response_1","round_decimals","sampler_backend","sound_buf_size","sound_channels","sound_freq","sound_sample_size","start","subject_nr","subject_parity","targ_type","target","time_BA_m21","time_ITI","time_blank_screen","time_blink_screen","time_block1","time_break1","time_break2","time_break3_1","time_canvas","time_correct_trigger","time_def_chain","time_end_screen","time_fixation_1","time_getting_started","time_inc_counter","time_incorrect_trigger","time_instructions_1","time_logger","time_logscript","time_new_inline_script","time_new_keyboard_response_1","time_reset_counter_prep","time_reset_counter_run","time_responsescreen","time_sequence","time_start_trigger","time_target_present","time_word_trigger","title","total_correct","total_response_time","total_responses","uniform_coordinates","width","word_trig"
"300","100","100","986","986","black","no","xpyriment","legacy","legacy","0","204","NA","uniform","60573","1000","0.0165090056626","1","undefined","1","0","0","0","0","0","0","0","0","NA","0","0","0","0","NA","0","0","0","0","NA","0","NA","0","0","0","0","0","0","0","0","1","z","01/12/18 15:31:07","The main experiment item","yes","FIN__BA__M21__7%3A10%3A17.osexp","C:\Users\ERP Testing Room\Desktop\Joanna\morph21","no","mono","no","18","no","white","no","yes","1080","legacy","0","0","C:/Users/ERP Testing Room/Desktop/Joanna/morph21/subject-121.csv","xpyriment","Jazzy James","3.1.4","0","z","NA","NA","NA","NA","space","z","986","NA","NA","NA","NA","153002","986","2","legacy","1024","2","48000","-16","BA_m21","121","odd","NW_L_COMP","ADDMANT","1382","157288","155663","NA","154394","NA","NA","NA","NA","157283","156160","NA","155157","NA","155089","157283","1392","157588","NA","NA","156288","1382","1382","156688","155089","1382","156288","157588","morph21_Oliver/Morris","1","986","1","yes","1280","13"
"250","50","50","942.5","942.5","black","no","xpyriment","legacy","legacy","0","201","NA","uniform","62827","1000","0.0159167237016","0","undefined","0","0","1","1","1","0","1","1","1","NA","1","1","0","1","NA","1","1","0","1","NA","1","NA","1","0","0","1","1","0","1","1","2","/","01/12/18 15:31:07","The main experiment item","yes","FIN__BA__M21__7%3A10%3A17.osexp","C:\Users\ERP Testing Room\Desktop\Joanna\morph21","no","mono","no","18","no","white","no","yes","1080","legacy","1","1","C:/Users/ERP Testing Room/Desktop/Joanna/morph21/subject-121.csv","xpyriment","Jazzy James","3.1.4","0","z","NA","NA","NA","NA","space","z","899","NA","NA","NA","NA","153002","899","2","legacy","1024","2","48000","-16","BA_m21","121","odd","CW_S","HUGELY","1382","160463","158854","NA","154394","NA","NA","NA","NA","157283","159351","NA","158354","NA","158347","160456","1392","160713","NA","NA","159463","1382","1382","159854","158347","1382","159463","160713","morph21_Oliver/Morris","1","1885","2","yes","1280","35"
"350","33.3333333333","33.3333333333","958.333333333","958.333333333","black","no","xpyriment","legacy","legacy","0","203","NA","uniform","56762","1000","0.017617420105","0","undefined","0","0","2","2","2","0","2","2","2","NA","2","2","0","2","NA","2","2","0","2","NA","2","NA","2","0","0","2","2","0","2","2","3","z","01/12/18 15:31:07","The main experiment item","yes","FIN__BA__M21__7%3A10%3A17.osexp","C:\Users\ERP Testing Room\Desktop\Joanna\morph21","no","mono","no","18","no","white","no","yes","1080","legacy","2","2","C:/Users/ERP Testing Room/Desktop/Joanna/morph21/subject-121.csv","xpyriment","Jazzy James","3.1.4","0","None","NA","NA","NA","NA","space","None","990","NA","NA","NA","NA","153002","990","2","legacy","1024","2","48000","-16","BA_m21","121","odd","NW_S_COMP","HUMIDOES","1382","164956","161854","163446","154394","NA","NA","NA","NA","157283","162352","NA","161355","NA","161348","163437","1392","165306","NA","NA","162446","1382","1382","162838","161348","1382","162446","165306","morph21_Oliver/Morris","1","2875","3","yes","1280","25"
"350","25","25","966.5","966.5","black","no","xpyriment","legacy","legacy","0","206","NA","uniform","61859","1000","0.016165796408","0","undefined","0","0","3","3","3","0","3","3","3","NA","3","3","0","3","NA","3","3","0","3","NA","3","NA","3","0","0","3","3","0","3","3","4","z","01/12/18 15:31:07","The main experiment item","yes","FIN__BA__M21__7%3A10%3A17.osexp","C:\Users\ERP Testing Room\Desktop\Joanna\morph21","no","mono","no","18","no","white","no","yes","1080","legacy","3","3","C:/Users/ERP Testing Room/Desktop/Joanna/morph21/subject-121.csv","xpyriment","Jazzy James","3.1.4","0","None","NA","NA","NA","NA","space","None","991","NA","NA","NA","NA","153002","991","2","legacy","1024","2","48000","-16","BA_m21","121","odd","NW_L_SIMP","WIGISH","1382","168189","166606","163446","154394","NA","NA","NA","NA","157283","167103","NA","166106","NA","166100","168181","1392","168539","NA","NA","167189","1382","1382","167581","166100","1382","167189","168539","morph21_Oliver/Morris","1","3866","4","yes","1280","9"
"300","40","40","963","963","black","no","xpyriment","legacy","legacy","0","204","NA","uniform","57840","1000","0.0172890733057","1","undefined","1","0","4","4","4","0","4","4","4","NA","4","4","0","4","NA","4","4","0","4","NA","4","NA","4","0","0","4","4","0","4","4","5","z","01/12/18 15:31:07","The main experiment item","yes","FIN__BA__M21__7%3A10%3A17.osexp","C:\Users\ERP Testing Room\Desktop\Joanna\morph21","no","mono","no","18","no","white","no","yes","1080","legacy","4","4","C:/Users/ERP Testing Room/Desktop/Joanna/morph21/subject-121.csv","xpyriment","Jazzy James","3.1.4","0","z","NA","NA","NA","NA","space","z","949","NA","NA","NA","NA","153002","949","2","legacy","1024","2","48000","-16","BA_m21","121","odd","NW_L_COMP","ILLILT","1382","171381","169781","163446","154394","NA","NA","NA","NA","171373","170278","NA","169281","NA","169270","171373","1392","171681","NA","NA","170381","1382","1382","170773","169270","1382","170381","171681","morph21_Oliver/Morris","2","4815","5","yes","1280","9"
"200","33.3333333333","33.3333333333","967.5","967.5","black","no","xpyriment","legacy","legacy","0","205","NA","uniform","57187","1000","0.0174864916852","0","undefined","0","0","5","5","5","0","5","5","5","NA","5","5","0","5","NA","5","5","0","5","NA","5","NA","5","0","0","5","5","0","5","5","6","z","01/12/18 15:31:07","The main experiment item","yes","FIN__BA__M21__7%3A10%3A17.osexp","C:\Users\ERP Testing Room\Desktop\Joanna\morph21","no","mono","no","18","no","white","no","yes","1080","legacy","5","5","C:/Users/ERP Testing Room/Desktop/Joanna/morph21/subject-121.csv","xpyriment","Jazzy James","3.1.4","0","None","NA","NA","NA","NA","space","None","990","NA","NA","NA","NA","153002","990","2","legacy","1024","2","48000","-16","BA_m21","121","odd","NW_S_SIMP","GUMFUL","1382","176056","172956","174548","154394","NA","NA","NA","NA","171373","173453","NA","172456","NA","172448","174538","1392","176256","NA","NA","173548","1382","1382","173939","172448","1382","173548","176256","morph21_Oliver/Morris","2","5805","6","yes","1280","2"
"350","42.8571428571","42.8571428571","936.714285714","936.714285714","black","no","xpyriment","legacy","legacy","0","201","NA","uniform","74004","1000","0.0135127830928","1","undefined","1","0","6","6","6","0","6","6","6","NA","6","6","0","6","NA","6","6","0","6","NA","6","NA","6","0","0","6","6","0","6","6","7","/","01/12/18 15:31:07","The main experiment item","yes","FIN__BA__M21__7%3A10%3A17.osexp","C:\Users\ERP Testing Room\Desktop\Joanna\morph21","no","mono","no","18","no","white","no","yes","1080","legacy","6","6","C:/Users/ERP Testing Room/Desktop/Joanna/morph21/subject-121.csv","xpyriment","Jazzy James","3.1.4","0","/","NA","NA","NA","NA","space","/","752","NA","NA","NA","NA","153002","752","2","legacy","1024","2","48000","-16","BA_m21","121","odd","CW_S","SINGER","1382","179090","177506","174548","154394","NA","NA","NA","NA","179083","178003","NA","177006","NA","176998","179083","1392","179440","NA","NA","178090","1382","1382","178481","176998","1382","178089","179440","morph21_Oliver/Morris","3","6557","7","yes","1280","17"
"400","37.5","37.5","943.875","943.875","black","no","xpyriment","legacy","legacy","0","208","NA","uniform","57225","1000","0.0174748798602","0","undefined","0","0","7","7","7","0","7","7","7","NA","7","7","0","7","NA","7","7","0","7","NA","7","NA","7","0","0","7","7","0","7","7","8","z","01/12/18 15:31:07","The main experiment item","yes","FIN__BA__M21__7%3A10%3A17.osexp","C:\Users\ERP Testing Room\Desktop\Joanna\morph21","no","mono","no","18","no","white","no","yes","1080","legacy","7","7","C:/Users/ERP Testing Room/Desktop/Joanna/morph21/subject-121.csv","xpyriment","Jazzy James","3.1.4","0","None","NA","NA","NA","NA","space","None","994","NA","NA","NA","NA","153002","994","2","legacy","1024","2","48000","-16","BA_m21","121","odd","FILL_NW","VELT","1382","182357","180756","174548","154394","NA","NA","NA","NA","179083","181253","NA","180256","NA","180250","182350","1392","182757","NA","NA","181356","1382","1382","181748","180250","1382","181356","182757","morph21_Oliver/Morris","3","7551","8","yes","1280","46"
"350","44.4444444444","44.4444444444","909.666666667","909.666666667","black","no","xpyriment","legacy","legacy","0","207","NA","uniform","75135","1000","0.0133093764557","1","undefined","1","0","8","8","8","0","8","8","8","NA","8","8","0","8","NA","8","8","0","8","NA","8","NA","8","0","0","8","8","0","8","8","9","/","01/12/18 15:31:07","The main experiment item","yes","FIN__BA__M21__7%3A10%3A17.osexp","C:\Users\ERP Testing Room\Desktop\Joanna\morph21","no","mono","no","18","no","white","no","yes","1080","legacy","8","8","C:/Users/ERP Testing Room/Desktop/Joanna/morph21/subject-121.csv","xpyriment","Jazzy James","3.1.4","0","/","NA","NA","NA","NA","space","/","636","NA","NA","NA","NA","153002","636","2","legacy","1024","2","48000","-16","BA_m21","121","odd","FILL_W","FAINT","1382","187074","183983","185566","154394","NA","NA","NA","NA","185558","184480","NA","183483","NA","183471","185558","1392","187424","NA","NA","184566","1382","1382","184958","183471","1382","184566","187424","morph21_Oliver/Morris","4","8187","9","yes","1280","31"
"400","40","40","917.8","917.8","black","no","xpyriment","legacy","legacy","0","205","NA","uniform","62550","1000","0.0159872102318","0","undefined","0","0","9","9","9","0","9","9","9","NA","9","9","0","9","NA","9","9","0","9","NA","9","NA","9","0","0","9","9","0","9","9","10","z","01/12/18 15:31:07","The main experiment item","yes","FIN__BA__M21__7%3A10%3A17.osexp","C:\Users\ERP Testing Room\Desktop\Joanna\morph21","no","mono","no","18","no","white","no","yes","1080","legacy","9","9","C:/Users/ERP Testing Room/Desktop/Joanna/morph21/subject-121.csv","xpyriment","Jazzy James","3.1.4","0","None","NA","NA","NA","NA","space","None","991","NA","NA","NA","NA","153002","991","2","legacy","1024","2","48000","-16","BA_m21","121","odd","NW_S_SIMP","URNIST","1382","190233","188641","185566","154394","NA","NA","NA","NA","185558","189138","NA","188141","NA","188132","190224","1392","190633","NA","NA","189233","1382","1382","189624","188132","1382","189233","190633","morph21_Oliver/Morris","4","9178","10","yes","1280","5"
"350","45.4545454545","45.4545454545","894.545454545","894.545454545","black","no","xpyriment","legacy","legacy","0","202","NA","uniform","68313","1000","0.0146385021885","1","undefined","1","0","10","10","10","0","10","10","10","NA","10","10","0","10","NA","10","10","0","10","NA","10","NA","10","0","0","10","10","0","10","10","11","/","01/12/18 15:31:07","The main experiment item","yes","FIN__BA__M21__7%3A10%3A17.osexp","C:\Users\ERP Testing Room\Desktop\Joanna\morph21","no","mono","no","18","no","white","no","yes","1080","legacy","10","10","C:/Users/ERP Testing Room/Desktop/Joanna/morph21/subject-121.csv","xpyriment","Jazzy James","3.1.4","0","/","NA","NA","NA","NA","space","/","662","NA","NA","NA","NA","153002","662","2","legacy","1024","2","48000","-16","BA_m21","121","odd","CW_L","SWIMMER","1382","193516","191916","185566","154394","NA","NA","NA","NA","193510","192413","NA","191416","NA","191406","193510","1392","193866","NA","NA","192516","1382","1382","192908","191406","1382","192516","193866","morph21_Oliver/Morris","5","9840","11","yes","1280","5"
"400","50","50","876","876","black","no","xpyriment","legacy","legacy","0","201","NA","uniform","76436","1000","0.0130828405463","1","undefined","1","0","11","11","11","0","11","11","11","NA","11","11","0","11","NA","11","11","0","11","NA","11","NA","11","0","0","11","11","0","11","11","12","/","01/12/18 15:31:07","The main experiment item","yes","FIN__BA__M21__7%3A10%3A17.osexp","C:\Users\ERP Testing Room\Desktop\Joanna\morph21","no","mono","no","18","no","white","no","yes","1080","legacy","11","11","C:/Users/ERP Testing Room/Desktop/Joanna/morph21/subject-121.csv","xpyriment","Jazzy James","3.1.4","0","/","NA","NA","NA","NA","space","/","672","NA","NA","NA","NA","153002","672","2","legacy","1024","2","48000","-16","BA_m21","121","odd","CW_S","ALLOWANCE","1382","198133","195033","196625","154394","NA","NA","NA","NA","196616","195530","NA","194533","NA","194526","196616","1392","198533","NA","NA","195625","1382","1382","196016","194526","1382","195625","198533","morph21_Oliver/Morris","6","10512","12","yes","1280","5"
"200","53.8461538462","53.8461538462","883.153846154","883.153846154","black","no","xpyriment","legacy","legacy","0","204","NA","uniform","60032","1000","0.016657782516","1","undefined","1","0","12","12","12","0","12","12","12","NA","12","12","0","12","NA","12","12","0","12","NA","12","NA","12","0","0","12","12","0","12","12","13","z","01/12/18 15:31:07","The main experiment item","yes","FIN__BA__M21__7%3A10%3A17.osexp","C:\Users\ERP Testing Room\Desktop\Joanna\morph21","no","mono","no","18","no","white","no","yes","1080","legacy","12","12","C:/Users/ERP Testing Room/Desktop/Joanna/morph21/subject-121.csv","xpyriment","Jazzy James","3.1.4","0","z","NA","NA","NA","NA","space","z","969","NA","NA","NA","NA","153002","969","2","legacy","1024","2","48000","-16","BA_m21","121","odd","NW_L_COMP","PITCHODY","1382","201393","199801","196625","154394","NA","NA","NA","NA","201386","200298","NA","199300","NA","199293","201386","1392","201593","NA","NA","200393","1382","1382","200784","199293","1382","200393","201593","morph21_Oliver/Morris","7","11481","13","yes","1280","25"
"250","57.1428571429","57.1428571429","859.5","859.5","black","no","xpyriment","legacy","legacy","0","201","NA","uniform","71023","1000","0.014079945933","1","undefined","1","0","13","13","13","0","13","13","13","NA","13","13","0","13","NA","13","13","0","13","NA","13","NA","13","0","0","13","13","0","13","13","14","/","01/12/18 15:31:07","The main experiment item","yes","FIN__BA__M21__7%3A10%3A17.osexp","C:\Users\ERP Testing Room\Desktop\Joanna\morph21","no","mono","no","18","no","white","no","yes","1080","legacy","13","13","C:/Users/ERP Testing Room/Desktop/Joanna/morph21/subject-121.csv","xpyriment","Jazzy James","3.1.4","0","/","NA","NA","NA","NA","space","/","552","NA","NA","NA","NA","153002","552","2","legacy","1024","2","48000","-16","BA_m21","121","odd","CW_S","PLANNER","1382","204418","202826","196625","154394","NA","NA","NA","NA","204413","203323","NA","202326","NA","202315","204413","1392","204668","NA","NA","203418","1382","1382","203818","202315","1382","203418","204668","morph21_Oliver/Morris","8","12033","14","yes","1280","22"
"250","60","60","840.933333333","840.933333333","black","no","xpyriment","legacy","legacy","0","201","NA","uniform","76227","1000","0.0131187112178","1","undefined","1","0","14","14","14","0","14","14","14","NA","14","14","0","14","NA","14","14","0","14","NA","14","NA","14","0","0","14","14","0","14","14","15","/","01/12/18 15:31:07","The main experiment item","yes","FIN__BA__M21__7%3A10%3A17.osexp","C:\Users\ERP Testing Room\Desktop\Joanna\morph21","no","mono","no","18","no","white","no","yes","1080","legacy","14","14","C:/Users/ERP Testing Room/Desktop/Joanna/morph21/subject-121.csv","xpyriment","Jazzy James","3.1.4","0","/","NA","NA","NA","NA","space","/","581","NA","NA","NA","NA","153002","581","2","legacy","1024","2","48000","-16","BA_m21","121","odd","CW_S","HARMLESS","1382","208993","205876","207484","154394","NA","NA","NA","NA","207475","206373","NA","205376","NA","205370","207475","1392","209243","NA","NA","206485","1382","1382","206876","205370","1382","206484","209243","morph21_Oliver/Morris","9","12614","15","yes","1280","29"
"350","56.25","56.25","850.3125","850.3125","black","no","xpyriment","legacy","legacy","0","206","NA","uniform","54375","1000","0.0183908045977","0","undefined","0","0","15","15","15","0","15","15","15","NA","15","15","0","15","NA","15","15","0","15","NA","15","NA","15","0","0","15","15","0","15","15","16","z","01/12/18 15:31:07","The main experiment item","yes","FIN__BA__M21__7%3A10%3A17.osexp","C:\Users\ERP Testing Room\Desktop\Joanna\morph21","no","mono","no","18","no","white","no","yes","1080","legacy","15","15","C:/Users/ERP Testing Room/Desktop/Joanna/morph21/subject-121.csv","xpyriment","Jazzy James","3.1.4","0","None","NA","NA","NA","NA","space","None","991","NA","NA","NA","NA","153002","991","2","legacy","1024","2","48000","-16","BA_m21","121","odd","NW_L_SIMP","PICKENCE","1382","212076","210485","207484","154394","NA","NA","NA","NA","207475","210982","NA","209985","NA","209976","212067","1392","212426","NA","NA","211076","1382","1382","211468","209976","1382","211076","212426","morph21_Oliver/Morris","9","13605","16","yes","1280","5"
"350","58.8235294118","58.8235294118","836.176470588","836.176470588","black","no","xpyriment","legacy","legacy","0","202","NA","uniform","74318","1000","0.0134556904115","1","undefined","1","0","16","16","16","0","16","16","16","NA","16","16","0","16","NA","16","16","0","16","NA","16","NA","16","0","0","16","16","0","16","16","17","/","01/12/18 15:31:07","The main experiment item","yes","FIN__BA__M21__7%3A10%3A17.osexp","C:\Users\ERP Testing Room\Desktop\Joanna\morph21","no","mono","no","18","no","white","no","yes","1080","legacy","16","16","C:/Users/ERP Testing Room/Desktop/Joanna/morph21/subject-121.csv","xpyriment","Jazzy James","3.1.4","0","/","NA","NA","NA","NA","space","/","610","NA","NA","NA","NA","153002","610","2","legacy","1024","2","48000","-16","BA_m21","121","odd","CW_L","EDITOR","1382","215343","213710","207484","154394","NA","NA","NA","NA","215336","214207","NA","213210","NA","213204","215336","1392","215693","NA","NA","214343","1382","1382","214735","213204","1382","214343","215693","morph21_Oliver/Morris","10","14215","17","yes","1280","45"
"200","61.1111111111","61.1111111111","826.333333333","826.333333333","black","no","xpyriment","legacy","legacy","0","201","NA","uniform","73340","1000","0.0136351240796","1","undefined","1","0","17","17","17","0","17","17","17","NA","17","17","0","17","NA","17","17","0","17","NA","17","NA","17","0","0","17","17","0","17","17","18","/","01/12/18 15:31:07","The main experiment item","yes","FIN__BA__M21__7%3A10%3A17.osexp","C:\Users\ERP Testing Room\Desktop\Joanna\morph21","no","mono","no","18","no","white","no","yes","1080","legacy","17","17","C:/Users/ERP Testing Room/Desktop/Joanna/morph21/subject-121.csv","xpyriment","Jazzy James","3.1.4","0","/","NA","NA","NA","NA","space","/","659","NA","NA","NA","NA","153002","659","2","legacy","1024","2","48000","-16","BA_m21","121","odd","CW_S","ENJOYMENT","1382","220028","216911","218519","154394","NA","NA","NA","NA","218514","217408","NA","216410","NA","216405","218514","1392","220228","NA","NA","217519","1382","1382","217919","216405","1382","217519","220228","morph21_Oliver/Morris","11","14874","18","yes","1280","40"
"350","63.1578947368","63.1578947368","815.473684211","815.473684211","black","no","xpyriment","legacy","legacy","0","201","NA","uniform","70167","1000","0.0142517137686","1","undefined","1","0","18","18","18","0","18","18","18","NA","18","18","0","18","NA","18","18","0","18","NA","18","NA","18","0","0","18","18","0","18","18","19","/","01/12/18 15:31:07","The main experiment item","yes","FIN__BA__M21__7%3A10%3A17.osexp","C:\Users\ERP Testing Room\Desktop\Joanna\morph21","no","mono","no","18","no","white","no","yes","1080","legacy","18","18","C:/Users/ERP Testing Room/Desktop/Joanna/morph21/subject-121.csv","xpyriment","Jazzy James","3.1.4","0","/","NA","NA","NA","NA","space","/","620","NA","NA","NA","NA","153002","620","2","legacy","1024","2","48000","-16","BA_m21","121","odd","CW_S","CHILLY","1382","223086","221503","218519","154394","NA","NA","NA","NA","223079","222000","NA","221003","NA","220995","223079","1392","223436","NA","NA","222086","1382","1382","222478","220995","1382","222086","223436","morph21_Oliver/Morris","12","15494","19","yes","1280","48"
"200","60","60","824.3","824.3","black","no","xpyriment","legacy","legacy","0","205","NA","uniform","64508","1000","0.0155019532461","0","undefined","0","0","19","19","19","0","19","19","19","NA","19","19","0","19","NA","19","19","0","19","NA","19","NA","19","0","0","19","19","0","19","19","20","z","01/12/18 15:31:07","The main experiment item","yes","FIN__BA__M21__7%3A10%3A17.osexp","C:\Users\ERP Testing Room\Desktop\Joanna\morph21","no","mono","no","18","no","white","no","yes","1080","legacy","19","19","C:/Users/ERP Testing Room/Desktop/Joanna/morph21/subject-121.csv","xpyriment","Jazzy James","3.1.4","0","None","NA","NA","NA","NA","space","None","992","NA","NA","NA","NA","153002","992","2","legacy","1024","2","48000","-16","BA_m21","121","odd","NW_S_SIMP","THRILLANCE","1382","226303","224695","218519","154394","NA","NA","NA","NA","223079","225192","NA","224195","NA","224187","226295","1392","226503","NA","NA","225303","1382","1382","225695","224187","1382","225303","226503","morph21_Oliver/Morris","12","16486","20","yes","1280","22"
"250","61.9047619048","61.9047619048","818","818","black","no","xpyriment","legacy","legacy","0","202","NA","uniform","70662","1000","0.0141518779542","1","undefined","1","0","20","20","20","0","20","20","20","NA","20","20","0","20","NA","20","20","0","20","NA","20","NA","20","0","0","20","20","0","20","20","21","/","01/12/18 15:31:07","The main experiment item","yes","FIN__BA__M21__7%3A10%3A17.osexp","C:\Users\ERP Testing Room\Desktop\Joanna\morph21","no","mono","no","18","no","white","no","yes","1080","legacy","20","20","C:/Users/ERP Testing Room/Desktop/Joanna/morph21/subject-121.csv","xpyriment","Jazzy James","3.1.4","0","/","NA","NA","NA","NA","space","/","692","NA","NA","NA","NA","153002","692","2","legacy","1024","2","48000","-16","BA_m21","121","odd","CW_L","EXCITEMENT","1382","230787","227695","229278","154394","NA","NA","NA","NA","229272","228192","NA","227195","NA","227184","229272","1392","231037","NA","NA","228278","1382","1382","228670","227184","1382","228278","231037","morph21_Oliver/Morris","13","17178","21","yes","1280","38"
"250","63.6363636364","63.6363636364","820.636363636","820.636363636","black","no","xpyriment","legacy","legacy","0","201","NA","uniform","67113","1000","0.014900242874","1","undefined","1","0","21","21","21","0","21","21","21","NA","21","21","0","21","NA","21","21","0","21","NA","21","NA","21","0","0","21","21","0","21","21","22","/","01/12/18 15:31:07","The main experiment item","yes","FIN__BA__M21__7%3A10%3A17.osexp","C:\Users\ERP Testing Room\Desktop\Joanna\morph21","no","mono","no","18","no","white","no","yes","1080","legacy","21","21","C:/Users/ERP Testing Room/Desktop/Joanna/morph21/subject-121.csv","xpyriment","Jazzy James","3.1.4","0","/","NA","NA","NA","NA","space","/","876","NA","NA","NA","NA","153002","876","2","legacy","1024","2","48000","-16","BA_m21","121","odd","CW_S","MOSSY","1382","233853","232270","229278","154394","NA","NA","NA","NA","233848","232767","NA","231770","NA","231762","233848","1392","234103","NA","NA","232853","1382","1382","233253","231762","1382","232853","234103","morph21_Oliver/Morris","14","18054","22","yes","1280","47"
"250","65.2173913043","65.2173913043","818.956521739","818.956521739","black","no","xpyriment","legacy","legacy","0","208","NA","uniform","68578","1000","0.0145819358978","1","undefined","1","0","22","22","22","0","22","22","22","NA","22","22","0","22","NA","22","22","0","22","NA","22","NA","22","0","0","22","22","0","22","22","23","z","01/12/18 15:31:07","The main experiment item","yes","FIN__BA__M21__7%3A10%3A17.osexp","C:\Users\ERP Testing Room\Desktop\Joanna\morph21","no","mono","no","18","no","white","no","yes","1080","legacy","22","22","C:/Users/ERP Testing Room/Desktop/Joanna/morph21/subject-121.csv","xpyriment","Jazzy James","3.1.4","0","z","NA","NA","NA","NA","space","z","782","NA","NA","NA","NA","153002","782","2","legacy","1024","2","48000","-16","BA_m21","121","odd","FILL_NW","PLAODS","1382","236988","235396","229278","154394","NA","NA","NA","NA","236983","235893","NA","234896","NA","234885","236983","1392","237238","NA","NA","235988","1382","1382","236388","234885","1382","235988","237238","morph21_Oliver/Morris","15","18836","23","yes","1280","37"
"200","66.6666666667","66.6666666667","825.75","825.75","black","no","xpyriment","legacy","legacy","0","203","NA","uniform","67146","1000","0.0148929199059","1","undefined","1","0","23","23","23","0","23","23","23","NA","23","23","0","23","NA","23","23","0","23","NA","23","NA","23","0","0","23","23","0","23","23","24","z","01/12/18 15:31:07","The main experiment item","yes","FIN__BA__M21__7%3A10%3A17.osexp","C:\Users\ERP Testing Room\Desktop\Joanna\morph21","no","mono","no","18","no","white","no","yes","1080","legacy","23","23","C:/Users/ERP Testing Room/Desktop/Joanna/morph21/subject-121.csv","xpyriment","Jazzy James","3.1.4","0","z","NA","NA","NA","NA","space","z","982","NA","NA","NA","NA","153002","982","2","legacy","1024","2","48000","-16","BA_m21","121","odd","NW_S_COMP","HAPPENANGE","1382","241496","238405","239988","154394","NA","NA","NA","NA","239982","238902","NA","237905","NA","237898","239982","1392","241697","NA","NA","238988","1382","1382","239380","237898","1382","238988","241697","morph21_Oliver/Morris","16","19818","24","yes","1280","2"
"400","68","68","825.52","825.52","black","no","xpyriment","legacy","legacy","0","202","NA","uniform","62169","1000","0.0160851871512","1","undefined","1","0","24","24","24","0","24","24","24","NA","24","24","0","24","NA","24","24","0","24","NA","24","NA","24","0","0","24","24","0","24","24","25","/","01/12/18 15:31:07","The main experiment item","yes","FIN__BA__M21__7%3A10%3A17.osexp","C:\Users\ERP Testing Room\Desktop\Joanna\morph21","no","mono","no","18","no","white","no","yes","1080","legacy","24","24","C:/Users/ERP Testing Room/Desktop/Joanna/morph21/subject-121.csv","xpyriment","Jazzy James","3.1.4","0","/","NA","NA","NA","NA","space","/","820","NA","NA","NA","NA","153002","820","2","legacy","1024","2","48000","-16","BA_m21","121","odd","CW_L","QUIETLY","1382","244447","242863","239988","154394","NA","NA","NA","NA","244439","243360","NA","242363","NA","242356","244439","1392","244847","NA","NA","243446","1382","1382","243838","242356","1382","243446","244847","morph21_Oliver/Morris","17","20638","25","yes","1280","36"
"350","69.2307692308","69.2307692308","821.576923077","821.576923077","black","no","xpyriment","legacy","legacy","0","201","NA","uniform","65865","1000","0.0151825704092","1","undefined","1","0","25","25","25","0","25","25","25","NA","25","25","0","25","NA","25","25","0","25","NA","25","NA","25","0","0","25","25","0","25","25","26","/","01/12/18 15:31:07","The main experiment item","yes","FIN__BA__M21__7%3A10%3A17.osexp","C:\Users\ERP Testing Room\Desktop\Joanna\morph21","no","mono","no","18","no","white","no","yes","1080","legacy","25","25","C:/Users/ERP Testing Room/Desktop/Joanna/morph21/subject-121.csv","xpyriment","Jazzy James","3.1.4","0","/","NA","NA","NA","NA","space","/","723","NA","NA","NA","NA","153002","723","2","legacy","1024","2","48000","-16","BA_m21","121","odd","CW_S","TEACHER","1382","247663","246072","239988","154394","NA","NA","NA","NA","247653","246569","NA","245572","NA","245561","247653","1392","248013","NA","NA","246663","1382","1382","247055","245561","1382","246663","248013","morph21_Oliver/Morris","18","21361","26","yes","1280","23"
"350","70.3703703704","70.3703703704","820.481481481","820.481481481","black","no","xpyriment","legacy","legacy","0","207","NA","uniform","66024","1000","0.0151460075124","1","undefined","1","0","26","26","26","0","26","26","26","NA","26","26","0","26","NA","26","26","0","26","NA","26","NA","26","0","0","26","26","0","26","26","27","/","01/12/18 15:31:07","The main experiment item","yes","FIN__BA__M21__7%3A10%3A17.osexp","C:\Users\ERP Testing Room\Desktop\Joanna\morph21","no","mono","no","18","no","white","no","yes","1080","legacy","26","26","C:/Users/ERP Testing Room/Desktop/Joanna/morph21/subject-121.csv","xpyriment","Jazzy James","3.1.4","0","/","NA","NA","NA","NA","space","/","792","NA","NA","NA","NA","153002","792","2","legacy","1024","2","48000","-16","BA_m21","121","odd","FILL_W","BRISK","1382","252423","249313","250913","154394","NA","NA","NA","NA","250905","249811","NA","248813","NA","248808","250905","1392","252773","NA","NA","249913","1382","1382","250305","248808","1382","249913","252773","morph21_Oliver/Morris","19","22153","27","yes","1280","8"
"250","71.4285714286","71.4285714286","826.035714286","826.035714286","black","no","xpyriment","legacy","legacy","0","202","NA","uniform","57753","1000","0.0173151178294","1","undefined","1","0","27","27","27","0","27","27","27","NA","27","27","0","27","NA","27","27","0","27","NA","27","NA","27","0","0","27","27","0","27","27","28","/","01/12/18 15:31:07","The main experiment item","yes","FIN__BA__M21__7%3A10%3A17.osexp","C:\Users\ERP Testing Room\Desktop\Joanna\morph21","no","mono","no","18","no","white","no","yes","1080","legacy","27","27","C:/Users/ERP Testing Room/Desktop/Joanna/morph21/subject-121.csv","xpyriment","Jazzy James","3.1.4","0","/","NA","NA","NA","NA","space","/","976","NA","NA","NA","NA","153002","976","2","legacy","1024","2","48000","-16","BA_m21","121","odd","CW_L","PUSHER","1382","255690","254106","250913","154394","NA","NA","NA","NA","255686","254603","NA","253606","NA","253598","255686","1392","255940","NA","NA","254698","1382","1382","255090","253598","1382","254698","255940","morph21_Oliver/Morris","20","23129","28","yes","1280","13"
"250","68.9655172414","68.9655172414","831.586206897","831.586206897","black","no","xpyriment","legacy","legacy","0","208","NA","uniform","63439","1000","0.0157631740727","0","undefined","0","0","28","28","28","0","28","28","28","NA","28","28","0","28","NA","28","28","0","28","NA","28","NA","28","0","0","28","28","0","28","28","29","z","01/12/18 15:31:07","The main experiment item","yes","FIN__BA__M21__7%3A10%3A17.osexp","C:\Users\ERP Testing Room\Desktop\Joanna\morph21","no","mono","no","18","no","white","no","yes","1080","legacy","28","28","C:/Users/ERP Testing Room/Desktop/Joanna/morph21/subject-121.csv","xpyriment","Jazzy James","3.1.4","0","None","NA","NA","NA","NA","space","None","987","NA","NA","NA","NA","153002","987","2","legacy","1024","2","48000","-16","BA_m21","121","odd","FILL_NW","DOWED","1382","258723","257106","250913","154394","NA","NA","NA","NA","255686","257604","NA","256606","NA","256597","258720","1392","258973","NA","NA","257732","1382","1382","258123","256597","1382","257731","258973","morph21_Oliver/Morris","20","24116","29","yes","1280","16"
"200","66.6666666667","66.6666666667","837.066666667","837.066666667","black","no","xpyriment","legacy","legacy","0","201","NA","uniform","63387","1000","0.0157761055106","0","undefined","0","0","29","29","29","0","29","29","29","NA","29","29","0","29","NA","29","29","0","29","NA","29","NA","29","0","0","29","29","0","29","29","30","/","01/12/18 15:31:07","The main experiment item","yes","FIN__BA__M21__7%3A10%3A17.osexp","C:\Users\ERP Testing Room\Desktop\Joanna\morph21","no","mono","no","18","no","white","no","yes","1080","legacy","29","29","C:/Users/ERP Testing Room/Desktop/Joanna/morph21/subject-121.csv","xpyriment","Jazzy James","3.1.4","0","None","NA","NA","NA","NA","space","None","996","NA","NA","NA","NA","153002","996","2","legacy","1024","2","48000","-16","BA_m21","121","odd","CW_S","AMUSEMENT","1382","263223","260115","261715","154394","NA","NA","NA","NA","255686","260612","NA","259615","NA","259607","261711","1392","263424","NA","NA","260715","1382","1382","261115","259607","1382","260715","263424","morph21_Oliver/Morris","20","25112","30","yes","1280","38"
"300","67.7419354839","67.7419354839","829.935483871","829.935483871","black","no","xpyriment","legacy","legacy","0","207","NA","uniform","75284","1000","0.0132830349078","1","undefined","1","0","30","30","30","0","30","30","30","NA","30","30","0","30","NA","30","30","0","30","NA","30","NA","30","0","0","30","30","0","30","30","31","/","01/12/18 15:31:07","The main experiment item","yes","FIN__BA__M21__7%3A10%3A17.osexp","C:\Users\ERP Testing Room\Desktop\Joanna\morph21","no","mono","no","18","no","white","no","yes","1080","legacy","30","30","C:/Users/ERP Testing Room/Desktop/Joanna/morph21/subject-121.csv","xpyriment","Jazzy James","3.1.4","0","/","NA","NA","NA","NA","space","/","616","NA","NA","NA","NA","153002","616","2","legacy","1024","2","48000","-16","BA_m21","121","odd","FILL_W","BAKE","1382","266282","264673","261715","154394","NA","NA","NA","NA","266276","265171","NA","264173","NA","264166","266276","1392","266582","NA","NA","265282","1382","1382","265673","264166","1382","265282","266582","morph21_Oliver/Morris","21","25728","31","yes","1280","29"
"250","68.75","68.75","822.625","822.625","black","no","xpyriment","legacy","legacy","0","207","NA","uniform","70019","1000","0.0142818377869","1","undefined","1","0","31","31","31","0","31","31","31","NA","31","31","0","31","NA","31","31","0","31","NA","31","NA","31","0","0","31","31","0","31","31","32","/","01/12/18 15:31:07","The main experiment item","yes","FIN__BA__M21__7%3A10%3A17.osexp","C:\Users\ERP Testing Room\Desktop\Joanna\morph21","no","mono","no","18","no","white","no","yes","1080","legacy","31","31","C:/Users/ERP Testing Room/Desktop/Joanna/morph21/subject-121.csv","xpyriment","Jazzy James","3.1.4","0","/","NA","NA","NA","NA","space","/","596","NA","NA","NA","NA","153002","596","2","legacy","1024","2","48000","-16","BA_m21","121","odd","FILL_W","PACK","1382","269341","267765","261715","154394","NA","NA","NA","NA","269338","268262","NA","267265","NA","267260","269338","1392","269591","NA","NA","268349","1382","1382","268740","267260","1382","268349","269591","morph21_Oliver/Morris","22","26324","32","yes","1280","41"
"300","69.696969697","69.696969697","820.363636364","820.363636364","black","no","xpyriment","legacy","legacy","0","201","NA","uniform","72187","1000","0.0138529098037","1","undefined","1","0","32","32","32","0","32","32","32","NA","32","32","0","32","NA","32","32","0","32","NA","32","NA","32","0","0","32","32","0","32","32","33","/","01/12/18 15:31:07","The main experiment item","yes","FIN__BA__M21__7%3A10%3A17.osexp","C:\Users\ERP Testing Room\Desktop\Joanna\morph21","no","mono","no","18","no","white","no","yes","1080","legacy","32","32","C:/Users/ERP Testing Room/Desktop/Joanna/morph21/subject-121.csv","xpyriment","Jazzy James","3.1.4","0","/","NA","NA","NA","NA","space","/","748","NA","NA","NA","NA","153002","748","2","legacy","1024","2","48000","-16","BA_m21","121","odd","CW_S","INSISTENT","1382","273875","270766","272366","154394","NA","NA","NA","NA","272359","271263","NA","270266","NA","270256","272359","1392","274175","NA","NA","271366","1382","1382","271758","270256","1382","271366","274175","morph21_Oliver/Morris","23","27072","33","yes","1280","9"
"200","70.5882352941","70.5882352941","821.529411765","821.529411765","black","no","xpyriment","legacy","legacy","0","206","NA","uniform","61399","1000","0.0162869102103","1","undefined","1","0","33","33","33","0","33","33","33","NA","33","33","0","33","NA","33","33","0","33","NA","33","NA","33","0","0","33","33","0","33","33","34","z","01/12/18 15:31:07","The main experiment item","yes","FIN__BA__M21__7%3A10%3A17.osexp","C:\Users\ERP Testing Room\Desktop\Joanna\morph21","no","mono","no","18","no","white","no","yes","1080","legacy","33","33","C:/Users/ERP Testing Room/Desktop/Joanna/morph21/subject-121.csv","xpyriment","Jazzy James","3.1.4","0","z","NA","NA","NA","NA","space","z","860","NA","NA","NA","NA","153002","860","2","legacy","1024","2","48000","-16","BA_m21","121","odd","NW_L_SIMP","GROWIST","1382","276950","275367","272366","154394","NA","NA","NA","NA","276945","275864","NA","274867","NA","274856","276945","1392","277150","NA","NA","275950","1382","1382","276350","274856","1382","275950","277150","morph21_Oliver/Morris","24","27932","34","yes","1280","20"
"250","71.4285714286","71.4285714286","813.457142857","813.457142857","black","no","xpyriment","legacy","legacy","0","207","NA","uniform","73247","1000","0.0136524362773","1","undefined","1","0","34","34","34","0","34","34","34","NA","34","34","0","34","NA","34","34","0","34","NA","34","NA","34","0","0","34","34","0","34","34","35","/","01/12/18 15:31:07","The main experiment item","yes","FIN__BA__M21__7%3A10%3A17.osexp","C:\Users\ERP Testing Room\Desktop\Joanna\morph21","no","mono","no","18","no","white","no","yes","1080","legacy","34","34","C:/Users/ERP Testing Room/Desktop/Joanna/morph21/subject-121.csv","xpyriment","Jazzy James","3.1.4","0","/","NA","NA","NA","NA","space","/","539","NA","NA","NA","NA","153002","539","2","legacy","1024","2","48000","-16","BA_m21","121","odd","FILL_W","COOK","1382","279967","278383","272366","154394","NA","NA","NA","NA","279960","278880","NA","277883","NA","277879","279960","1392","280217","NA","NA","278967","1382","1382","279358","277878","1382","278967","280217","morph21_Oliver/Morris","25","28471","35","yes","1280","38"
"400","72.2222222222","72.2222222222","817.777777778","817.777777778","black","no","xpyriment","legacy","legacy","0","207","NA","uniform","64098","1000","0.0156011107991","1","undefined","1","0","35","35","35","0","35","35","35","NA","35","35","0","35","NA","35","35","0","35","NA","35","NA","35","0","0","35","35","0","35","35","36","/","01/12/18 15:31:07","The main experiment item","yes","FIN__BA__M21__7%3A10%3A17.osexp","C:\Users\ERP Testing Room\Desktop\Joanna\morph21","no","mono","no","18","no","white","no","yes","1080","legacy","35","35","C:/Users/ERP Testing Room/Desktop/Joanna/morph21/subject-121.csv","xpyriment","Jazzy James","3.1.4","0","/","NA","NA","NA","NA","space","/","969","NA","NA","NA","NA","153002","969","2","legacy","1024","2","48000","-16","BA_m21","121","odd","FILL_W","LITHE","1382","284517","281400","283009","154394","NA","NA","NA","NA","283005","281897","NA","280900","NA","280889","283005","1392","284917","NA","NA","282017","1382","1382","282409","280889","1382","282017","284917","morph21_Oliver/Morris","26","29440","36","yes","1280","23"
"400","72.972972973","72.972972973","815.540540541","815.540540541","black","no","xpyriment","legacy","legacy","0","204","NA","uniform","70891","1000","0.0141061629826","1","undefined","1","0","36","36","36","0","36","36","36","NA","36","36","0","36","NA","36","36","0","36","NA","36","NA","36","0","0","36","36","0","36","36","37","z","01/12/18 15:31:07","The main experiment item","yes","FIN__BA__M21__7%3A10%3A17.osexp","C:\Users\ERP Testing Room\Desktop\Joanna\morph21","no","mono","no","18","no","white","no","yes","1080","legacy","36","36","C:/Users/ERP Testing Room/Desktop/Joanna/morph21/subject-121.csv","xpyriment","Jazzy James","3.1.4","0","z","NA","NA","NA","NA","space","z","735","NA","NA","NA","NA","153002","735","2","legacy","1024","2","48000","-16","BA_m21","121","odd","NW_L_COMP","RIPENGE","1382","287668","286084","283009","154394","NA","NA","NA","NA","287665","286581","NA","285584","NA","285576","287665","1392","288068","NA","NA","286675","1382","1382","287068","285576","1382","286675","288068","morph21_Oliver/Morris","27","30175","37","yes","1280","4"
"300","73.6842105263","73.6842105263","808.684210526","808.684210526","black","no","xpyriment","legacy","legacy","0","207","NA","uniform","77213","1000","0.0129511869763","1","undefined","1","0","37","37","37","0","37","37","37","NA","37","37","0","37","NA","37","37","0","37","NA","37","NA","37","0","0","37","37","0","37","37","38","/","01/12/18 15:31:07","The main experiment item","yes","FIN__BA__M21__7%3A10%3A17.osexp","C:\Users\ERP Testing Room\Desktop\Joanna\morph21","no","mono","no","18","no","white","no","yes","1080","legacy","37","37","C:/Users/ERP Testing Room/Desktop/Joanna/morph21/subject-121.csv","xpyriment","Jazzy James","3.1.4","0","/","NA","NA","NA","NA","space","/","555","NA","NA","NA","NA","153002","555","2","legacy","1024","2","48000","-16","BA_m21","121","odd","FILL_W","SICK","1382","290943","289360","283009","154394","NA","NA","NA","NA","290938","289857","NA","288860","NA","288854","290938","1392","291243","NA","NA","289943","1382","1382","290343","288854","1382","289943","291243","morph21_Oliver/Morris","28","30730","38","yes","1280","36"
"350","74.358974359","74.358974359","811.641025641","811.641025641","black","no","xpyriment","legacy","legacy","0","203","NA","uniform","62644","1000","0.0159632207394","1","undefined","1","0","38","38","38","0","38","38","38","NA","38","38","0","38","NA","38","38","0","38","NA","38","NA","38","0","0","38","38","0","38","38","39","z","01/12/18 15:31:07","The main experiment item","yes","FIN__BA__M21__7%3A10%3A17.osexp","C:\Users\ERP Testing Room\Desktop\Joanna\morph21","no","mono","no","18","no","white","no","yes","1080","legacy","38","38","C:/Users/ERP Testing Room/Desktop/Joanna/morph21/subject-121.csv","xpyriment","Jazzy James","3.1.4","0","z","NA","NA","NA","NA","space","z","924","NA","NA","NA","NA","153002","924","2","legacy","1024","2","48000","-16","BA_m21","121","odd","NW_S_COMP","HEIGHTENGE","1382","295619","292502","294110","154394","NA","NA","NA","NA","294106","292999","NA","292002","NA","291996","294106","1392","295969","NA","NA","293110","1382","1382","293510","291996","1382","293110","295969","morph21_Oliver/Morris","29","31654","39","yes","1280","18"
"200","75","75","811.525","811.525","black","no","xpyriment","legacy","legacy","0","208","NA","uniform","62903","1000","0.0158974929654","1","undefined","1","0","39","39","39","0","39","39","39","NA","39","39","0","39","NA","39","39","0","39","NA","39","NA","39","0","0","39","39","0","39","39","40","z","01/12/18 15:31:07","The main experiment item","yes","FIN__BA__M21__7%3A10%3A17.osexp","C:\Users\ERP Testing Room\Desktop\Joanna\morph21","no","mono","no","18","no","white","no","yes","1080","legacy","39","39","C:/Users/ERP Testing Room/Desktop/Joanna/morph21/subject-121.csv","xpyriment","Jazzy James","3.1.4","0","z","NA","NA","NA","NA","space","z","807","NA","NA","NA","NA","153002","807","2","legacy","1024","2","48000","-16","BA_m21","121","odd","FILL_NW","BLAYS","1382","298835","297244","294110","154394","NA","NA","NA","NA","298826","297741","NA","296744","NA","296739","298826","1392","299035","NA","NA","297835","1382","1382","298227","296739","1382","297835","299035","morph21_Oliver/Morris","30","32461","40","yes","1280","8"
"250","75.6097560976","75.6097560976","808.195121951","808.195121951","black","no","xpyriment","legacy","legacy","0","204","NA","uniform","68271","1000","0.0146475077266","1","undefined","1","0","40","40","40","0","40","40","40","NA","40","40","0","40","NA","40","40","0","40","NA","40","NA","40","0","0","40","40","0","40","40","41","z","01/12/18 15:31:07","The main experiment item","yes","FIN__BA__M21__7%3A10%3A17.osexp","C:\Users\ERP Testing Room\Desktop\Joanna\morph21","no","mono","no","18","no","white","no","yes","1080","legacy","40","40","C:/Users/ERP Testing Room/Desktop/Joanna/morph21/subject-121.csv","xpyriment","Jazzy James","3.1.4","0","z","NA","NA","NA","NA","space","z","675","NA","NA","NA","NA","153002","675","2","legacy","1024","2","48000","-16","BA_m21","121","odd","NW_L_COMP","MUDLA","1382","301919","300319","294110","154394","NA","NA","NA","NA","301910","300816","NA","299819","NA","299815","301910","1392","302169","NA","NA","300919","1382","1382","301310","299815","1382","300919","302169","morph21_Oliver/Morris","31","33136","41","yes","1280","12"
"400","76.1904761905","76.1904761905","804.333333333","804.333333333","black","no","xpyriment","legacy","legacy","0","207","NA","uniform","75062","1000","0.0133223202153","1","undefined","1","0","41","41","41","0","41","41","41","NA","41","41","0","41","NA","41","41","0","41","NA","41","NA","41","0","0","41","41","0","41","41","42","/","01/12/18 15:31:07","The main experiment item","yes","FIN__BA__M21__7%3A10%3A17.osexp","C:\Users\ERP Testing Room\Desktop\Joanna\morph21","no","mono","no","18","no","white","no","yes","1080","legacy","41","41","C:/Users/ERP Testing Room/Desktop/Joanna/morph21/subject-121.csv","xpyriment","Jazzy James","3.1.4","0","/","NA","NA","NA","NA","space","/","646","NA","NA","NA","NA","153002","646","2","legacy","1024","2","48000","-16","BA_m21","121","odd","FILL_W","FLIRT","1382","306553","303444","305045","154394","NA","NA","NA","NA","305038","303941","NA","302944","NA","302938","305038","1392","306953","NA","NA","304044","1382","1382","304436","302938","1382","304044","306953","morph21_Oliver/Morris","32","33782","42","yes","1280","1"
"350","74.4186046512","74.4186046512","808.627906977","808.627906977","black","no","xpyriment","legacy","legacy","0","206","NA","uniform","59562","1000","0.0167892280313","0","undefined","0","0","42","42","42","0","42","42","42","NA","42","42","0","42","NA","42","42","0","42","NA","42","NA","42","0","0","42","42","0","42","42","43","z","01/12/18 15:31:07","The main experiment item","yes","FIN__BA__M21__7%3A10%3A17.osexp","C:\Users\ERP Testing Room\Desktop\Joanna\morph21","no","mono","no","18","no","white","no","yes","1080","legacy","42","42","C:/Users/ERP Testing Room/Desktop/Joanna/morph21/subject-121.csv","xpyriment","Jazzy James","3.1.4","0","None","NA","NA","NA","NA","space","None","989","NA","NA","NA","NA","153002","989","2","legacy","1024","2","48000","-16","BA_m21","121","odd","NW_L_SIMP","NUTLY","1382","309762","308145","305045","154394","NA","NA","NA","NA","305038","308642","NA","307645","NA","307640","309752","1392","310112","NA","NA","308762","1382","1382","309153","307640","1382","308762","310112","morph21_Oliver/Morris","32","34771","43","yes","1280","14"
"400","75","75","805.636363636","805.636363636","black","no","xpyriment","legacy","legacy","0","201","NA","uniform","74595","1000","0.0134057242443","1","undefined","1","0","43","43","43","0","43","43","43","NA","43","43","0","43","NA","43","43","0","43","NA","43","NA","43","0","0","43","43","0","43","43","44","/","01/12/18 15:31:07","The main experiment item","yes","FIN__BA__M21__7%3A10%3A17.osexp","C:\Users\ERP Testing Room\Desktop\Joanna\morph21","no","mono","no","18","no","white","no","yes","1080","legacy","43","43","C:/Users/ERP Testing Room/Desktop/Joanna/morph21/subject-121.csv","xpyriment","Jazzy James","3.1.4","0","/","NA","NA","NA","NA","space","/","677","NA","NA","NA","NA","153002","677","2","legacy","1024","2","48000","-16","BA_m21","121","odd","CW_S","RAIDER","1382","313054","311462","305045","154394","NA","NA","NA","NA","313047","311959","NA","310962","NA","310958","313047","1392","313454","NA","NA","312053","1382","1382","312445","310958","1382","312053","313454","morph21_Oliver/Morris","33","35448","44","yes","1280","12"
"350","75.5555555556","75.5555555556","804.844444444","804.844444444","black","no","xpyriment","legacy","legacy","0","202","NA","uniform","64269","1000","0.0155596010518","1","undefined","1","0","44","44","44","0","44","44","44","NA","44","44","0","44","NA","44","44","0","44","NA","44","NA","44","0","0","44","44","0","44","44","45","/","01/12/18 15:31:07","The main experiment item","yes","FIN__BA__M21__7%3A10%3A17.osexp","C:\Users\ERP Testing Room\Desktop\Joanna\morph21","no","mono","no","18","no","white","no","yes","1080","legacy","44","44","C:/Users/ERP Testing Room/Desktop/Joanna/morph21/subject-121.csv","xpyriment","Jazzy James","3.1.4","0","/","NA","NA","NA","NA","space","/","770","NA","NA","NA","NA","153002","770","2","legacy","1024","2","48000","-16","BA_m21","121","odd","CW_L","KICKING","1382","317829","314729","316320","154394","NA","NA","NA","NA","316314","315226","NA","314229","NA","314219","316314","1392","318179","NA","NA","315320","1382","1382","315712","314219","1382","315320","318179","morph21_Oliver/Morris","34","36218","45","yes","1280","23"
"200","76.0869565217","76.0869565217","801.913043478","801.913043478","black","no","xpyriment","legacy","legacy","0","207","NA","uniform","72648","1000","0.0137650038542","1","undefined","1","0","45","45","45","0","45","45","45","NA","45","45","0","45","NA","45","45","0","45","NA","45","NA","45","0","0","45","45","0","45","45","46","/","01/12/18 15:31:07","The main experiment item","yes","FIN__BA__M21__7%3A10%3A17.osexp","C:\Users\ERP Testing Room\Desktop\Joanna\morph21","no","mono","no","18","no","white","no","yes","1080","legacy","45","45","C:/Users/ERP Testing Room/Desktop/Joanna/morph21/subject-121.csv","xpyriment","Jazzy James","3.1.4","0","/","NA","NA","NA","NA","space","/","670","NA","NA","NA","NA","153002","670","2","legacy","1024","2","48000","-16","BA_m21","121","odd","FILL_W","FLOAT","1382","320979","319387","316320","154394","NA","NA","NA","NA","320973","319884","NA","318887","NA","318880","320973","1392","321179","NA","NA","319979","1382","1382","320371","318880","1382","319979","321179","morph21_Oliver/Morris","35","36888","46","yes","1280","30"
"250","76.5957446809","76.5957446809","795.978723404","795.978723404","black","no","xpyriment","legacy","legacy","0","207","NA","uniform","70656","1000","0.0141530797101","1","undefined","1","0","46","46","46","0","46","46","46","NA","46","46","0","46","NA","46","46","0","46","NA","46","NA","46","0","0","46","46","0","46","46","47","/","01/12/18 15:31:07","The main experiment item","yes","FIN__BA__M21__7%3A10%3A17.osexp","C:\Users\ERP Testing Room\Desktop\Joanna\morph21","no","mono","no","18","no","white","no","yes","1080","legacy","46","46","C:/Users/ERP Testing Room/Desktop/Joanna/morph21/subject-121.csv","xpyriment","Jazzy James","3.1.4","0","/","NA","NA","NA","NA","space","/","523","NA","NA","NA","NA","153002","523","2","legacy","1024","2","48000","-16","BA_m21","121","odd","FILL_W","SPLICE","1382","324063","322480","316320","154394","NA","NA","NA","NA","324058","322977","NA","321980","NA","321972","324058","1392","324313","NA","NA","323063","1382","1382","323463","321972","1382","323063","324313","morph21_Oliver/Morris","36","37411","47","yes","1280","22"
"300","75","75","800.083333333","800.083333333","black","no","xpyriment","legacy","legacy","0","208","NA","uniform","62625","1000","0.0159680638723","0","undefined","0","0","47","47","47","0","47","47","47","NA","47","47","0","47","NA","47","47","0","47","NA","47","NA","47","0","0","47","47","0","47","47","48","z","01/12/18 15:31:07","The main experiment item","yes","FIN__BA__M21__7%3A10%3A17.osexp","C:\Users\ERP Testing Room\Desktop\Joanna\morph21","no","mono","no","18","no","white","no","yes","1080","legacy","47","47","C:/Users/ERP Testing Room/Desktop/Joanna/morph21/subject-121.csv","xpyriment","Jazzy James","3.1.4","0","None","NA","NA","NA","NA","space","None","993","NA","NA","NA","NA","153002","993","2","legacy","1024","2","48000","-16","BA_m21","121","odd","FILL_NW","VOGS","1382","328680","325555","327172","154394","NA","NA","NA","NA","324058","326052","NA","325055","NA","325048","327165","1392","328980","NA","NA","326172","1382","1382","326563","325048","1382","326172","328980","morph21_Oliver/Morris","36","38404","48","yes","1280","47"
"400","75.5102040816","75.5102040816","795.102040816","795.102040816","black","no","xpyriment","legacy","legacy","0","202","NA","uniform","78965","1000","0.0126638384094","1","undefined","1","0","48","48","48","0","48","48","48","NA","48","48","0","48","NA","48","48","0","48","NA","48","NA","48","0","0","48","48","0","48","48","49","/","01/12/18 15:31:07","The main experiment item","yes","FIN__BA__M21__7%3A10%3A17.osexp","C:\Users\ERP Testing Room\Desktop\Joanna\morph21","no","mono","no","18","no","white","no","yes","1080","legacy","48","48","C:/Users/ERP Testing Room/Desktop/Joanna/morph21/subject-121.csv","xpyriment","Jazzy James","3.1.4","0","/","NA","NA","NA","NA","space","/","556","NA","NA","NA","NA","153002","556","2","legacy","1024","2","48000","-16","BA_m21","121","odd","CW_L","CLEANER","1382","331814","330230","327172","154394","NA","NA","NA","NA","331805","330727","NA","329730","NA","329724","331805","1392","332214","NA","NA","330814","1382","1382","331205","329724","1382","330814","332214","morph21_Oliver/Morris","37","38960","49","yes","1280","15"
"200","74","74","799.1","799.1","black","no","xpyriment","legacy","legacy","0","203","NA","uniform","61816","1000","0.0161770415426","0","undefined","0","0","49","49","49","0","49","49","49","NA","49","49","0","49","NA","49","49","0","49","NA","49","NA","49","0","0","49","49","0","49","49","50","z","01/12/18 15:31:07","The main experiment item","yes","FIN__BA__M21__7%3A10%3A17.osexp","C:\Users\ERP Testing Room\Desktop\Joanna\morph21","no","mono","no","18","no","white","no","yes","1080","legacy","49","49","C:/Users/ERP Testing Room/Desktop/Joanna/morph21/subject-121.csv","xpyriment","Jazzy James","3.1.4","0","None","NA","NA","NA","NA","space","None","995","NA","NA","NA","NA","153002","995","2","legacy","1024","2","48000","-16","BA_m21","121","odd","NW_S_COMP","PILLIME","1382","334981","333389","327172","154394","NA","NA","NA","NA","331805","333886","NA","332889","NA","332885","334976","1392","335181","NA","NA","333981","1382","1382","334381","332885","1382","333980","335181","morph21_Oliver/Morris","37","39955","50","yes","1280","13"
"300","74.5098039216","74.5098039216","799.960784314","799.960784314","black","no","xpyriment","legacy","legacy","0","205","NA","uniform","66600","1000","0.015015015015","1","undefined","1","0","50","50","50","0","50","50","50","NA","50","50","0","50","NA","50","50","0","50","NA","50","NA","50","0","0","50","50","0","50","50","51","z","01/12/18 15:31:07","The main experiment item","yes","FIN__BA__M21__7%3A10%3A17.osexp","C:\Users\ERP Testing Room\Desktop\Joanna\morph21","no","mono","no","18","no","white","no","yes","1080","legacy","50","50","C:/Users/ERP Testing Room/Desktop/Joanna/morph21/subject-121.csv","xpyriment","Jazzy James","3.1.4","0","z","NA","NA","NA","NA","space","z","843","NA","NA","NA","NA","153002","843","2","legacy","1024","2","48000","-16","BA_m21","121","odd","NW_S_SIMP","YIELDIST","1382","339532","336406","338022","154394","NA","NA","NA","NA","338020","336903","NA","335906","NA","335898","338020","1392","339832","NA","NA","337031","1382","1382","337422","335898","1382","337031","339832","morph21_Oliver/Morris","38","40798","51","yes","1280","20"
"200","75","75","795.019230769","795.019230769","black","no","xpyriment","legacy","legacy","0","207","NA","uniform","75914","1000","0.0131728008009","1","undefined","1","0","51","51","51","0","51","51","51","NA","51","51","0","51","NA","51","51","0","51","NA","51","NA","51","0","0","51","51","0","51","51","52","/","01/12/18 15:31:07","The main experiment item","yes","FIN__BA__M21__7%3A10%3A17.osexp","C:\Users\ERP Testing Room\Desktop\Joanna\morph21","no","mono","no","18","no","white","no","yes","1080","legacy","51","51","C:/Users/ERP Testing Room/Desktop/Joanna/morph21/subject-121.csv","xpyriment","Jazzy James","3.1.4","0","/","NA","NA","NA","NA","space","/","543","NA","NA","NA","NA","153002","543","2","legacy","1024","2","48000","-16","BA_m21","121","odd","FILL_W","SAVE","1382","342699","341082","338022","154394","NA","NA","NA","NA","342688","341579","NA","340582","NA","340571","342688","1392","342899","NA","NA","341699","1382","1382","342090","340571","1382","341698","342899","morph21_Oliver/Morris","39","41341","52","yes","1280","46"
"200","75.4716981132","75.4716981132","797.981132075","797.981132075","black","no","xpyriment","legacy","legacy","0","203","NA","uniform","65369","1000","0.0152977711147","1","undefined","1","0","52","52","52","0","52","52","52","NA","52","52","0","52","NA","52","52","0","52","NA","52","NA","52","0","0","52","52","0","52","52","53","z","01/12/18 15:31:07","The main experiment item","yes","FIN__BA__M21__7%3A10%3A17.osexp","C:\Users\ERP Testing Room\Desktop\Joanna\morph21","no","mono","no","18","no","white","no","yes","1080","legacy","52","52","C:/Users/ERP Testing Room/Desktop/Joanna/morph21/subject-121.csv","xpyriment","Jazzy James","3.1.4","0","z","NA","NA","NA","NA","space","z","952","NA","NA","NA","NA","153002","952","2","legacy","1024","2","48000","-16","BA_m21","121","odd","NW_S_COMP","DUMBIDY","1382","345690","344099","338022","154394","NA","NA","NA","NA","345685","344596","NA","343599","NA","343588","345685","1392","345890","NA","NA","344690","1382","1382","345090","343588","1382","344690","345890","morph21_Oliver/Morris","40","42293","53","yes","1280","12"
"400","75.9259259259","75.9259259259","799.796296296","799.796296296","black","no","xpyriment","legacy","legacy","0","203","NA","uniform","64370","1000","0.015535187199","1","undefined","1","0","53","53","53","0","53","53","53","NA","53","53","0","53","NA","53","53","0","53","NA","53","NA","53","0","0","53","53","0","53","53","54","z","01/12/18 15:31:07","The main experiment item","yes","FIN__BA__M21__7%3A10%3A17.osexp","C:\Users\ERP Testing Room\Desktop\Joanna\morph21","no","mono","no","18","no","white","no","yes","1080","legacy","53","53","C:/Users/ERP Testing Room/Desktop/Joanna/morph21/subject-121.csv","xpyriment","Jazzy James","3.1.4","0","z","NA","NA","NA","NA","space","z","896","NA","NA","NA","NA","153002","896","2","legacy","1024","2","48000","-16","BA_m21","121","odd","NW_S_COMP","TRUENELS","1382","350199","347107","348690","154394","NA","NA","NA","NA","348687","347604","NA","346607","NA","346598","348687","1392","350599","NA","NA","347690","1382","1382","348090","346598","1382","347690","350599","morph21_Oliver/Morris","41","43189","54","yes","1280","15"
"250","76.3636363636","76.3636363636","798.836363636","798.836363636","black","no","xpyriment","legacy","legacy","0","201","NA","uniform","72180","1000","0.0138542532557","1","undefined","1","0","54","54","54","0","54","54","54","NA","54","54","0","54","NA","54","54","0","54","NA","54","NA","54","0","0","54","54","0","54","54","55","/","01/12/18 15:31:07","The main experiment item","yes","FIN__BA__M21__7%3A10%3A17.osexp","C:\Users\ERP Testing Room\Desktop\Joanna\morph21","no","mono","no","18","no","white","no","yes","1080","legacy","54","54","C:/Users/ERP Testing Room/Desktop/Joanna/morph21/subject-121.csv","xpyriment","Jazzy James","3.1.4","0","/","NA","NA","NA","NA","space","/","747","NA","NA","NA","NA","153002","747","2","legacy","1024","2","48000","-16","BA_m21","121","odd","CW_S","SEEKER","1382","353407","351824","348690","154394","NA","NA","NA","NA","353401","352321","NA","351324","NA","351313","353401","1392","353657","NA","NA","352407","1382","1382","352799","351313","1382","352407","353657","morph21_Oliver/Morris","42","43936","55","yes","1280","16"
"350","76.7857142857","76.7857142857","796.910714286","796.910714286","black","no","xpyriment","legacy","legacy","0","202","NA","uniform","75619","1000","0.0132241896878","1","undefined","1","0","55","55","55","0","55","55","55","NA","55","55","0","55","NA","55","55","0","55","NA","55","NA","55","0","0","55","55","0","55","55","56","/","01/12/18 15:31:07","The main experiment item","yes","FIN__BA__M21__7%3A10%3A17.osexp","C:\Users\ERP Testing Room\Desktop\Joanna\morph21","no","mono","no","18","no","white","no","yes","1080","legacy","55","55","C:/Users/ERP Testing Room/Desktop/Joanna/morph21/subject-121.csv","xpyriment","Jazzy James","3.1.4","0","/","NA","NA","NA","NA","space","/","691","NA","NA","NA","NA","153002","691","2","legacy","1024","2","48000","-16","BA_m21","121","odd","CW_L","GUARDING","1382","356399","354807","348690","154394","NA","NA","NA","NA","356394","355305","NA","354307","NA","354303","356394","1392","356749","NA","NA","355399","1382","1382","355799","354303","1382","355399","356749","morph21_Oliver/Morris","43","44627","56","yes","1280","26"
"200","77.1929824561","77.1929824561","798.01754386","798.01754386","black","no","xpyriment","legacy","legacy","0","208","NA","uniform","60095","1000","0.0166403194941","1","undefined","1","0","56","56","56","0","56","56","56","NA","56","56","0","56","NA","56","56","0","56","NA","56","NA","56","0","0","56","56","0","56","56","57","z","01/12/18 15:31:07","The main experiment item","yes","FIN__BA__M21__7%3A10%3A17.osexp","C:\Users\ERP Testing Room\Desktop\Joanna\morph21","no","mono","no","18","no","white","no","yes","1080","legacy","56","56","C:/Users/ERP Testing Room/Desktop/Joanna/morph21/subject-121.csv","xpyriment","Jazzy James","3.1.4","0","z","NA","NA","NA","NA","space","z","860","NA","NA","NA","NA","153002","860","2","legacy","1024","2","48000","-16","BA_m21","121","odd","FILL_NW","HOITS","1382","361042","357917","359534","154394","NA","NA","NA","NA","359526","358414","NA","357417","NA","357407","359526","1392","361242","NA","NA","358534","1382","1382","358925","357407","1382","358534","361242","morph21_Oliver/Morris","44","45487","57","yes","1280","30"
"250","77.5862068966","77.5862068966","796.517241379","796.517241379","black","no","xpyriment","legacy","legacy","0","202","NA","uniform","74831","1000","0.0133634456308","1","undefined","1","0","57","57","57","0","57","57","57","NA","57","57","0","57","NA","57","57","0","57","NA","57","NA","57","0","0","57","57","0","57","57","58","/","01/12/18 15:31:07","The main experiment item","yes","FIN__BA__M21__7%3A10%3A17.osexp","C:\Users\ERP Testing Room\Desktop\Joanna\morph21","no","mono","no","18","no","white","no","yes","1080","legacy","57","57","C:/Users/ERP Testing Room/Desktop/Joanna/morph21/subject-121.csv","xpyriment","Jazzy James","3.1.4","0","/","NA","NA","NA","NA","space","/","711","NA","NA","NA","NA","153002","711","2","legacy","1024","2","48000","-16","BA_m21","121","odd","CW_L","STRIKER","1382","364050","362467","359534","154394","NA","NA","NA","NA","364047","362964","NA","361967","NA","361962","364047","1392","364301","NA","NA","363059","1382","1382","363450","361962","1382","363059","364301","morph21_Oliver/Morris","45","46198","58","yes","1280","17"
"300","77.9661016949","77.9661016949","793.06779661","793.06779661","black","no","xpyriment","legacy","legacy","0","202","NA","uniform","71185","1000","0.0140479033504","1","undefined","1","0","58","58","58","0","58","58","58","NA","58","58","0","58","NA","58","58","0","58","NA","58","NA","58","0","0","58","58","0","58","58","59","/","01/12/18 15:31:07","The main experiment item","yes","FIN__BA__M21__7%3A10%3A17.osexp","C:\Users\ERP Testing Room\Desktop\Joanna\morph21","no","mono","no","18","no","white","no","yes","1080","legacy","58","58","C:/Users/ERP Testing Room/Desktop/Joanna/morph21/subject-121.csv","xpyriment","Jazzy James","3.1.4","0","/","NA","NA","NA","NA","space","/","593","NA","NA","NA","NA","153002","593","2","legacy","1024","2","48000","-16","BA_m21","121","odd","CW_L","HEATER","1382","367209","365626","359534","154394","NA","NA","NA","NA","367201","366123","NA","365126","NA","365117","367201","1392","367509","NA","NA","366209","1382","1382","366601","365117","1382","366209","367509","morph21_Oliver/Morris","46","46791","59","yes","1280","16"
"350","76.6666666667","76.6666666667","796.383333333","796.383333333","black","no","xpyriment","legacy","legacy","0","208","NA","uniform","64422","1000","0.0155226475428","0","undefined","0","0","59","59","59","0","59","59","59","NA","59","59","0","59","NA","59","59","0","59","NA","59","NA","59","0","0","59","59","0","59","59","60","z","01/12/18 15:31:07","The main experiment item","yes","FIN__BA__M21__7%3A10%3A17.osexp","C:\Users\ERP Testing Room\Desktop\Joanna\morph21","no","mono","no","18","no","white","no","yes","1080","legacy","59","59","C:/Users/ERP Testing Room/Desktop/Joanna/morph21/subject-121.csv","xpyriment","Jazzy James","3.1.4","0","None","NA","NA","NA","NA","space","None","992","NA","NA","NA","NA","153002","992","2","legacy","1024","2","48000","-16","BA_m21","121","odd","FILL_NW","JADS","1382","371784","368692","370276","154394","NA","NA","NA","NA","367201","369189","NA","368192","NA","368182","370268","1392","372134","NA","NA","369276","1382","1382","369667","368182","1382","369276","372134","morph21_Oliver/Morris","46","47783","60","yes","1280","31"
"300","77.0491803279","77.0491803279","796.901639344","796.901639344","black","no","xpyriment","legacy","legacy","0","206","NA","uniform","70365","1000","0.0142116108861","1","undefined","1","0","60","60","60","0","60","60","60","NA","60","60","0","60","NA","60","60","0","60","NA","60","NA","60","0","0","60","60","0","60","60","61","z","01/12/18 15:31:07","The main experiment item","yes","FIN__BA__M21__7%3A10%3A17.osexp","C:\Users\ERP Testing Room\Desktop\Joanna\morph21","no","mono","no","18","no","white","no","yes","1080","legacy","60","60","C:/Users/ERP Testing Room/Desktop/Joanna/morph21/subject-121.csv","xpyriment","Jazzy James","3.1.4","0","z","NA","NA","NA","NA","space","z","828","NA","NA","NA","NA","153002","828","2","legacy","1024","2","48000","-16","BA_m21","121","odd","NW_L_SIMP","ELBOWISM","1382","374910","373326","370276","154394","NA","NA","NA","NA","374906","373823","NA","372826","NA","372822","374906","1392","375210","NA","NA","373918","1382","1382","374310","372822","1382","373918","375210","morph21_Oliver/Morris","47","48611","61","yes","1280","10"
"400","77.4193548387","77.4193548387","793.193548387","793.193548387","black","no","xpyriment","legacy","legacy","0","202","NA","uniform","78919","1000","0.0126712198583","1","undefined","1","0","61","61","61","0","61","61","61","NA","61","61","0","61","NA","61","61","0","61","NA","61","NA","61","0","0","61","61","0","61","61","62","/","01/12/18 15:31:07","The main experiment item","yes","FIN__BA__M21__7%3A10%3A17.osexp","C:\Users\ERP Testing Room\Desktop\Joanna\morph21","no","mono","no","18","no","white","no","yes","1080","legacy","61","61","C:/Users/ERP Testing Room/Desktop/Joanna/morph21/subject-121.csv","xpyriment","Jazzy James","3.1.4","0","/","NA","NA","NA","NA","space","/","567","NA","NA","NA","NA","153002","567","2","legacy","1024","2","48000","-16","BA_m21","121","odd","CW_L","LOCKER","1382","378035","376452","370276","154394","NA","NA","NA","NA","378030","376949","NA","375952","NA","375941","378030","1392","378435","NA","NA","377035","1382","1382","377427","375941","1382","377035","378435","morph21_Oliver/Morris","48","49178","62","yes","1280","8"
"400","77.7777777778","77.7777777778","795.063492063","795.063492063","black","no","xpyriment","legacy","legacy","0","202","NA","uniform","59821","1000","0.0167165376707","1","undefined","1","0","62","62","62","0","62","62","62","NA","62","62","0","62","NA","62","62","0","62","NA","62","NA","62","0","0","62","62","0","62","62","63","/","01/12/18 15:31:07","The main experiment item","yes","FIN__BA__M21__7%3A10%3A17.osexp","C:\Users\ERP Testing Room\Desktop\Joanna\morph21","no","mono","no","18","no","white","no","yes","1080","legacy","62","62","C:/Users/ERP Testing Room/Desktop/Joanna/morph21/subject-121.csv","xpyriment","Jazzy James","3.1.4","0","/","NA","NA","NA","NA","space","/","911","NA","NA","NA","NA","153002","911","2","legacy","1024","2","48000","-16","BA_m21","121","odd","CW_L","DRYNESS","1382","382736","379636","381227","154394","NA","NA","NA","NA","381218","380133","NA","379136","NA","379124","381218","1392","383136","NA","NA","380227","1382","1382","380619","379124","1382","380227","383136","morph21_Oliver/Morris","49","50089","63","yes","1280","42"
"350","78.125","78.125","793.0625","793.0625","black","no","xpyriment","legacy","legacy","0","201","NA","uniform","67262","1000","0.0148672355862","1","undefined","1","0","63","63","63","0","63","63","63","NA","63","63","0","63","NA","63","63","0","63","NA","63","NA","63","0","0","63","63","0","63","63","64","/","01/12/18 15:31:07","The main experiment item","yes","FIN__BA__M21__7%3A10%3A17.osexp","C:\Users\ERP Testing Room\Desktop\Joanna\morph21","no","mono","no","18","no","white","no","yes","1080","legacy","63","63","C:/Users/ERP Testing Room/Desktop/Joanna/morph21/subject-121.csv","xpyriment","Jazzy James","3.1.4","0","/","NA","NA","NA","NA","space","/","667","NA","NA","NA","NA","153002","667","2","legacy","1024","2","48000","-16","BA_m21","121","odd","CW_S","RICHNESS","1382","385919","384327","381227","154394","NA","NA","NA","NA","385915","384825","NA","383827","NA","383822","385915","1392","386269","NA","NA","384919","1382","1382","385319","383822","1382","384919","386269","morph21_Oliver/Morris","50","50756","64","yes","1280","45"
"200","78.4615384615","78.4615384615","795.969230769","795.969230769","black","no","xpyriment","legacy","legacy","0","205","NA","uniform","61881","1000","0.0161600491265","1","undefined","1","0","64","64","64","0","64","64","64","NA","64","64","0","64","NA","64","64","0","64","NA","64","NA","64","0","0","64","64","0","64","64","65","z","01/12/18 15:31:07","The main experiment item","yes","FIN__BA__M21__7%3A10%3A17.osexp","C:\Users\ERP Testing Room\Desktop\Joanna\morph21","no","mono","no","18","no","white","no","yes","1080","legacy","64","64","C:/Users/ERP Testing Room/Desktop/Joanna/morph21/subject-121.csv","xpyriment","Jazzy James","3.1.4","0","z","NA","NA","NA","NA","space","z","982","NA","NA","NA","NA","153002","982","2","legacy","1024","2","48000","-16","BA_m21","121","odd","NW_S_SIMP","JAWLY","1382","389044","387436","381227","154394","NA","NA","NA","NA","389034","387933","NA","386936","NA","386930","389034","1392","389244","NA","NA","388044","1382","1382","388436","386930","1382","388044","389244","morph21_Oliver/Morris","51","51738","65","yes","1280","7"
"300","78.7878787879","78.7878787879","798.575757576","798.575757576","black","no","xpyriment","legacy","legacy","0","205","NA","uniform","64687","1000","0.0154590566884","1","undefined","1","0","65","65","65","0","65","65","65","NA","65","65","0","65","NA","65","65","0","65","NA","65","NA","65","0","0","65","65","0","65","65","66","z","01/12/18 15:31:07","The main experiment item","yes","FIN__BA__M21__7%3A10%3A17.osexp","C:\Users\ERP Testing Room\Desktop\Joanna\morph21","no","mono","no","18","no","white","no","yes","1080","legacy","65","65","C:/Users/ERP Testing Room/Desktop/Joanna/morph21/subject-121.csv","xpyriment","Jazzy James","3.1.4","0","z","NA","NA","NA","NA","space","z","968","NA","NA","NA","NA","153002","968","2","legacy","1024","2","48000","-16","BA_m21","121","odd","NW_S_SIMP","NEXTNESS","1382","393521","390419","392012","154394","NA","NA","NA","NA","392003","390916","NA","389919","NA","389911","392003","1392","393821","NA","NA","391011","1382","1382","391403","389911","1382","391011","393821","morph21_Oliver/Morris","52","52706","66","yes","1280","9"
"400","79.1044776119","79.1044776119","800.582089552","800.582089552","black","no","xpyriment","legacy","legacy","0","205","NA","uniform","67588","1000","0.014795525833","1","undefined","1","0","66","66","66","0","66","66","66","NA","66","66","0","66","NA","66","66","0","66","NA","66","NA","66","0","0","66","66","0","66","66","67","z","01/12/18 15:31:07","The main experiment item","yes","FIN__BA__M21__7%3A10%3A17.osexp","C:\Users\ERP Testing Room\Desktop\Joanna\morph21","no","mono","no","18","no","white","no","yes","1080","legacy","66","66","C:/Users/ERP Testing Room/Desktop/Joanna/morph21/subject-121.csv","xpyriment","Jazzy James","3.1.4","0","z","NA","NA","NA","NA","space","z","933","NA","NA","NA","NA","153002","933","2","legacy","1024","2","48000","-16","BA_m21","121","odd","NW_S_SIMP","MEDICALARY","1382","396629","395046","392012","154394","NA","NA","NA","NA","396626","395543","NA","394546","NA","394536","396626","1392","397029","NA","NA","395637","1382","1382","396029","394536","1382","395637","397029","morph21_Oliver/Morris","53","53639","67","yes","1280","18"
"300","79.4117647059","79.4117647059","803.161764706","803.161764706","black","no","xpyriment","legacy","legacy","0","205","NA","uniform","60886","1000","0.0164241369116","1","undefined","1","0","67","67","67","0","67","67","67","NA","67","67","0","67","NA","67","67","0","67","NA","67","NA","67","0","0","67","67","0","67","67","68","z","01/12/18 15:31:07","The main experiment item","yes","FIN__BA__M21__7%3A10%3A17.osexp","C:\Users\ERP Testing Room\Desktop\Joanna\morph21","no","mono","no","18","no","white","no","yes","1080","legacy","67","67","C:/Users/ERP Testing Room/Desktop/Joanna/morph21/subject-121.csv","xpyriment","Jazzy James","3.1.4","0","z","NA","NA","NA","NA","space","z","976","NA","NA","NA","NA","153002","976","2","legacy","1024","2","48000","-16","BA_m21","121","odd","NW_S_SIMP","BOLTOUS","1382","399762","398179","392012","154394","NA","NA","NA","NA","399753","398676","NA","397679","NA","397668","399753","1392","400062","NA","NA","398762","1382","1382","399154","397668","1382","398762","400062","morph21_Oliver/Morris","54","54615","68","yes","1280","13"
"200","79.7101449275","79.7101449275","800.623188406","800.623188406","black","no","xpyriment","legacy","legacy","0","207","NA","uniform","74171","1000","0.0134823583341","1","undefined","1","0","68","68","68","0","68","68","68","NA","68","68","0","68","NA","68","68","0","68","NA","68","NA","68","0","0","68","68","0","68","68","69","/","01/12/18 15:31:07","The main experiment item","yes","FIN__BA__M21__7%3A10%3A17.osexp","C:\Users\ERP Testing Room\Desktop\Joanna\morph21","no","mono","no","18","no","white","no","yes","1080","legacy","68","68","C:/Users/ERP Testing Room/Desktop/Joanna/morph21/subject-121.csv","xpyriment","Jazzy James","3.1.4","0","/","NA","NA","NA","NA","space","/","628","NA","NA","NA","NA","153002","628","2","legacy","1024","2","48000","-16","BA_m21","121","odd","FILL_W","TEST","1382","404354","401246","402846","154394","NA","NA","NA","NA","402842","401743","NA","400746","NA","400739","402842","1392","404554","NA","NA","401854","1382","1382","402246","400739","1382","401854","404554","morph21_Oliver/Morris","55","55243","69","yes","1280","47"
"250","78.5714285714","78.5714285714","803.371428571","803.371428571","black","no","xpyriment","legacy","legacy","0","206","NA","uniform","56760","1000","0.0176180408739","0","undefined","0","0","69","69","69","0","69","69","69","NA","69","69","0","69","NA","69","69","0","69","NA","69","NA","69","0","0","69","69","0","69","69","70","z","01/12/18 15:31:07","The main experiment item","yes","FIN__BA__M21__7%3A10%3A17.osexp","C:\Users\ERP Testing Room\Desktop\Joanna\morph21","no","mono","no","18","no","white","no","yes","1080","legacy","69","69","C:/Users/ERP Testing Room/Desktop/Joanna/morph21/subject-121.csv","xpyriment","Jazzy James","3.1.4","0","None","NA","NA","NA","NA","space","None","993","NA","NA","NA","NA","153002","993","2","legacy","1024","2","48000","-16","BA_m21","121","odd","NW_L_SIMP"," DRESSORY","1382","407371","405779","402846","154394","NA","NA","NA","NA","402842","406277","NA","405279","NA","405273","407364","1392","407621","NA","NA","406371","1382","1382","406763","405273","1382","406371","407621","morph21_Oliver/Morris","55","56236","70","yes","1280","21"
"200","78.8732394366","78.8732394366","802.295774648","802.295774648","black","no","xpyriment","legacy","legacy","0","208","NA","uniform","67901","1000","0.0147273236035","1","undefined","1","0","70","70","70","0","70","70","70","NA","70","70","0","70","NA","70","70","0","70","NA","70","NA","70","0","0","70","70","0","70","70","71","z","01/12/18 15:31:07","The main experiment item","yes","FIN__BA__M21__7%3A10%3A17.osexp","C:\Users\ERP Testing Room\Desktop\Joanna\morph21","no","mono","no","18","no","white","no","yes","1080","legacy","70","70","C:/Users/ERP Testing Room/Desktop/Joanna/morph21/subject-121.csv","xpyriment","Jazzy James","3.1.4","0","z","NA","NA","NA","NA","space","z","727","NA","NA","NA","NA","153002","727","2","legacy","1024","2","48000","-16","BA_m21","121","odd","FILL_NW","VUNKS","1382","410531","408938","402846","154394","NA","NA","NA","NA","410522","409435","NA","408438","NA","408431","410522","1392","410731","NA","NA","409531","1382","1382","409922","408431","1382","409530","410731","morph21_Oliver/Morris","56","56963","71","yes","1280","49"
"200","79.1666666667","79.1666666667","801.916666667","801.916666667","black","no","xpyriment","legacy","legacy","0","203","NA","uniform","69992","1000","0.0142873471254","1","undefined","1","0","71","71","71","0","71","71","71","NA","71","71","0","71","NA","71","71","0","71","NA","71","NA","71","0","0","71","71","0","71","71","72","z","01/12/18 15:31:07","The main experiment item","yes","FIN__BA__M21__7%3A10%3A17.osexp","C:\Users\ERP Testing Room\Desktop\Joanna\morph21","no","mono","no","18","no","white","no","yes","1080","legacy","71","71","C:/Users/ERP Testing Room/Desktop/Joanna/morph21/subject-121.csv","xpyriment","Jazzy James","3.1.4","0","z","NA","NA","NA","NA","space","z","775","NA","NA","NA","NA","153002","775","2","legacy","1024","2","48000","-16","BA_m21","121","odd","NW_S_COMP","ANTILM","1382","415047","411956","413539","154394","NA","NA","NA","NA","413533","412453","NA","411456","NA","411448","413533","1392","415248","NA","NA","412539","1382","1382","412931","411448","1382","412539","415248","morph21_Oliver/Morris","57","57738","72","yes","1280","8"
"300","79.4520547945","79.4520547945","799.931506849","799.931506849","black","no","xpyriment","legacy","legacy","0","207","NA","uniform","70626","1000","0.0141590915527","1","undefined","1","0","72","72","72","0","72","72","72","NA","72","72","0","72","NA","72","72","0","72","NA","72","NA","72","0","0","72","72","0","72","72","73","/","01/12/18 15:31:07","The main experiment item","yes","FIN__BA__M21__7%3A10%3A17.osexp","C:\Users\ERP Testing Room\Desktop\Joanna\morph21","no","mono","no","18","no","white","no","yes","1080","legacy","72","72","C:/Users/ERP Testing Room/Desktop/Joanna/morph21/subject-121.csv","xpyriment","Jazzy James","3.1.4","0","/","NA","NA","NA","NA","space","/","657","NA","NA","NA","NA","153002","657","2","legacy","1024","2","48000","-16","BA_m21","121","odd","FILL_W","MOURN","1382","418089","416506","413539","154394","NA","NA","NA","NA","418080","417003","NA","416006","NA","415994","418080","1392","418389","NA","NA","417089","1382","1382","417481","415994","1382","417089","418389","morph21_Oliver/Morris","58","58395","73","yes","1280","26"
"300","79.7297297297","79.7297297297","797.702702703","797.702702703","black","no","xpyriment","legacy","legacy","0","201","NA","uniform","71116","1000","0.0140615332696","1","undefined","1","0","73","73","73","0","73","73","73","NA","73","73","0","73","NA","73","73","0","73","NA","73","NA","73","0","0","73","73","0","73","73","74","/","01/12/18 15:31:07","The main experiment item","yes","FIN__BA__M21__7%3A10%3A17.osexp","C:\Users\ERP Testing Room\Desktop\Joanna\morph21","no","mono","no","18","no","white","no","yes","1080","legacy","73","73","C:/Users/ERP Testing Room/Desktop/Joanna/morph21/subject-121.csv","xpyriment","Jazzy James","3.1.4","0","/","NA","NA","NA","NA","space","/","635","NA","NA","NA","NA","153002","635","2","legacy","1024","2","48000","-16","BA_m21","121","odd","CW_S","DESTROYER","1382","421239","419656","413539","154394","NA","NA","NA","NA","421230","420153","NA","419156","NA","419151","421230","1392","421539","NA","NA","420239","1382","1382","420631","419151","1382","420239","421539","morph21_Oliver/Morris","59","59030","74","yes","1280","14"
"400","80","80","793.813333333","793.813333333","black","no","xpyriment","legacy","legacy","0","207","NA","uniform","76186","1000","0.0131257711391","undefined","undefined","1","0","74","74","74","0","74","74","74","NA","74","74","0","74","NA","74","74","0","74","NA","74","NA","74","0","0","74","74","0","74","74","75","/","01/12/18 15:31:07","The main experiment item","yes","FIN__BA__M21__7%3A10%3A17.osexp","C:\Users\ERP Testing Room\Desktop\Joanna\morph21","no","mono","no","18","no","white","no","yes","1080","legacy","74","74","C:/Users/ERP Testing Room/Desktop/Joanna/morph21/subject-121.csv","xpyriment","Jazzy James","3.1.4","0","space","space","NA","NA","NA","space","/","38941","38941","NA","NA","NA","153002","506","2","legacy","1024","2","48000","-16","BA_m21","121","odd","FILL_W","STEEP","1382","425965","422839","424456","154394","426373","NA","NA","NA","424446","423337","NA","422339","NA","422328","424446","1392","465315","NA","NA","423456","1382","1382","423848","422328","1382","423456","426365","morph21_Oliver/Morris","60","59536","75","yes","1280","16"
"350","80.2631578947","80.2631578947","796.144736842","796.144736842","black","no","xpyriment","legacy","legacy","0","201","NA","uniform","62373","1000","0.0160325781989","1","undefined","1","0","75","75","75","0","75","75","75","NA","75","75","0","75","NA","75","75","0","75","NA","75","NA","75","0","0","75","75","0","75","75","76","/","01/12/18 15:31:07","The main experiment item","yes","FIN__BA__M21__7%3A10%3A17.osexp","C:\Users\ERP Testing Room\Desktop\Joanna\morph21","no","mono","no","18","no","white","no","yes","1080","legacy","75","75","C:/Users/ERP Testing Room/Desktop/Joanna/morph21/subject-121.csv","xpyriment","Jazzy James","3.1.4","0","/","space","NA","NA","NA","space","/","971","38941","NA","NA","NA","153002","971","2","legacy","1024","2","48000","-16","BA_m21","121","odd","CW_S","BEARDED","1382","468111","466494","424456","154394","426373","NA","NA","NA","468102","466992","NA","465994","NA","465985","468102","1392","468461","NA","NA","467111","1382","1382","467503","465985","1382","467111","468461","morph21_Oliver/Morris","61","60507","76","yes","1280","8"
"350","79.2207792208","79.2207792208","798.701298701","798.701298701","black","no","xpyriment","legacy","legacy","0","202","NA","uniform","61087","1000","0.0163700951103","0","undefined","0","0","76","76","76","0","76","76","76","NA","76","76","0","76","NA","76","76","0","76","NA","76","NA","76","0","0","76","76","0","76","76","77","/","01/12/18 15:31:07","The main experiment item","yes","FIN__BA__M21__7%3A10%3A17.osexp","C:\Users\ERP Testing Room\Desktop\Joanna\morph21","no","mono","no","18","no","white","no","yes","1080","legacy","76","76","C:/Users/ERP Testing Room/Desktop/Joanna/morph21/subject-121.csv","xpyriment","Jazzy James","3.1.4","0","None","space","NA","NA","NA","space","None","993","38941","NA","NA","NA","153002","993","2","legacy","1024","2","48000","-16","BA_m21","121","odd","CW_L","BARKER","1382","471320","469736","424456","154394","426373","NA","NA","NA","468102","470233","NA","469236","NA","469225","471313","1392","471670","NA","NA","470320","1382","1382","470711","469225","1382","470320","471670","morph21_Oliver/Morris","61","61500","77","yes","1280","2"
"300","79.4871794872","79.4871794872","801.115384615","801.115384615","black","no","xpyriment","legacy","legacy","0","205","NA","uniform","64397","1000","0.015528673696","1","undefined","1","0","77","77","77","0","77","77","77","NA","77","77","0","77","NA","77","77","0","77","NA","77","NA","77","0","0","77","77","0","77","77","78","z","01/12/18 15:31:07","The main experiment item","yes","FIN__BA__M21__7%3A10%3A17.osexp","C:\Users\ERP Testing Room\Desktop\Joanna\morph21","no","mono","no","18","no","white","no","yes","1080","legacy","77","77","C:/Users/ERP Testing Room/Desktop/Joanna/morph21/subject-121.csv","xpyriment","Jazzy James","3.1.4","0","z","space","NA","NA","NA","space","z","987","38941","NA","NA","NA","153002","987","2","legacy","1024","2","48000","-16","BA_m21","121","odd","NW_S_SIMP","HEIRIC","1382","476020","472920","474511","154394","426373","NA","NA","NA","474504","473417","NA","472420","NA","472415","474504","1392","476320","NA","NA","473511","1382","1382","473903","472415","1382","473511","476320","morph21_Oliver/Morris","62","62487","78","yes","1280","3"
"200","79.746835443","79.746835443","800.873417722","800.873417722","black","no","xpyriment","legacy","legacy","0","203","NA","uniform","65628","1000","0.0152373986713","1","undefined","1","0","78","78","78","0","78","78","78","NA","78","78","0","78","NA","78","78","0","78","NA","78","NA","78","0","0","78","78","0","78","78","79","z","01/12/18 15:31:07","The main experiment item","yes","FIN__BA__M21__7%3A10%3A17.osexp","C:\Users\ERP Testing Room\Desktop\Joanna\morph21","no","mono","no","18","no","white","no","yes","1080","legacy","78","78","C:/Users/ERP Testing Room/Desktop/Joanna/morph21/subject-121.csv","xpyriment","Jazzy James","3.1.4","0","z","space","NA","NA","NA","space","z","782","38941","NA","NA","NA","153002","782","2","legacy","1024","2","48000","-16","BA_m21","121","odd","NW_S_COMP","ADOPTISH","1382","479213","477620","474511","154394","426373","NA","NA","NA","479210","478117","NA","477120","NA","477115","479210","1392","479413","NA","NA","478220","1382","1382","478612","477114","1382","478220","479413","morph21_Oliver/Morris","63","63269","79","yes","1280","19"
"400","80","80","800.3125","800.3125","black","no","xpyriment","legacy","legacy","0","206","NA","uniform","70019","1000","0.0142818377869","1","undefined","1","0","79","79","79","0","79","79","79","NA","79","79","0","79","NA","79","79","0","79","NA","79","NA","79","0","0","79","79","0","79","79","80","z","01/12/18 15:31:07","The main experiment item","yes","FIN__BA__M21__7%3A10%3A17.osexp","C:\Users\ERP Testing Room\Desktop\Joanna\morph21","no","mono","no","18","no","white","no","yes","1080","legacy","79","79","C:/Users/ERP Testing Room/Desktop/Joanna/morph21/subject-121.csv","xpyriment","Jazzy James","3.1.4","0","z","space","NA","NA","NA","space","z","756","38941","NA","NA","NA","153002","756","2","legacy","1024","2","48000","-16","BA_m21","121","odd","NW_L_SIMP","CLASSOUS","1382","482254","480654","474511","154394","426373","NA","NA","NA","482246","481151","NA","480154","NA","480145","482246","1392","482654","NA","NA","481254","1382","1382","481646","480145","1382","481254","482654","morph21_Oliver/Morris","64","64025","80","yes","1280","18"
"300","80.2469135802","80.2469135802","800.24691358","800.24691358","black","no","xpyriment","legacy","legacy","0","206","NA","uniform","69126","1000","0.0144663368342","1","undefined","1","0","80","80","80","0","80","80","80","NA","80","80","0","80","NA","80","80","0","80","NA","80","NA","80","0","0","80","80","0","80","80","81","z","01/12/18 15:31:07","The main experiment item","yes","FIN__BA__M21__7%3A10%3A17.osexp","C:\Users\ERP Testing Room\Desktop\Joanna\morph21","no","mono","no","18","no","white","no","yes","1080","legacy","80","80","C:/Users/ERP Testing Room/Desktop/Joanna/morph21/subject-121.csv","xpyriment","Jazzy James","3.1.4","0","z","space","NA","NA","NA","space","z","795","38941","NA","NA","NA","153002","795","2","legacy","1024","2","48000","-16","BA_m21","121","odd","NW_L_SIMP","BEGENCE","1382","486980","483888","485471","154394","426373","NA","NA","NA","485463","484385","NA","483388","NA","483381","485463","1392","487280","NA","NA","484471","1382","1382","484863","483380","1382","484471","487280","morph21_Oliver/Morris","65","64820","81","yes","1280","4"
"250","79.2682926829","79.2682926829","802.573170732","802.573170732","black","no","xpyriment","legacy","legacy","0","201","NA","uniform","61454","1000","0.0162723337781","0","undefined","0","0","81","81","81","0","81","81","81","NA","81","81","0","81","NA","81","81","0","81","NA","81","NA","81","0","0","81","81","0","81","81","82","/","01/12/18 15:31:07","The main experiment item","yes","FIN__BA__M21__7%3A10%3A17.osexp","C:\Users\ERP Testing Room\Desktop\Joanna\morph21","no","mono","no","18","no","white","no","yes","1080","legacy","81","81","C:/Users/ERP Testing Room/Desktop/Joanna/morph21/subject-121.csv","xpyriment","Jazzy James","3.1.4","0","None","space","NA","NA","NA","space","None","991","38941","NA","NA","NA","153002","991","2","legacy","1024","2","48000","-16","BA_m21","121","odd","CW_S","MILDNESS","1382","490088","488488","485471","154394","426373","NA","NA","NA","485463","488985","NA","487988","NA","487984","490080","1392","490338","NA","NA","489088","1382","1382","489480","487984","1382","489088","490338","morph21_Oliver/Morris","65","65811","82","yes","1280","42"
"250","78.313253012","78.313253012","804.879518072","804.879518072","black","no","xpyriment","legacy","legacy","0","204","NA","uniform","63541","1000","0.0157378700367","0","undefined","0","0","82","82","82","0","82","82","82","NA","82","82","0","82","NA","82","82","0","82","NA","82","NA","82","0","0","82","82","0","82","82","83","z","01/12/18 15:31:07","The main experiment item","yes","FIN__BA__M21__7%3A10%3A17.osexp","C:\Users\ERP Testing Room\Desktop\Joanna\morph21","no","mono","no","18","no","white","no","yes","1080","legacy","82","82","C:/Users/ERP Testing Room/Desktop/Joanna/morph21/subject-121.csv","xpyriment","Jazzy James","3.1.4","0","None","space","NA","NA","NA","space","None","994","38941","NA","NA","NA","153002","994","2","legacy","1024","2","48000","-16","BA_m21","121","odd","NW_L_COMP","STIRANGE","1382","493147","491563","485471","154394","426373","NA","NA","NA","485463","492060","NA","491063","NA","491053","493140","1392","493397","NA","NA","492146","1382","1382","492538","491053","1382","492146","493397","morph21_Oliver/Morris","65","66805","83","yes","1280","1"
"200","78.5714285714","78.5714285714","805.095238095","805.095238095","black","no","xpyriment","legacy","legacy","0","207","NA","uniform","66467","1000","0.0150450599546","1","undefined","1","0","83","83","83","0","83","83","83","NA","83","83","0","83","NA","83","83","0","83","NA","83","NA","83","0","0","83","83","0","83","83","84","/","01/12/18 15:31:07","The main experiment item","yes","FIN__BA__M21__7%3A10%3A17.osexp","C:\Users\ERP Testing Room\Desktop\Joanna\morph21","no","mono","no","18","no","white","no","yes","1080","legacy","83","83","C:/Users/ERP Testing Room/Desktop/Joanna/morph21/subject-121.csv","xpyriment","Jazzy James","3.1.4","0","/","space","NA","NA","NA","space","/","823","38941","NA","NA","NA","153002","823","2","legacy","1024","2","48000","-16","BA_m21","121","odd","FILL_W","TAX","1382","497664","494547","496155","154394","426373","NA","NA","NA","496151","495044","NA","494047","NA","494043","496151","1392","497865","NA","NA","495155","1382","1382","495555","494043","1382","495155","497865","morph21_Oliver/Morris","66","67628","84","yes","1280","45"
"300","77.6470588235","77.6470588235","804.835294118","804.835294118","black","no","xpyriment","legacy","legacy","0","206","NA","uniform","70743","1000","0.014135674201","0","undefined","0","0","84","84","84","0","84","84","84","NA","84","84","0","84","NA","84","84","0","84","NA","84","NA","84","0","0","84","84","0","84","84","85","z","01/12/18 15:31:07","The main experiment item","yes","FIN__BA__M21__7%3A10%3A17.osexp","C:\Users\ERP Testing Room\Desktop\Joanna\morph21","no","mono","no","18","no","white","no","yes","1080","legacy","84","84","C:/Users/ERP Testing Room/Desktop/Joanna/morph21/subject-121.csv","xpyriment","Jazzy James","3.1.4","0","/","space","NA","NA","NA","space","/","783","38941","NA","NA","NA","153002","783","2","legacy","1024","2","48000","-16","BA_m21","121","odd","NW_L_SIMP","TAXFUL","1382","500723","499115","496155","154394","426373","NA","NA","NA","496151","499612","NA","498615","NA","498611","500716","1392","501023","NA","NA","499723","1382","1382","500115","498611","1382","499723","501023","morph21_Oliver/Morris","66","68411","85","yes","1280","6"
"250","77.9069767442","77.9069767442","803.76744186","803.76744186","black","no","xpyriment","legacy","legacy","0","207","NA","uniform","74838","1000","0.013362195676","1","undefined","1","0","85","85","85","0","85","85","85","NA","85","85","0","85","NA","85","85","0","85","NA","85","NA","85","0","0","85","85","0","85","85","86","/","01/12/18 15:31:07","The main experiment item","yes","FIN__BA__M21__7%3A10%3A17.osexp","C:\Users\ERP Testing Room\Desktop\Joanna\morph21","no","mono","no","18","no","white","no","yes","1080","legacy","85","85","C:/Users/ERP Testing Room/Desktop/Joanna/morph21/subject-121.csv","xpyriment","Jazzy James","3.1.4","0","/","space","NA","NA","NA","space","/","713","38941","NA","NA","NA","153002","713","2","legacy","1024","2","48000","-16","BA_m21","121","odd","FILL_W","FIERCE","1382","503881","502298","496155","154394","426373","NA","NA","NA","503877","502795","NA","501798","NA","501790","503877","1392","504131","NA","NA","502881","1382","1382","503281","501790","1382","502881","504131","morph21_Oliver/Morris","67","69124","86","yes","1280","24"
"250","77.0114942529","77.0114942529","805.954022989","805.954022989","black","no","xpyriment","legacy","legacy","0","207","NA","uniform","62529","1000","0.0159925794431","0","undefined","0","0","86","86","86","0","86","86","86","NA","86","86","0","86","NA","86","86","0","86","NA","86","NA","86","0","0","86","86","0","86","86","87","/","01/12/18 15:31:07","The main experiment item","yes","FIN__BA__M21__7%3A10%3A17.osexp","C:\Users\ERP Testing Room\Desktop\Joanna\morph21","no","mono","no","18","no","white","no","yes","1080","legacy","86","86","C:/Users/ERP Testing Room/Desktop/Joanna/morph21/subject-121.csv","xpyriment","Jazzy James","3.1.4","0","None","space","NA","NA","NA","space","None","994","38941","NA","NA","NA","153002","994","2","legacy","1024","2","48000","-16","BA_m21","121","odd","FILL_W","SLIM","1382","508448","505348","506940","154394","426373","NA","NA","NA","503877","505845","NA","504848","NA","504843","506934","1392","508698","NA","NA","505940","1382","1382","506331","504843","1382","505940","508698","morph21_Oliver/Morris","67","70118","87","yes","1280","6"
"250","77.2727272727","77.2727272727","804.784090909","804.784090909","black","no","xpyriment","legacy","legacy","0","207","NA","uniform","66587","1000","0.015017946446","1","undefined","1","0","87","87","87","0","87","87","87","NA","87","87","0","87","NA","87","87","0","87","NA","87","NA","87","0","0","87","87","0","87","87","88","/","01/12/18 15:31:07","The main experiment item","yes","FIN__BA__M21__7%3A10%3A17.osexp","C:\Users\ERP Testing Room\Desktop\Joanna\morph21","no","mono","no","18","no","white","no","yes","1080","legacy","87","87","C:/Users/ERP Testing Room/Desktop/Joanna/morph21/subject-121.csv","xpyriment","Jazzy James","3.1.4","0","/","space","NA","NA","NA","space","/","703","38941","NA","NA","NA","153002","703","2","legacy","1024","2","48000","-16","BA_m21","121","odd","FILL_W","STARVE","1382","511515","509907","506940","154394","426373","NA","NA","NA","511512","510404","NA","509407","NA","509400","511512","1392","511765","NA","NA","510515","1382","1382","510915","509400","1382","510515","511765","morph21_Oliver/Morris","68","70821","88","yes","1280","15"
"400","76.404494382","76.404494382","804.269662921","804.269662921","black","no","xpyriment","legacy","legacy","0","208","NA","uniform","72480","1000","0.0137969094923","0","undefined","0","0","88","88","88","0","88","88","88","NA","88","88","0","88","NA","88","88","0","88","NA","88","NA","88","0","0","88","88","0","88","88","89","z","01/12/18 15:31:07","The main experiment item","yes","FIN__BA__M21__7%3A10%3A17.osexp","C:\Users\ERP Testing Room\Desktop\Joanna\morph21","no","mono","no","18","no","white","no","yes","1080","legacy","88","88","C:/Users/ERP Testing Room/Desktop/Joanna/morph21/subject-121.csv","xpyriment","Jazzy James","3.1.4","0","/","space","NA","NA","NA","space","/","759","38941","NA","NA","NA","153002","759","2","legacy","1024","2","48000","-16","BA_m21","121","odd","FILL_NW","HEND","1382","514533","512940","506940","154394","426373","NA","NA","NA","511512","513437","NA","512440","NA","512436","514524","1392","514933","NA","NA","513532","1382","1382","513923","512436","1382","513532","514933","morph21_Oliver/Morris","68","71580","89","yes","1280","28"
"300","75.5555555556","75.5555555556","806.355555556","806.355555556","black","no","xpyriment","legacy","legacy","0","205","NA","uniform","64252","1000","0.0155637178609","0","undefined","0","0","89","89","89","0","89","89","89","NA","89","89","0","89","NA","89","89","0","89","NA","89","NA","89","0","0","89","89","0","89","89","90","z","01/12/18 15:31:07","The main experiment item","yes","FIN__BA__M21__7%3A10%3A17.osexp","C:\Users\ERP Testing Room\Desktop\Joanna\morph21","no","mono","no","18","no","white","no","yes","1080","legacy","89","89","C:/Users/ERP Testing Room/Desktop/Joanna/morph21/subject-121.csv","xpyriment","Jazzy James","3.1.4","0","None","space","NA","NA","NA","space","None","992","38941","NA","NA","NA","153002","992","2","legacy","1024","2","48000","-16","BA_m21","121","odd","NW_S_SIMP","FEVERIZE","1382","519283","516183","517775","154394","426373","NA","NA","NA","511512","516680","NA","515683","NA","515679","517767","1392","519583","NA","NA","516775","1382","1382","517166","515679","1382","516775","519583","morph21_Oliver/Morris","68","72572","90","yes","1280","24"
"300","75.8241758242","75.8241758242","807.362637363","807.362637363","black","no","xpyriment","legacy","legacy","0","208","NA","uniform","69061","1000","0.0144799525058","1","undefined","1","0","90","90","90","0","90","90","90","NA","90","90","0","90","NA","90","90","0","90","NA","90","NA","90","0","0","90","90","0","90","90","91","z","01/12/18 15:31:07","The main experiment item","yes","FIN__BA__M21__7%3A10%3A17.osexp","C:\Users\ERP Testing Room\Desktop\Joanna\morph21","no","mono","no","18","no","white","no","yes","1080","legacy","90","90","C:/Users/ERP Testing Room/Desktop/Joanna/morph21/subject-121.csv","xpyriment","Jazzy James","3.1.4","0","z","space","NA","NA","NA","space","z","898","38941","NA","NA","NA","153002","898","2","legacy","1024","2","48000","-16","BA_m21","121","odd","FILL_NW","BAFED","1382","522400","520816","517775","154394","426373","NA","NA","NA","522391","521314","NA","520316","NA","520311","522391","1392","522700","NA","NA","521400","1382","1382","521791","520311","1382","521400","522700","morph21_Oliver/Morris","69","73470","91","yes","1280","1"
