"ITI","acc","accuracy","average_response_time","avg_rt","background","bidi","canvas_backend","clock_backend","color_backend","compensation","cond_trig","condtrigtime","coordinates","coroutines_cycles","coroutines_duration","coroutines_mean_cycle_duration","correct","correct_instructions_1","correct_new_keyboard_response_1","count_AB_m21","count_ITI","count_blank_screen","count_blink_screen","count_block1","count_break1","count_break2","count_break3_1","count_canvas","count_correct_trigger","count_def_chain","count_end_screen","count_fixation_1","count_getting_started","count_inc_counter","count_incorrect_trigger","count_instructions_1","count_logger","count_logscript","count_new_coroutines","count_new_inline_script","count_new_keyboard_response_1","count_reset_counter_prep","count_reset_counter_run","count_responsescreen","count_sequence","count_start_trigger","count_target_present","count_word_trigger","counter","cresp","datetime","description","disable_garbage_collection","experiment_file","experiment_path","font_bold","font_family","font_italic","font_size","font_underline","foreground","form_clicks","fullscreen","height","keyboard_backend","live_row","live_row_block1","logfile","mouse_backend","opensesame_codename","opensesame_version","repeat_cycle","response","response_break1","response_break2","response_break3_1","response_end_screen","response_instructions_1","response_new_keyboard_response_1","response_time","response_time_break1","response_time_break2","response_time_break3_1","response_time_end_screen","response_time_instructions_1","response_time_new_keyboard_response_1","round_decimals","sampler_backend","sound_buf_size","sound_channels","sound_freq","sound_sample_size","start","subject_nr","subject_parity","targ_type","target","time_AB_m21","time_ITI","time_blank_screen","time_blink_screen","time_block1","time_break1","time_break2","time_break3_1","time_canvas","time_correct_trigger","time_def_chain","time_end_screen","time_fixation_1","time_getting_started","time_inc_counter","time_incorrect_trigger","time_instructions_1","time_logger","time_logscript","time_new_inline_script","time_new_keyboard_response_1","time_reset_counter_prep","time_reset_counter_run","time_responsescreen","time_sequence","time_start_trigger","time_target_present","time_word_trigger","title","total_correct","total_response_time","total_responses","uniform_coordinates","width","word_trig"
"300","100","100","933","933","black","no","xpyriment","legacy","legacy","0","202","NA","uniform","63444","1000","0.0157619317824","1","undefined","1","0","0","0","0","0","0","0","0","NA","0","0","0","0","NA","0","0","0","0","NA","0","NA","0","0","0","0","0","0","0","0","1","/","11/03/17 12:39:24","The main experiment item","yes","FIN__AB__M21__7%3A10%3A17.osexp","C:\Users\ERP Testing Room\Desktop\Joanna\morph21","no","mono","no","18","no","white","no","yes","1080","legacy","0","0","C:/Users/ERP Testing Room/Desktop/Joanna/morph21/subject-114.csv","xpyriment","Jazzy James","3.1.4","0","/","NA","NA","NA","NA","return","/","933","NA","NA","NA","NA","32520","933","2","legacy","1024","2","48000","-16","AB_m21","114","even","CW_L","COMPOSER","1739","37089","35505","NA","34269","NA","NA","NA","NA","37082","36002","NA","35001","NA","34929","37082","1749","37389","NA","NA","36089","1739","1739","36480","34929","1739","36089","37389","morph21_Oliver/Morris","1","933","1","yes","1280","6"
"350","100","100","858.5","858.5","black","no","xpyriment","legacy","legacy","0","201","NA","uniform","71134","1000","0.0140579750893","1","undefined","1","0","1","1","1","0","1","1","1","NA","1","1","0","1","NA","1","1","0","1","NA","1","NA","1","0","0","1","1","0","1","1","2","/","11/03/17 12:39:24","The main experiment item","yes","FIN__AB__M21__7%3A10%3A17.osexp","C:\Users\ERP Testing Room\Desktop\Joanna\morph21","no","mono","no","18","no","white","no","yes","1080","legacy","1","1","C:/Users/ERP Testing Room/Desktop/Joanna/morph21/subject-114.csv","xpyriment","Jazzy James","3.1.4","0","/","NA","NA","NA","NA","return","/","784","NA","NA","NA","NA","32520","784","2","legacy","1024","2","48000","-16","AB_m21","114","even","CW_S","NEATLY","1739","40222","38639","NA","34269","NA","NA","NA","NA","40218","39136","NA","38139","NA","38132","40218","1749","40572","NA","NA","39222","1739","1739","39622","38131","1739","39222","40572","morph21_Oliver/Morris","2","1717","2","yes","1280","33"
"200","100","100","786.666666667","786.666666667","black","no","xpyriment","legacy","legacy","0","207","NA","uniform","72416","1000","0.0138091029607","1","undefined","1","0","2","2","2","0","2","2","2","NA","2","2","0","2","NA","2","2","0","2","NA","2","NA","2","0","0","2","2","0","2","2","3","/","11/03/17 12:39:24","The main experiment item","yes","FIN__AB__M21__7%3A10%3A17.osexp","C:\Users\ERP Testing Room\Desktop\Joanna\morph21","no","mono","no","18","no","white","no","yes","1080","legacy","2","2","C:/Users/ERP Testing Room/Desktop/Joanna/morph21/subject-114.csv","xpyriment","Jazzy James","3.1.4","0","/","NA","NA","NA","NA","return","/","643","NA","NA","NA","NA","32520","643","2","legacy","1024","2","48000","-16","AB_m21","114","even","FILL_W","BLEAK","1739","44831","41739","43322","34269","NA","NA","NA","NA","43320","42236","NA","41239","NA","41233","43320","1749","45031","NA","NA","42331","1739","1739","42722","41233","1739","42331","45031","morph21_Oliver/Morris","3","2360","3","yes","1280","5"
"300","100","100","829.25","829.25","black","no","xpyriment","legacy","legacy","0","205","NA","uniform","60032","1000","0.016657782516","1","undefined","1","0","3","3","3","0","3","3","3","NA","3","3","0","3","NA","3","3","0","3","NA","3","NA","3","0","0","3","3","0","3","3","4","z","11/03/17 12:39:24","The main experiment item","yes","FIN__AB__M21__7%3A10%3A17.osexp","C:\Users\ERP Testing Room\Desktop\Joanna\morph21","no","mono","no","18","no","white","no","yes","1080","legacy","3","3","C:/Users/ERP Testing Room/Desktop/Joanna/morph21/subject-114.csv","xpyriment","Jazzy James","3.1.4","0","z","NA","NA","NA","NA","return","z","957","NA","NA","NA","NA","32520","957","2","legacy","1024","2","48000","-16","AB_m21","114","even","NW_S_SIMP","SOCKETEL","1739","47864","46281","43322","34269","NA","NA","NA","NA","47860","46778","NA","45772","NA","45768","47860","1749","48164","NA","NA","46864","1739","1739","47264","45768","1739","46864","48164","morph21_Oliver/Morris","4","3317","4","yes","1280","1"
"250","80","80","860.2","860.2","black","no","xpyriment","legacy","legacy","0","204","NA","uniform","64030","1000","0.0156176792129","0","undefined","0","0","4","4","4","0","4","4","4","NA","4","4","0","4","NA","4","4","0","4","NA","4","NA","4","0","0","4","4","0","4","4","5","z","11/03/17 12:39:24","The main experiment item","yes","FIN__AB__M21__7%3A10%3A17.osexp","C:\Users\ERP Testing Room\Desktop\Joanna\morph21","no","mono","no","18","no","white","no","yes","1080","legacy","4","4","C:/Users/ERP Testing Room/Desktop/Joanna/morph21/subject-114.csv","xpyriment","Jazzy James","3.1.4","0","/","NA","NA","NA","NA","return","/","984","NA","NA","NA","NA","32520","984","2","legacy","1024","2","48000","-16","AB_m21","114","even","NW_L_COMP","FREENESS","1739","50981","49398","43322","34269","NA","NA","NA","NA","47860","49895","NA","48898","NA","48892","50974","1749","51231","NA","NA","49981","1739","1739","50373","48892","1739","49981","51231","morph21_Oliver/Morris","4","4301","5","yes","1280","15"
"300","66.6666666667","66.6666666667","882.833333333","882.833333333","black","no","xpyriment","legacy","legacy","0","204","NA","uniform","60198","1000","0.0166118475697","0","undefined","0","0","5","5","5","0","5","5","5","NA","5","5","0","5","NA","5","5","0","5","NA","5","NA","5","0","0","5","5","0","5","5","6","z","11/03/17 12:39:24","The main experiment item","yes","FIN__AB__M21__7%3A10%3A17.osexp","C:\Users\ERP Testing Room\Desktop\Joanna\morph21","no","mono","no","18","no","white","no","yes","1080","legacy","5","5","C:/Users/ERP Testing Room/Desktop/Joanna/morph21/subject-114.csv","xpyriment","Jazzy James","3.1.4","0","None","NA","NA","NA","NA","return","None","996","NA","NA","NA","NA","32520","996","2","legacy","1024","2","48000","-16","AB_m21","114","even","NW_L_COMP","KINGISM","1739","55482","52389","53974","34269","NA","NA","NA","NA","47860","52887","NA","51889","NA","51883","53970","1749","55782","NA","NA","52974","1739","1739","53374","51883","1739","52974","55782","morph21_Oliver/Morris","4","5297","6","yes","1280","19"
"200","57.1428571429","57.1428571429","882.285714286","882.285714286","black","no","xpyriment","legacy","legacy","0","205","NA","uniform","63635","1000","0.0157146224562","0","undefined","0","0","6","6","6","0","6","6","6","NA","6","6","0","6","NA","6","6","0","6","NA","6","NA","6","0","0","6","6","0","6","6","7","z","11/03/17 12:39:24","The main experiment item","yes","FIN__AB__M21__7%3A10%3A17.osexp","C:\Users\ERP Testing Room\Desktop\Joanna\morph21","no","mono","no","18","no","white","no","yes","1080","legacy","6","6","C:/Users/ERP Testing Room/Desktop/Joanna/morph21/subject-114.csv","xpyriment","Jazzy James","3.1.4","0","/","NA","NA","NA","NA","return","/","879","NA","NA","NA","NA","32520","879","2","legacy","1024","2","48000","-16","AB_m21","114","even","NW_S_SIMP","OPPOSEMANT","1739","58607","56982","53974","34269","NA","NA","NA","NA","47860","57479","NA","56482","NA","56472","58600","1749","58807","NA","NA","57607","1739","1739","57999","56472","1739","57607","58807","morph21_Oliver/Morris","4","6176","7","yes","1280","8"
"250","62.5","62.5","854.375","854.375","black","no","xpyriment","legacy","legacy","0","201","NA","uniform","71155","1000","0.0140538261542","1","undefined","1","0","7","7","7","0","7","7","7","NA","7","7","0","7","NA","7","7","0","7","NA","7","NA","7","0","0","7","7","0","7","7","8","/","11/03/17 12:39:24","The main experiment item","yes","FIN__AB__M21__7%3A10%3A17.osexp","C:\Users\ERP Testing Room\Desktop\Joanna\morph21","no","mono","no","18","no","white","no","yes","1080","legacy","7","7","C:/Users/ERP Testing Room/Desktop/Joanna/morph21/subject-114.csv","xpyriment","Jazzy James","3.1.4","0","/","NA","NA","NA","NA","return","/","659","NA","NA","NA","NA","32520","659","2","legacy","1024","2","48000","-16","AB_m21","114","even","CW_S","HARMLESS","1739","61683","60082","53974","34269","NA","NA","NA","NA","61676","60580","NA","59583","NA","59579","61676","1749","61933","NA","NA","60683","1739","1739","61074","59579","1739","60682","61933","morph21_Oliver/Morris","5","6835","8","yes","1280","29"
"250","66.6666666667","66.6666666667","835.666666667","835.666666667","black","no","xpyriment","legacy","legacy","0","202","NA","uniform","68354","1000","0.0146297217427","1","undefined","1","0","8","8","8","0","8","8","8","NA","8","8","0","8","NA","8","8","0","8","NA","8","NA","8","0","0","8","8","0","8","8","9","/","11/03/17 12:39:24","The main experiment item","yes","FIN__AB__M21__7%3A10%3A17.osexp","C:\Users\ERP Testing Room\Desktop\Joanna\morph21","no","mono","no","18","no","white","no","yes","1080","legacy","8","8","C:/Users/ERP Testing Room/Desktop/Joanna/morph21/subject-114.csv","xpyriment","Jazzy James","3.1.4","0","/","NA","NA","NA","NA","return","/","686","NA","NA","NA","NA","32520","686","2","legacy","1024","2","48000","-16","AB_m21","114","even","CW_L","STRIKER","1739","66291","63199","64783","34269","NA","NA","NA","NA","64774","63696","NA","62699","NA","62692","64774","1749","66541","NA","NA","63783","1739","1739","64174","62692","1739","63783","66541","morph21_Oliver/Morris","6","7521","9","yes","1280","17"
"250","70","70","812.1","812.1","black","no","xpyriment","legacy","legacy","0","201","NA","uniform","75614","1000","0.0132250641416","1","undefined","1","0","9","9","9","0","9","9","9","NA","9","9","0","9","NA","9","9","0","9","NA","9","NA","9","0","0","9","9","0","9","9","10","/","11/03/17 12:39:24","The main experiment item","yes","FIN__AB__M21__7%3A10%3A17.osexp","C:\Users\ERP Testing Room\Desktop\Joanna\morph21","no","mono","no","18","no","white","no","yes","1080","legacy","9","9","C:/Users/ERP Testing Room/Desktop/Joanna/morph21/subject-114.csv","xpyriment","Jazzy James","3.1.4","0","/","NA","NA","NA","NA","return","/","600","NA","NA","NA","NA","32520","600","2","legacy","1024","2","48000","-16","AB_m21","114","even","CW_S","AWARENESS","1739","69324","67716","64783","34269","NA","NA","NA","NA","69316","68213","NA","67216","NA","67212","69316","1749","69575","NA","NA","68325","1739","1739","68716","67212","1739","68324","69575","morph21_Oliver/Morris","7","8121","10","yes","1280","44"
"200","72.7272727273","72.7272727273","808","808","black","no","xpyriment","legacy","legacy","0","203","NA","uniform","65974","1000","0.0151574862825","1","undefined","1","0","10","10","10","0","10","10","10","NA","10","10","0","10","NA","10","10","0","10","NA","10","NA","10","0","0","10","10","0","10","10","11","z","11/03/17 12:39:24","The main experiment item","yes","FIN__AB__M21__7%3A10%3A17.osexp","C:\Users\ERP Testing Room\Desktop\Joanna\morph21","no","mono","no","18","no","white","no","yes","1080","legacy","10","10","C:/Users/ERP Testing Room/Desktop/Joanna/morph21/subject-114.csv","xpyriment","Jazzy James","3.1.4","0","z","NA","NA","NA","NA","return","z","767","NA","NA","NA","NA","32520","767","2","legacy","1024","2","48000","-16","AB_m21","114","even","NW_S_COMP","PILLIZE","1739","72367","70784","64783","34269","NA","NA","NA","NA","72362","71281","NA","70284","NA","70276","72362","1749","72567","NA","NA","71367","1739","1739","71767","70276","1739","71367","72567","morph21_Oliver/Morris","8","8888","11","yes","1280","13"
"200","75","75","779.083333333","779.083333333","black","no","xpyriment","legacy","legacy","0","207","NA","uniform","69123","1000","0.0144669646861","1","undefined","1","0","11","11","11","0","11","11","11","NA","11","11","0","11","NA","11","11","0","11","NA","11","NA","11","0","0","11","11","0","11","11","12","/","11/03/17 12:39:24","The main experiment item","yes","FIN__AB__M21__7%3A10%3A17.osexp","C:\Users\ERP Testing Room\Desktop\Joanna\morph21","no","mono","no","18","no","white","no","yes","1080","legacy","11","11","C:/Users/ERP Testing Room/Desktop/Joanna/morph21/subject-114.csv","xpyriment","Jazzy James","3.1.4","0","/","NA","NA","NA","NA","return","/","461","NA","NA","NA","NA","32520","461","2","legacy","1024","2","48000","-16","AB_m21","114","even","FILL_W","LEGAL","1739","76901","73801","75392","34269","NA","NA","NA","NA","75386","74298","NA","73301","NA","73291","75386","1749","77101","NA","NA","74393","1739","1739","74784","73290","1739","74392","77101","morph21_Oliver/Morris","9","9349","12","yes","1280","35"
"350","69.2307692308","69.2307692308","754.307692308","754.307692308","black","no","xpyriment","legacy","legacy","0","203","NA","uniform","78478","1000","0.0127424246286","0","undefined","0","0","12","12","12","0","12","12","12","NA","12","12","0","12","NA","12","12","0","12","NA","12","NA","12","0","0","12","12","0","12","12","13","z","11/03/17 12:39:24","The main experiment item","yes","FIN__AB__M21__7%3A10%3A17.osexp","C:\Users\ERP Testing Room\Desktop\Joanna\morph21","no","mono","no","18","no","white","no","yes","1080","legacy","12","12","C:/Users/ERP Testing Room/Desktop/Joanna/morph21/subject-114.csv","xpyriment","Jazzy James","3.1.4","0","/","NA","NA","NA","NA","return","/","457","NA","NA","NA","NA","32520","457","2","legacy","1024","2","48000","-16","AB_m21","114","even","NW_S_COMP","WELDIC","1739","79893","78293","75392","34269","NA","NA","NA","NA","75386","78790","NA","77793","NA","77782","79888","1749","80243","NA","NA","78893","1739","1739","79293","77782","1739","78893","80243","morph21_Oliver/Morris","9","9806","13","yes","1280","21"
"400","71.4285714286","71.4285714286","741.714285714","741.714285714","black","no","xpyriment","legacy","legacy","0","208","NA","uniform","69769","1000","0.0143330132294","1","undefined","1","0","13","13","13","0","13","13","13","NA","13","13","0","13","NA","13","13","0","13","NA","13","NA","13","0","0","13","13","0","13","13","14","z","11/03/17 12:39:24","The main experiment item","yes","FIN__AB__M21__7%3A10%3A17.osexp","C:\Users\ERP Testing Room\Desktop\Joanna\morph21","no","mono","no","18","no","white","no","yes","1080","legacy","13","13","C:/Users/ERP Testing Room/Desktop/Joanna/morph21/subject-114.csv","xpyriment","Jazzy James","3.1.4","0","z","NA","NA","NA","NA","return","z","578","NA","NA","NA","NA","32520","578","2","legacy","1024","2","48000","-16","AB_m21","114","even","FILL_NW","ULNS","1739","83059","81476","75392","34269","NA","NA","NA","NA","83053","81973","NA","80976","NA","80965","83053","1749","83460","NA","NA","82059","1739","1739","82451","80965","1739","82059","83460","morph21_Oliver/Morris","10","10384","14","yes","1280","45"
"300","66.6666666667","66.6666666667","731.2","731.2","black","no","xpyriment","legacy","legacy","0","206","NA","uniform","76284","1000","0.0131089088144","0","undefined","0","0","14","14","14","0","14","14","14","NA","14","14","0","14","NA","14","14","0","14","NA","14","NA","14","0","0","14","14","0","14","14","15","z","11/03/17 12:39:24","The main experiment item","yes","FIN__AB__M21__7%3A10%3A17.osexp","C:\Users\ERP Testing Room\Desktop\Joanna\morph21","no","mono","no","18","no","white","no","yes","1080","legacy","14","14","C:/Users/ERP Testing Room/Desktop/Joanna/morph21/subject-114.csv","xpyriment","Jazzy James","3.1.4","0","/","NA","NA","NA","NA","return","/","584","NA","NA","NA","NA","32520","584","2","legacy","1024","2","48000","-16","AB_m21","114","even","NW_L_SIMP","TAXFIL","1739","87794","84701","86285","34269","NA","NA","NA","NA","83053","85198","NA","84201","NA","84191","86279","1749","88094","NA","NA","85285","1739","1739","85676","84191","1739","85285","88094","morph21_Oliver/Morris","10","10968","15","yes","1280","6"
"350","62.5","62.5","722.4375","722.4375","black","no","xpyriment","legacy","legacy","0","203","NA","uniform","75139","1000","0.0133086679354","0","undefined","0","0","15","15","15","0","15","15","15","NA","15","15","0","15","NA","15","15","0","15","NA","15","NA","15","0","0","15","15","0","15","15","16","z","11/03/17 12:39:24","The main experiment item","yes","FIN__AB__M21__7%3A10%3A17.osexp","C:\Users\ERP Testing Room\Desktop\Joanna\morph21","no","mono","no","18","no","white","no","yes","1080","legacy","15","15","C:/Users/ERP Testing Room/Desktop/Joanna/morph21/subject-114.csv","xpyriment","Jazzy James","3.1.4","0","/","NA","NA","NA","NA","return","/","591","NA","NA","NA","NA","32520","591","2","legacy","1024","2","48000","-16","AB_m21","114","even","NW_S_COMP","PRINCEMENT","1739","90928","89327","86285","34269","NA","NA","NA","NA","83053","89825","NA","88827","NA","88824","90922","1749","91278","NA","NA","89927","1739","1739","90319","88824","1739","89927","91278","morph21_Oliver/Morris","10","11559","16","yes","1280","17"
"300","64.7058823529","64.7058823529","712.941176471","712.941176471","black","no","xpyriment","legacy","legacy","0","207","NA","uniform","70630","1000","0.0141582896786","1","undefined","1","0","16","16","16","0","16","16","16","NA","16","16","0","16","NA","16","16","0","16","NA","16","NA","16","0","0","16","16","0","16","16","17","/","11/03/17 12:39:24","The main experiment item","yes","FIN__AB__M21__7%3A10%3A17.osexp","C:\Users\ERP Testing Room\Desktop\Joanna\morph21","no","mono","no","18","no","white","no","yes","1080","legacy","16","16","C:/Users/ERP Testing Room/Desktop/Joanna/morph21/subject-114.csv","xpyriment","Jazzy James","3.1.4","0","/","NA","NA","NA","NA","return","/","561","NA","NA","NA","NA","32520","561","2","legacy","1024","2","48000","-16","AB_m21","114","even","FILL_W","IRON","1739","94061","92478","86285","34269","NA","NA","NA","NA","94053","92975","NA","91978","NA","91974","94053","1749","94361","NA","NA","93061","1739","1739","93453","91974","1739","93061","94361","morph21_Oliver/Morris","11","12120","17","yes","1280","33"
"250","66.6666666667","66.6666666667","707.444444444","707.444444444","black","no","xpyriment","legacy","legacy","0","208","NA","uniform","70502","1000","0.0141839947803","1","undefined","1","0","17","17","17","0","17","17","17","NA","17","17","0","17","NA","17","17","0","17","NA","17","NA","17","0","0","17","17","0","17","17","18","z","11/03/17 12:39:24","The main experiment item","yes","FIN__AB__M21__7%3A10%3A17.osexp","C:\Users\ERP Testing Room\Desktop\Joanna\morph21","no","mono","no","18","no","white","no","yes","1080","legacy","17","17","C:/Users/ERP Testing Room/Desktop/Joanna/morph21/subject-114.csv","xpyriment","Jazzy James","3.1.4","0","z","NA","NA","NA","NA","return","z","614","NA","NA","NA","NA","32520","614","2","legacy","1024","2","48000","-16","AB_m21","114","even","FILL_NW","LOLDS","1739","98636","95536","97128","34269","NA","NA","NA","NA","97124","96033","NA","95036","NA","95027","97124","1749","98886","NA","NA","96128","1739","1739","96528","95027","1739","96128","98886","morph21_Oliver/Morris","12","12734","18","yes","1280","34"
"250","68.4210526316","68.4210526316","700.789473684","700.789473684","black","no","xpyriment","legacy","legacy","0","201","NA","uniform","71840","1000","0.0139198218263","1","undefined","1","0","18","18","18","0","18","18","18","NA","18","18","0","18","NA","18","18","0","18","NA","18","NA","18","0","0","18","18","0","18","18","19","/","11/03/17 12:39:24","The main experiment item","yes","FIN__AB__M21__7%3A10%3A17.osexp","C:\Users\ERP Testing Room\Desktop\Joanna\morph21","no","mono","no","18","no","white","no","yes","1080","legacy","18","18","C:/Users/ERP Testing Room/Desktop/Joanna/morph21/subject-114.csv","xpyriment","Jazzy James","3.1.4","0","/","NA","NA","NA","NA","return","/","581","NA","NA","NA","NA","32520","581","2","legacy","1024","2","48000","-16","AB_m21","114","even","CW_S","MOSSY","1739","101736","100145","97128","34269","NA","NA","NA","NA","101727","100642","NA","99645","NA","99634","101727","1749","101986","NA","NA","100736","1739","1739","101128","99634","1739","100736","101986","morph21_Oliver/Morris","13","13315","19","yes","1280","47"
"350","70","70","698.3","698.3","black","no","xpyriment","legacy","legacy","0","204","NA","uniform","66616","1000","0.0150114086706","1","undefined","1","0","19","19","19","0","19","19","19","NA","19","19","0","19","NA","19","19","0","19","NA","19","NA","19","0","0","19","19","0","19","19","20","z","11/03/17 12:39:24","The main experiment item","yes","FIN__AB__M21__7%3A10%3A17.osexp","C:\Users\ERP Testing Room\Desktop\Joanna\morph21","no","mono","no","18","no","white","no","yes","1080","legacy","19","19","C:/Users/ERP Testing Room/Desktop/Joanna/morph21/subject-114.csv","xpyriment","Jazzy James","3.1.4","0","z","NA","NA","NA","NA","return","z","651","NA","NA","NA","NA","32520","651","2","legacy","1024","2","48000","-16","AB_m21","114","even","NW_L_COMP","INKISM","1739","104778","103195","97128","34269","NA","NA","NA","NA","104771","103692","NA","102695","NA","102686","104771","1749","105128","NA","NA","103778","1739","1739","104170","102686","1739","103778","105128","morph21_Oliver/Morris","14","13966","20","yes","1280","8"
"250","71.4285714286","71.4285714286","692.238095238","692.238095238","black","no","xpyriment","legacy","legacy","0","207","NA","uniform","64992","1000","0.0153865091088","1","undefined","1","0","20","20","20","0","20","20","20","NA","20","20","0","20","NA","20","20","0","20","NA","20","NA","20","0","0","20","20","0","20","20","21","/","11/03/17 12:39:24","The main experiment item","yes","FIN__AB__M21__7%3A10%3A17.osexp","C:\Users\ERP Testing Room\Desktop\Joanna\morph21","no","mono","no","18","no","white","no","yes","1080","legacy","20","20","C:/Users/ERP Testing Room/Desktop/Joanna/morph21/subject-114.csv","xpyriment","Jazzy James","3.1.4","0","/","NA","NA","NA","NA","return","/","571","NA","NA","NA","NA","32520","571","2","legacy","1024","2","48000","-16","AB_m21","114","even","FILL_W","TASTE","1739","109471","106363","107963","34269","NA","NA","NA","NA","107954","106860","NA","105863","NA","105858","107954","1749","109721","NA","NA","106963","1739","1739","107354","105858","1739","106963","109721","morph21_Oliver/Morris","15","14537","21","yes","1280","34"
"400","72.7272727273","72.7272727273","683.454545455","683.454545455","black","no","xpyriment","legacy","legacy","0","202","NA","uniform","73772","1000","0.0135552784254","1","undefined","1","0","21","21","21","0","21","21","21","NA","21","21","0","21","NA","21","21","0","21","NA","21","NA","21","0","0","21","21","0","21","21","22","/","11/03/17 12:39:24","The main experiment item","yes","FIN__AB__M21__7%3A10%3A17.osexp","C:\Users\ERP Testing Room\Desktop\Joanna\morph21","no","mono","no","18","no","white","no","yes","1080","legacy","21","21","C:/Users/ERP Testing Room/Desktop/Joanna/morph21/subject-114.csv","xpyriment","Jazzy James","3.1.4","0","/","NA","NA","NA","NA","return","/","499","NA","NA","NA","NA","32520","499","2","legacy","1024","2","48000","-16","AB_m21","114","even","CW_L","STYLISH","1739","112571","110988","107963","34269","NA","NA","NA","NA","112564","111485","NA","110488","NA","110484","112564","1749","112971","NA","NA","111571","1739","1739","111963","110484","1739","111571","112971","morph21_Oliver/Morris","16","15036","22","yes","1280","29"
"200","73.9130434783","73.9130434783","676.086956522","676.086956522","black","no","xpyriment","legacy","legacy","0","201","NA","uniform","76669","1000","0.0130430812975","1","undefined","1","0","22","22","22","0","22","22","22","NA","22","22","0","22","NA","22","22","0","22","NA","22","NA","22","0","0","22","22","0","22","22","23","/","11/03/17 12:39:24","The main experiment item","yes","FIN__AB__M21__7%3A10%3A17.osexp","C:\Users\ERP Testing Room\Desktop\Joanna\morph21","no","mono","no","18","no","white","no","yes","1080","legacy","22","22","C:/Users/ERP Testing Room/Desktop/Joanna/morph21/subject-114.csv","xpyriment","Jazzy James","3.1.4","0","/","NA","NA","NA","NA","return","/","514","NA","NA","NA","NA","32520","514","2","legacy","1024","2","48000","-16","AB_m21","114","even","CW_S","THRUSTER","1739","115788","114205","107963","34269","NA","NA","NA","NA","115782","114702","NA","113705","NA","113697","115782","1749","115988","NA","NA","114788","1739","1739","115180","113697","1739","114788","115988","morph21_Oliver/Morris","17","15550","23","yes","1280","24"
"400","75","75","687.875","687.875","black","no","xpyriment","legacy","legacy","0","206","NA","uniform","63597","1000","0.0157240121389","1","undefined","1","0","23","23","23","0","23","23","23","NA","23","23","0","23","NA","23","23","0","23","NA","23","NA","23","0","0","23","23","0","23","23","24","z","11/03/17 12:39:24","The main experiment item","yes","FIN__AB__M21__7%3A10%3A17.osexp","C:\Users\ERP Testing Room\Desktop\Joanna\morph21","no","mono","no","18","no","white","no","yes","1080","legacy","23","23","C:/Users/ERP Testing Room/Desktop/Joanna/morph21/subject-114.csv","xpyriment","Jazzy James","3.1.4","0","z","NA","NA","NA","NA","return","z","959","NA","NA","NA","NA","32520","959","2","legacy","1024","2","48000","-16","AB_m21","114","even","NW_L_SIMP","CLASSOES","1739","120347","117238","118838","34269","NA","NA","NA","NA","118834","117735","NA","116738","NA","116728","118834","1749","120747","NA","NA","117838","1739","1739","118238","116728","1739","117838","120747","morph21_Oliver/Morris","18","16509","24","yes","1280","18"
"300","76","76","682.48","682.48","black","no","xpyriment","legacy","legacy","0","208","NA","uniform","79072","1000","0.0126467017402","1","undefined","1","0","24","24","24","0","24","24","24","NA","24","24","0","24","NA","24","24","0","24","NA","24","NA","24","0","0","24","24","0","24","24","25","z","11/03/17 12:39:24","The main experiment item","yes","FIN__AB__M21__7%3A10%3A17.osexp","C:\Users\ERP Testing Room\Desktop\Joanna\morph21","no","mono","no","18","no","white","no","yes","1080","legacy","24","24","C:/Users/ERP Testing Room/Desktop/Joanna/morph21/subject-114.csv","xpyriment","Jazzy James","3.1.4","0","z","NA","NA","NA","NA","return","z","553","NA","NA","NA","NA","32520","553","2","legacy","1024","2","48000","-16","AB_m21","114","even","FILL_NW","BAFED","1739","123573","121988","118838","34269","NA","NA","NA","NA","123570","122485","NA","121488","NA","121481","123570","1749","123873","NA","NA","122581","1739","1739","122973","121481","1739","122581","123873","morph21_Oliver/Morris","19","17062","25","yes","1280","1"
"400","73.0769230769","73.0769230769","678.461538462","678.461538462","black","no","xpyriment","legacy","legacy","0","208","NA","uniform","70408","1000","0.0142029314851","0","undefined","0","0","25","25","25","0","25","25","25","NA","25","25","0","25","NA","25","25","0","25","NA","25","NA","25","0","0","25","25","0","25","25","26","z","11/03/17 12:39:24","The main experiment item","yes","FIN__AB__M21__7%3A10%3A17.osexp","C:\Users\ERP Testing Room\Desktop\Joanna\morph21","no","mono","no","18","no","white","no","yes","1080","legacy","25","25","C:/Users/ERP Testing Room/Desktop/Joanna/morph21/subject-114.csv","xpyriment","Jazzy James","3.1.4","0","/","NA","NA","NA","NA","return","/","578","NA","NA","NA","NA","32520","578","2","legacy","1024","2","48000","-16","AB_m21","114","even","FILL_NW","BUTE","1739","126748","125139","118838","34269","NA","NA","NA","NA","123570","125637","NA","124639","NA","124631","126738","1749","127148","NA","NA","125748","1739","1739","126139","124631","1739","125748","127148","morph21_Oliver/Morris","19","17640","26","yes","1280","5"
"200","70.3703703704","70.3703703704","676.185185185","676.185185185","black","no","xpyriment","legacy","legacy","0","204","NA","uniform","73502","1000","0.0136050719708","0","undefined","0","0","26","26","26","0","26","26","26","NA","26","26","0","26","NA","26","26","0","26","NA","26","NA","26","0","0","26","26","0","26","26","27","z","11/03/17 12:39:24","The main experiment item","yes","FIN__AB__M21__7%3A10%3A17.osexp","C:\Users\ERP Testing Room\Desktop\Joanna\morph21","no","mono","no","18","no","white","no","yes","1080","legacy","26","26","C:/Users/ERP Testing Room/Desktop/Joanna/morph21/subject-114.csv","xpyriment","Jazzy James","3.1.4","0","/","NA","NA","NA","NA","return","/","617","NA","NA","NA","NA","32520","617","2","legacy","1024","2","48000","-16","AB_m21","114","even","NW_L_COMP","GASFUL","1739","131473","128381","129965","34269","NA","NA","NA","NA","123570","128878","NA","127881","NA","127877","129960","1749","131673","NA","NA","128965","1739","1739","129365","127877","1739","128965","131673","morph21_Oliver/Morris","19","18257","27","yes","1280","6"
"200","71.4285714286","71.4285714286","673.285714286","673.285714286","black","no","xpyriment","legacy","legacy","0","202","NA","uniform","74136","1000","0.0134887234272","1","undefined","1","0","27","27","27","0","27","27","27","NA","27","27","0","27","NA","27","27","0","27","NA","27","NA","27","0","0","27","27","0","27","27","28","/","11/03/17 12:39:24","The main experiment item","yes","FIN__AB__M21__7%3A10%3A17.osexp","C:\Users\ERP Testing Room\Desktop\Joanna\morph21","no","mono","no","18","no","white","no","yes","1080","legacy","27","27","C:/Users/ERP Testing Room/Desktop/Joanna/morph21/subject-114.csv","xpyriment","Jazzy James","3.1.4","0","/","NA","NA","NA","NA","return","/","595","NA","NA","NA","NA","32520","595","2","legacy","1024","2","48000","-16","AB_m21","114","even","CW_L","VERBAL","1739","134498","132906","129965","34269","NA","NA","NA","NA","134488","133404","NA","132406","NA","132400","134488","1749","134698","NA","NA","133498","1739","1739","133890","132400","1739","133498","134698","morph21_Oliver/Morris","20","18852","28","yes","1280","50"
"400","68.9655172414","68.9655172414","675.068965517","675.068965517","black","no","xpyriment","legacy","legacy","0","202","NA","uniform","72368","1000","0.0138182622153","0","undefined","0","0","28","28","28","0","28","28","28","NA","28","28","0","28","NA","28","28","0","28","NA","28","NA","28","0","0","28","28","0","28","28","29","/","11/03/17 12:39:24","The main experiment item","yes","FIN__AB__M21__7%3A10%3A17.osexp","C:\Users\ERP Testing Room\Desktop\Joanna\morph21","no","mono","no","18","no","white","no","yes","1080","legacy","28","28","C:/Users/ERP Testing Room/Desktop/Joanna/morph21/subject-114.csv","xpyriment","Jazzy James","3.1.4","0","z","NA","NA","NA","NA","return","z","725","NA","NA","NA","NA","32520","725","2","legacy","1024","2","48000","-16","AB_m21","114","even","CW_L","COOLING","1739","137440","135857","129965","34269","NA","NA","NA","NA","134488","136354","NA","135357","NA","135351","137430","1749","137840","NA","NA","136440","1739","1739","136832","135351","1739","136440","137840","morph21_Oliver/Morris","20","19577","29","yes","1280","24"
"200","70","70","670.666666667","670.666666667","black","no","xpyriment","legacy","legacy","0","207","NA","uniform","74058","1000","0.0135029301358","1","undefined","1","0","29","29","29","0","29","29","29","NA","29","29","0","29","NA","29","29","0","29","NA","29","NA","29","0","0","29","29","0","29","29","30","/","11/03/17 12:39:24","The main experiment item","yes","FIN__AB__M21__7%3A10%3A17.osexp","C:\Users\ERP Testing Room\Desktop\Joanna\morph21","no","mono","no","18","no","white","no","yes","1080","legacy","29","29","C:/Users/ERP Testing Room/Desktop/Joanna/morph21/subject-114.csv","xpyriment","Jazzy James","3.1.4","0","/","NA","NA","NA","NA","return","/","543","NA","NA","NA","NA","32520","543","2","legacy","1024","2","48000","-16","AB_m21","114","even","FILL_W","TEST","1739","142108","138998","140599","34269","NA","NA","NA","NA","140596","139496","NA","138498","NA","138494","140596","1749","142308","NA","NA","139607","1739","1739","139999","138494","1739","139607","142308","morph21_Oliver/Morris","21","20120","30","yes","1280","47"
"400","70.9677419355","70.9677419355","664.580645161","664.580645161","black","no","xpyriment","legacy","legacy","0","201","NA","uniform","78914","1000","0.0126720227083","1","undefined","1","0","30","30","30","0","30","30","30","NA","30","30","0","30","NA","30","30","0","30","NA","30","NA","30","0","0","30","30","0","30","30","31","/","11/03/17 12:39:24","The main experiment item","yes","FIN__AB__M21__7%3A10%3A17.osexp","C:\Users\ERP Testing Room\Desktop\Joanna\morph21","no","mono","no","18","no","white","no","yes","1080","legacy","30","30","C:/Users/ERP Testing Room/Desktop/Joanna/morph21/subject-114.csv","xpyriment","Jazzy James","3.1.4","0","/","NA","NA","NA","NA","return","/","482","NA","NA","NA","NA","32520","482","2","legacy","1024","2","48000","-16","AB_m21","114","even","CW_S","AVOIDABLE","1739","145100","143516","140599","34269","NA","NA","NA","NA","145092","144013","NA","143016","NA","143008","145092","1749","145500","NA","NA","144100","1739","1739","144491","143008","1739","144100","145500","morph21_Oliver/Morris","22","20602","31","yes","1280","2"
"200","68.75","68.75","663.28125","663.28125","black","no","xpyriment","legacy","legacy","0","206","NA","uniform","72632","1000","0.0137680361273","0","undefined","0","0","31","31","31","0","31","31","31","NA","31","31","0","31","NA","31","31","0","31","NA","31","NA","31","0","0","31","31","0","31","31","32","z","11/03/17 12:39:24","The main experiment item","yes","FIN__AB__M21__7%3A10%3A17.osexp","C:\Users\ERP Testing Room\Desktop\Joanna\morph21","no","mono","no","18","no","white","no","yes","1080","legacy","31","31","C:/Users/ERP Testing Room/Desktop/Joanna/morph21/subject-114.csv","xpyriment","Jazzy James","3.1.4","0","/","NA","NA","NA","NA","return","/","623","NA","NA","NA","NA","32520","623","2","legacy","1024","2","48000","-16","AB_m21","114","even","NW_L_SIMP","GROWILT","1739","148391","146766","140599","34269","NA","NA","NA","NA","145092","147264","NA","146266","NA","146257","148384","1749","148591","NA","NA","147391","1739","1739","147783","146257","1739","147391","148591","morph21_Oliver/Morris","22","21225","32","yes","1280","20"
"250","69.696969697","69.696969697","662.303030303","662.303030303","black","no","xpyriment","legacy","legacy","0","208","NA","uniform","75610","1000","0.0132257637879","1","undefined","1","0","32","32","32","0","32","32","32","NA","32","32","0","32","NA","32","32","0","32","NA","32","NA","32","0","0","32","32","0","32","32","33","z","11/03/17 12:39:24","The main experiment item","yes","FIN__AB__M21__7%3A10%3A17.osexp","C:\Users\ERP Testing Room\Desktop\Joanna\morph21","no","mono","no","18","no","white","no","yes","1080","legacy","32","32","C:/Users/ERP Testing Room/Desktop/Joanna/morph21/subject-114.csv","xpyriment","Jazzy James","3.1.4","0","z","NA","NA","NA","NA","return","z","631","NA","NA","NA","NA","32520","631","2","legacy","1024","2","48000","-16","AB_m21","114","even","FILL_NW","PIFTH","1739","152892","149792","151383","34269","NA","NA","NA","NA","151377","150289","NA","149291","NA","149282","151377","1749","153142","NA","NA","150383","1739","1739","150775","149282","1739","150383","153142","morph21_Oliver/Morris","23","21856","33","yes","1280","36"
"400","67.6470588235","67.6470588235","662.323529412","662.323529412","black","no","xpyriment","legacy","legacy","0","203","NA","uniform","74388","1000","0.0134430284454","0","undefined","0","0","33","33","33","0","33","33","33","NA","33","33","0","33","NA","33","33","0","33","NA","33","NA","33","0","0","33","33","0","33","33","34","z","11/03/17 12:39:24","The main experiment item","yes","FIN__AB__M21__7%3A10%3A17.osexp","C:\Users\ERP Testing Room\Desktop\Joanna\morph21","no","mono","no","18","no","white","no","yes","1080","legacy","33","33","C:/Users/ERP Testing Room/Desktop/Joanna/morph21/subject-114.csv","xpyriment","Jazzy James","3.1.4","0","/","NA","NA","NA","NA","return","/","663","NA","NA","NA","NA","32520","663","2","legacy","1024","2","48000","-16","AB_m21","114","even","NW_S_COMP","ALTARIC","1739","155942","154333","151383","34269","NA","NA","NA","NA","151377","154831","NA","153833","NA","153828","155933","1749","156342","NA","NA","154942","1739","1739","155333","153828","1739","154942","156342","morph21_Oliver/Morris","23","22519","34","yes","1280","7"
"300","68.5714285714","68.5714285714","666.942857143","666.942857143","black","no","xpyriment","legacy","legacy","0","202","NA","uniform","69115","1000","0.0144686392245","1","undefined","1","0","34","34","34","0","34","34","34","NA","34","34","0","34","NA","34","34","0","34","NA","34","NA","34","0","0","34","34","0","34","34","35","/","11/03/17 12:39:24","The main experiment item","yes","FIN__AB__M21__7%3A10%3A17.osexp","C:\Users\ERP Testing Room\Desktop\Joanna\morph21","no","mono","no","18","no","white","no","yes","1080","legacy","34","34","C:/Users/ERP Testing Room/Desktop/Joanna/morph21/subject-114.csv","xpyriment","Jazzy James","3.1.4","0","/","NA","NA","NA","NA","return","/","824","NA","NA","NA","NA","32520","824","2","legacy","1024","2","48000","-16","AB_m21","114","even","CW_L","PROFESSOR","1739","159110","157526","151383","34269","NA","NA","NA","NA","159101","158023","NA","157025","NA","157022","159101","1749","159410","NA","NA","158110","1739","1739","158501","157022","1739","158110","159410","morph21_Oliver/Morris","24","23343","35","yes","1280","47"
"350","69.4444444444","69.4444444444","665.138888889","665.138888889","black","no","xpyriment","legacy","legacy","0","208","NA","uniform","76453","1000","0.0130799314612","1","undefined","1","0","35","35","35","0","35","35","35","NA","35","35","0","35","NA","35","35","0","35","NA","35","NA","35","0","0","35","35","0","35","35","36","z","11/03/17 12:39:24","The main experiment item","yes","FIN__AB__M21__7%3A10%3A17.osexp","C:\Users\ERP Testing Room\Desktop\Joanna\morph21","no","mono","no","18","no","white","no","yes","1080","legacy","35","35","C:/Users/ERP Testing Room/Desktop/Joanna/morph21/subject-114.csv","xpyriment","Jazzy James","3.1.4","0","z","NA","NA","NA","NA","return","z","602","NA","NA","NA","NA","32520","602","2","legacy","1024","2","48000","-16","AB_m21","114","even","FILL_NW","DARF","1739","163777","160676","162268","34269","NA","NA","NA","NA","162258","161173","NA","160176","NA","160171","162258","1749","164127","NA","NA","161268","1739","1739","161660","160171","1739","161268","164127","morph21_Oliver/Morris","25","23945","36","yes","1280","10"
"350","70.2702702703","70.2702702703","663.918918919","663.918918919","black","no","xpyriment","legacy","legacy","0","202","NA","uniform","69231","1000","0.0144443962965","1","undefined","1","0","36","36","36","0","36","36","36","NA","36","36","0","36","NA","36","36","0","36","NA","36","NA","36","0","0","36","36","0","36","36","37","/","11/03/17 12:39:24","The main experiment item","yes","FIN__AB__M21__7%3A10%3A17.osexp","C:\Users\ERP Testing Room\Desktop\Joanna\morph21","no","mono","no","18","no","white","no","yes","1080","legacy","36","36","C:/Users/ERP Testing Room/Desktop/Joanna/morph21/subject-114.csv","xpyriment","Jazzy James","3.1.4","0","/","NA","NA","NA","NA","return","/","620","NA","NA","NA","NA","32520","620","2","legacy","1024","2","48000","-16","AB_m21","114","even","CW_L","GUILELESS","1739","167002","165410","162268","34269","NA","NA","NA","NA","166999","165907","NA","164910","NA","164906","166999","1749","167352","NA","NA","166010","1739","1739","166402","164906","1739","166010","167352","morph21_Oliver/Morris","26","24565","37","yes","1280","31"
"200","68.4210526316","68.4210526316","660.315789474","660.315789474","black","no","xpyriment","legacy","legacy","0","208","NA","uniform","78939","1000","0.0126680094757","0","undefined","0","0","37","37","37","0","37","37","37","NA","37","37","0","37","NA","37","37","0","37","NA","37","NA","37","0","0","37","37","0","37","37","38","z","11/03/17 12:39:24","The main experiment item","yes","FIN__AB__M21__7%3A10%3A17.osexp","C:\Users\ERP Testing Room\Desktop\Joanna\morph21","no","mono","no","18","no","white","no","yes","1080","legacy","37","37","C:/Users/ERP Testing Room/Desktop/Joanna/morph21/subject-114.csv","xpyriment","Jazzy James","3.1.4","0","/","NA","NA","NA","NA","return","/","527","NA","NA","NA","NA","32520","527","2","legacy","1024","2","48000","-16","AB_m21","114","even","FILL_NW","BLAYS","1739","170118","168535","162268","34269","NA","NA","NA","NA","166999","169032","NA","168035","NA","168028","170111","1749","170318","NA","NA","169118","1739","1739","169510","168028","1739","169118","170318","morph21_Oliver/Morris","26","25092","38","yes","1280","8"
"200","66.6666666667","66.6666666667","659.358974359","659.358974359","black","no","xpyriment","legacy","legacy","0","203","NA","uniform","73976","1000","0.0135178976966","0","undefined","0","0","38","38","38","0","38","38","38","NA","38","38","0","38","NA","38","38","0","38","NA","38","NA","38","0","0","38","38","0","38","38","39","z","11/03/17 12:39:24","The main experiment item","yes","FIN__AB__M21__7%3A10%3A17.osexp","C:\Users\ERP Testing Room\Desktop\Joanna\morph21","no","mono","no","18","no","white","no","yes","1080","legacy","38","38","C:/Users/ERP Testing Room/Desktop/Joanna/morph21/subject-114.csv","xpyriment","Jazzy James","3.1.4","0","/","NA","NA","NA","NA","return","/","623","NA","NA","NA","NA","32520","623","2","legacy","1024","2","48000","-16","AB_m21","114","even","NW_S_COMP","ADOPTISH","1739","174610","171502","173102","34269","NA","NA","NA","NA","166999","171999","NA","171002","NA","170996","173096","1749","174812","NA","NA","172102","1739","1739","172493","170996","1739","172102","174812","morph21_Oliver/Morris","26","25715","39","yes","1280","19"
"400","67.5","67.5","664.325","664.325","black","no","xpyriment","legacy","legacy","0","201","NA","uniform","63806","1000","0.0156725072877","1","undefined","1","0","39","39","39","0","39","39","39","NA","39","39","0","39","NA","39","39","0","39","NA","39","NA","39","0","0","39","39","0","39","39","40","/","11/03/17 12:39:24","The main experiment item","yes","FIN__AB__M21__7%3A10%3A17.osexp","C:\Users\ERP Testing Room\Desktop\Joanna\morph21","no","mono","no","18","no","white","no","yes","1080","legacy","39","39","C:/Users/ERP Testing Room/Desktop/Joanna/morph21/subject-114.csv","xpyriment","Jazzy James","3.1.4","0","/","NA","NA","NA","NA","return","/","858","NA","NA","NA","NA","32520","858","2","legacy","1024","2","48000","-16","AB_m21","114","even","CW_S","WIDOWED","1739","177620","176028","173102","34269","NA","NA","NA","NA","177613","176525","NA","175528","NA","175520","177613","1749","178020","NA","NA","176620","1739","1739","177011","175520","1739","176620","178020","morph21_Oliver/Morris","27","26573","40","yes","1280","7"
"200","68.2926829268","68.2926829268","663.268292683","663.268292683","black","no","xpyriment","legacy","legacy","0","205","NA","uniform","66392","1000","0.0150620556694","1","undefined","1","0","40","40","40","0","40","40","40","NA","40","40","0","40","NA","40","40","0","40","NA","40","NA","40","0","0","40","40","0","40","40","41","z","11/03/17 12:39:24","The main experiment item","yes","FIN__AB__M21__7%3A10%3A17.osexp","C:\Users\ERP Testing Room\Desktop\Joanna\morph21","no","mono","no","18","no","white","no","yes","1080","legacy","40","40","C:/Users/ERP Testing Room/Desktop/Joanna/morph21/subject-114.csv","xpyriment","Jazzy James","3.1.4","0","z","NA","NA","NA","NA","return","z","621","NA","NA","NA","NA","32520","621","2","legacy","1024","2","48000","-16","AB_m21","114","even","NW_S_SIMP","JAWLA","1739","180745","179170","173102","34269","NA","NA","NA","NA","180737","179667","NA","178670","NA","178661","180737","1749","180945","NA","NA","179745","1739","1739","180137","178661","1739","179745","180945","morph21_Oliver/Morris","28","27194","41","yes","1280","7"
"250","69.0476190476","69.0476190476","666.023809524","666.023809524","black","no","xpyriment","legacy","legacy","0","208","NA","uniform","70268","1000","0.0142312290089","1","undefined","1","0","41","41","41","0","41","41","41","NA","41","41","0","41","NA","41","41","0","41","NA","41","NA","41","0","0","41","41","0","41","41","42","z","11/03/17 12:39:24","The main experiment item","yes","FIN__AB__M21__7%3A10%3A17.osexp","C:\Users\ERP Testing Room\Desktop\Joanna\morph21","no","mono","no","18","no","white","no","yes","1080","legacy","41","41","C:/Users/ERP Testing Room/Desktop/Joanna/morph21/subject-114.csv","xpyriment","Jazzy James","3.1.4","0","z","NA","NA","NA","NA","return","z","779","NA","NA","NA","NA","32520","779","2","legacy","1024","2","48000","-16","AB_m21","114","even","FILL_NW","PHEEKS","1739","185295","182195","183787","34269","NA","NA","NA","NA","183778","182692","NA","181695","NA","181687","183778","1749","185545","NA","NA","182787","1739","1739","183178","181687","1739","182787","185545","morph21_Oliver/Morris","29","27973","42","yes","1280","35"
"300","69.7674418605","69.7674418605","669.558139535","669.558139535","black","no","xpyriment","legacy","legacy","0","204","NA","uniform","68960","1000","0.0145011600928","1","undefined","1","0","42","42","42","0","42","42","42","NA","42","42","0","42","NA","42","42","0","42","NA","42","NA","42","0","0","42","42","0","42","42","43","z","11/03/17 12:39:24","The main experiment item","yes","FIN__AB__M21__7%3A10%3A17.osexp","C:\Users\ERP Testing Room\Desktop\Joanna\morph21","no","mono","no","18","no","white","no","yes","1080","legacy","42","42","C:/Users/ERP Testing Room/Desktop/Joanna/morph21/subject-114.csv","xpyriment","Jazzy James","3.1.4","0","z","NA","NA","NA","NA","return","z","818","NA","NA","NA","NA","32520","818","2","legacy","1024","2","48000","-16","AB_m21","114","even","NW_L_COMP","FELLOWOUS","1739","188379","186787","183787","34269","NA","NA","NA","NA","188369","187284","NA","186287","NA","186283","188369","1749","188679","NA","NA","187379","1739","1739","187770","186283","1739","187379","188679","morph21_Oliver/Morris","30","28791","43","yes","1280","17"
"250","70.4545454545","70.4545454545","675.545454545","675.545454545","black","no","xpyriment","legacy","legacy","0","201","NA","uniform","65499","1000","0.0152674086627","1","undefined","1","0","43","43","43","0","43","43","43","NA","43","43","0","43","NA","43","43","0","43","NA","43","NA","43","0","0","43","43","0","43","43","44","/","11/03/17 12:39:24","The main experiment item","yes","FIN__AB__M21__7%3A10%3A17.osexp","C:\Users\ERP Testing Room\Desktop\Joanna\morph21","no","mono","no","18","no","white","no","yes","1080","legacy","43","43","C:/Users/ERP Testing Room/Desktop/Joanna/morph21/subject-114.csv","xpyriment","Jazzy James","3.1.4","0","/","NA","NA","NA","NA","return","/","933","NA","NA","NA","NA","32520","933","2","legacy","1024","2","48000","-16","AB_m21","114","even","CW_S","MILDNESS","1739","191520","189929","183787","34269","NA","NA","NA","NA","191516","190426","NA","189429","NA","189419","191516","1749","191770","NA","NA","190520","1739","1739","190920","189419","1739","190520","191770","morph21_Oliver/Morris","31","29724","44","yes","1280","42"
"250","71.1111111111","71.1111111111","674.444444444","674.444444444","black","no","xpyriment","legacy","legacy","0","207","NA","uniform","70366","1000","0.0142114089191","1","undefined","1","0","44","44","44","0","44","44","44","NA","44","44","0","44","NA","44","44","0","44","NA","44","NA","44","0","0","44","44","0","44","44","45","/","11/03/17 12:39:24","The main experiment item","yes","FIN__AB__M21__7%3A10%3A17.osexp","C:\Users\ERP Testing Room\Desktop\Joanna\morph21","no","mono","no","18","no","white","no","yes","1080","legacy","44","44","C:/Users/ERP Testing Room/Desktop/Joanna/morph21/subject-114.csv","xpyriment","Jazzy James","3.1.4","0","/","NA","NA","NA","NA","return","/","626","NA","NA","NA","NA","32520","626","2","legacy","1024","2","48000","-16","AB_m21","114","even","FILL_W","SUIT","1739","196097","192997","194588","34269","NA","NA","NA","NA","194578","193494","NA","192496","NA","192490","194578","1749","196347","NA","NA","193588","1739","1739","193980","192490","1739","193588","196347","morph21_Oliver/Morris","32","30350","45","yes","1280","49"
"350","71.7391304348","71.7391304348","673.173913043","673.173913043","black","no","xpyriment","legacy","legacy","0","202","NA","uniform","64821","1000","0.0154270992425","1","undefined","1","0","45","45","45","0","45","45","45","NA","45","45","0","45","NA","45","45","0","45","NA","45","NA","45","0","0","45","45","0","45","45","46","/","11/03/17 12:39:24","The main experiment item","yes","FIN__AB__M21__7%3A10%3A17.osexp","C:\Users\ERP Testing Room\Desktop\Joanna\morph21","no","mono","no","18","no","white","no","yes","1080","legacy","45","45","C:/Users/ERP Testing Room/Desktop/Joanna/morph21/subject-114.csv","xpyriment","Jazzy James","3.1.4","0","/","NA","NA","NA","NA","return","/","616","NA","NA","NA","NA","32520","616","2","legacy","1024","2","48000","-16","AB_m21","114","even","CW_L","RENTER","1739","199230","197605","194588","34269","NA","NA","NA","NA","199221","198102","NA","197105","NA","197100","199221","1749","199580","NA","NA","198230","1739","1739","198622","197100","1739","198230","199580","morph21_Oliver/Morris","33","30966","46","yes","1280","9"
"200","72.3404255319","72.3404255319","671.617021277","671.617021277","black","no","xpyriment","legacy","legacy","0","202","NA","uniform","62374","1000","0.0160323211595","1","undefined","1","0","46","46","46","0","46","46","46","NA","46","46","0","46","NA","46","46","0","46","NA","46","NA","46","0","0","46","46","0","46","46","47","/","11/03/17 12:39:24","The main experiment item","yes","FIN__AB__M21__7%3A10%3A17.osexp","C:\Users\ERP Testing Room\Desktop\Joanna\morph21","no","mono","no","18","no","white","no","yes","1080","legacy","46","46","C:/Users/ERP Testing Room/Desktop/Joanna/morph21/subject-114.csv","xpyriment","Jazzy James","3.1.4","0","/","NA","NA","NA","NA","return","/","600","NA","NA","NA","NA","32520","600","2","legacy","1024","2","48000","-16","AB_m21","114","even","CW_L","SAILOR","1739","202414","200830","194588","34269","NA","NA","NA","NA","202409","201327","NA","200330","NA","200318","202409","1749","202614","NA","NA","201414","1739","1739","201814","200318","1739","201414","202614","morph21_Oliver/Morris","34","31566","47","yes","1280","43"
"400","72.9166666667","72.9166666667","670.770833333","670.770833333","black","no","xpyriment","legacy","legacy","0","207","NA","uniform","68782","1000","0.0145386874473","1","undefined","1","0","47","47","47","0","47","47","47","NA","47","47","0","47","NA","47","47","0","47","NA","47","NA","47","0","0","47","47","0","47","47","48","/","11/03/17 12:39:24","The main experiment item","yes","FIN__AB__M21__7%3A10%3A17.osexp","C:\Users\ERP Testing Room\Desktop\Joanna\morph21","no","mono","no","18","no","white","no","yes","1080","legacy","47","47","C:/Users/ERP Testing Room/Desktop/Joanna/morph21/subject-114.csv","xpyriment","Jazzy James","3.1.4","0","/","NA","NA","NA","NA","return","/","631","NA","NA","NA","NA","32520","631","2","legacy","1024","2","48000","-16","AB_m21","114","even","FILL_W","QUIT","1739","206922","203830","205414","34269","NA","NA","NA","NA","205410","204327","NA","203330","NA","203321","205410","1749","207322","NA","NA","204414","1739","1739","204814","203321","1739","204414","207322","morph21_Oliver/Morris","35","32197","48","yes","1280","21"
"350","73.4693877551","73.4693877551","672.857142857","672.857142857","black","no","xpyriment","legacy","legacy","0","202","NA","uniform","65018","1000","0.015380356209","1","undefined","1","0","48","48","48","0","48","48","48","NA","48","48","0","48","NA","48","48","0","48","NA","48","NA","48","0","0","48","48","0","48","48","49","/","11/03/17 12:39:24","The main experiment item","yes","FIN__AB__M21__7%3A10%3A17.osexp","C:\Users\ERP Testing Room\Desktop\Joanna\morph21","no","mono","no","18","no","white","no","yes","1080","legacy","48","48","C:/Users/ERP Testing Room/Desktop/Joanna/morph21/subject-114.csv","xpyriment","Jazzy James","3.1.4","0","/","NA","NA","NA","NA","return","/","773","NA","NA","NA","NA","32520","773","2","legacy","1024","2","48000","-16","AB_m21","114","even","CW_L","JUMPING","1739","210082","208497","205414","34269","NA","NA","NA","NA","210071","208994","NA","207997","NA","207992","210071","1749","210432","NA","NA","209081","1739","1739","209472","207992","1739","209081","210432","morph21_Oliver/Morris","36","32970","49","yes","1280","30"
"350","74","74","670.84","670.84","black","no","xpyriment","legacy","legacy","0","207","NA","uniform","69295","1000","0.0144310556317","1","undefined","1","0","49","49","49","0","49","49","49","NA","49","49","0","49","NA","49","49","0","49","NA","49","NA","49","0","0","49","49","0","49","49","50","/","11/03/17 12:39:24","The main experiment item","yes","FIN__AB__M21__7%3A10%3A17.osexp","C:\Users\ERP Testing Room\Desktop\Joanna\morph21","no","mono","no","18","no","white","no","yes","1080","legacy","49","49","C:/Users/ERP Testing Room/Desktop/Joanna/morph21/subject-114.csv","xpyriment","Jazzy James","3.1.4","0","/","NA","NA","NA","NA","return","/","572","NA","NA","NA","NA","32520","572","2","legacy","1024","2","48000","-16","AB_m21","114","even","FILL_W","WEIRD","1739","213298","211682","205414","34269","NA","NA","NA","NA","213294","212179","NA","211182","NA","211178","213294","1749","213648","NA","NA","212298","1739","1739","212698","211178","1739","212298","213648","morph21_Oliver/Morris","37","33542","50","yes","1280","2"
"350","74.5098039216","74.5098039216","675.490196078","675.490196078","black","no","xpyriment","legacy","legacy","0","206","NA","uniform","54740","1000","0.018268176836","1","undefined","1","0","50","50","50","0","50","50","50","NA","50","50","0","50","NA","50","50","0","50","NA","50","NA","50","0","0","50","50","0","50","50","51","z","11/03/17 12:39:24","The main experiment item","yes","FIN__AB__M21__7%3A10%3A17.osexp","C:\Users\ERP Testing Room\Desktop\Joanna\morph21","no","mono","no","18","no","white","no","yes","1080","legacy","50","50","C:/Users/ERP Testing Room/Desktop/Joanna/morph21/subject-114.csv","xpyriment","Jazzy James","3.1.4","0","z","NA","NA","NA","NA","return","z","908","NA","NA","NA","NA","32520","908","2","legacy","1024","2","48000","-16","AB_m21","114","even","NW_L_SIMP","PICKENGE","1739","217999","214907","216490","34269","NA","NA","NA","NA","216481","215404","NA","214407","NA","214403","216481","1749","218349","NA","NA","215490","1739","1739","215882","214403","1739","215490","218349","morph21_Oliver/Morris","38","34450","51","yes","1280","5"
"300","73.0769230769","73.0769230769","675.596153846","675.596153846","black","no","xpyriment","legacy","legacy","0","204","NA","uniform","70717","1000","0.0141408713605","0","undefined","0","0","51","51","51","0","51","51","51","NA","51","51","0","51","NA","51","51","0","51","NA","51","NA","51","0","0","51","51","0","51","51","52","z","11/03/17 12:39:24","The main experiment item","yes","FIN__AB__M21__7%3A10%3A17.osexp","C:\Users\ERP Testing Room\Desktop\Joanna\morph21","no","mono","no","18","no","white","no","yes","1080","legacy","51","51","C:/Users/ERP Testing Room/Desktop/Joanna/morph21/subject-114.csv","xpyriment","Jazzy James","3.1.4","0","/","NA","NA","NA","NA","return","/","681","NA","NA","NA","NA","32520","681","2","legacy","1024","2","48000","-16","AB_m21","114","even","NW_L_COMP","SHEETER","1739","221140","219557","216490","34269","NA","NA","NA","NA","216481","220054","NA","219057","NA","219045","221138","1749","221440","NA","NA","220149","1739","1739","220540","219045","1739","220149","221440","morph21_Oliver/Morris","38","35131","52","yes","1280","5"
"300","73.5849056604","73.5849056604","671.886792453","671.886792453","black","no","xpyriment","legacy","legacy","0","201","NA","uniform","78958","1000","0.0126649611186","1","undefined","1","0","52","52","52","0","52","52","52","NA","52","52","0","52","NA","52","52","0","52","NA","52","NA","52","0","0","52","52","0","52","52","53","/","11/03/17 12:39:24","The main experiment item","yes","FIN__AB__M21__7%3A10%3A17.osexp","C:\Users\ERP Testing Room\Desktop\Joanna\morph21","no","mono","no","18","no","white","no","yes","1080","legacy","52","52","C:/Users/ERP Testing Room/Desktop/Joanna/morph21/subject-114.csv","xpyriment","Jazzy James","3.1.4","0","/","NA","NA","NA","NA","return","/","479","NA","NA","NA","NA","32520","479","2","legacy","1024","2","48000","-16","AB_m21","114","even","CW_S","MAGICAL","1739","224374","222774","216490","34269","NA","NA","NA","NA","224366","223271","NA","222274","NA","222264","224366","1749","224674","NA","NA","223374","1739","1739","223766","222264","1739","223374","224674","morph21_Oliver/Morris","39","35610","53","yes","1280","4"
"350","74.0740740741","74.0740740741","669.240740741","669.240740741","black","no","xpyriment","legacy","legacy","0","201","NA","uniform","71669","1000","0.0139530340873","1","undefined","1","0","53","53","53","0","53","53","53","NA","53","53","0","53","NA","53","53","0","53","NA","53","NA","53","0","0","53","53","0","53","53","54","/","11/03/17 12:39:24","The main experiment item","yes","FIN__AB__M21__7%3A10%3A17.osexp","C:\Users\ERP Testing Room\Desktop\Joanna\morph21","no","mono","no","18","no","white","no","yes","1080","legacy","53","53","C:/Users/ERP Testing Room/Desktop/Joanna/morph21/subject-114.csv","xpyriment","Jazzy James","3.1.4","0","/","NA","NA","NA","NA","return","/","529","NA","NA","NA","NA","32520","529","2","legacy","1024","2","48000","-16","AB_m21","114","even","CW_S","BOSSY","1739","229033","225949","227525","34269","NA","NA","NA","NA","227520","226446","NA","225449","NA","225444","227520","1749","229384","NA","NA","226524","1739","1739","226924","225444","1739","226524","229384","morph21_Oliver/Morris","40","36139","54","yes","1280","49"
"350","74.5454545455","74.5454545455","667.472727273","667.472727273","black","no","xpyriment","legacy","legacy","0","201","NA","uniform","72459","1000","0.0138009080998","1","undefined","1","0","54","54","54","0","54","54","54","NA","54","54","0","54","NA","54","54","0","54","NA","54","NA","54","0","0","54","54","0","54","54","55","/","11/03/17 12:39:24","The main experiment item","yes","FIN__AB__M21__7%3A10%3A17.osexp","C:\Users\ERP Testing Room\Desktop\Joanna\morph21","no","mono","no","18","no","white","no","yes","1080","legacy","54","54","C:/Users/ERP Testing Room/Desktop/Joanna/morph21/subject-114.csv","xpyriment","Jazzy James","3.1.4","0","/","NA","NA","NA","NA","return","/","572","NA","NA","NA","NA","32520","572","2","legacy","1024","2","48000","-16","AB_m21","114","even","CW_S","CHILLY","1739","232242","230642","227525","34269","NA","NA","NA","NA","232235","231139","NA","230142","NA","230135","232235","1749","232592","NA","NA","231242","1739","1739","231634","230135","1739","231242","232592","morph21_Oliver/Morris","41","36711","55","yes","1280","48"
"200","75","75","668.214285714","668.214285714","black","no","xpyriment","legacy","legacy","0","208","NA","uniform","63934","1000","0.0156411299152","1","undefined","1","0","55","55","55","0","55","55","55","NA","55","55","0","55","NA","55","55","0","55","NA","55","NA","55","0","0","55","55","0","55","55","56","z","11/03/17 12:39:24","The main experiment item","yes","FIN__AB__M21__7%3A10%3A17.osexp","C:\Users\ERP Testing Room\Desktop\Joanna\morph21","no","mono","no","18","no","white","no","yes","1080","legacy","55","55","C:/Users/ERP Testing Room/Desktop/Joanna/morph21/subject-114.csv","xpyriment","Jazzy James","3.1.4","0","z","NA","NA","NA","NA","return","z","709","NA","NA","NA","NA","32520","709","2","legacy","1024","2","48000","-16","AB_m21","114","even","FILL_NW","CINDS","1739","235417","233817","227525","34269","NA","NA","NA","NA","235414","234314","NA","233317","NA","233306","235414","1749","235617","NA","NA","234425","1739","1739","234817","233306","1739","234425","235617","morph21_Oliver/Morris","42","37420","56","yes","1280","6"
"200","75.4385964912","75.4385964912","667.245614035","667.245614035","black","no","xpyriment","legacy","legacy","0","207","NA","uniform","73804","1000","0.0135494011165","1","undefined","1","0","56","56","56","0","56","56","56","NA","56","56","0","56","NA","56","56","0","56","NA","56","NA","56","0","0","56","56","0","56","56","57","/","11/03/17 12:39:24","The main experiment item","yes","FIN__AB__M21__7%3A10%3A17.osexp","C:\Users\ERP Testing Room\Desktop\Joanna\morph21","no","mono","no","18","no","white","no","yes","1080","legacy","56","56","C:/Users/ERP Testing Room/Desktop/Joanna/morph21/subject-114.csv","xpyriment","Jazzy James","3.1.4","0","/","NA","NA","NA","NA","return","/","613","NA","NA","NA","NA","32520","613","2","legacy","1024","2","48000","-16","AB_m21","114","even","FILL_W","SAVE","1739","239909","236792","238401","34269","NA","NA","NA","NA","238395","237289","NA","236292","NA","236287","238395","1749","240109","NA","NA","237401","1739","1739","237792","236287","1739","237400","240109","morph21_Oliver/Morris","43","38033","57","yes","1280","46"
"200","75.8620689655","75.8620689655","665.620689655","665.620689655","black","no","xpyriment","legacy","legacy","0","202","NA","uniform","77628","1000","0.0128819498119","1","undefined","1","0","57","57","57","0","57","57","57","NA","57","57","0","57","NA","57","57","0","57","NA","57","NA","57","0","0","57","57","0","57","57","58","/","11/03/17 12:39:24","The main experiment item","yes","FIN__AB__M21__7%3A10%3A17.osexp","C:\Users\ERP Testing Room\Desktop\Joanna\morph21","no","mono","no","18","no","white","no","yes","1080","legacy","57","57","C:/Users/ERP Testing Room/Desktop/Joanna/morph21/subject-114.csv","xpyriment","Jazzy James","3.1.4","0","/","NA","NA","NA","NA","return","/","573","NA","NA","NA","NA","32520","573","2","legacy","1024","2","48000","-16","AB_m21","114","even","CW_L","SHAMEFUL","1739","242976","241392","238401","34269","NA","NA","NA","NA","242972","241890","NA","240892","NA","240886","242972","1749","243176","NA","NA","241976","1739","1739","242376","240886","1739","241976","243176","morph21_Oliver/Morris","44","38606","58","yes","1280","19"
"400","76.2711864407","76.2711864407","665.813559322","665.813559322","black","no","xpyriment","legacy","legacy","0","206","NA","uniform","65273","1000","0.0153202702496","1","undefined","1","0","58","58","58","0","58","58","58","NA","58","58","0","58","NA","58","58","0","58","NA","58","NA","58","0","0","58","58","0","58","58","59","z","11/03/17 12:39:24","The main experiment item","yes","FIN__AB__M21__7%3A10%3A17.osexp","C:\Users\ERP Testing Room\Desktop\Joanna\morph21","no","mono","no","18","no","white","no","yes","1080","legacy","58","58","C:/Users/ERP Testing Room/Desktop/Joanna/morph21/subject-114.csv","xpyriment","Jazzy James","3.1.4","0","z","NA","NA","NA","NA","return","z","677","NA","NA","NA","NA","32520","677","2","legacy","1024","2","48000","-16","AB_m21","114","even","NW_L_SIMP","BOGADY","1739","245985","244384","238401","34269","NA","NA","NA","NA","245978","244881","NA","243884","NA","243880","245978","1749","246385","NA","NA","244985","1739","1739","245377","243880","1739","244985","246385","morph21_Oliver/Morris","45","39283","59","yes","1280","2"
"250","76.6666666667","76.6666666667","665.966666667","665.966666667","black","no","xpyriment","legacy","legacy","0","204","NA","uniform","70982","1000","0.0140880786678","1","undefined","1","0","59","59","59","0","59","59","59","NA","59","59","0","59","NA","59","59","0","59","NA","59","NA","59","0","0","59","59","0","59","59","60","z","11/03/17 12:39:24","The main experiment item","yes","FIN__AB__M21__7%3A10%3A17.osexp","C:\Users\ERP Testing Room\Desktop\Joanna\morph21","no","mono","no","18","no","white","no","yes","1080","legacy","59","59","C:/Users/ERP Testing Room/Desktop/Joanna/morph21/subject-114.csv","xpyriment","Jazzy James","3.1.4","0","z","NA","NA","NA","NA","return","z","675","NA","NA","NA","NA","32520","675","2","legacy","1024","2","48000","-16","AB_m21","114","even","NW_L_COMP","STIRANCE","1739","250727","247619","249219","34269","NA","NA","NA","NA","249215","248116","NA","247119","NA","247107","249215","1749","250977","NA","NA","248227","1739","1739","248619","247107","1739","248227","250977","morph21_Oliver/Morris","46","39958","60","yes","1280","1"
"300","77.0491803279","77.0491803279","667.967213115","667.967213115","black","no","xpyriment","legacy","legacy","0","206","NA","uniform","69709","1000","0.0143453499548","1","undefined","1","0","60","60","60","0","60","60","60","NA","60","60","0","60","NA","60","60","0","60","NA","60","NA","60","0","0","60","60","0","60","60","61","z","11/03/17 12:39:24","The main experiment item","yes","FIN__AB__M21__7%3A10%3A17.osexp","C:\Users\ERP Testing Room\Desktop\Joanna\morph21","no","mono","no","18","no","white","no","yes","1080","legacy","60","60","C:/Users/ERP Testing Room/Desktop/Joanna/morph21/subject-114.csv","xpyriment","Jazzy James","3.1.4","0","z","NA","NA","NA","NA","return","z","788","NA","NA","NA","NA","32520","788","2","legacy","1024","2","48000","-16","AB_m21","114","even","NW_L_SIMP","ELBOWILM","1739","253785","252169","249219","34269","NA","NA","NA","NA","253778","252666","NA","251669","NA","251659","253778","1749","254086","NA","NA","252786","1739","1739","253177","251659","1739","252785","254086","morph21_Oliver/Morris","47","40746","61","yes","1280","10"
"300","75.8064516129","75.8064516129","669.435483871","669.435483871","black","no","xpyriment","legacy","legacy","0","208","NA","uniform","67022","1000","0.0149204738743","0","undefined","0","0","61","61","61","0","61","61","61","NA","61","61","0","61","NA","61","61","0","61","NA","61","NA","61","0","0","61","61","0","61","61","62","z","11/03/17 12:39:24","The main experiment item","yes","FIN__AB__M21__7%3A10%3A17.osexp","C:\Users\ERP Testing Room\Desktop\Joanna\morph21","no","mono","no","18","no","white","no","yes","1080","legacy","61","61","C:/Users/ERP Testing Room/Desktop/Joanna/morph21/subject-114.csv","xpyriment","Jazzy James","3.1.4","0","/","NA","NA","NA","NA","return","/","759","NA","NA","NA","NA","32520","759","2","legacy","1024","2","48000","-16","AB_m21","114","even","FILL_NW","TREMP","1739","256919","255319","249219","34269","NA","NA","NA","NA","253778","255816","NA","254819","NA","254809","256911","1749","257219","NA","NA","255919","1739","1739","256311","254809","1739","255919","257219","morph21_Oliver/Morris","47","41505","62","yes","1280","20"
"350","76.1904761905","76.1904761905","670.126984127","670.126984127","black","no","xpyriment","legacy","legacy","0","201","NA","uniform","72295","1000","0.0138322152293","1","undefined","1","0","62","62","62","0","62","62","62","NA","62","62","0","62","NA","62","62","0","62","NA","62","NA","62","0","0","62","62","0","62","62","63","/","11/03/17 12:39:24","The main experiment item","yes","FIN__AB__M21__7%3A10%3A17.osexp","C:\Users\ERP Testing Room\Desktop\Joanna\morph21","no","mono","no","18","no","white","no","yes","1080","legacy","62","62","C:/Users/ERP Testing Room/Desktop/Joanna/morph21/subject-114.csv","xpyriment","Jazzy James","3.1.4","0","/","NA","NA","NA","NA","return","/","713","NA","NA","NA","NA","32520","713","2","legacy","1024","2","48000","-16","AB_m21","114","even","CW_S","TOASTER","1739","261544","258427","260036","34269","NA","NA","NA","NA","260027","258925","NA","257927","NA","257917","260027","1749","261894","NA","NA","259036","1739","1739","259427","257917","1739","259036","261894","morph21_Oliver/Morris","48","42218","63","yes","1280","10"
"200","76.5625","76.5625","668.75","668.75","black","no","xpyriment","legacy","legacy","0","206","NA","uniform","76946","1000","0.0129961271541","1","undefined","1","0","63","63","63","0","63","63","63","NA","63","63","0","63","NA","63","63","0","63","NA","63","NA","63","0","0","63","63","0","63","63","64","z","11/03/17 12:39:24","The main experiment item","yes","FIN__AB__M21__7%3A10%3A17.osexp","C:\Users\ERP Testing Room\Desktop\Joanna\morph21","no","mono","no","18","no","white","no","yes","1080","legacy","63","63","C:/Users/ERP Testing Room/Desktop/Joanna/morph21/subject-114.csv","xpyriment","Jazzy James","3.1.4","0","z","NA","NA","NA","NA","return","z","582","NA","NA","NA","NA","32520","582","2","legacy","1024","2","48000","-16","AB_m21","114","even","NW_L_SIMP","TOWERLA","1739","264704","263112","260036","34269","NA","NA","NA","NA","264694","263609","NA","262612","NA","262606","264694","1749","264904","NA","NA","263704","1739","1739","264095","262606","1739","263704","264904","morph21_Oliver/Morris","49","42800","64","yes","1280","15"
"300","75.3846153846","75.3846153846","673.723076923","673.723076923","black","no","xpyriment","legacy","legacy","0","204","NA","uniform","61318","1000","0.0163084249323","0","undefined","0","0","64","64","64","0","64","64","64","NA","64","64","0","64","NA","64","64","0","64","NA","64","NA","64","0","0","64","64","0","64","64","65","z","11/03/17 12:39:24","The main experiment item","yes","FIN__AB__M21__7%3A10%3A17.osexp","C:\Users\ERP Testing Room\Desktop\Joanna\morph21","no","mono","no","18","no","white","no","yes","1080","legacy","64","64","C:/Users/ERP Testing Room/Desktop/Joanna/morph21/subject-114.csv","xpyriment","Jazzy James","3.1.4","0","None","NA","NA","NA","NA","return","None","992","NA","NA","NA","NA","32520","992","2","legacy","1024","2","48000","-16","AB_m21","114","even","NW_L_COMP","NORTHIZE","1739","267720","266120","260036","34269","NA","NA","NA","NA","264694","266618","NA","265620","NA","265613","267713","1749","268021","NA","NA","266721","1739","1739","267112","265613","1739","266720","268021","morph21_Oliver/Morris","49","43792","65","yes","1280","20"
"200","75.7575757576","75.7575757576","673.833333333","673.833333333","black","no","xpyriment","legacy","legacy","0","205","NA","uniform","70235","1000","0.0142379155692","1","undefined","1","0","65","65","65","0","65","65","65","NA","65","65","0","65","NA","65","65","0","65","NA","65","NA","65","0","0","65","65","0","65","65","66","z","11/03/17 12:39:24","The main experiment item","yes","FIN__AB__M21__7%3A10%3A17.osexp","C:\Users\ERP Testing Room\Desktop\Joanna\morph21","no","mono","no","18","no","white","no","yes","1080","legacy","65","65","C:/Users/ERP Testing Room/Desktop/Joanna/morph21/subject-114.csv","xpyriment","Jazzy James","3.1.4","0","z","NA","NA","NA","NA","return","z","681","NA","NA","NA","NA","32520","681","2","legacy","1024","2","48000","-16","AB_m21","114","even","NW_S_SIMP","GUMFIL","1739","272321","269229","270812","34269","NA","NA","NA","NA","270809","269726","NA","268729","NA","268723","270809","1749","272521","NA","NA","269821","1739","1739","270212","268723","1739","269821","272521","morph21_Oliver/Morris","50","44473","66","yes","1280","2"
"250","76.1194029851","76.1194029851","671.731343284","671.731343284","black","no","xpyriment","legacy","legacy","0","202","NA","uniform","76506","1000","0.0130708702585","1","undefined","1","0","66","66","66","0","66","66","66","NA","66","66","0","66","NA","66","66","0","66","NA","66","NA","66","0","0","66","66","0","66","66","67","/","11/03/17 12:39:24","The main experiment item","yes","FIN__AB__M21__7%3A10%3A17.osexp","C:\Users\ERP Testing Room\Desktop\Joanna\morph21","no","mono","no","18","no","white","no","yes","1080","legacy","66","66","C:/Users/ERP Testing Room/Desktop/Joanna/morph21/subject-114.csv","xpyriment","Jazzy James","3.1.4","0","/","NA","NA","NA","NA","return","/","533","NA","NA","NA","NA","32520","533","2","legacy","1024","2","48000","-16","AB_m21","114","even","CW_L","CREAMY","1739","275321","273738","270812","34269","NA","NA","NA","NA","275313","274235","NA","273237","NA","273228","275313","1749","275571","NA","NA","274321","1739","1739","274712","273228","1739","274321","275571","morph21_Oliver/Morris","51","45006","67","yes","1280","49"
"200","76.4705882353","76.4705882353","670.588235294","670.588235294","black","no","xpyriment","legacy","legacy","0","208","NA","uniform","74622","1000","0.013400873737","1","undefined","1","0","67","67","67","0","67","67","67","NA","67","67","0","67","NA","67","67","0","67","NA","67","NA","67","0","0","67","67","0","67","67","68","z","11/03/17 12:39:24","The main experiment item","yes","FIN__AB__M21__7%3A10%3A17.osexp","C:\Users\ERP Testing Room\Desktop\Joanna\morph21","no","mono","no","18","no","white","no","yes","1080","legacy","67","67","C:/Users/ERP Testing Room/Desktop/Joanna/morph21/subject-114.csv","xpyriment","Jazzy James","3.1.4","0","z","NA","NA","NA","NA","return","z","594","NA","NA","NA","NA","32520","594","2","legacy","1024","2","48000","-16","AB_m21","114","even","FILL_NW","FROT","1739","278379","276796","270812","34269","NA","NA","NA","NA","278370","277293","NA","276296","NA","276284","278370","1749","278579","NA","NA","277379","1739","1739","277771","276284","1739","277379","278579","morph21_Oliver/Morris","52","45600","68","yes","1280","22"
"350","76.8115942029","76.8115942029","671.971014493","671.971014493","black","no","xpyriment","legacy","legacy","0","208","NA","uniform","67685","1000","0.014774322228","1","undefined","1","0","68","68","68","0","68","68","68","NA","68","68","0","68","NA","68","68","0","68","NA","68","NA","68","0","0","68","68","0","68","68","69","z","11/03/17 12:39:24","The main experiment item","yes","FIN__AB__M21__7%3A10%3A17.osexp","C:\Users\ERP Testing Room\Desktop\Joanna\morph21","no","mono","no","18","no","white","no","yes","1080","legacy","68","68","C:/Users/ERP Testing Room/Desktop/Joanna/morph21/subject-114.csv","xpyriment","Jazzy James","3.1.4","0","z","NA","NA","NA","NA","return","z","766","NA","NA","NA","NA","32520","766","2","legacy","1024","2","48000","-16","AB_m21","114","even","FILL_NW","DASP","1739","282972","279872","281464","34269","NA","NA","NA","NA","281456","280369","NA","279371","NA","279364","281456","1749","283322","NA","NA","280464","1739","1739","280855","279364","1739","280464","283322","morph21_Oliver/Morris","53","46366","69","yes","1280","13"
"400","75.7142857143","75.7142857143","675.285714286","675.285714286","black","no","xpyriment","legacy","legacy","0","204","NA","uniform","66427","1000","0.0150541195598","0","undefined","0","0","69","69","69","0","69","69","69","NA","69","69","0","69","NA","69","69","0","69","NA","69","NA","69","0","0","69","69","0","69","69","70","z","11/03/17 12:39:24","The main experiment item","yes","FIN__AB__M21__7%3A10%3A17.osexp","C:\Users\ERP Testing Room\Desktop\Joanna\morph21","no","mono","no","18","no","white","no","yes","1080","legacy","69","69","C:/Users/ERP Testing Room/Desktop/Joanna/morph21/subject-114.csv","xpyriment","Jazzy James","3.1.4","0","/","NA","NA","NA","NA","return","/","904","NA","NA","NA","NA","32520","904","2","legacy","1024","2","48000","-16","AB_m21","114","even","NW_L_COMP","BOILOUS","1739","286214","284631","281464","34269","NA","NA","NA","NA","281456","285128","NA","284131","NA","284123","286209","1749","286614","NA","NA","285214","1739","1739","285614","284123","1739","285214","286614","morph21_Oliver/Morris","53","47270","70","yes","1280","18"
"400","76.0563380282","76.0563380282","675.971830986","675.971830986","black","no","xpyriment","legacy","legacy","0","201","NA","uniform","68920","1000","0.0145095763204","1","undefined","1","0","70","70","70","0","70","70","70","NA","70","70","0","70","NA","70","70","0","70","NA","70","NA","70","0","0","70","70","0","70","70","71","/","11/03/17 12:39:24","The main experiment item","yes","FIN__AB__M21__7%3A10%3A17.osexp","C:\Users\ERP Testing Room\Desktop\Joanna\morph21","no","mono","no","18","no","white","no","yes","1080","legacy","70","70","C:/Users/ERP Testing Room/Desktop/Joanna/morph21/subject-114.csv","xpyriment","Jazzy James","3.1.4","0","/","NA","NA","NA","NA","return","/","724","NA","NA","NA","NA","32520","724","2","legacy","1024","2","48000","-16","AB_m21","114","even","CW_S","ALLOWANCE","1739","289489","287881","281464","34269","NA","NA","NA","NA","289486","288378","NA","287381","NA","287373","289486","1749","289889","NA","NA","288498","1739","1739","288889","287373","1739","288497","289889","morph21_Oliver/Morris","54","47994","71","yes","1280","5"
"200","76.3888888889","76.3888888889","677.111111111","677.111111111","black","no","xpyriment","legacy","legacy","0","208","NA","uniform","69440","1000","0.014400921659","1","undefined","1","0","71","71","71","0","71","71","71","NA","71","71","0","71","NA","71","71","0","71","NA","71","NA","71","0","0","71","71","0","71","71","72","z","11/03/17 12:39:24","The main experiment item","yes","FIN__AB__M21__7%3A10%3A17.osexp","C:\Users\ERP Testing Room\Desktop\Joanna\morph21","no","mono","no","18","no","white","no","yes","1080","legacy","71","71","C:/Users/ERP Testing Room/Desktop/Joanna/morph21/subject-114.csv","xpyriment","Jazzy James","3.1.4","0","z","NA","NA","NA","NA","return","z","758","NA","NA","NA","NA","32520","758","2","legacy","1024","2","48000","-16","AB_m21","114","even","FILL_NW","PORDS","1739","294164","291073","292656","34269","NA","NA","NA","NA","292652","291570","NA","290573","NA","290567","292652","1749","294365","NA","NA","291656","1739","1739","292056","290567","1739","291656","294365","morph21_Oliver/Morris","55","48752","72","yes","1280","39"
"300","75.3424657534","75.3424657534","678.191780822","678.191780822","black","no","xpyriment","legacy","legacy","0","203","NA","uniform","68583","1000","0.014580872811","0","undefined","0","0","72","72","72","0","72","72","72","NA","72","72","0","72","NA","72","72","0","72","NA","72","NA","72","0","0","72","72","0","72","72","73","z","11/03/17 12:39:24","The main experiment item","yes","FIN__AB__M21__7%3A10%3A17.osexp","C:\Users\ERP Testing Room\Desktop\Joanna\morph21","no","mono","no","18","no","white","no","yes","1080","legacy","72","72","C:/Users/ERP Testing Room/Desktop/Joanna/morph21/subject-114.csv","xpyriment","Jazzy James","3.1.4","0","/","NA","NA","NA","NA","return","/","756","NA","NA","NA","NA","32520","756","2","legacy","1024","2","48000","-16","AB_m21","114","even","NW_S_COMP","CURTITY","1739","297274","295656","292656","34269","NA","NA","NA","NA","292652","296153","NA","295156","NA","295145","297266","1749","297574","NA","NA","296273","1739","1739","296664","295145","1739","296273","297574","morph21_Oliver/Morris","55","49508","73","yes","1280","11"
"200","75.6756756757","75.6756756757","678.716216216","678.716216216","black","no","xpyriment","legacy","legacy","0","203","NA","uniform","71996","1000","0.0138896605367","1","undefined","1","0","73","73","73","0","73","73","73","NA","73","73","0","73","NA","73","73","0","73","NA","73","NA","73","0","0","73","73","0","73","73","74","z","11/03/17 12:39:24","The main experiment item","yes","FIN__AB__M21__7%3A10%3A17.osexp","C:\Users\ERP Testing Room\Desktop\Joanna\morph21","no","mono","no","18","no","white","no","yes","1080","legacy","73","73","C:/Users/ERP Testing Room/Desktop/Joanna/morph21/subject-114.csv","xpyriment","Jazzy James","3.1.4","0","z","NA","NA","NA","NA","return","z","717","NA","NA","NA","NA","32520","717","2","legacy","1024","2","48000","-16","AB_m21","114","even","NW_S_COMP","ELMIST","1739","300441","298832","292656","34269","NA","NA","NA","NA","300431","299329","NA","298332","NA","298322","300431","1749","300641","NA","NA","299441","1739","1739","299832","298322","1739","299441","300641","morph21_Oliver/Morris","56","50225","74","yes","1280","10"
"300","74.6666666667","74.6666666667","682.933333333","682.933333333","black","no","xpyriment","legacy","legacy","0","204","NA","uniform","63897","1000","0.0156501870197","undefined","undefined","0","0","74","74","74","0","74","74","74","NA","74","74","0","74","NA","74","74","0","74","NA","74","NA","74","0","0","74","74","0","74","74","75","z","11/03/17 12:39:24","The main experiment item","yes","FIN__AB__M21__7%3A10%3A17.osexp","C:\Users\ERP Testing Room\Desktop\Joanna\morph21","no","mono","no","18","no","white","no","yes","1080","legacy","74","74","C:/Users/ERP Testing Room/Desktop/Joanna/morph21/subject-114.csv","xpyriment","Jazzy James","3.1.4","0","z","z","NA","NA","NA","return","None","0","0","NA","NA","NA","32520","995","2","legacy","1024","2","48000","-16","AB_m21","114","even","NW_L_COMP","ADDMENT","1739","304933","301849","303424","34269","305241","NA","NA","NA","300431","302346","NA","301349","NA","301339","303419","1749","305243","NA","NA","302424","1739","1739","302824","301339","1739","302424","305233","morph21_Oliver/Morris","56","51220","75","yes","1280","13"
"200","75","75","683.157894737","683.157894737","black","no","xpyriment","legacy","legacy","0","201","NA","uniform","68820","1000","0.014530659692","1","undefined","1","0","75","75","75","0","75","75","75","NA","75","75","0","75","NA","75","75","0","75","NA","75","NA","75","0","0","75","75","0","75","75","76","/","11/03/17 12:39:24","The main experiment item","yes","FIN__AB__M21__7%3A10%3A17.osexp","C:\Users\ERP Testing Room\Desktop\Joanna\morph21","no","mono","no","18","no","white","no","yes","1080","legacy","75","75","C:/Users/ERP Testing Room/Desktop/Joanna/morph21/subject-114.csv","xpyriment","Jazzy James","3.1.4","0","/","z","NA","NA","NA","return","/","700","0","NA","NA","NA","32520","700","2","legacy","1024","2","48000","-16","AB_m21","114","even","CW_S","ENJOYMENT","1739","308058","306474","303424","34269","305241","NA","NA","NA","308051","306971","NA","305974","NA","305968","308051","1749","308258","NA","NA","307058","1739","1739","307449","305968","1739","307058","308258","morph21_Oliver/Morris","57","51920","76","yes","1280","40"
"400","75.3246753247","75.3246753247","684.285714286","684.285714286","black","no","xpyriment","legacy","legacy","0","208","NA","uniform","67354","1000","0.0148469281706","1","undefined","1","0","76","76","76","0","76","76","76","NA","76","76","0","76","NA","76","76","0","76","NA","76","NA","76","0","0","76","76","0","76","76","77","z","11/03/17 12:39:24","The main experiment item","yes","FIN__AB__M21__7%3A10%3A17.osexp","C:\Users\ERP Testing Room\Desktop\Joanna\morph21","no","mono","no","18","no","white","no","yes","1080","legacy","76","76","C:/Users/ERP Testing Room/Desktop/Joanna/morph21/subject-114.csv","xpyriment","Jazzy James","3.1.4","0","z","z","NA","NA","NA","return","z","770","0","NA","NA","NA","32520","770","2","legacy","1024","2","48000","-16","AB_m21","114","even","FILL_NW","DROES","1739","311116","309516","303424","34269","305241","NA","NA","NA","311112","310013","NA","309016","NA","309012","311112","1749","311516","NA","NA","310124","1739","1739","310516","309012","1739","310124","311516","morph21_Oliver/Morris","58","52690","77","yes","1280","17"
"250","75.641025641","75.641025641","683.58974359","683.58974359","black","no","xpyriment","legacy","legacy","0","201","NA","uniform","75227","1000","0.013293099552","1","undefined","1","0","77","77","77","0","77","77","77","NA","77","77","0","77","NA","77","77","0","77","NA","77","NA","77","0","0","77","77","0","77","77","78","/","11/03/17 12:39:24","The main experiment item","yes","FIN__AB__M21__7%3A10%3A17.osexp","C:\Users\ERP Testing Room\Desktop\Joanna\morph21","no","mono","no","18","no","white","no","yes","1080","legacy","77","77","C:/Users/ERP Testing Room/Desktop/Joanna/morph21/subject-114.csv","xpyriment","Jazzy James","3.1.4","0","/","z","NA","NA","NA","return","/","630","0","NA","NA","NA","32520","630","2","legacy","1024","2","48000","-16","AB_m21","114","even","CW_S","TUTORING","1739","315884","312791","314375","34269","305241","NA","NA","NA","314370","313288","NA","312291","NA","312287","314370","1749","316134","NA","NA","313375","1739","1739","313775","312287","1739","313375","316134","morph21_Oliver/Morris","59","53320","78","yes","1280","27"
"400","75.9493670886","75.9493670886","681.417721519","681.417721519","black","no","xpyriment","legacy","legacy","0","201","NA","uniform","72587","1000","0.0137765715624","1","undefined","1","0","78","78","78","0","78","78","78","NA","78","78","0","78","NA","78","78","0","78","NA","78","NA","78","0","0","78","78","0","78","78","79","/","11/03/17 12:39:24","The main experiment item","yes","FIN__AB__M21__7%3A10%3A17.osexp","C:\Users\ERP Testing Room\Desktop\Joanna\morph21","no","mono","no","18","no","white","no","yes","1080","legacy","78","78","C:/Users/ERP Testing Room/Desktop/Joanna/morph21/subject-114.csv","xpyriment","Jazzy James","3.1.4","0","/","z","NA","NA","NA","return","/","512","0","NA","NA","NA","32520","512","2","legacy","1024","2","48000","-16","AB_m21","114","even","CW_S","EFFORTLESS","1739","318934","317351","314375","34269","305241","NA","NA","NA","318929","317848","NA","316851","NA","316841","318929","1749","319334","NA","NA","317934","1739","1739","318334","316841","1739","317934","319334","morph21_Oliver/Morris","60","53832","79","yes","1280","30"
"350","76.25","76.25","681.8875","681.8875","black","no","xpyriment","legacy","legacy","0","202","NA","uniform","70679","1000","0.0141484740871","1","undefined","1","0","79","79","79","0","79","79","79","NA","79","79","0","79","NA","79","79","0","79","NA","79","NA","79","0","0","79","79","0","79","79","80","/","11/03/17 12:39:24","The main experiment item","yes","FIN__AB__M21__7%3A10%3A17.osexp","C:\Users\ERP Testing Room\Desktop\Joanna\morph21","no","mono","no","18","no","white","no","yes","1080","legacy","79","79","C:/Users/ERP Testing Room/Desktop/Joanna/morph21/subject-114.csv","xpyriment","Jazzy James","3.1.4","0","/","z","NA","NA","NA","return","/","719","0","NA","NA","NA","32520","719","2","legacy","1024","2","48000","-16","AB_m21","114","even","CW_L","KICKING","1739","322151","320568","314375","34269","305241","NA","NA","NA","322143","321065","NA","320068","NA","320059","322143","1749","322501","NA","NA","321151","1739","1739","321543","320059","1739","321151","322501","morph21_Oliver/Morris","61","54551","80","yes","1280","23"
"300","76.5432098765","76.5432098765","683.580246914","683.580246914","black","no","xpyriment","legacy","legacy","0","206","NA","uniform","66644","1000","0.0150051017346","1","undefined","1","0","80","80","80","0","80","80","80","NA","80","80","0","80","NA","80","80","0","80","NA","80","NA","80","0","0","80","80","0","80","80","81","z","11/03/17 12:39:24","The main experiment item","yes","FIN__AB__M21__7%3A10%3A17.osexp","C:\Users\ERP Testing Room\Desktop\Joanna\morph21","no","mono","no","18","no","white","no","yes","1080","legacy","80","80","C:/Users/ERP Testing Room/Desktop/Joanna/morph21/subject-114.csv","xpyriment","Jazzy James","3.1.4","0","z","z","NA","NA","NA","return","z","819","0","NA","NA","NA","32520","819","2","legacy","1024","2","48000","-16","AB_m21","114","even","NW_L_SIMP","EARILT","1739","326751","323659","325243","34269","305241","NA","NA","NA","325233","324156","NA","323159","NA","323153","325233","1749","327051","NA","NA","324243","1739","1739","324634","323153","1739","324243","327051","morph21_Oliver/Morris","62","55370","81","yes","1280","12"
"250","76.8292682927","76.8292682927","681.475609756","681.475609756","black","no","xpyriment","legacy","legacy","0","207","NA","uniform","75356","1000","0.0132703434365","1","undefined","1","0","81","81","81","0","81","81","81","NA","81","81","0","81","NA","81","81","0","81","NA","81","NA","81","0","0","81","81","0","81","81","82","/","11/03/17 12:39:24","The main experiment item","yes","FIN__AB__M21__7%3A10%3A17.osexp","C:\Users\ERP Testing Room\Desktop\Joanna\morph21","no","mono","no","18","no","white","no","yes","1080","legacy","81","81","C:/Users/ERP Testing Room/Desktop/Joanna/morph21/subject-114.csv","xpyriment","Jazzy James","3.1.4","0","/","z","NA","NA","NA","return","/","511","0","NA","NA","NA","32520","511","2","legacy","1024","2","48000","-16","AB_m21","114","even","FILL_W","SPLICE","1739","329918","328335","325243","34269","305241","NA","NA","NA","329910","328832","NA","327835","NA","327832","329910","1749","330168","NA","NA","328918","1739","1739","329310","327832","1739","328918","330168","morph21_Oliver/Morris","63","55881","82","yes","1280","22"
"200","75.9036144578","75.9036144578","680.951807229","680.951807229","black","no","xpyriment","legacy","legacy","0","203","NA","uniform","75586","1000","0.0132299632207","0","undefined","0","0","82","82","82","0","82","82","82","NA","82","82","0","82","NA","82","82","0","82","NA","82","NA","82","0","0","82","82","0","82","82","83","z","11/03/17 12:39:24","The main experiment item","yes","FIN__AB__M21__7%3A10%3A17.osexp","C:\Users\ERP Testing Room\Desktop\Joanna\morph21","no","mono","no","18","no","white","no","yes","1080","legacy","82","82","C:/Users/ERP Testing Room/Desktop/Joanna/morph21/subject-114.csv","xpyriment","Jazzy James","3.1.4","0","/","z","NA","NA","NA","return","/","638","0","NA","NA","NA","32520","638","2","legacy","1024","2","48000","-16","AB_m21","114","even","NW_S_COMP","MELTANCE","1739","332961","331376","325243","34269","305241","NA","NA","NA","329910","331874","NA","330876","NA","330872","332955","1749","333161","NA","NA","331960","1739","1739","332352","330872","1739","331960","333161","morph21_Oliver/Morris","63","56519","83","yes","1280","1"
"200","76.1904761905","76.1904761905","679.428571429","679.428571429","black","no","xpyriment","legacy","legacy","0","201","NA","uniform","73836","1000","0.0135435289019","1","undefined","1","0","83","83","83","0","83","83","83","NA","83","83","0","83","NA","83","83","0","83","NA","83","NA","83","0","0","83","83","0","83","83","84","/","11/03/17 12:39:24","The main experiment item","yes","FIN__AB__M21__7%3A10%3A17.osexp","C:\Users\ERP Testing Room\Desktop\Joanna\morph21","no","mono","no","18","no","white","no","yes","1080","legacy","83","83","C:/Users/ERP Testing Room/Desktop/Joanna/morph21/subject-114.csv","xpyriment","Jazzy James","3.1.4","0","/","z","NA","NA","NA","return","/","553","0","NA","NA","NA","32520","553","2","legacy","1024","2","48000","-16","AB_m21","114","even","CW_S","CAMPAIGNER","1739","337553","334419","336044","34269","305241","NA","NA","NA","336041","334916","NA","333919","NA","333912","336041","1749","337753","NA","NA","335053","1739","1739","335444","333912","1739","335053","337753","morph21_Oliver/Morris","64","57072","84","yes","1280","15"
"400","75.2941176471","75.2941176471","677.388235294","677.388235294","black","no","xpyriment","legacy","legacy","0","204","NA","uniform","75762","1000","0.013199229165","0","undefined","0","0","84","84","84","0","84","84","84","NA","84","84","0","84","NA","84","84","0","84","NA","84","NA","84","0","0","84","84","0","84","84","85","z","11/03/17 12:39:24","The main experiment item","yes","FIN__AB__M21__7%3A10%3A17.osexp","C:\Users\ERP Testing Room\Desktop\Joanna\morph21","no","mono","no","18","no","white","no","yes","1080","legacy","84","84","C:/Users/ERP Testing Room/Desktop/Joanna/morph21/subject-114.csv","xpyriment","Jazzy James","3.1.4","0","/","z","NA","NA","NA","return","/","506","0","NA","NA","NA","32520","506","2","legacy","1024","2","48000","-16","AB_m21","114","even","NW_L_COMP","PASSMENT","1739","340628","339044","336044","34269","305241","NA","NA","NA","336041","339542","NA","338544","NA","338535","340620","1749","341028","NA","NA","339628","1739","1739","340019","338535","1739","339628","341028","morph21_Oliver/Morris","64","57578","85","yes","1280","14"
"300","75.5813953488","75.5813953488","676.488372093","676.488372093","black","no","xpyriment","legacy","legacy","0","208","NA","uniform","70808","1000","0.0141226980002","1","undefined","1","0","85","85","85","0","85","85","85","NA","85","85","0","85","NA","85","85","0","85","NA","85","NA","85","0","0","85","85","0","85","85","86","z","11/03/17 12:39:24","The main experiment item","yes","FIN__AB__M21__7%3A10%3A17.osexp","C:\Users\ERP Testing Room\Desktop\Joanna\morph21","no","mono","no","18","no","white","no","yes","1080","legacy","85","85","C:/Users/ERP Testing Room/Desktop/Joanna/morph21/subject-114.csv","xpyriment","Jazzy James","3.1.4","0","z","z","NA","NA","NA","return","z","600","0","NA","NA","NA","32520","600","2","legacy","1024","2","48000","-16","AB_m21","114","even","FILL_NW","KEMT","1739","343870","342286","336044","34269","305241","NA","NA","NA","343860","342783","NA","341786","NA","341779","343860","1749","344170","NA","NA","342870","1739","1739","343261","341779","1739","342870","344170","morph21_Oliver/Morris","65","58178","86","yes","1280","32"
"300","75.8620689655","75.8620689655","676.666666667","676.666666667","black","no","xpyriment","legacy","legacy","0","205","NA","uniform","74858","1000","0.0133586256646","1","undefined","1","0","86","86","86","0","86","86","86","NA","86","86","0","86","NA","86","86","0","86","NA","86","NA","86","0","0","86","86","0","86","86","87","z","11/03/17 12:39:24","The main experiment item","yes","FIN__AB__M21__7%3A10%3A17.osexp","C:\Users\ERP Testing Room\Desktop\Joanna\morph21","no","mono","no","18","no","white","no","yes","1080","legacy","86","86","C:/Users/ERP Testing Room/Desktop/Joanna/morph21/subject-114.csv","xpyriment","Jazzy James","3.1.4","0","z","z","NA","NA","NA","return","z","692","0","NA","NA","NA","32520","692","2","legacy","1024","2","48000","-16","AB_m21","114","even","NW_S_SIMP","WARNODY","1739","348470","345353","346961","34269","305241","NA","NA","NA","346954","345850","NA","344853","NA","344845","346954","1749","348770","NA","NA","345961","1739","1739","346353","344845","1739","345961","348770","morph21_Oliver/Morris","66","58870","87","yes","1280","12"
"400","76.1363636364","76.1363636364","678.090909091","678.090909091","black","no","xpyriment","legacy","legacy","0","208","NA","uniform","68178","1000","0.014667488046","1","undefined","1","0","87","87","87","0","87","87","87","NA","87","87","0","87","NA","87","87","0","87","NA","87","NA","87","0","0","87","87","0","87","87","88","z","11/03/17 12:39:24","The main experiment item","yes","FIN__AB__M21__7%3A10%3A17.osexp","C:\Users\ERP Testing Room\Desktop\Joanna\morph21","no","mono","no","18","no","white","no","yes","1080","legacy","87","87","C:/Users/ERP Testing Room/Desktop/Joanna/morph21/subject-114.csv","xpyriment","Jazzy James","3.1.4","0","z","z","NA","NA","NA","return","z","802","0","NA","NA","NA","32520","802","2","legacy","1024","2","48000","-16","AB_m21","114","even","FILL_NW","GIKE","1739","351588","349988","346961","34269","305241","NA","NA","NA","351582","350485","NA","349487","NA","349477","351582","1749","351988","NA","NA","350588","1739","1739","350979","349477","1739","350588","351988","morph21_Oliver/Morris","67","59672","88","yes","1280","24"
"350","75.2808988764","75.2808988764","679.134831461","679.134831461","black","no","xpyriment","legacy","legacy","0","204","NA","uniform","65531","1000","0.0152599533045","0","undefined","0","0","88","88","88","0","88","88","88","NA","88","88","0","88","NA","88","88","0","88","NA","88","NA","88","0","0","88","88","0","88","88","89","z","11/03/17 12:39:24","The main experiment item","yes","FIN__AB__M21__7%3A10%3A17.osexp","C:\Users\ERP Testing Room\Desktop\Joanna\morph21","no","mono","no","18","no","white","no","yes","1080","legacy","88","88","C:/Users/ERP Testing Room/Desktop/Joanna/morph21/subject-114.csv","xpyriment","Jazzy James","3.1.4","0","/","z","NA","NA","NA","return","/","771","0","NA","NA","NA","32520","771","2","legacy","1024","2","48000","-16","AB_m21","114","even","NW_L_COMP","AGREELY","1739","354771","353188","346961","34269","305241","NA","NA","NA","351582","353685","NA","352688","NA","352683","354766","1749","355121","NA","NA","353771","1739","1739","354171","352682","1739","353771","355121","morph21_Oliver/Morris","67","60443","89","yes","1280","24"
"350","75.5555555556","75.5555555556","679.255555556","679.255555556","black","no","xpyriment","legacy","legacy","0","201","NA","uniform","67893","1000","0.0147290589604","1","undefined","1","0","89","89","89","0","89","89","89","NA","89","89","0","89","NA","89","89","0","89","NA","89","NA","89","0","0","89","89","0","89","89","90","/","11/03/17 12:39:24","The main experiment item","yes","FIN__AB__M21__7%3A10%3A17.osexp","C:\Users\ERP Testing Room\Desktop\Joanna\morph21","no","mono","no","18","no","white","no","yes","1080","legacy","89","89","C:/Users/ERP Testing Room/Desktop/Joanna/morph21/subject-114.csv","xpyriment","Jazzy James","3.1.4","0","/","z","NA","NA","NA","return","/","690","0","NA","NA","NA","32520","690","2","legacy","1024","2","48000","-16","AB_m21","114","even","CW_S","RICHNESS","1739","359496","356388","357988","34269","305241","NA","NA","NA","357985","356885","NA","355888","NA","355878","357985","1749","359846","NA","NA","356996","1739","1739","357388","355878","1739","356996","359846","morph21_Oliver/Morris","68","61133","90","yes","1280","45"
"350","74.7252747253","74.7252747253","681.10989011","681.10989011","black","no","xpyriment","legacy","legacy","0","204","NA","uniform","66502","1000","0.0150371417401","0","undefined","0","0","90","90","90","0","90","90","90","NA","90","90","0","90","NA","90","90","0","90","NA","90","NA","90","0","0","90","90","0","90","90","91","z","11/03/17 12:39:24","The main experiment item","yes","FIN__AB__M21__7%3A10%3A17.osexp","C:\Users\ERP Testing Room\Desktop\Joanna\morph21","no","mono","no","18","no","white","no","yes","1080","legacy","90","90","C:/Users/ERP Testing Room/Desktop/Joanna/morph21/subject-114.csv","xpyriment","Jazzy James","3.1.4","0","/","z","NA","NA","NA","return","/","848","0","NA","NA","NA","32520","848","2","legacy","1024","2","48000","-16","AB_m21","114","even","NW_L_COMP","MOUTHIZE","1739","362646","361063","357988","34269","305241","NA","NA","NA","357985","361560","NA","360563","NA","360555","362639","1749","362996","NA","NA","361646","1739","1739","362038","360555","1739","361646","362996","morph21_Oliver/Morris","68","61981","91","yes","1280","11"
