"ITI","acc","accuracy","average_response_time","avg_rt","background","bidi","canvas_backend","clock_backend","color_backend","compensation","cond_trig","condtrigtime","coordinates","coroutines_cycles","coroutines_duration","coroutines_mean_cycle_duration","correct","correct_instructions_1","correct_new_keyboard_response_1","count_BA_m21","count_ITI","count_blank_screen","count_blink_screen","count_block1","count_break1","count_break2","count_break3_1","count_canvas","count_correct_trigger","count_def_chain","count_end_screen","count_fixation_1","count_getting_started","count_inc_counter","count_incorrect_trigger","count_instructions_1","count_logger","count_logscript","count_new_coroutines","count_new_inline_script","count_new_keyboard_response_1","count_reset_counter_prep","count_reset_counter_run","count_responsescreen","count_sequence","count_start_trigger","count_target_present","count_word_trigger","counter","cresp","datetime","description","disable_garbage_collection","experiment_file","experiment_path","font_bold","font_family","font_italic","font_size","font_underline","foreground","form_clicks","fullscreen","height","keyboard_backend","live_row","live_row_block1","logfile","mouse_backend","opensesame_codename","opensesame_version","repeat_cycle","response","response_break1","response_break2","response_break3_1","response_end_screen","response_instructions_1","response_new_keyboard_response_1","response_time","response_time_break1","response_time_break2","response_time_break3_1","response_time_end_screen","response_time_instructions_1","response_time_new_keyboard_response_1","round_decimals","sampler_backend","sound_buf_size","sound_channels","sound_freq","sound_sample_size","start","subject_nr","subject_parity","targ_type","target","time_BA_m21","time_ITI","time_blank_screen","time_blink_screen","time_block1","time_break1","time_break2","time_break3_1","time_canvas","time_correct_trigger","time_def_chain","time_end_screen","time_fixation_1","time_getting_started","time_inc_counter","time_incorrect_trigger","time_instructions_1","time_logger","time_logscript","time_new_inline_script","time_new_keyboard_response_1","time_reset_counter_prep","time_reset_counter_run","time_responsescreen","time_sequence","time_start_trigger","time_target_present","time_word_trigger","title","total_correct","total_response_time","total_responses","uniform_coordinates","width","word_trig"
"400","0","0","989","989","black","no","xpyriment","legacy","legacy","0","208","NA","uniform","60655","1000","0.0164866870002","0","undefined","0","0","0","0","0","0","0","0","0","NA","0","0","0","0","NA","0","0","0","0","NA","0","NA","0","0","0","0","0","0","0","0","1","z","09/27/18 16:15:21","The main experiment item","yes","FIN__BA__M21__7%3A10%3A17.osexp","C:\Users\ERP Testing Room\Desktop\Joanna\morph21","no","mono","no","18","no","white","no","yes","1080","legacy","0","0","C:/Users/ERP Testing Room/Desktop/Joanna/morph21/subject-137.csv","xpyriment","Jazzy James","3.1.4","0","None","NA","NA","NA","NA","space","None","989","NA","NA","NA","NA","150579","989","2","legacy","1024","2","48000","-16","BA_m21","137","odd","FILL_NW","GIKE","2558","155980","154347","NA","153148","NA","NA","NA","NA","NA","154844","NA","153842","NA","153774","155978","2569","156380","NA","NA","154989","2558","2558","155380","153773","2558","154989","156380","morph21_Oliver/Morris","0","989","1","yes","1280","24"
"200","50","50","832.5","832.5","black","no","xpyriment","legacy","legacy","0","207","NA","uniform","66915","1000","0.014944332362","1","undefined","1","0","1","1","1","0","1","1","1","NA","1","1","0","1","NA","1","1","0","1","NA","1","NA","1","0","0","1","1","0","1","1","2","/","09/27/18 16:15:21","The main experiment item","yes","FIN__BA__M21__7%3A10%3A17.osexp","C:\Users\ERP Testing Room\Desktop\Joanna\morph21","no","mono","no","18","no","white","no","yes","1080","legacy","1","1","C:/Users/ERP Testing Room/Desktop/Joanna/morph21/subject-137.csv","xpyriment","Jazzy James","3.1.4","0","/","NA","NA","NA","NA","space","/","676","NA","NA","NA","NA","150579","676","2","legacy","1024","2","48000","-16","BA_m21","137","odd","FILL_W","FLOAT","2558","159232","157615","NA","153148","NA","NA","NA","NA","159229","158112","NA","157114","NA","157104","159229","2569","159432","NA","NA","158240","2558","2558","158632","157104","2558","158240","159432","morph21_Oliver/Morris","1","1665","2","yes","1280","30"
"200","66.6666666667","66.6666666667","822","822","black","no","xpyriment","legacy","legacy","0","205","NA","uniform","66247","1000","0.0150950231709","1","undefined","1","0","2","2","2","0","2","2","2","NA","2","2","0","2","NA","2","2","0","2","NA","2","NA","2","0","0","2","2","0","2","2","3","z","09/27/18 16:15:21","The main experiment item","yes","FIN__BA__M21__7%3A10%3A17.osexp","C:\Users\ERP Testing Room\Desktop\Joanna\morph21","no","mono","no","18","no","white","no","yes","1080","legacy","2","2","C:/Users/ERP Testing Room/Desktop/Joanna/morph21/subject-137.csv","xpyriment","Jazzy James","3.1.4","0","z","NA","NA","NA","NA","space","z","801","NA","NA","NA","NA","150579","801","2","legacy","1024","2","48000","-16","BA_m21","137","odd","NW_S_SIMP","GUMFUL","2558","163823","160723","162315","153148","NA","NA","NA","NA","162308","161220","NA","160223","NA","160215","162308","2569","164024","NA","NA","161315","2558","2558","161707","160215","2558","161315","164024","morph21_Oliver/Morris","2","2466","3","yes","1280","2"
"200","75","75","811.25","811.25","black","no","xpyriment","legacy","legacy","0","208","NA","uniform","70638","1000","0.0141566862029","1","undefined","1","0","3","3","3","0","3","3","3","NA","3","3","0","3","NA","3","3","0","3","NA","3","NA","3","0","0","3","3","0","3","3","4","z","09/27/18 16:15:21","The main experiment item","yes","FIN__BA__M21__7%3A10%3A17.osexp","C:\Users\ERP Testing Room\Desktop\Joanna\morph21","no","mono","no","18","no","white","no","yes","1080","legacy","3","3","C:/Users/ERP Testing Room/Desktop/Joanna/morph21/subject-137.csv","xpyriment","Jazzy James","3.1.4","0","z","NA","NA","NA","NA","space","z","779","NA","NA","NA","NA","150579","779","2","legacy","1024","2","48000","-16","BA_m21","137","odd","FILL_NW","TUEER","2558","166874","165290","162315","153148","NA","NA","NA","NA","166870","165787","NA","164790","NA","164784","166870","2569","167074","NA","NA","165873","2558","2558","166274","164784","2558","165873","167074","morph21_Oliver/Morris","3","3245","4","yes","1280","44"
"250","80","80","780","780","black","no","xpyriment","legacy","legacy","0","207","NA","uniform","68116","1000","0.0146808385695","1","undefined","1","0","4","4","4","0","4","4","4","NA","4","4","0","4","NA","4","4","0","4","NA","4","NA","4","0","0","4","4","0","4","4","5","/","09/27/18 16:15:21","The main experiment item","yes","FIN__BA__M21__7%3A10%3A17.osexp","C:\Users\ERP Testing Room\Desktop\Joanna\morph21","no","mono","no","18","no","white","no","yes","1080","legacy","4","4","C:/Users/ERP Testing Room/Desktop/Joanna/morph21/subject-137.csv","xpyriment","Jazzy James","3.1.4","0","/","NA","NA","NA","NA","space","/","655","NA","NA","NA","NA","150579","655","2","legacy","1024","2","48000","-16","BA_m21","137","odd","FILL_W","TASTE","2558","169949","168340","162315","153148","NA","NA","NA","NA","169939","168837","NA","167840","NA","167830","169939","2569","170199","NA","NA","168949","2558","2558","169340","167830","2558","168949","170199","morph21_Oliver/Morris","4","3900","5","yes","1280","34"
"400","66.6666666667","66.6666666667","815.666666667","815.666666667","black","no","xpyriment","legacy","legacy","0","208","NA","uniform","59918","1000","0.0166894756167","0","undefined","0","0","5","5","5","0","5","5","5","NA","5","5","0","5","NA","5","5","0","5","NA","5","NA","5","0","0","5","5","0","5","5","6","z","09/27/18 16:15:21","The main experiment item","yes","FIN__BA__M21__7%3A10%3A17.osexp","C:\Users\ERP Testing Room\Desktop\Joanna\morph21","no","mono","no","18","no","white","no","yes","1080","legacy","5","5","C:/Users/ERP Testing Room/Desktop/Joanna/morph21/subject-137.csv","xpyriment","Jazzy James","3.1.4","0","None","NA","NA","NA","NA","space","None","994","NA","NA","NA","NA","150579","994","2","legacy","1024","2","48000","-16","BA_m21","137","odd","FILL_NW","BALFS","2558","174516","171407","173007","153148","NA","NA","NA","NA","169939","171904","NA","170907","NA","170896","173001","2569","174916","NA","NA","172007","2558","2558","172399","170896","2558","172007","174916","morph21_Oliver/Morris","4","4894","6","yes","1280","2"
"300","71.4285714286","71.4285714286","792.285714286","792.285714286","black","no","xpyriment","legacy","legacy","0","207","NA","uniform","68499","1000","0.0145987532665","1","undefined","1","0","6","6","6","0","6","6","6","NA","6","6","0","6","NA","6","6","0","6","NA","6","NA","6","0","0","6","6","0","6","6","7","/","09/27/18 16:15:21","The main experiment item","yes","FIN__BA__M21__7%3A10%3A17.osexp","C:\Users\ERP Testing Room\Desktop\Joanna\morph21","no","mono","no","18","no","white","no","yes","1080","legacy","6","6","C:/Users/ERP Testing Room/Desktop/Joanna/morph21/subject-137.csv","xpyriment","Jazzy James","3.1.4","0","/","NA","NA","NA","NA","space","/","652","NA","NA","NA","NA","150579","652","2","legacy","1024","2","48000","-16","BA_m21","137","odd","FILL_W","BAKE","2558","177808","176225","173007","153148","NA","NA","NA","NA","177800","176722","NA","175725","NA","175717","177800","2569","178108","NA","NA","176808","2558","2558","177200","175717","2558","176808","178108","morph21_Oliver/Morris","5","5546","7","yes","1280","29"
"400","62.5","62.5","817.875","817.875","black","no","xpyriment","legacy","legacy","0","204","NA","uniform","63420","1000","0.0157678965626","0","undefined","0","0","7","7","7","0","7","7","7","NA","7","7","0","7","NA","7","7","0","7","NA","7","NA","7","0","0","7","7","0","7","7","8","z","09/27/18 16:15:21","The main experiment item","yes","FIN__BA__M21__7%3A10%3A17.osexp","C:\Users\ERP Testing Room\Desktop\Joanna\morph21","no","mono","no","18","no","white","no","yes","1080","legacy","7","7","C:/Users/ERP Testing Room/Desktop/Joanna/morph21/subject-137.csv","xpyriment","Jazzy James","3.1.4","0","None","NA","NA","NA","NA","space","None","997","NA","NA","NA","NA","150579","997","2","legacy","1024","2","48000","-16","BA_m21","137","odd","NW_L_COMP","COLDIDY","2558","180867","179267","173007","153148","NA","NA","NA","NA","177800","179764","NA","178767","NA","178760","180864","2569","181267","NA","NA","179867","2558","2558","180267","178760","2558","179867","181267","morph21_Oliver/Morris","5","6543","8","yes","1280","10"
"400","66.6666666667","66.6666666667","818","818","black","no","xpyriment","legacy","legacy","0","201","NA","uniform","67035","1000","0.0149175803685","1","undefined","1","0","8","8","8","0","8","8","8","NA","8","8","0","8","NA","8","8","0","8","NA","8","NA","8","0","0","8","8","0","8","8","9","/","09/27/18 16:15:21","The main experiment item","yes","FIN__BA__M21__7%3A10%3A17.osexp","C:\Users\ERP Testing Room\Desktop\Joanna\morph21","no","mono","no","18","no","white","no","yes","1080","legacy","8","8","C:/Users/ERP Testing Room/Desktop/Joanna/morph21/subject-137.csv","xpyriment","Jazzy James","3.1.4","0","/","NA","NA","NA","NA","space","/","819","NA","NA","NA","NA","150579","819","2","legacy","1024","2","48000","-16","BA_m21","137","odd","CW_S","RAIDER","2558","185517","182417","184009","153148","NA","NA","NA","NA","183999","182914","NA","181917","NA","181908","183999","2569","185917","NA","NA","183009","2558","2558","183400","181908","2558","183009","185917","morph21_Oliver/Morris","6","7362","9","yes","1280","12"
"250","70","70","804","804","black","no","xpyriment","legacy","legacy","0","207","NA","uniform","69104","1000","0.0144709423478","1","undefined","1","0","9","9","9","0","9","9","9","NA","9","9","0","9","NA","9","9","0","9","NA","9","NA","9","0","0","9","9","0","9","9","10","/","09/27/18 16:15:21","The main experiment item","yes","FIN__BA__M21__7%3A10%3A17.osexp","C:\Users\ERP Testing Room\Desktop\Joanna\morph21","no","mono","no","18","no","white","no","yes","1080","legacy","9","9","C:/Users/ERP Testing Room/Desktop/Joanna/morph21/subject-137.csv","xpyriment","Jazzy James","3.1.4","0","/","NA","NA","NA","NA","space","/","678","NA","NA","NA","NA","150579","678","2","legacy","1024","2","48000","-16","BA_m21","137","odd","FILL_W","WEAVE","2558","188725","187125","184009","153148","NA","NA","NA","NA","188722","187623","NA","186625","NA","186614","188722","2569","188976","NA","NA","187734","2558","2558","188125","186614","2558","187734","188976","morph21_Oliver/Morris","7","8040","10","yes","1280","12"
"200","72.7272727273","72.7272727273","789.454545455","789.454545455","black","no","xpyriment","legacy","legacy","0","202","NA","uniform","75437","1000","0.0132560944894","1","undefined","1","0","10","10","10","0","10","10","10","NA","10","10","0","10","NA","10","10","0","10","NA","10","NA","10","0","0","10","10","0","10","10","11","/","09/27/18 16:15:21","The main experiment item","yes","FIN__BA__M21__7%3A10%3A17.osexp","C:\Users\ERP Testing Room\Desktop\Joanna\morph21","no","mono","no","18","no","white","no","yes","1080","legacy","10","10","C:/Users/ERP Testing Room/Desktop/Joanna/morph21/subject-137.csv","xpyriment","Jazzy James","3.1.4","0","/","NA","NA","NA","NA","space","/","644","NA","NA","NA","NA","150579","644","2","legacy","1024","2","48000","-16","BA_m21","137","odd","CW_L","COLLECTOR","2558","191751","190167","184009","153148","NA","NA","NA","NA","191744","190664","NA","189667","NA","189657","191744","2569","191951","NA","NA","190751","2558","2558","191142","189657","2558","190751","191951","morph21_Oliver/Morris","8","8684","11","yes","1280","46"
"400","75","75","779.166666667","779.166666667","black","no","xpyriment","legacy","legacy","0","201","NA","uniform","72018","1000","0.0138854175345","1","undefined","1","0","11","11","11","0","11","11","11","NA","11","11","0","11","NA","11","11","0","11","NA","11","NA","11","0","0","11","11","0","11","11","12","/","09/27/18 16:15:21","The main experiment item","yes","FIN__BA__M21__7%3A10%3A17.osexp","C:\Users\ERP Testing Room\Desktop\Joanna\morph21","no","mono","no","18","no","white","no","yes","1080","legacy","11","11","C:/Users/ERP Testing Room/Desktop/Joanna/morph21/subject-137.csv","xpyriment","Jazzy James","3.1.4","0","/","NA","NA","NA","NA","space","/","666","NA","NA","NA","NA","150579","666","2","legacy","1024","2","48000","-16","BA_m21","137","odd","CW_S","DIETARY","2558","196310","193210","194802","153148","NA","NA","NA","NA","194798","193707","NA","192710","NA","192702","194798","2569","196710","NA","NA","193810","2558","2558","194202","192702","2558","193810","196710","morph21_Oliver/Morris","9","9350","12","yes","1280","6"
"200","76.9230769231","76.9230769231","788.692307692","788.692307692","black","no","xpyriment","legacy","legacy","0","208","NA","uniform","63473","1000","0.0157547303578","1","undefined","1","0","12","12","12","0","12","12","12","NA","12","12","0","12","NA","12","12","0","12","NA","12","NA","12","0","0","12","12","0","12","12","13","z","09/27/18 16:15:21","The main experiment item","yes","FIN__BA__M21__7%3A10%3A17.osexp","C:\Users\ERP Testing Room\Desktop\Joanna\morph21","no","mono","no","18","no","white","no","yes","1080","legacy","12","12","C:/Users/ERP Testing Room/Desktop/Joanna/morph21/subject-137.csv","xpyriment","Jazzy James","3.1.4","0","z","NA","NA","NA","NA","space","z","903","NA","NA","NA","NA","150579","903","2","legacy","1024","2","48000","-16","BA_m21","137","odd","FILL_NW","HOITS","2558","199469","197877","194802","153148","NA","NA","NA","NA","199466","198374","NA","197377","NA","197373","199466","2569","199669","NA","NA","198477","2558","2558","198869","197373","2558","198477","199669","morph21_Oliver/Morris","10","10253","13","yes","1280","30"
"300","78.5714285714","78.5714285714","785.357142857","785.357142857","black","no","xpyriment","legacy","legacy","0","208","NA","uniform","64087","1000","0.0156037885999","1","undefined","1","0","13","13","13","0","13","13","13","NA","13","13","0","13","NA","13","13","0","13","NA","13","NA","13","0","0","13","13","0","13","13","14","z","09/27/18 16:15:21","The main experiment item","yes","FIN__BA__M21__7%3A10%3A17.osexp","C:\Users\ERP Testing Room\Desktop\Joanna\morph21","no","mono","no","18","no","white","no","yes","1080","legacy","13","13","C:/Users/ERP Testing Room/Desktop/Joanna/morph21/subject-137.csv","xpyriment","Jazzy James","3.1.4","0","z","NA","NA","NA","NA","space","z","742","NA","NA","NA","NA","150579","742","2","legacy","1024","2","48000","-16","BA_m21","137","odd","FILL_NW","TREMP","2558","202485","200894","194802","153148","NA","NA","NA","NA","202480","201391","NA","200394","NA","200383","202480","2569","202785","NA","NA","201486","2558","2558","201877","200383","2558","201485","202785","morph21_Oliver/Morris","11","10995","14","yes","1280","20"
"300","80","80","772.133333333","772.133333333","black","no","xpyriment","legacy","legacy","0","202","NA","uniform","73778","1000","0.0135541760416","1","undefined","1","0","14","14","14","0","14","14","14","NA","14","14","0","14","NA","14","14","0","14","NA","14","NA","14","0","0","14","14","0","14","14","15","/","09/27/18 16:15:21","The main experiment item","yes","FIN__BA__M21__7%3A10%3A17.osexp","C:\Users\ERP Testing Room\Desktop\Joanna\morph21","no","mono","no","18","no","white","no","yes","1080","legacy","14","14","C:/Users/ERP Testing Room/Desktop/Joanna/morph21/subject-137.csv","xpyriment","Jazzy James","3.1.4","0","/","NA","NA","NA","NA","space","/","587","NA","NA","NA","NA","150579","587","2","legacy","1024","2","48000","-16","BA_m21","137","odd","CW_L","COMPOSER","2558","207069","203977","205561","153148","NA","NA","NA","NA","205553","204474","NA","203477","NA","203466","205553","2569","207369","NA","NA","204561","2558","2558","204952","203466","2558","204561","207369","morph21_Oliver/Morris","12","11582","15","yes","1280","6"
"250","81.25","81.25","769.125","769.125","black","no","xpyriment","legacy","legacy","0","208","NA","uniform","67922","1000","0.0147227702364","1","undefined","1","0","15","15","15","0","15","15","15","NA","15","15","0","15","NA","15","15","0","15","NA","15","NA","15","0","0","15","15","0","15","15","16","z","09/27/18 16:15:21","The main experiment item","yes","FIN__BA__M21__7%3A10%3A17.osexp","C:\Users\ERP Testing Room\Desktop\Joanna\morph21","no","mono","no","18","no","white","no","yes","1080","legacy","15","15","C:/Users/ERP Testing Room/Desktop/Joanna/morph21/subject-137.csv","xpyriment","Jazzy James","3.1.4","0","z","NA","NA","NA","NA","space","z","724","NA","NA","NA","NA","150579","724","2","legacy","1024","2","48000","-16","BA_m21","137","odd","FILL_NW","PHEEKS","2558","210137","208544","205561","153148","NA","NA","NA","NA","210128","209041","NA","208044","NA","208034","210128","2569","210387","NA","NA","209136","2558","2558","209527","208034","2558","209136","210387","morph21_Oliver/Morris","13","12306","16","yes","1280","35"
"300","82.3529411765","82.3529411765","765.823529412","765.823529412","black","no","xpyriment","legacy","legacy","0","204","NA","uniform","73365","1000","0.0136304777482","1","undefined","1","0","16","16","16","0","16","16","16","NA","16","16","0","16","NA","16","16","0","16","NA","16","NA","16","0","0","16","16","0","16","16","17","z","09/27/18 16:15:21","The main experiment item","yes","FIN__BA__M21__7%3A10%3A17.osexp","C:\Users\ERP Testing Room\Desktop\Joanna\morph21","no","mono","no","18","no","white","no","yes","1080","legacy","16","16","C:/Users/ERP Testing Room/Desktop/Joanna/morph21/subject-137.csv","xpyriment","Jazzy James","3.1.4","0","z","NA","NA","NA","NA","space","z","713","NA","NA","NA","NA","150579","713","2","legacy","1024","2","48000","-16","BA_m21","137","odd","NW_L_COMP","IME","2558","213187","211612","205561","153148","NA","NA","NA","NA","213183","212109","NA","211112","NA","211108","213183","2569","213487","NA","NA","212187","2558","2558","212587","211108","2558","212187","213487","morph21_Oliver/Morris","14","13019","17","yes","1280","20"
"300","83.3333333333","83.3333333333","773.666666667","773.666666667","black","no","xpyriment","legacy","legacy","0","202","NA","uniform","62344","1000","0.0160400359297","1","undefined","1","0","17","17","17","0","17","17","17","NA","17","17","0","17","NA","17","17","0","17","NA","17","NA","17","0","0","17","17","0","17","17","18","/","09/27/18 16:15:21","The main experiment item","yes","FIN__BA__M21__7%3A10%3A17.osexp","C:\Users\ERP Testing Room\Desktop\Joanna\morph21","no","mono","no","18","no","white","no","yes","1080","legacy","17","17","C:/Users/ERP Testing Room/Desktop/Joanna/morph21/subject-137.csv","xpyriment","Jazzy James","3.1.4","0","/","NA","NA","NA","NA","space","/","907","NA","NA","NA","NA","150579","907","2","legacy","1024","2","48000","-16","BA_m21","137","odd","CW_L","WEEDY","2558","217854","214762","216345","153148","NA","NA","NA","NA","216335","215259","NA","214262","NA","214252","216335","2569","218154","NA","NA","215345","2558","2558","215737","214252","2558","215345","218154","morph21_Oliver/Morris","15","13926","18","yes","1280","48"
"200","84.2105263158","84.2105263158","772.684210526","772.684210526","black","no","xpyriment","legacy","legacy","0","208","NA","uniform","71560","1000","0.0139742873113","1","undefined","1","0","18","18","18","0","18","18","18","NA","18","18","0","18","NA","18","18","0","18","NA","18","NA","18","0","0","18","18","0","18","18","19","z","09/27/18 16:15:21","The main experiment item","yes","FIN__BA__M21__7%3A10%3A17.osexp","C:\Users\ERP Testing Room\Desktop\Joanna\morph21","no","mono","no","18","no","white","no","yes","1080","legacy","18","18","C:/Users/ERP Testing Room/Desktop/Joanna/morph21/subject-137.csv","xpyriment","Jazzy James","3.1.4","0","z","NA","NA","NA","NA","space","z","755","NA","NA","NA","NA","150579","755","2","legacy","1024","2","48000","-16","BA_m21","137","odd","FILL_NW","PUCTS","2558","220929","219346","216345","153148","NA","NA","NA","NA","220921","219843","NA","218846","NA","218839","220921","2569","221129","NA","NA","219929","2558","2558","220321","218839","2558","219929","221129","morph21_Oliver/Morris","16","14681","19","yes","1280","40"
"400","85","85","780.55","780.55","black","no","xpyriment","legacy","legacy","0","204","NA","uniform","56004","1000","0.017855867438","1","undefined","1","0","19","19","19","0","19","19","19","NA","19","19","0","19","NA","19","19","0","19","NA","19","NA","19","0","0","19","19","0","19","19","20","z","09/27/18 16:15:21","The main experiment item","yes","FIN__BA__M21__7%3A10%3A17.osexp","C:\Users\ERP Testing Room\Desktop\Joanna\morph21","no","mono","no","18","no","white","no","yes","1080","legacy","19","19","C:/Users/ERP Testing Room/Desktop/Joanna/morph21/subject-137.csv","xpyriment","Jazzy James","3.1.4","0","z","NA","NA","NA","NA","space","z","930","NA","NA","NA","NA","150579","930","2","legacy","1024","2","48000","-16","BA_m21","137","odd","NW_L_COMP","FLITENGE","2558","223954","222346","216345","153148","NA","NA","NA","NA","223948","222843","NA","221846","NA","221835","223948","2569","224354","NA","NA","222954","2558","2558","223346","221835","2558","222954","224354","morph21_Oliver/Morris","17","15611","20","yes","1280","3"
"200","85.7142857143","85.7142857143","768.904761905","768.904761905","black","no","xpyriment","legacy","legacy","0","202","NA","uniform","77276","1000","0.0129406283969","1","undefined","1","0","20","20","20","0","20","20","20","NA","20","20","0","20","NA","20","20","0","20","NA","20","NA","20","0","0","20","20","0","20","20","21","/","09/27/18 16:15:21","The main experiment item","yes","FIN__BA__M21__7%3A10%3A17.osexp","C:\Users\ERP Testing Room\Desktop\Joanna\morph21","no","mono","no","18","no","white","no","yes","1080","legacy","20","20","C:/Users/ERP Testing Room/Desktop/Joanna/morph21/subject-137.csv","xpyriment","Jazzy James","3.1.4","0","/","NA","NA","NA","NA","space","/","536","NA","NA","NA","NA","150579","536","2","legacy","1024","2","48000","-16","BA_m21","137","odd","CW_L","BOOTLESS","2558","228680","225571","227171","153148","NA","NA","NA","NA","227165","226068","NA","225071","NA","225065","227165","2569","228881","NA","NA","226171","2558","2558","226562","225065","2558","226171","228881","morph21_Oliver/Morris","18","16147","21","yes","1280","32"
"300","81.8181818182","81.8181818182","779.227272727","779.227272727","black","no","xpyriment","legacy","legacy","0","206","NA","uniform","60997","1000","0.0163942488975","0","undefined","0","0","21","21","21","0","21","21","21","NA","21","21","0","21","NA","21","21","0","21","NA","21","NA","21","0","0","21","21","0","21","21","22","z","09/27/18 16:15:21","The main experiment item","yes","FIN__BA__M21__7%3A10%3A17.osexp","C:\Users\ERP Testing Room\Desktop\Joanna\morph21","no","mono","no","18","no","white","no","yes","1080","legacy","21","21","C:/Users/ERP Testing Room/Desktop/Joanna/morph21/subject-137.csv","xpyriment","Jazzy James","3.1.4","0","None","NA","NA","NA","NA","space","None","996","NA","NA","NA","NA","150579","996","2","legacy","1024","2","48000","-16","BA_m21","137","odd","NW_L_SIMP","ELBOWISM","2558","231655","230055","227171","153148","NA","NA","NA","NA","227165","230552","NA","229555","NA","229552","231651","2569","231955","NA","NA","230655","2558","2558","231055","229552","2558","230655","231955","morph21_Oliver/Morris","18","17143","22","yes","1280","10"
"250","82.6086956522","82.6086956522","770.304347826","770.304347826","black","no","xpyriment","legacy","legacy","0","202","NA","uniform","74345","1000","0.0134508036855","1","undefined","1","0","22","22","22","0","22","22","22","NA","22","22","0","22","NA","22","22","0","22","NA","22","NA","22","0","0","22","22","0","22","22","23","/","09/27/18 16:15:21","The main experiment item","yes","FIN__BA__M21__7%3A10%3A17.osexp","C:\Users\ERP Testing Room\Desktop\Joanna\morph21","no","mono","no","18","no","white","no","yes","1080","legacy","22","22","C:/Users/ERP Testing Room/Desktop/Joanna/morph21/subject-137.csv","xpyriment","Jazzy James","3.1.4","0","/","NA","NA","NA","NA","space","/","574","NA","NA","NA","NA","150579","574","2","legacy","1024","2","48000","-16","BA_m21","137","odd","CW_L","STRIKER","2558","234806","233197","227171","153148","NA","NA","NA","NA","234803","233694","NA","232697","NA","232689","234803","2569","235056","NA","NA","233814","2558","2558","234205","232689","2558","233814","235056","morph21_Oliver/Morris","19","17717","23","yes","1280","17"
"350","83.3333333333","83.3333333333","762.75","762.75","black","no","xpyriment","legacy","legacy","0","207","NA","uniform","72530","1000","0.0137873983179","1","undefined","1","0","23","23","23","0","23","23","23","NA","23","23","0","23","NA","23","23","0","23","NA","23","NA","23","0","0","23","23","0","23","23","24","/","09/27/18 16:15:21","The main experiment item","yes","FIN__BA__M21__7%3A10%3A17.osexp","C:\Users\ERP Testing Room\Desktop\Joanna\morph21","no","mono","no","18","no","white","no","yes","1080","legacy","23","23","C:/Users/ERP Testing Room/Desktop/Joanna/morph21/subject-137.csv","xpyriment","Jazzy James","3.1.4","0","/","NA","NA","NA","NA","space","/","589","NA","NA","NA","NA","150579","589","2","legacy","1024","2","48000","-16","BA_m21","137","odd","FILL_W","LIFT","2558","239356","236247","237847","153148","NA","NA","NA","NA","237837","236744","NA","235747","NA","235741","237837","2569","239706","NA","NA","236847","2558","2558","237239","235741","2558","236847","239706","morph21_Oliver/Morris","20","18306","24","yes","1280","39"
"300","84","84","760.76","760.76","black","no","xpyriment","legacy","legacy","0","201","NA","uniform","73222","1000","0.0136570975936","1","undefined","1","0","24","24","24","0","24","24","24","NA","24","24","0","24","NA","24","24","0","24","NA","24","NA","24","0","0","24","24","0","24","24","25","/","09/27/18 16:15:21","The main experiment item","yes","FIN__BA__M21__7%3A10%3A17.osexp","C:\Users\ERP Testing Room\Desktop\Joanna\morph21","no","mono","no","18","no","white","no","yes","1080","legacy","24","24","C:/Users/ERP Testing Room/Desktop/Joanna/morph21/subject-137.csv","xpyriment","Jazzy James","3.1.4","0","/","NA","NA","NA","NA","space","/","713","NA","NA","NA","NA","150579","713","2","legacy","1024","2","48000","-16","BA_m21","137","odd","CW_S","INSISTENT","2558","242539","240931","237847","153148","NA","NA","NA","NA","242533","241428","NA","240431","NA","240425","242533","2569","242839","NA","NA","241539","2558","2558","241931","240425","2558","241539","242839","morph21_Oliver/Morris","21","19019","25","yes","1280","9"
"300","84.6153846154","84.6153846154","762.730769231","762.730769231","black","no","xpyriment","legacy","legacy","0","205","NA","uniform","69401","1000","0.0144090142793","1","undefined","1","0","25","25","25","0","25","25","25","NA","25","25","0","25","NA","25","25","0","25","NA","25","NA","25","0","0","25","25","0","25","25","26","z","09/27/18 16:15:21","The main experiment item","yes","FIN__BA__M21__7%3A10%3A17.osexp","C:\Users\ERP Testing Room\Desktop\Joanna\morph21","no","mono","no","18","no","white","no","yes","1080","legacy","25","25","C:/Users/ERP Testing Room/Desktop/Joanna/morph21/subject-137.csv","xpyriment","Jazzy James","3.1.4","0","z","NA","NA","NA","NA","space","z","812","NA","NA","NA","NA","150579","812","2","legacy","1024","2","48000","-16","BA_m21","137","odd","NW_S_SIMP","BOLTOUS","2558","245657","244056","237847","153148","NA","NA","NA","NA","245647","244553","NA","243556","NA","243547","245647","2569","245957","NA","NA","244656","2558","2558","245049","243547","2558","244656","245957","morph21_Oliver/Morris","22","19831","26","yes","1280","13"
"250","85.1851851852","85.1851851852","759.333333333","759.333333333","black","no","xpyriment","legacy","legacy","0","207","NA","uniform","69686","1000","0.0143500846655","1","undefined","1","0","26","26","26","0","26","26","26","NA","26","26","0","26","NA","26","26","0","26","NA","26","NA","26","0","0","26","26","0","26","26","27","/","09/27/18 16:15:21","The main experiment item","yes","FIN__BA__M21__7%3A10%3A17.osexp","C:\Users\ERP Testing Room\Desktop\Joanna\morph21","no","mono","no","18","no","white","no","yes","1080","legacy","26","26","C:/Users/ERP Testing Room/Desktop/Joanna/morph21/subject-137.csv","xpyriment","Jazzy James","3.1.4","0","/","NA","NA","NA","NA","space","/","671","NA","NA","NA","NA","150579","671","2","legacy","1024","2","48000","-16","BA_m21","137","odd","FILL_W","SLIM","2558","250266","247140","248757","153148","NA","NA","NA","NA","248752","247638","NA","246640","NA","246634","248752","2569","250516","NA","NA","247757","2558","2558","248157","246633","2558","247757","250516","morph21_Oliver/Morris","23","20502","27","yes","1280","6"
"350","85.7142857143","85.7142857143","758.464285714","758.464285714","black","no","xpyriment","legacy","legacy","0","203","NA","uniform","67704","1000","0.0147701760605","1","undefined","1","0","27","27","27","0","27","27","27","NA","27","27","0","27","NA","27","27","0","27","NA","27","NA","27","0","0","27","27","0","27","27","28","z","09/27/18 16:15:21","The main experiment item","yes","FIN__BA__M21__7%3A10%3A17.osexp","C:\Users\ERP Testing Room\Desktop\Joanna\morph21","no","mono","no","18","no","white","no","yes","1080","legacy","27","27","C:/Users/ERP Testing Room/Desktop/Joanna/morph21/subject-137.csv","xpyriment","Jazzy James","3.1.4","0","z","NA","NA","NA","NA","space","z","735","NA","NA","NA","NA","150579","735","2","legacy","1024","2","48000","-16","BA_m21","137","odd","NW_S_COMP","WELDIG","2558","253357","251774","248757","153148","NA","NA","NA","NA","253351","252271","NA","251274","NA","251262","253351","2569","253707","NA","NA","252357","2558","2558","252749","251262","2558","252357","253707","morph21_Oliver/Morris","24","21237","28","yes","1280","21"
"300","86.2068965517","86.2068965517","758.275862069","758.275862069","black","no","xpyriment","legacy","legacy","0","205","NA","uniform","59263","1000","0.0168739348329","1","undefined","1","0","28","28","28","0","28","28","28","NA","28","28","0","28","NA","28","28","0","28","NA","28","NA","28","0","0","28","28","0","28","28","29","z","09/27/18 16:15:21","The main experiment item","yes","FIN__BA__M21__7%3A10%3A17.osexp","C:\Users\ERP Testing Room\Desktop\Joanna\morph21","no","mono","no","18","no","white","no","yes","1080","legacy","28","28","C:/Users/ERP Testing Room/Desktop/Joanna/morph21/subject-137.csv","xpyriment","Jazzy James","3.1.4","0","z","NA","NA","NA","NA","space","z","753","NA","NA","NA","NA","150579","753","2","legacy","1024","2","48000","-16","BA_m21","137","odd","NW_S_SIMP","HEIRIC","2558","256491","254899","248757","153148","NA","NA","NA","NA","256487","255396","NA","254399","NA","254389","256487","2569","256791","NA","NA","255499","2558","2558","255891","254389","2558","255499","256791","morph21_Oliver/Morris","25","21990","29","yes","1280","3"
"250","86.6666666667","86.6666666667","749.766666667","749.766666667","black","no","xpyriment","legacy","legacy","0","201","NA","uniform","80435","1000","0.0124323988314","1","undefined","1","0","29","29","29","0","29","29","29","NA","29","29","0","29","NA","29","29","0","29","NA","29","NA","29","0","0","29","29","0","29","29","30","/","09/27/18 16:15:21","The main experiment item","yes","FIN__BA__M21__7%3A10%3A17.osexp","C:\Users\ERP Testing Room\Desktop\Joanna\morph21","no","mono","no","18","no","white","no","yes","1080","legacy","29","29","C:/Users/ERP Testing Room/Desktop/Joanna/morph21/subject-137.csv","xpyriment","Jazzy James","3.1.4","0","/","NA","NA","NA","NA","space","/","503","NA","NA","NA","NA","150579","503","2","legacy","1024","2","48000","-16","BA_m21","137","odd","CW_S","PLANNER","2558","261058","257966","259549","153148","NA","NA","NA","NA","259543","258463","NA","257466","NA","257461","259543","2569","261308","NA","NA","258549","2558","2558","258941","257461","2558","258549","261308","morph21_Oliver/Morris","26","22493","30","yes","1280","22"
"200","83.8709677419","83.8709677419","757.548387097","757.548387097","black","no","xpyriment","legacy","legacy","0","208","NA","uniform","63633","1000","0.0157151163704","0","undefined","0","0","30","30","30","0","30","30","30","NA","30","30","0","30","NA","30","30","0","30","NA","30","NA","30","0","0","30","30","0","30","30","31","z","09/27/18 16:15:21","The main experiment item","yes","FIN__BA__M21__7%3A10%3A17.osexp","C:\Users\ERP Testing Room\Desktop\Joanna\morph21","no","mono","no","18","no","white","no","yes","1080","legacy","30","30","C:/Users/ERP Testing Room/Desktop/Joanna/morph21/subject-137.csv","xpyriment","Jazzy James","3.1.4","0","None","NA","NA","NA","NA","space","None","991","NA","NA","NA","NA","150579","991","2","legacy","1024","2","48000","-16","BA_m21","137","odd","FILL_NW","FROT","2558","264142","262559","259549","153148","NA","NA","NA","NA","259543","263056","NA","262058","NA","262048","264133","2569","264342","NA","NA","263142","2558","2558","263534","262048","2558","263142","264342","morph21_Oliver/Morris","26","23484","31","yes","1280","22"
"250","81.25","81.25","754.15625","754.15625","black","no","xpyriment","legacy","legacy","0","206","NA","uniform","75501","1000","0.013244857684","0","undefined","0","0","31","31","31","0","31","31","31","NA","31","31","0","31","NA","31","31","0","31","NA","31","NA","31","0","0","31","31","0","31","31","32","z","09/27/18 16:15:21","The main experiment item","yes","FIN__BA__M21__7%3A10%3A17.osexp","C:\Users\ERP Testing Room\Desktop\Joanna\morph21","no","mono","no","18","no","white","no","yes","1080","legacy","31","31","C:/Users/ERP Testing Room/Desktop/Joanna/morph21/subject-137.csv","xpyriment","Jazzy James","3.1.4","0","/","NA","NA","NA","NA","space","/","649","NA","NA","NA","NA","150579","649","2","legacy","1024","2","48000","-16","BA_m21","137","odd","NW_L_SIMP","SMOOTHFUL","2558","267051","265467","259549","153148","NA","NA","NA","NA","259543","265964","NA","264967","NA","264964","267043","2569","267301","NA","NA","266051","2558","2558","266442","264964","2558","266051","267301","morph21_Oliver/Morris","26","24133","32","yes","1280","19"
"400","81.8181818182","81.8181818182","750.727272727","750.727272727","black","no","xpyriment","legacy","legacy","0","207","NA","uniform","73306","1000","0.0136414481761","1","undefined","1","0","32","32","32","0","32","32","32","NA","32","32","0","32","NA","32","32","0","32","NA","32","NA","32","0","0","32","32","0","32","32","33","/","09/27/18 16:15:21","The main experiment item","yes","FIN__BA__M21__7%3A10%3A17.osexp","C:\Users\ERP Testing Room\Desktop\Joanna\morph21","no","mono","no","18","no","white","no","yes","1080","legacy","32","32","C:/Users/ERP Testing Room/Desktop/Joanna/morph21/subject-137.csv","xpyriment","Jazzy James","3.1.4","0","/","NA","NA","NA","NA","space","/","641","NA","NA","NA","NA","150579","641","2","legacy","1024","2","48000","-16","BA_m21","137","odd","FILL_W","CRUNCH","2558","271568","268451","270059","153148","NA","NA","NA","NA","270049","268948","NA","267951","NA","267941","270049","2569","271968","NA","NA","269059","2558","2558","269451","267941","2558","269059","271968","morph21_Oliver/Morris","27","24774","33","yes","1280","20"
"350","82.3529411765","82.3529411765","745.911764706","745.911764706","black","no","xpyriment","legacy","legacy","0","207","NA","uniform","68656","1000","0.0145653693778","1","undefined","1","0","33","33","33","0","33","33","33","NA","33","33","0","33","NA","33","33","0","33","NA","33","NA","33","0","0","33","33","0","33","33","34","/","09/27/18 16:15:21","The main experiment item","yes","FIN__BA__M21__7%3A10%3A17.osexp","C:\Users\ERP Testing Room\Desktop\Joanna\morph21","no","mono","no","18","no","white","no","yes","1080","legacy","33","33","C:/Users/ERP Testing Room/Desktop/Joanna/morph21/subject-137.csv","xpyriment","Jazzy James","3.1.4","0","/","NA","NA","NA","NA","space","/","587","NA","NA","NA","NA","150579","587","2","legacy","1024","2","48000","-16","BA_m21","137","odd","FILL_W","WEIRD","2558","274801","273218","270059","153148","NA","NA","NA","NA","274795","273715","NA","272718","NA","272708","274795","2569","275151","NA","NA","273801","2558","2558","274193","272708","2558","273801","275151","morph21_Oliver/Morris","28","25361","34","yes","1280","2"
"300","82.8571428571","82.8571428571","746.571428571","746.571428571","black","no","xpyriment","legacy","legacy","0","208","NA","uniform","71033","1000","0.0140779637633","1","undefined","1","0","34","34","34","0","34","34","34","NA","34","34","0","34","NA","34","34","0","34","NA","34","NA","34","0","0","34","34","0","34","34","35","z","09/27/18 16:15:21","The main experiment item","yes","FIN__BA__M21__7%3A10%3A17.osexp","C:\Users\ERP Testing Room\Desktop\Joanna\morph21","no","mono","no","18","no","white","no","yes","1080","legacy","34","34","C:/Users/ERP Testing Room/Desktop/Joanna/morph21/subject-137.csv","xpyriment","Jazzy James","3.1.4","0","z","NA","NA","NA","NA","space","z","769","NA","NA","NA","NA","150579","769","2","legacy","1024","2","48000","-16","BA_m21","137","odd","FILL_NW","VOGS","2558","278043","276443","270059","153148","NA","NA","NA","NA","278040","276940","NA","275943","NA","275935","278040","2569","278343","NA","NA","277043","2558","2558","277443","275935","2558","277043","278343","morph21_Oliver/Morris","29","26130","35","yes","1280","47"
"250","83.3333333333","83.3333333333","746.861111111","746.861111111","black","no","xpyriment","legacy","legacy","0","208","NA","uniform","69259","1000","0.0144385567219","1","undefined","1","0","35","35","35","0","35","35","35","NA","35","35","0","35","NA","35","35","0","35","NA","35","NA","35","0","0","35","35","0","35","35","36","z","09/27/18 16:15:21","The main experiment item","yes","FIN__BA__M21__7%3A10%3A17.osexp","C:\Users\ERP Testing Room\Desktop\Joanna\morph21","no","mono","no","18","no","white","no","yes","1080","legacy","35","35","C:/Users/ERP Testing Room/Desktop/Joanna/morph21/subject-137.csv","xpyriment","Jazzy James","3.1.4","0","z","NA","NA","NA","NA","space","z","757","NA","NA","NA","NA","150579","757","2","legacy","1024","2","48000","-16","BA_m21","137","odd","FILL_NW","PLAODS","2558","282619","279510","281111","153148","NA","NA","NA","NA","281107","280007","NA","279010","NA","279001","281107","2569","282869","NA","NA","280119","2558","2558","280511","279001","2558","280119","282869","morph21_Oliver/Morris","30","26887","36","yes","1280","37"
"250","83.7837837838","83.7837837838","748.864864865","748.864864865","black","no","xpyriment","legacy","legacy","0","206","NA","uniform","64101","1000","0.0156003806493","1","undefined","1","0","36","36","36","0","36","36","36","NA","36","36","0","36","NA","36","36","0","36","NA","36","NA","36","0","0","36","36","0","36","36","37","z","09/27/18 16:15:21","The main experiment item","yes","FIN__BA__M21__7%3A10%3A17.osexp","C:\Users\ERP Testing Room\Desktop\Joanna\morph21","no","mono","no","18","no","white","no","yes","1080","legacy","36","36","C:/Users/ERP Testing Room/Desktop/Joanna/morph21/subject-137.csv","xpyriment","Jazzy James","3.1.4","0","z","NA","NA","NA","NA","space","z","821","NA","NA","NA","NA","150579","821","2","legacy","1024","2","48000","-16","BA_m21","137","odd","NW_L_SIMP"," DRESSORY","2558","285719","284127","281111","153148","NA","NA","NA","NA","285715","284625","NA","283627","NA","283622","285715","2569","285969","NA","NA","284727","2558","2558","285119","283622","2558","284727","285969","morph21_Oliver/Morris","31","27708","37","yes","1280","21"
"350","84.2105263158","84.2105263158","746.131578947","746.131578947","black","no","xpyriment","legacy","legacy","0","202","NA","uniform","72230","1000","0.0138446628825","1","undefined","1","0","37","37","37","0","37","37","37","NA","37","37","0","37","NA","37","37","0","37","NA","37","NA","37","0","0","37","37","0","37","37","38","/","09/27/18 16:15:21","The main experiment item","yes","FIN__BA__M21__7%3A10%3A17.osexp","C:\Users\ERP Testing Room\Desktop\Joanna\morph21","no","mono","no","18","no","white","no","yes","1080","legacy","37","37","C:/Users/ERP Testing Room/Desktop/Joanna/morph21/subject-137.csv","xpyriment","Jazzy James","3.1.4","0","/","NA","NA","NA","NA","space","/","645","NA","NA","NA","NA","150579","645","2","legacy","1024","2","48000","-16","BA_m21","137","odd","CW_L","PARKING","2558","288711","287136","281111","153148","NA","NA","NA","NA","288708","287633","NA","286636","NA","286626","288708","2569","289061","NA","NA","287711","2558","2558","288111","286626","2558","287711","289061","morph21_Oliver/Morris","32","28353","38","yes","1280","25"
"350","84.6153846154","84.6153846154","746.564102564","746.564102564","black","no","xpyriment","legacy","legacy","0","201","NA","uniform","65777","1000","0.0152028824665","1","undefined","1","0","38","38","38","0","38","38","38","NA","38","38","0","38","NA","38","38","0","38","NA","38","NA","38","0","0","38","38","0","38","38","39","/","09/27/18 16:15:21","The main experiment item","yes","FIN__BA__M21__7%3A10%3A17.osexp","C:\Users\ERP Testing Room\Desktop\Joanna\morph21","no","mono","no","18","no","white","no","yes","1080","legacy","38","38","C:/Users/ERP Testing Room/Desktop/Joanna/morph21/subject-137.csv","xpyriment","Jazzy James","3.1.4","0","/","NA","NA","NA","NA","space","/","763","NA","NA","NA","NA","150579","763","2","legacy","1024","2","48000","-16","BA_m21","137","odd","CW_S","RICHNESS","2558","293461","290361","291953","153148","NA","NA","NA","NA","291950","290858","NA","289861","NA","289857","291950","2569","293811","NA","NA","290961","2558","2558","291353","289857","2558","290961","293811","morph21_Oliver/Morris","33","29116","39","yes","1280","45"
"400","85","85","745.85","745.85","black","no","xpyriment","legacy","legacy","0","203","NA","uniform","67667","1000","0.0147782523239","1","undefined","1","0","39","39","39","0","39","39","39","NA","39","39","0","39","NA","39","39","0","39","NA","39","NA","39","0","0","39","39","0","39","39","40","z","09/27/18 16:15:21","The main experiment item","yes","FIN__BA__M21__7%3A10%3A17.osexp","C:\Users\ERP Testing Room\Desktop\Joanna\morph21","no","mono","no","18","no","white","no","yes","1080","legacy","39","39","C:/Users/ERP Testing Room/Desktop/Joanna/morph21/subject-137.csv","xpyriment","Jazzy James","3.1.4","0","z","NA","NA","NA","NA","space","z","718","NA","NA","NA","NA","150579","718","2","legacy","1024","2","48000","-16","BA_m21","137","odd","NW_S_COMP","ALTARIG","2558","296645","295036","291953","153148","NA","NA","NA","NA","296638","295533","NA","294536","NA","294528","296638","2569","297045","NA","NA","295645","2558","2558","296036","294528","2558","295645","297045","morph21_Oliver/Morris","34","29834","40","yes","1280","7"
"350","85.3658536585","85.3658536585","747.170731707","747.170731707","black","no","xpyriment","legacy","legacy","0","202","NA","uniform","60956","1000","0.0164052759367","1","undefined","1","0","40","40","40","0","40","40","40","NA","40","40","0","40","NA","40","40","0","40","NA","40","NA","40","0","0","40","40","0","40","40","41","/","09/27/18 16:15:21","The main experiment item","yes","FIN__BA__M21__7%3A10%3A17.osexp","C:\Users\ERP Testing Room\Desktop\Joanna\morph21","no","mono","no","18","no","white","no","yes","1080","legacy","40","40","C:/Users/ERP Testing Room/Desktop/Joanna/morph21/subject-137.csv","xpyriment","Jazzy James","3.1.4","0","/","NA","NA","NA","NA","space","/","800","NA","NA","NA","NA","150579","800","2","legacy","1024","2","48000","-16","BA_m21","137","odd","CW_L","RENTER","2558","299804","298187","291953","153148","NA","NA","NA","NA","299801","298684","NA","297687","NA","297678","299801","2569","300154","NA","NA","298812","2558","2558","299204","297678","2558","298812","300154","morph21_Oliver/Morris","35","30634","41","yes","1280","9"
"200","83.3333333333","83.3333333333","745.642857143","745.642857143","black","no","xpyriment","legacy","legacy","0","203","NA","uniform","73278","1000","0.0136466606621","0","undefined","0","0","41","41","41","0","41","41","41","NA","41","41","0","41","NA","41","41","0","41","NA","41","NA","41","0","0","41","41","0","41","41","42","z","09/27/18 16:15:21","The main experiment item","yes","FIN__BA__M21__7%3A10%3A17.osexp","C:\Users\ERP Testing Room\Desktop\Joanna\morph21","no","mono","no","18","no","white","no","yes","1080","legacy","41","41","C:/Users/ERP Testing Room/Desktop/Joanna/morph21/subject-137.csv","xpyriment","Jazzy James","3.1.4","0","/","NA","NA","NA","NA","space","/","683","NA","NA","NA","NA","150579","683","2","legacy","1024","2","48000","-16","BA_m21","137","odd","NW_S_COMP","ADOPTISH","2558","304429","301312","302921","153148","NA","NA","NA","NA","299801","301810","NA","300812","NA","300809","302917","2569","304629","NA","NA","301929","2558","2558","302321","300809","2558","301929","304629","morph21_Oliver/Morris","35","31317","42","yes","1280","19"
"250","83.7209302326","83.7209302326","745.674418605","745.674418605","black","no","xpyriment","legacy","legacy","0","204","NA","uniform","69322","1000","0.0144254349269","1","undefined","1","0","42","42","42","0","42","42","42","NA","42","42","0","42","NA","42","42","0","42","NA","42","NA","42","0","0","42","42","0","42","42","43","z","09/27/18 16:15:21","The main experiment item","yes","FIN__BA__M21__7%3A10%3A17.osexp","C:\Users\ERP Testing Room\Desktop\Joanna\morph21","no","mono","no","18","no","white","no","yes","1080","legacy","42","42","C:/Users/ERP Testing Room/Desktop/Joanna/morph21/subject-137.csv","xpyriment","Jazzy James","3.1.4","0","z","NA","NA","NA","NA","space","z","747","NA","NA","NA","NA","150579","747","2","legacy","1024","2","48000","-16","BA_m21","137","odd","NW_L_COMP","BREAKIDY","2558","307504","305896","302921","153148","NA","NA","NA","NA","307501","306393","NA","305396","NA","305388","307501","2569","307754","NA","NA","306513","2558","2558","306904","305388","2558","306513","307754","morph21_Oliver/Morris","36","32064","43","yes","1280","23"
"300","84.0909090909","84.0909090909","743.795454545","743.795454545","black","no","xpyriment","legacy","legacy","0","204","NA","uniform","74163","1000","0.0134838126829","1","undefined","1","0","43","43","43","0","43","43","43","NA","43","43","0","43","NA","43","43","0","43","NA","43","NA","43","0","0","43","43","0","43","43","44","z","09/27/18 16:15:21","The main experiment item","yes","FIN__BA__M21__7%3A10%3A17.osexp","C:\Users\ERP Testing Room\Desktop\Joanna\morph21","no","mono","no","18","no","white","no","yes","1080","legacy","43","43","C:/Users/ERP Testing Room/Desktop/Joanna/morph21/subject-137.csv","xpyriment","Jazzy James","3.1.4","0","z","NA","NA","NA","NA","space","z","663","NA","NA","NA","NA","150579","663","2","legacy","1024","2","48000","-16","BA_m21","137","odd","NW_L_COMP","SHEETEL","2558","310596","308996","302921","153148","NA","NA","NA","NA","310593","309493","NA","308496","NA","308488","310593","2569","310896","NA","NA","309605","2558","2558","309996","308488","2558","309605","310896","morph21_Oliver/Morris","37","32727","44","yes","1280","5"
"400","84.4444444444","84.4444444444","741.022222222","741.022222222","black","no","xpyriment","legacy","legacy","0","202","NA","uniform","72677","1000","0.0137595112622","1","undefined","1","0","44","44","44","0","44","44","44","NA","44","44","0","44","NA","44","44","0","44","NA","44","NA","44","0","0","44","44","0","44","44","45","/","09/27/18 16:15:21","The main experiment item","yes","FIN__BA__M21__7%3A10%3A17.osexp","C:\Users\ERP Testing Room\Desktop\Joanna\morph21","no","mono","no","18","no","white","no","yes","1080","legacy","44","44","C:/Users/ERP Testing Room/Desktop/Joanna/morph21/subject-137.csv","xpyriment","Jazzy James","3.1.4","0","/","NA","NA","NA","NA","space","/","619","NA","NA","NA","NA","150579","619","2","legacy","1024","2","48000","-16","BA_m21","137","odd","CW_L","BLINDNESS","2558","315223","312105","313713","153148","NA","NA","NA","NA","313703","312602","NA","311605","NA","311599","313703","2569","315623","NA","NA","312713","2558","2558","313105","311599","2558","312713","315623","morph21_Oliver/Morris","38","33346","45","yes","1280","40"
"350","84.7826086957","84.7826086957","741.52173913","741.52173913","black","no","xpyriment","legacy","legacy","0","203","NA","uniform","67761","1000","0.014757751509","1","undefined","1","0","45","45","45","0","45","45","45","NA","45","45","0","45","NA","45","45","0","45","NA","45","NA","45","0","0","45","45","0","45","45","46","z","09/27/18 16:15:21","The main experiment item","yes","FIN__BA__M21__7%3A10%3A17.osexp","C:\Users\ERP Testing Room\Desktop\Joanna\morph21","no","mono","no","18","no","white","no","yes","1080","legacy","45","45","C:/Users/ERP Testing Room/Desktop/Joanna/morph21/subject-137.csv","xpyriment","Jazzy James","3.1.4","0","z","NA","NA","NA","NA","space","z","764","NA","NA","NA","NA","150579","764","2","legacy","1024","2","48000","-16","BA_m21","137","odd","NW_S_COMP","HUMIDOES","2558","318456","316881","313713","153148","NA","NA","NA","NA","318452","317378","NA","316381","NA","316376","318452","2569","318806","NA","NA","317456","2558","2558","317856","316376","2558","317456","318806","morph21_Oliver/Morris","39","34110","46","yes","1280","25"
"300","85.1063829787","85.1063829787","737.829787234","737.829787234","black","no","xpyriment","legacy","legacy","0","207","NA","uniform","73681","1000","0.0135720199237","1","undefined","1","0","46","46","46","0","46","46","46","NA","46","46","0","46","NA","46","46","0","46","NA","46","NA","46","0","0","46","46","0","46","46","47","/","09/27/18 16:15:21","The main experiment item","yes","FIN__BA__M21__7%3A10%3A17.osexp","C:\Users\ERP Testing Room\Desktop\Joanna\morph21","no","mono","no","18","no","white","no","yes","1080","legacy","46","46","C:/Users/ERP Testing Room/Desktop/Joanna/morph21/subject-137.csv","xpyriment","Jazzy James","3.1.4","0","/","NA","NA","NA","NA","space","/","568","NA","NA","NA","NA","150579","568","2","legacy","1024","2","48000","-16","BA_m21","137","odd","FILL_W","BLUNT","2558","321548","319964","313713","153148","NA","NA","NA","NA","321542","320461","NA","319464","NA","319454","321542","2569","321848","NA","NA","320548","2558","2558","320939","319454","2558","320548","321848","morph21_Oliver/Morris","40","34678","47","yes","1280","4"
"200","85.4166666667","85.4166666667","736.270833333","736.270833333","black","no","xpyriment","legacy","legacy","0","203","NA","uniform","64976","1000","0.0153902979562","1","undefined","1","0","47","47","47","0","47","47","47","NA","47","47","0","47","NA","47","47","0","47","NA","47","NA","47","0","0","47","47","0","47","47","48","z","09/27/18 16:15:21","The main experiment item","yes","FIN__BA__M21__7%3A10%3A17.osexp","C:\Users\ERP Testing Room\Desktop\Joanna\morph21","no","mono","no","18","no","white","no","yes","1080","legacy","47","47","C:/Users/ERP Testing Room/Desktop/Joanna/morph21/subject-137.csv","xpyriment","Jazzy James","3.1.4","0","z","NA","NA","NA","NA","space","z","663","NA","NA","NA","NA","150579","663","2","legacy","1024","2","48000","-16","BA_m21","137","odd","NW_S_COMP","ELMILT","2558","326081","322989","324573","153148","NA","NA","NA","NA","324568","323487","NA","322489","NA","322484","324568","2569","326281","NA","NA","323573","2558","2558","323973","322484","2558","323573","326281","morph21_Oliver/Morris","41","35341","48","yes","1280","10"
"350","85.7142857143","85.7142857143","738","738","black","no","xpyriment","legacy","legacy","0","202","NA","uniform","58760","1000","0.0170183798502","1","undefined","1","0","48","48","48","0","48","48","48","NA","48","48","0","48","NA","48","48","0","48","NA","48","NA","48","0","0","48","48","0","48","48","49","/","09/27/18 16:15:21","The main experiment item","yes","FIN__BA__M21__7%3A10%3A17.osexp","C:\Users\ERP Testing Room\Desktop\Joanna\morph21","no","mono","no","18","no","white","no","yes","1080","legacy","48","48","C:/Users/ERP Testing Room/Desktop/Joanna/morph21/subject-137.csv","xpyriment","Jazzy James","3.1.4","0","/","NA","NA","NA","NA","space","/","821","NA","NA","NA","NA","150579","821","2","legacy","1024","2","48000","-16","BA_m21","137","odd","CW_L","BOMBER","2558","329031","327448","324573","153148","NA","NA","NA","NA","329027","327945","NA","326948","NA","326944","329027","2569","329381","NA","NA","328031","2558","2558","328431","326944","2558","328031","329381","morph21_Oliver/Morris","42","36162","49","yes","1280","7"
"300","86","86","739.7","739.7","black","no","xpyriment","legacy","legacy","0","201","NA","uniform","68873","1000","0.0145194778796","1","undefined","1","0","49","49","49","0","49","49","49","NA","49","49","0","49","NA","49","49","0","49","NA","49","NA","49","0","0","49","49","0","49","49","50","/","09/27/18 16:15:21","The main experiment item","yes","FIN__BA__M21__7%3A10%3A17.osexp","C:\Users\ERP Testing Room\Desktop\Joanna\morph21","no","mono","no","18","no","white","no","yes","1080","legacy","49","49","C:/Users/ERP Testing Room/Desktop/Joanna/morph21/subject-137.csv","xpyriment","Jazzy James","3.1.4","0","/","NA","NA","NA","NA","space","/","823","NA","NA","NA","NA","150579","823","2","legacy","1024","2","48000","-16","BA_m21","137","odd","CW_S","DETECTABLE","2558","332131","330548","324573","153148","NA","NA","NA","NA","332125","331045","NA","330048","NA","330039","332125","2569","332432","NA","NA","331132","2558","2558","331523","330039","2558","331132","332432","morph21_Oliver/Morris","43","36985","50","yes","1280","1"
"350","86.2745098039","86.2745098039","735.666666667","735.666666667","black","no","xpyriment","legacy","legacy","0","202","NA","uniform","72989","1000","0.0137006946252","1","undefined","1","0","50","50","50","0","50","50","50","NA","50","50","0","50","NA","50","50","0","50","NA","50","NA","50","0","0","50","50","0","50","50","51","/","09/27/18 16:15:21","The main experiment item","yes","FIN__BA__M21__7%3A10%3A17.osexp","C:\Users\ERP Testing Room\Desktop\Joanna\morph21","no","mono","no","18","no","white","no","yes","1080","legacy","50","50","C:/Users/ERP Testing Room/Desktop/Joanna/morph21/subject-137.csv","xpyriment","Jazzy James","3.1.4","0","/","NA","NA","NA","NA","space","/","534","NA","NA","NA","NA","150579","534","2","legacy","1024","2","48000","-16","BA_m21","137","odd","CW_L","PAINTER","2558","336683","333574","335174","153148","NA","NA","NA","NA","335167","334071","NA","333074","NA","333070","335167","2569","337033","NA","NA","334174","2558","2558","334566","333070","2558","334174","337033","morph21_Oliver/Morris","44","37519","51","yes","1280","18"
"400","84.6153846154","84.6153846154","738.019230769","738.019230769","black","no","xpyriment","legacy","legacy","0","202","NA","uniform","63649","1000","0.0157111659256","0","undefined","0","0","51","51","51","0","51","51","51","NA","51","51","0","51","NA","51","51","0","51","NA","51","NA","51","0","0","51","51","0","51","51","52","/","09/27/18 16:15:21","The main experiment item","yes","FIN__BA__M21__7%3A10%3A17.osexp","C:\Users\ERP Testing Room\Desktop\Joanna\morph21","no","mono","no","18","no","white","no","yes","1080","legacy","51","51","C:/Users/ERP Testing Room/Desktop/Joanna/morph21/subject-137.csv","xpyriment","Jazzy James","3.1.4","0","z","NA","NA","NA","NA","space","z","858","NA","NA","NA","NA","150579","858","2","legacy","1024","2","48000","-16","BA_m21","137","odd","CW_L","WRONGLY","2558","339858","338274","335174","153148","NA","NA","NA","NA","335167","338772","NA","337774","NA","337767","339852","2569","340258","NA","NA","338858","2558","2558","339249","337767","2558","338858","340258","morph21_Oliver/Morris","44","38377","52","yes","1280","37"
"400","84.9056603774","84.9056603774","736.830188679","736.830188679","black","no","xpyriment","legacy","legacy","0","204","NA","uniform","68800","1000","0.0145348837209","1","undefined","1","0","52","52","52","0","52","52","52","NA","52","52","0","52","NA","52","52","0","52","NA","52","NA","52","0","0","52","52","0","52","52","53","z","09/27/18 16:15:21","The main experiment item","yes","FIN__BA__M21__7%3A10%3A17.osexp","C:\Users\ERP Testing Room\Desktop\Joanna\morph21","no","mono","no","18","no","white","no","yes","1080","legacy","52","52","C:/Users/ERP Testing Room/Desktop/Joanna/morph21/subject-137.csv","xpyriment","Jazzy James","3.1.4","0","z","NA","NA","NA","NA","space","z","675","NA","NA","NA","NA","150579","675","2","legacy","1024","2","48000","-16","BA_m21","137","odd","NW_L_COMP","PASSMANT","2558","343033","341441","335174","153148","NA","NA","NA","NA","343027","341938","NA","340941","NA","340936","343027","2569","343433","NA","NA","342033","2558","2558","342425","340936","2558","342033","343433","morph21_Oliver/Morris","45","39052","53","yes","1280","14"
"400","85.1851851852","85.1851851852","734.925925926","734.925925926","black","no","xpyriment","legacy","legacy","0","203","NA","uniform","70726","1000","0.0141390719113","1","undefined","1","0","53","53","53","0","53","53","53","NA","53","53","0","53","NA","53","53","0","53","NA","53","NA","53","0","0","53","53","0","53","53","54","z","09/27/18 16:15:21","The main experiment item","yes","FIN__BA__M21__7%3A10%3A17.osexp","C:\Users\ERP Testing Room\Desktop\Joanna\morph21","no","mono","no","18","no","white","no","yes","1080","legacy","53","53","C:/Users/ERP Testing Room/Desktop/Joanna/morph21/subject-137.csv","xpyriment","Jazzy James","3.1.4","0","z","NA","NA","NA","NA","space","z","634","NA","NA","NA","NA","150579","634","2","legacy","1024","2","48000","-16","BA_m21","137","odd","NW_S_COMP","TRUENELS","2558","347758","344675","346250","153148","NA","NA","NA","NA","346246","345172","NA","344175","NA","344164","346246","2569","348158","NA","NA","345250","2558","2558","345650","344164","2558","345250","348158","morph21_Oliver/Morris","46","39686","54","yes","1280","15"
"350","85.4545454545","85.4545454545","735.127272727","735.127272727","black","no","xpyriment","legacy","legacy","0","208","NA","uniform","68002","1000","0.0147054498397","1","undefined","1","0","54","54","54","0","54","54","54","NA","54","54","0","54","NA","54","54","0","54","NA","54","NA","54","0","0","54","54","0","54","54","55","z","09/27/18 16:15:21","The main experiment item","yes","FIN__BA__M21__7%3A10%3A17.osexp","C:\Users\ERP Testing Room\Desktop\Joanna\morph21","no","mono","no","18","no","white","no","yes","1080","legacy","54","54","C:/Users/ERP Testing Room/Desktop/Joanna/morph21/subject-137.csv","xpyriment","Jazzy James","3.1.4","0","z","NA","NA","NA","NA","space","z","746","NA","NA","NA","NA","150579","746","2","legacy","1024","2","48000","-16","BA_m21","137","odd","FILL_NW","KRAISE","2558","351026","349442","346250","153148","NA","NA","NA","NA","351017","349939","NA","348942","NA","348936","351017","2569","351376","NA","NA","350026","2558","2558","350418","348936","2558","350026","351376","morph21_Oliver/Morris","47","40432","55","yes","1280","33"
"200","85.7142857143","85.7142857143","733.625","733.625","black","no","xpyriment","legacy","legacy","0","202","NA","uniform","61672","1000","0.0162148138539","1","undefined","1","0","55","55","55","0","55","55","55","NA","55","55","0","55","NA","55","55","0","55","NA","55","NA","55","0","0","55","55","0","55","55","56","/","09/27/18 16:15:21","The main experiment item","yes","FIN__BA__M21__7%3A10%3A17.osexp","C:\Users\ERP Testing Room\Desktop\Joanna\morph21","no","mono","no","18","no","white","no","yes","1080","legacy","55","55","C:/Users/ERP Testing Room/Desktop/Joanna/morph21/subject-137.csv","xpyriment","Jazzy James","3.1.4","0","/","NA","NA","NA","NA","space","/","651","NA","NA","NA","NA","150579","651","2","legacy","1024","2","48000","-16","BA_m21","137","odd","CW_L","BONELESS","2558","354209","352618","346250","153148","NA","NA","NA","NA","354206","353115","NA","352118","NA","352108","354206","2569","354410","NA","NA","353209","2558","2558","353609","352108","2558","353209","354410","morph21_Oliver/Morris","48","41083","56","yes","1280","34"
"200","84.2105263158","84.2105263158","738.192982456","738.192982456","black","no","xpyriment","legacy","legacy","0","203","NA","uniform","60287","1000","0.016587323967","0","undefined","0","0","56","56","56","0","56","56","56","NA","56","56","0","56","NA","56","56","0","56","NA","56","NA","56","0","0","56","56","0","56","56","57","z","09/27/18 16:15:21","The main experiment item","yes","FIN__BA__M21__7%3A10%3A17.osexp","C:\Users\ERP Testing Room\Desktop\Joanna\morph21","no","mono","no","18","no","white","no","yes","1080","legacy","56","56","C:/Users/ERP Testing Room/Desktop/Joanna/morph21/subject-137.csv","xpyriment","Jazzy James","3.1.4","0","None","NA","NA","NA","NA","space","None","994","NA","NA","NA","NA","150579","994","2","legacy","1024","2","48000","-16","BA_m21","137","odd","NW_S_COMP","PILLIME","2558","358710","355626","357201","153148","NA","NA","NA","NA","354206","356123","NA","355126","NA","355118","357195","2569","358910","NA","NA","356201","2558","2558","356593","355118","2558","356201","358910","morph21_Oliver/Morris","48","42077","57","yes","1280","13"
"300","84.4827586207","84.4827586207","737.706896552","737.706896552","black","no","xpyriment","legacy","legacy","0","201","NA","uniform","65703","1000","0.0152200051748","1","undefined","1","0","57","57","57","0","57","57","57","NA","57","57","0","57","NA","57","57","0","57","NA","57","NA","57","0","0","57","57","0","57","57","58","/","09/27/18 16:15:21","The main experiment item","yes","FIN__BA__M21__7%3A10%3A17.osexp","C:\Users\ERP Testing Room\Desktop\Joanna\morph21","no","mono","no","18","no","white","no","yes","1080","legacy","57","57","C:/Users/ERP Testing Room/Desktop/Joanna/morph21/subject-137.csv","xpyriment","Jazzy James","3.1.4","0","/","NA","NA","NA","NA","space","/","710","NA","NA","NA","NA","150579","710","2","legacy","1024","2","48000","-16","BA_m21","137","odd","CW_S","MAGICAL","2558","361718","360110","357201","153148","NA","NA","NA","NA","361710","360607","NA","359610","NA","359607","361710","2569","362018","NA","NA","360718","2558","2558","361110","359607","2558","360718","362018","morph21_Oliver/Morris","49","42787","58","yes","1280","4"
"350","84.7457627119","84.7457627119","736.355932203","736.355932203","black","no","xpyriment","legacy","legacy","0","201","NA","uniform","73210","1000","0.0136593361563","1","undefined","1","0","58","58","58","0","58","58","58","NA","58","58","0","58","NA","58","58","0","58","NA","58","NA","58","0","0","58","58","0","58","58","59","/","09/27/18 16:15:21","The main experiment item","yes","FIN__BA__M21__7%3A10%3A17.osexp","C:\Users\ERP Testing Room\Desktop\Joanna\morph21","no","mono","no","18","no","white","no","yes","1080","legacy","58","58","C:/Users/ERP Testing Room/Desktop/Joanna/morph21/subject-137.csv","xpyriment","Jazzy James","3.1.4","0","/","NA","NA","NA","NA","space","/","658","NA","NA","NA","NA","150579","658","2","legacy","1024","2","48000","-16","BA_m21","137","odd","CW_S","DULLNESS","2558","364802","363218","357201","153148","NA","NA","NA","NA","364794","363715","NA","362718","NA","362709","364794","2569","365152","NA","NA","363802","2558","2558","364193","362709","2558","363802","365152","morph21_Oliver/Morris","50","43445","59","yes","1280","43"
"350","85","85","737.383333333","737.383333333","black","no","xpyriment","legacy","legacy","0","202","NA","uniform","69282","1000","0.0144337634595","1","undefined","1","0","59","59","59","0","59","59","59","NA","59","59","0","59","NA","59","59","0","59","NA","59","NA","59","0","0","59","59","0","59","59","60","/","09/27/18 16:15:21","The main experiment item","yes","FIN__BA__M21__7%3A10%3A17.osexp","C:\Users\ERP Testing Room\Desktop\Joanna\morph21","no","mono","no","18","no","white","no","yes","1080","legacy","59","59","C:/Users/ERP Testing Room/Desktop/Joanna/morph21/subject-137.csv","xpyriment","Jazzy James","3.1.4","0","/","NA","NA","NA","NA","space","/","798","NA","NA","NA","NA","150579","798","2","legacy","1024","2","48000","-16","BA_m21","137","odd","CW_L","GUILELESS","2558","369419","366302","367911","153148","NA","NA","NA","NA","367903","366799","NA","365802","NA","365795","367903","2569","369770","NA","NA","366910","2558","2558","367303","365795","2558","366910","369770","morph21_Oliver/Morris","51","44243","60","yes","1280","31"
"350","85.2459016393","85.2459016393","738.737704918","738.737704918","black","no","xpyriment","legacy","legacy","0","203","NA","uniform","69396","1000","0.0144100524526","1","undefined","1","0","60","60","60","0","60","60","60","NA","60","60","0","60","NA","60","60","0","60","NA","60","NA","60","0","0","60","60","0","60","60","61","z","09/27/18 16:15:21","The main experiment item","yes","FIN__BA__M21__7%3A10%3A17.osexp","C:\Users\ERP Testing Room\Desktop\Joanna\morph21","no","mono","no","18","no","white","no","yes","1080","legacy","60","60","C:/Users/ERP Testing Room/Desktop/Joanna/morph21/subject-137.csv","xpyriment","Jazzy James","3.1.4","0","z","NA","NA","NA","NA","space","z","820","NA","NA","NA","NA","150579","820","2","legacy","1024","2","48000","-16","BA_m21","137","odd","NW_S_COMP","DEBTITH","2558","372520","370928","367911","153148","NA","NA","NA","NA","372512","371425","NA","370428","NA","370424","372512","2569","372870","NA","NA","371520","2558","2558","371911","370424","2558","371520","372870","morph21_Oliver/Morris","52","45063","61","yes","1280","22"
"300","85.4838709677","85.4838709677","734.677419355","734.677419355","black","no","xpyriment","legacy","legacy","0","202","NA","uniform","80908","1000","0.0123597172097","1","undefined","1","0","61","61","61","0","61","61","61","NA","61","61","0","61","NA","61","61","0","61","NA","61","NA","61","0","0","61","61","0","61","61","62","/","09/27/18 16:15:21","The main experiment item","yes","FIN__BA__M21__7%3A10%3A17.osexp","C:\Users\ERP Testing Room\Desktop\Joanna\morph21","no","mono","no","18","no","white","no","yes","1080","legacy","61","61","C:/Users/ERP Testing Room/Desktop/Joanna/morph21/subject-137.csv","xpyriment","Jazzy James","3.1.4","0","/","NA","NA","NA","NA","space","/","487","NA","NA","NA","NA","150579","487","2","legacy","1024","2","48000","-16","BA_m21","137","odd","CW_L","PROFESSOR","2558","375661","374053","367911","153148","NA","NA","NA","NA","375654","374550","NA","373553","NA","373543","375654","2569","375961","NA","NA","374661","2558","2558","375053","373542","2558","374661","375961","morph21_Oliver/Morris","53","45550","62","yes","1280","47"
"350","85.7142857143","85.7142857143","732.984126984","732.984126984","black","no","xpyriment","legacy","legacy","0","207","NA","uniform","72632","1000","0.0137680361273","1","undefined","1","0","62","62","62","0","62","62","62","NA","62","62","0","62","NA","62","62","0","62","NA","62","NA","62","0","0","62","62","0","62","62","63","/","09/27/18 16:15:21","The main experiment item","yes","FIN__BA__M21__7%3A10%3A17.osexp","C:\Users\ERP Testing Room\Desktop\Joanna\morph21","no","mono","no","18","no","white","no","yes","1080","legacy","62","62","C:/Users/ERP Testing Room/Desktop/Joanna/morph21/subject-137.csv","xpyriment","Jazzy James","3.1.4","0","/","NA","NA","NA","NA","space","/","628","NA","NA","NA","NA","150579","628","2","legacy","1024","2","48000","-16","BA_m21","137","odd","FILL_W","FOLLOW","2558","380228","377136","378720","153148","NA","NA","NA","NA","378713","377634","NA","376637","NA","376628","378713","2569","380579","NA","NA","377720","2558","2558","378111","376628","2558","377720","380579","morph21_Oliver/Morris","54","46178","63","yes","1280","17"
"400","85.9375","85.9375","734.90625","734.90625","black","no","xpyriment","legacy","legacy","0","208","NA","uniform","62694","1000","0.01595048968","1","undefined","1","0","63","63","63","0","63","63","63","NA","63","63","0","63","NA","63","63","0","63","NA","63","NA","63","0","0","63","63","0","63","63","64","z","09/27/18 16:15:21","The main experiment item","yes","FIN__BA__M21__7%3A10%3A17.osexp","C:\Users\ERP Testing Room\Desktop\Joanna\morph21","no","mono","no","18","no","white","no","yes","1080","legacy","63","63","C:/Users/ERP Testing Room/Desktop/Joanna/morph21/subject-137.csv","xpyriment","Jazzy James","3.1.4","0","z","NA","NA","NA","NA","space","z","856","NA","NA","NA","NA","150579","856","2","legacy","1024","2","48000","-16","BA_m21","137","odd","FILL_NW","BUTE","2558","383420","381812","378720","153148","NA","NA","NA","NA","383413","382309","NA","381312","NA","381306","383413","2569","383820","NA","NA","382420","2558","2558","382812","381306","2558","382420","383820","morph21_Oliver/Morris","55","47034","64","yes","1280","5"
"200","84.6153846154","84.6153846154","734.2","734.2","black","no","xpyriment","legacy","legacy","0","205","NA","uniform","73908","1000","0.0135303350111","0","undefined","0","0","64","64","64","0","64","64","64","NA","64","64","0","64","NA","64","64","0","64","NA","64","NA","64","0","0","64","64","0","64","64","65","z","09/27/18 16:15:21","The main experiment item","yes","FIN__BA__M21__7%3A10%3A17.osexp","C:\Users\ERP Testing Room\Desktop\Joanna\morph21","no","mono","no","18","no","white","no","yes","1080","legacy","64","64","C:/Users/ERP Testing Room/Desktop/Joanna/morph21/subject-137.csv","xpyriment","Jazzy James","3.1.4","0","/","NA","NA","NA","NA","space","/","689","NA","NA","NA","NA","150579","689","2","legacy","1024","2","48000","-16","BA_m21","137","odd","NW_S_SIMP","NULLISH","2558","386571","384988","378720","153148","NA","NA","NA","NA","383413","385485","NA","384487","NA","384476","386564","2569","386771","NA","NA","385571","2558","2558","385963","384476","2558","385571","386771","morph21_Oliver/Morris","55","47723","65","yes","1280","23"
"400","83.3333333333","83.3333333333","730.515151515","730.515151515","black","no","xpyriment","legacy","legacy","0","207","NA","uniform","80921","1000","0.0123577316148","0","undefined","0","0","65","65","65","0","65","65","65","NA","65","65","0","65","NA","65","65","0","65","NA","65","NA","65","0","0","65","65","0","65","65","66","/","09/27/18 16:15:21","The main experiment item","yes","FIN__BA__M21__7%3A10%3A17.osexp","C:\Users\ERP Testing Room\Desktop\Joanna\morph21","no","mono","no","18","no","white","no","yes","1080","legacy","65","65","C:/Users/ERP Testing Room/Desktop/Joanna/morph21/subject-137.csv","xpyriment","Jazzy James","3.1.4","0","z","NA","NA","NA","NA","space","z","491","NA","NA","NA","NA","150579","491","2","legacy","1024","2","48000","-16","BA_m21","137","odd","FILL_W","CHIP","2558","391013","387913","389505","153148","NA","NA","NA","NA","383413","388410","NA","387413","NA","387407","389498","2569","391413","NA","NA","388505","2558","2558","388896","387407","2558","388505","391413","morph21_Oliver/Morris","55","48214","66","yes","1280","11"
"300","83.5820895522","83.5820895522","730.194029851","730.194029851","black","no","xpyriment","legacy","legacy","0","207","NA","uniform","71217","1000","0.0140415911931","1","undefined","1","0","66","66","66","0","66","66","66","NA","66","66","0","66","NA","66","66","0","66","NA","66","NA","66","0","0","66","66","0","66","66","67","/","09/27/18 16:15:21","The main experiment item","yes","FIN__BA__M21__7%3A10%3A17.osexp","C:\Users\ERP Testing Room\Desktop\Joanna\morph21","no","mono","no","18","no","white","no","yes","1080","legacy","66","66","C:/Users/ERP Testing Room/Desktop/Joanna/morph21/subject-137.csv","xpyriment","Jazzy James","3.1.4","0","/","NA","NA","NA","NA","space","/","709","NA","NA","NA","NA","150579","709","2","legacy","1024","2","48000","-16","BA_m21","137","odd","FILL_W","SICK","2558","394263","392663","389505","153148","NA","NA","NA","NA","394258","393160","NA","392163","NA","392155","394258","2569","394563","NA","NA","393263","2558","2558","393663","392155","2558","393263","394563","morph21_Oliver/Morris","56","48923","67","yes","1280","36"
"200","83.8235294118","83.8235294118","728.308823529","728.308823529","black","no","xpyriment","legacy","legacy","0","202","NA","uniform","69209","1000","0.0144489878484","1","undefined","1","0","67","67","67","0","67","67","67","NA","67","67","0","67","NA","67","67","0","67","NA","67","NA","67","0","0","67","67","0","67","67","68","/","09/27/18 16:15:21","The main experiment item","yes","FIN__BA__M21__7%3A10%3A17.osexp","C:\Users\ERP Testing Room\Desktop\Joanna\morph21","no","mono","no","18","no","white","no","yes","1080","legacy","67","67","C:/Users/ERP Testing Room/Desktop/Joanna/morph21/subject-137.csv","xpyriment","Jazzy James","3.1.4","0","/","NA","NA","NA","NA","space","/","602","NA","NA","NA","NA","150579","602","2","legacy","1024","2","48000","-16","BA_m21","137","odd","CW_L","SHAMEFUL","2558","397338","395747","389505","153148","NA","NA","NA","NA","397329","396244","NA","395247","NA","395239","397329","2569","397538","NA","NA","396338","2558","2558","396730","395239","2558","396338","397538","morph21_Oliver/Morris","57","49525","68","yes","1280","19"
"400","84.0579710145","84.0579710145","727.695652174","727.695652174","black","no","xpyriment","legacy","legacy","0","201","NA","uniform","61886","1000","0.0161587434961","1","undefined","1","0","68","68","68","0","68","68","68","NA","68","68","0","68","NA","68","68","0","68","NA","68","NA","68","0","0","68","68","0","68","68","69","/","09/27/18 16:15:21","The main experiment item","yes","FIN__BA__M21__7%3A10%3A17.osexp","C:\Users\ERP Testing Room\Desktop\Joanna\morph21","no","mono","no","18","no","white","no","yes","1080","legacy","68","68","C:/Users/ERP Testing Room/Desktop/Joanna/morph21/subject-137.csv","xpyriment","Jazzy James","3.1.4","0","/","NA","NA","NA","NA","space","/","686","NA","NA","NA","NA","150579","686","2","legacy","1024","2","48000","-16","BA_m21","137","odd","CW_S","WIDOWED","2558","401930","398822","400422","153148","NA","NA","NA","NA","400414","399319","NA","398322","NA","398313","400414","2569","402330","NA","NA","399422","2558","2558","399813","398313","2558","399422","402330","morph21_Oliver/Morris","58","50211","69","yes","1280","7"
"300","84.2857142857","84.2857142857","730.085714286","730.085714286","black","no","xpyriment","legacy","legacy","0","205","NA","uniform","63599","1000","0.0157235176654","1","undefined","1","0","69","69","69","0","69","69","69","NA","69","69","0","69","NA","69","69","0","69","NA","69","NA","69","0","0","69","69","0","69","69","70","z","09/27/18 16:15:21","The main experiment item","yes","FIN__BA__M21__7%3A10%3A17.osexp","C:\Users\ERP Testing Room\Desktop\Joanna\morph21","no","mono","no","18","no","white","no","yes","1080","legacy","69","69","C:/Users/ERP Testing Room/Desktop/Joanna/morph21/subject-137.csv","xpyriment","Jazzy James","3.1.4","0","z","NA","NA","NA","NA","space","z","895","NA","NA","NA","NA","150579","895","2","legacy","1024","2","48000","-16","BA_m21","137","odd","NW_S_SIMP","YIELDIST","2558","405173","403565","400422","153148","NA","NA","NA","NA","405165","404062","NA","403065","NA","403057","405165","2569","405473","NA","NA","404173","2558","2558","404565","403057","2558","404173","405473","morph21_Oliver/Morris","59","51106","70","yes","1280","20"
"250","84.5070422535","84.5070422535","731.056338028","731.056338028","black","no","xpyriment","legacy","legacy","0","207","NA","uniform","61020","1000","0.0163880694854","1","undefined","1","0","70","70","70","0","70","70","70","NA","70","70","0","70","NA","70","70","0","70","NA","70","NA","70","0","0","70","70","0","70","70","71","/","09/27/18 16:15:21","The main experiment item","yes","FIN__BA__M21__7%3A10%3A17.osexp","C:\Users\ERP Testing Room\Desktop\Joanna\morph21","no","mono","no","18","no","white","no","yes","1080","legacy","70","70","C:/Users/ERP Testing Room/Desktop/Joanna/morph21/subject-137.csv","xpyriment","Jazzy James","3.1.4","0","/","NA","NA","NA","NA","space","/","799","NA","NA","NA","NA","150579","799","2","legacy","1024","2","48000","-16","BA_m21","137","odd","FILL_W","SPLICE","2558","408373","406773","400422","153148","NA","NA","NA","NA","408368","407270","NA","406273","NA","406265","408368","2569","408623","NA","NA","407373","2558","2558","407773","406265","2558","407373","408623","morph21_Oliver/Morris","60","51905","71","yes","1280","22"
"200","84.7222222222","84.7222222222","732.75","732.75","black","no","xpyriment","legacy","legacy","0","208","NA","uniform","68594","1000","0.0145785345657","1","undefined","1","0","71","71","71","0","71","71","71","NA","71","71","0","71","NA","71","71","0","71","NA","71","NA","71","0","0","71","71","0","71","71","72","z","09/27/18 16:15:21","The main experiment item","yes","FIN__BA__M21__7%3A10%3A17.osexp","C:\Users\ERP Testing Room\Desktop\Joanna\morph21","no","mono","no","18","no","white","no","yes","1080","legacy","71","71","C:/Users/ERP Testing Room/Desktop/Joanna/morph21/subject-137.csv","xpyriment","Jazzy James","3.1.4","0","z","NA","NA","NA","NA","space","z","853","NA","NA","NA","NA","150579","853","2","legacy","1024","2","48000","-16","BA_m21","137","odd","FILL_NW","SMADE","2558","412932","409840","411423","153148","NA","NA","NA","NA","411417","410337","NA","409340","NA","409330","411417","2569","413132","NA","NA","410423","2558","2558","410815","409329","2558","410423","413132","morph21_Oliver/Morris","61","52758","72","yes","1280","42"
"250","84.9315068493","84.9315068493","731.260273973","731.260273973","black","no","xpyriment","legacy","legacy","0","201","NA","uniform","67159","1000","0.0148900370762","1","undefined","1","0","72","72","72","0","72","72","72","NA","72","72","0","72","NA","72","72","0","72","NA","72","NA","72","0","0","72","72","0","72","72","73","/","09/27/18 16:15:21","The main experiment item","yes","FIN__BA__M21__7%3A10%3A17.osexp","C:\Users\ERP Testing Room\Desktop\Joanna\morph21","no","mono","no","18","no","white","no","yes","1080","legacy","72","72","C:/Users/ERP Testing Room/Desktop/Joanna/morph21/subject-137.csv","xpyriment","Jazzy James","3.1.4","0","/","NA","NA","NA","NA","space","/","624","NA","NA","NA","NA","150579","624","2","legacy","1024","2","48000","-16","BA_m21","137","odd","CW_S","SEEKER","2558","415940","414365","411423","153148","NA","NA","NA","NA","415936","414862","NA","413865","NA","413854","415936","2569","416190","NA","NA","414940","2558","2558","415340","413854","2558","414940","416190","morph21_Oliver/Morris","62","53382","73","yes","1280","16"
"300","85.1351351351","85.1351351351","732.648648649","732.648648649","black","no","xpyriment","legacy","legacy","0","202","NA","uniform","67695","1000","0.0147721397444","1","undefined","1","0","73","73","73","0","73","73","73","NA","73","73","0","73","NA","73","73","0","73","NA","73","NA","73","0","0","73","73","0","73","73","74","/","09/27/18 16:15:21","The main experiment item","yes","FIN__BA__M21__7%3A10%3A17.osexp","C:\Users\ERP Testing Room\Desktop\Joanna\morph21","no","mono","no","18","no","white","no","yes","1080","legacy","73","73","C:/Users/ERP Testing Room/Desktop/Joanna/morph21/subject-137.csv","xpyriment","Jazzy James","3.1.4","0","/","NA","NA","NA","NA","space","/","834","NA","NA","NA","NA","150579","834","2","legacy","1024","2","48000","-16","BA_m21","137","odd","CW_L","HEATER","2558","419065","417465","411423","153148","NA","NA","NA","NA","419062","417962","NA","416965","NA","416962","419062","2569","419365","NA","NA","418074","2558","2558","418465","416962","2558","418074","419365","morph21_Oliver/Morris","63","54216","74","yes","1280","16"
"350","85.3333333333","85.3333333333","732.773333333","732.773333333","black","no","xpyriment","legacy","legacy","0","206","NA","uniform","70344","1000","0.0142158535198","undefined","undefined","1","0","74","74","74","0","74","74","74","NA","74","74","0","74","NA","74","74","0","74","NA","74","NA","74","0","0","74","74","0","74","74","75","z","09/27/18 16:15:21","The main experiment item","yes","FIN__BA__M21__7%3A10%3A17.osexp","C:\Users\ERP Testing Room\Desktop\Joanna\morph21","no","mono","no","18","no","white","no","yes","1080","legacy","74","74","C:/Users/ERP Testing Room/Desktop/Joanna/morph21/subject-137.csv","xpyriment","Jazzy James","3.1.4","0","space","space","NA","NA","NA","space","z","28859","28859","NA","NA","NA","150579","742","2","legacy","1024","2","48000","-16","BA_m21","137","odd","NW_L_SIMP","NUTLY","2558","423658","420566","422150","153148","424017","NA","NA","NA","422143","421063","NA","420066","NA","420056","422143","2569","452876","NA","NA","421150","2558","2558","421541","420056","2558","421150","424008","morph21_Oliver/Morris","64","54958","75","yes","1280","14"
"300","84.2105263158","84.2105263158","736.171052632","736.171052632","black","no","xpyriment","legacy","legacy","0","205","NA","uniform","58185","1000","0.01718656011","0","undefined","0","0","75","75","75","0","75","75","75","NA","75","75","0","75","NA","75","75","0","75","NA","75","NA","75","0","0","75","75","0","75","75","76","z","09/27/18 16:15:21","The main experiment item","yes","FIN__BA__M21__7%3A10%3A17.osexp","C:\Users\ERP Testing Room\Desktop\Joanna\morph21","no","mono","no","18","no","white","no","yes","1080","legacy","75","75","C:/Users/ERP Testing Room/Desktop/Joanna/morph21/subject-137.csv","xpyriment","Jazzy James","3.1.4","0","None","space","NA","NA","NA","space","None","991","28859","NA","NA","NA","150579","991","2","legacy","1024","2","48000","-16","BA_m21","137","odd","NW_S_SIMP","FEVERIZE","2558","455620","454002","422150","153148","424017","NA","NA","NA","422143","454499","NA","453502","NA","453491","455611","2569","455920","NA","NA","454620","2558","2558","455012","453491","2558","454620","455920","morph21_Oliver/Morris","64","55949","76","yes","1280","24"
"350","84.4155844156","84.4155844156","736.324675325","736.324675325","black","no","xpyriment","legacy","legacy","0","203","NA","uniform","69232","1000","0.0144441876589","1","undefined","1","0","76","76","76","0","76","76","76","NA","76","76","0","76","NA","76","76","0","76","NA","76","NA","76","0","0","76","76","0","76","76","77","z","09/27/18 16:15:21","The main experiment item","yes","FIN__BA__M21__7%3A10%3A17.osexp","C:\Users\ERP Testing Room\Desktop\Joanna\morph21","no","mono","no","18","no","white","no","yes","1080","legacy","76","76","C:/Users/ERP Testing Room/Desktop/Joanna/morph21/subject-137.csv","xpyriment","Jazzy James","3.1.4","0","z","space","NA","NA","NA","space","z","748","28859","NA","NA","NA","150579","748","2","legacy","1024","2","48000","-16","BA_m21","137","odd","NW_S_COMP","FIENDILM","2558","458720","457137","422150","153148","424017","NA","NA","NA","458713","457634","NA","456637","NA","456633","458713","2569","459070","NA","NA","457720","2558","2558","458112","456633","2558","457720","459070","morph21_Oliver/Morris","65","56697","77","yes","1280","24"
"200","84.6153846154","84.6153846154","736.782051282","736.782051282","black","no","xpyriment","legacy","legacy","0","205","NA","uniform","65875","1000","0.0151802656546","1","undefined","1","0","77","77","77","0","77","77","77","NA","77","77","0","77","NA","77","77","0","77","NA","77","NA","77","0","0","77","77","0","77","77","78","z","09/27/18 16:15:21","The main experiment item","yes","FIN__BA__M21__7%3A10%3A17.osexp","C:\Users\ERP Testing Room\Desktop\Joanna\morph21","no","mono","no","18","no","white","no","yes","1080","legacy","77","77","C:/Users/ERP Testing Room/Desktop/Joanna/morph21/subject-137.csv","xpyriment","Jazzy James","3.1.4","0","z","space","NA","NA","NA","space","z","772","28859","NA","NA","NA","150579","772","2","legacy","1024","2","48000","-16","BA_m21","137","odd","NW_S_SIMP","OPPOSEMENT","2558","463412","460320","461903","153148","424017","NA","NA","NA","461894","460817","NA","459820","NA","459811","461894","2569","463612","NA","NA","460904","2558","2558","461295","459811","2558","460903","463612","morph21_Oliver/Morris","66","57469","78","yes","1280","8"
"350","84.8101265823","84.8101265823","735.746835443","735.746835443","black","no","xpyriment","legacy","legacy","0","208","NA","uniform","74650","1000","0.0133958472873","1","undefined","1","0","78","78","78","0","78","78","78","NA","78","78","0","78","NA","78","78","0","78","NA","78","NA","78","0","0","78","78","0","78","78","79","z","09/27/18 16:15:21","The main experiment item","yes","FIN__BA__M21__7%3A10%3A17.osexp","C:\Users\ERP Testing Room\Desktop\Joanna\morph21","no","mono","no","18","no","white","no","yes","1080","legacy","78","78","C:/Users/ERP Testing Room/Desktop/Joanna/morph21/subject-137.csv","xpyriment","Jazzy James","3.1.4","0","z","space","NA","NA","NA","space","z","655","28859","NA","NA","NA","150579","655","2","legacy","1024","2","48000","-16","BA_m21","137","odd","FILL_NW","DOADS","2558","466429","464845","461903","153148","424017","NA","NA","NA","466426","465343","NA","464345","NA","464334","466426","2569","466779","NA","NA","465437","2558","2558","465829","464334","2558","465437","466779","morph21_Oliver/Morris","67","58124","79","yes","1280","15"
"250","85","85","734.0625","734.0625","black","no","xpyriment","legacy","legacy","0","201","NA","uniform","71394","1000","0.0140067792812","1","undefined","1","0","79","79","79","0","79","79","79","NA","79","79","0","79","NA","79","79","0","79","NA","79","NA","79","0","0","79","79","0","79","79","80","/","09/27/18 16:15:21","The main experiment item","yes","FIN__BA__M21__7%3A10%3A17.osexp","C:\Users\ERP Testing Room\Desktop\Joanna\morph21","no","mono","no","18","no","white","no","yes","1080","legacy","79","79","C:/Users/ERP Testing Room/Desktop/Joanna/morph21/subject-137.csv","xpyriment","Jazzy James","3.1.4","0","/","space","NA","NA","NA","space","/","601","28859","NA","NA","NA","150579","601","2","legacy","1024","2","48000","-16","BA_m21","137","odd","CW_S","MOSSY","2558","469587","468004","461903","153148","424017","NA","NA","NA","469578","468501","NA","467504","NA","467495","469578","2569","469837","NA","NA","468587","2558","2558","468979","467495","2558","468587","469837","morph21_Oliver/Morris","68","58725","80","yes","1280","47"
"250","85.1851851852","85.1851851852","731.802469136","731.802469136","black","no","xpyriment","legacy","legacy","0","207","NA","uniform","70810","1000","0.0141222991103","1","undefined","1","0","80","80","80","0","80","80","80","NA","80","80","0","80","NA","80","80","0","80","NA","80","NA","80","0","0","80","80","0","80","80","81","/","09/27/18 16:15:21","The main experiment item","yes","FIN__BA__M21__7%3A10%3A17.osexp","C:\Users\ERP Testing Room\Desktop\Joanna\morph21","no","mono","no","18","no","white","no","yes","1080","legacy","80","80","C:/Users/ERP Testing Room/Desktop/Joanna/morph21/subject-137.csv","xpyriment","Jazzy James","3.1.4","0","/","space","NA","NA","NA","space","/","551","28859","NA","NA","NA","150579","551","2","legacy","1024","2","48000","-16","BA_m21","137","odd","FILL_W","FIERCE","2558","474147","471037","472638","153148","424017","NA","NA","NA","472636","471534","NA","470537","NA","470533","472636","2569","474397","NA","NA","471646","2558","2558","472037","470533","2558","471646","474397","morph21_Oliver/Morris","69","59276","81","yes","1280","24"
"350","85.3658536585","85.3658536585","732.426829268","732.426829268","black","no","xpyriment","legacy","legacy","0","208","NA","uniform","69724","1000","0.0143422637829","1","undefined","1","0","81","81","81","0","81","81","81","NA","81","81","0","81","NA","81","81","0","81","NA","81","NA","81","0","0","81","81","0","81","81","82","z","09/27/18 16:15:21","The main experiment item","yes","FIN__BA__M21__7%3A10%3A17.osexp","C:\Users\ERP Testing Room\Desktop\Joanna\morph21","no","mono","no","18","no","white","no","yes","1080","legacy","81","81","C:/Users/ERP Testing Room/Desktop/Joanna/morph21/subject-137.csv","xpyriment","Jazzy James","3.1.4","0","z","space","NA","NA","NA","space","z","783","28859","NA","NA","NA","150579","783","2","legacy","1024","2","48000","-16","BA_m21","137","odd","FILL_NW","DELP","2558","477197","475613","472638","153148","424017","NA","NA","NA","477191","476111","NA","475113","NA","475107","477191","2569","477547","NA","NA","476197","2558","2558","476589","475107","2558","476197","477547","morph21_Oliver/Morris","70","60059","82","yes","1280","14"
"250","85.5421686747","85.5421686747","731.843373494","731.843373494","black","no","xpyriment","legacy","legacy","0","202","NA","uniform","71439","1000","0.0139979562984","1","undefined","1","0","82","82","82","0","82","82","82","NA","82","82","0","82","NA","82","82","0","82","NA","82","NA","82","0","0","82","82","0","82","82","83","/","09/27/18 16:15:21","The main experiment item","yes","FIN__BA__M21__7%3A10%3A17.osexp","C:\Users\ERP Testing Room\Desktop\Joanna\morph21","no","mono","no","18","no","white","no","yes","1080","legacy","82","82","C:/Users/ERP Testing Room/Desktop/Joanna/morph21/subject-137.csv","xpyriment","Jazzy James","3.1.4","0","/","space","NA","NA","NA","space","/","684","28859","NA","NA","NA","150579","684","2","legacy","1024","2","48000","-16","BA_m21","137","odd","CW_L","LAUGHING","2558","480264","478680","472638","153148","424017","NA","NA","NA","480261","479177","NA","478180","NA","478173","480261","2569","480514","NA","NA","479272","2558","2558","479664","478173","2558","479272","480514","morph21_Oliver/Morris","71","60743","83","yes","1280","27"
"300","85.7142857143","85.7142857143","734.702380952","734.702380952","black","no","xpyriment","legacy","legacy","0","205","NA","uniform","64772","1000","0.0154387698388","1","undefined","1","0","83","83","83","0","83","83","83","NA","83","83","0","83","NA","83","83","0","83","NA","83","NA","83","0","0","83","83","0","83","83","84","z","09/27/18 16:15:21","The main experiment item","yes","FIN__BA__M21__7%3A10%3A17.osexp","C:\Users\ERP Testing Room\Desktop\Joanna\morph21","no","mono","no","18","no","white","no","yes","1080","legacy","83","83","C:/Users/ERP Testing Room/Desktop/Joanna/morph21/subject-137.csv","xpyriment","Jazzy James","3.1.4","0","z","space","NA","NA","NA","space","z","972","28859","NA","NA","NA","150579","972","2","legacy","1024","2","48000","-16","BA_m21","137","odd","NW_S_SIMP","NEXTNESS","2558","484781","481689","483272","153148","424017","NA","NA","NA","483266","482186","NA","481180","NA","481171","483266","2569","485081","NA","NA","482272","2558","2558","482664","481171","2558","482272","485081","morph21_Oliver/Morris","72","61715","84","yes","1280","9"
"300","85.8823529412","85.8823529412","734.847058824","734.847058824","black","no","xpyriment","legacy","legacy","0","204","NA","uniform","68607","1000","0.0145757721515","1","undefined","1","0","84","84","84","0","84","84","84","NA","84","84","0","84","NA","84","84","0","84","NA","84","NA","84","0","0","84","84","0","84","84","85","z","09/27/18 16:15:21","The main experiment item","yes","FIN__BA__M21__7%3A10%3A17.osexp","C:\Users\ERP Testing Room\Desktop\Joanna\morph21","no","mono","no","18","no","white","no","yes","1080","legacy","84","84","C:/Users/ERP Testing Room/Desktop/Joanna/morph21/subject-137.csv","xpyriment","Jazzy James","3.1.4","0","z","space","NA","NA","NA","space","z","747","28859","NA","NA","NA","150579","747","2","legacy","1024","2","48000","-16","BA_m21","137","odd","NW_L_COMP","EMPLOYNELS","2558","487881","486289","483272","153148","424017","NA","NA","NA","487871","486786","NA","485789","NA","485779","487871","2569","488181","NA","NA","486881","2558","2558","487272","485779","2558","486881","488181","morph21_Oliver/Morris","73","62462","85","yes","1280","21"
"250","86.0465116279","86.0465116279","733.569767442","733.569767442","black","no","xpyriment","legacy","legacy","0","202","NA","uniform","75505","1000","0.0132441560162","1","undefined","1","0","85","85","85","0","85","85","85","NA","85","85","0","85","NA","85","85","0","85","NA","85","NA","85","0","0","85","85","0","85","85","86","/","09/27/18 16:15:21","The main experiment item","yes","FIN__BA__M21__7%3A10%3A17.osexp","C:\Users\ERP Testing Room\Desktop\Joanna\morph21","no","mono","no","18","no","white","no","yes","1080","legacy","85","85","C:/Users/ERP Testing Room/Desktop/Joanna/morph21/subject-137.csv","xpyriment","Jazzy James","3.1.4","0","/","space","NA","NA","NA","space","/","625","28859","NA","NA","NA","150579","625","2","legacy","1024","2","48000","-16","BA_m21","137","odd","CW_L","FLEXIBLE","2558","490948","489339","483272","153148","424017","NA","NA","NA","490938","489836","NA","488839","NA","488831","490938","2569","491199","NA","NA","489948","2558","2558","490340","488831","2558","489948","491199","morph21_Oliver/Morris","74","63087","86","yes","1280","22"
"400","86.2068965517","86.2068965517","731.75862069","731.75862069","black","no","xpyriment","legacy","legacy","0","201","NA","uniform","77283","1000","0.012939456284","1","undefined","1","0","86","86","86","0","86","86","86","NA","86","86","0","86","NA","86","86","0","86","NA","86","NA","86","0","0","86","86","0","86","86","87","/","09/27/18 16:15:21","The main experiment item","yes","FIN__BA__M21__7%3A10%3A17.osexp","C:\Users\ERP Testing Room\Desktop\Joanna\morph21","no","mono","no","18","no","white","no","yes","1080","legacy","86","86","C:/Users/ERP Testing Room/Desktop/Joanna/morph21/subject-137.csv","xpyriment","Jazzy James","3.1.4","0","/","space","NA","NA","NA","space","/","576","28859","NA","NA","NA","150579","576","2","legacy","1024","2","48000","-16","BA_m21","137","odd","CW_S","EFFORTLESS","2558","495449","492349","493940","153148","424017","NA","NA","NA","493931","492846","NA","491849","NA","491837","493931","2569","495849","NA","NA","492940","2558","2558","493332","491837","2558","492940","495849","morph21_Oliver/Morris","75","63663","87","yes","1280","30"
"300","86.3636363636","86.3636363636","730.647727273","730.647727273","black","no","xpyriment","legacy","legacy","0","203","NA","uniform","68954","1000","0.0145024219045","1","undefined","1","0","87","87","87","0","87","87","87","NA","87","87","0","87","NA","87","87","0","87","NA","87","NA","87","0","0","87","87","0","87","87","88","z","09/27/18 16:15:21","The main experiment item","yes","FIN__BA__M21__7%3A10%3A17.osexp","C:\Users\ERP Testing Room\Desktop\Joanna\morph21","no","mono","no","18","no","white","no","yes","1080","legacy","87","87","C:/Users/ERP Testing Room/Desktop/Joanna/morph21/subject-137.csv","xpyriment","Jazzy James","3.1.4","0","z","space","NA","NA","NA","space","z","634","28859","NA","NA","NA","150579","634","2","legacy","1024","2","48000","-16","BA_m21","137","odd","NW_S_COMP","FIGEL","2558","498682","497074","493940","153148","424017","NA","NA","NA","498676","497571","NA","496574","NA","496566","498676","2569","498982","NA","NA","497682","2558","2558","498074","496565","2558","497682","498982","morph21_Oliver/Morris","76","64297","88","yes","1280","4"
"300","86.5168539326","86.5168539326","730.348314607","730.348314607","black","no","xpyriment","legacy","legacy","0","208","NA","uniform","66971","1000","0.0149318361679","1","undefined","1","0","88","88","88","0","88","88","88","NA","88","88","0","88","NA","88","88","0","88","NA","88","NA","88","0","0","88","88","0","88","88","89","z","09/27/18 16:15:21","The main experiment item","yes","FIN__BA__M21__7%3A10%3A17.osexp","C:\Users\ERP Testing Room\Desktop\Joanna\morph21","no","mono","no","18","no","white","no","yes","1080","legacy","88","88","C:/Users/ERP Testing Room/Desktop/Joanna/morph21/subject-137.csv","xpyriment","Jazzy James","3.1.4","0","z","space","NA","NA","NA","space","z","704","28859","NA","NA","NA","150579","704","2","legacy","1024","2","48000","-16","BA_m21","137","odd","FILL_NW","DULKS","2558","501732","500141","493940","153148","424017","NA","NA","NA","501722","500638","NA","499641","NA","499633","501722","2569","502032","NA","NA","500732","2558","2558","501124","499633","2558","500732","502032","morph21_Oliver/Morris","77","65001","89","yes","1280","18"
"250","86.6666666667","86.6666666667","729.833333333","729.833333333","black","no","xpyriment","legacy","legacy","0","203","NA","uniform","65986","1000","0.0151547297912","1","undefined","1","0","89","89","89","0","89","89","89","NA","89","89","0","89","NA","89","89","0","89","NA","89","NA","89","0","0","89","89","0","89","89","90","z","09/27/18 16:15:21","The main experiment item","yes","FIN__BA__M21__7%3A10%3A17.osexp","C:\Users\ERP Testing Room\Desktop\Joanna\morph21","no","mono","no","18","no","white","no","yes","1080","legacy","89","89","C:/Users/ERP Testing Room/Desktop/Joanna/morph21/subject-137.csv","xpyriment","Jazzy James","3.1.4","0","z","space","NA","NA","NA","space","z","684","28859","NA","NA","NA","150579","684","2","legacy","1024","2","48000","-16","BA_m21","137","odd","NW_S_COMP","BRANCHEL","2558","506324","503241","504816","153148","424017","NA","NA","NA","504813","503738","NA","502741","NA","502731","504813","2569","506574","NA","NA","503824","2558","2558","504216","502731","2558","503824","506574","morph21_Oliver/Morris","78","65685","90","yes","1280","16"
"400","86.8131868132","86.8131868132","728.868131868","728.868131868","black","no","xpyriment","legacy","legacy","0","206","NA","uniform","70020","1000","0.0142816338189","1","undefined","1","0","90","90","90","0","90","90","90","NA","90","90","0","90","NA","90","90","0","90","NA","90","NA","90","0","0","90","90","0","90","90","91","z","09/27/18 16:15:21","The main experiment item","yes","FIN__BA__M21__7%3A10%3A17.osexp","C:\Users\ERP Testing Room\Desktop\Joanna\morph21","no","mono","no","18","no","white","no","yes","1080","legacy","90","90","C:/Users/ERP Testing Room/Desktop/Joanna/morph21/subject-137.csv","xpyriment","Jazzy James","3.1.4","0","z","space","NA","NA","NA","space","z","642","28859","NA","NA","NA","150579","642","2","legacy","1024","2","48000","-16","BA_m21","137","odd","NW_L_SIMP","VALIDER","2558","509442","507842","504816","153148","424017","NA","NA","NA","509434","508339","NA","507342","NA","507336","509434","2569","509842","NA","NA","508442","2558","2558","508834","507336","2558","508442","509842","morph21_Oliver/Morris","79","66327","91","yes","1280","23"
