"ITI","acc","accuracy","average_response_time","avg_rt","background","bidi","canvas_backend","clock_backend","color_backend","compensation","cond_trig","condtrigtime","coordinates","coroutines_cycles","coroutines_duration","coroutines_mean_cycle_duration","correct","correct_instructions_1","correct_new_keyboard_response_1","count_BA_m21","count_ITI","count_blank_screen","count_blink_screen","count_block1","count_break1","count_break2","count_break3_1","count_canvas","count_correct_trigger","count_def_chain","count_end_screen","count_fixation_1","count_getting_started","count_inc_counter","count_incorrect_trigger","count_instructions_1","count_logger","count_logscript","count_new_coroutines","count_new_inline_script","count_new_keyboard_response_1","count_reset_counter_prep","count_reset_counter_run","count_responsescreen","count_sequence","count_start_trigger","count_target_present","count_word_trigger","counter","cresp","datetime","description","disable_garbage_collection","experiment_file","experiment_path","font_bold","font_family","font_italic","font_size","font_underline","foreground","form_clicks","fullscreen","height","keyboard_backend","live_row","live_row_block1","logfile","mouse_backend","opensesame_codename","opensesame_version","repeat_cycle","response","response_break1","response_break2","response_break3_1","response_end_screen","response_instructions_1","response_new_keyboard_response_1","response_time","response_time_break1","response_time_break2","response_time_break3_1","response_time_end_screen","response_time_instructions_1","response_time_new_keyboard_response_1","round_decimals","sampler_backend","sound_buf_size","sound_channels","sound_freq","sound_sample_size","start","subject_nr","subject_parity","targ_type","target","time_BA_m21","time_ITI","time_blank_screen","time_blink_screen","time_block1","time_break1","time_break2","time_break3_1","time_canvas","time_correct_trigger","time_def_chain","time_end_screen","time_fixation_1","time_getting_started","time_inc_counter","time_incorrect_trigger","time_instructions_1","time_logger","time_logscript","time_new_inline_script","time_new_keyboard_response_1","time_reset_counter_prep","time_reset_counter_run","time_responsescreen","time_sequence","time_start_trigger","time_target_present","time_word_trigger","title","total_correct","total_response_time","total_responses","uniform_coordinates","width","word_trig"
"300","100","100","812","812","black","no","xpyriment","legacy","legacy","0","201","NA","uniform","56125","1000","0.0178173719376","1","undefined","1","0","0","0","0","0","0","0","0","NA","0","0","0","0","NA","0","0","0","0","NA","0","NA","0","0","0","0","0","0","0","0","1","/","12/04/18 16:03:48","The main experiment item","yes","FIN__BA__M21__7%3A10%3A17.osexp","C:\Users\ERP Testing Room\Desktop\Joanna\morph21","no","mono","no","18","no","white","no","yes","1080","legacy","0","0","C:/Users/ERP Testing Room/Desktop/Joanna/morph21/subject-155.csv","xpyriment","Kafkaesque Koffka","3.2.5","0","/","NA","NA","NA","NA","space","/","812","NA","NA","NA","NA","330939","812","2","legacy","1024","2","48000","-16","BA_m21","155","odd","CW_S","DESTROYER","1946","335695","334044","NA","332906","NA","NA","NA","NA","335689","334541","NA","333541","NA","333465","335689","1967","335995","NA","NA","334694","1947","1947","335094","333465","1947","334694","335995","morph21_Oliver/Morris","1","812","1","yes","1280","14"
"300","100","100","755","755","black","no","xpyriment","legacy","legacy","0","201","NA","uniform","65465","1000","0.0152753379669","1","undefined","1","0","1","1","1","0","1","1","1","NA","1","1","0","1","NA","1","1","0","1","NA","1","NA","1","0","0","1","1","0","1","1","2","/","12/04/18 16:03:48","The main experiment item","yes","FIN__BA__M21__7%3A10%3A17.osexp","C:\Users\ERP Testing Room\Desktop\Joanna\morph21","no","mono","no","18","no","white","no","yes","1080","legacy","1","1","C:/Users/ERP Testing Room/Desktop/Joanna/morph21/subject-155.csv","xpyriment","Kafkaesque Koffka","3.2.5","0","/","NA","NA","NA","NA","space","/","698","NA","NA","NA","NA","330939","698","2","legacy","1024","2","48000","-16","BA_m21","155","odd","CW_S","ATTACKER","1946","338729","337070","NA","332906","NA","NA","NA","NA","338720","337567","NA","336570","NA","336564","338720","1967","339029","NA","NA","337729","1947","1947","338120","336564","1947","337729","339029","morph21_Oliver/Morris","2","1510","2","yes","1280","20"
"400","100","100","802","802","black","no","xpyriment","legacy","legacy","0","208","NA","uniform","57307","1000","0.0174498752334","1","undefined","1","0","2","2","2","0","2","2","2","NA","2","2","0","2","NA","2","2","0","2","NA","2","NA","2","0","0","2","2","0","2","2","3","z","12/04/18 16:03:48","The main experiment item","yes","FIN__BA__M21__7%3A10%3A17.osexp","C:\Users\ERP Testing Room\Desktop\Joanna\morph21","no","mono","no","18","no","white","no","yes","1080","legacy","2","2","C:/Users/ERP Testing Room/Desktop/Joanna/morph21/subject-155.csv","xpyriment","Kafkaesque Koffka","3.2.5","0","z","NA","NA","NA","NA","space","z","896","NA","NA","NA","NA","330939","896","2","legacy","1024","2","48000","-16","BA_m21","155","odd","FILL_NW","FROES","1946","343287","340104","341779","332906","NA","NA","NA","NA","341769","340601","NA","339604","NA","339595","341769","1967","343687","NA","NA","340779","1947","1947","341170","339595","1947","340779","343687","morph21_Oliver/Morris","3","2406","3","yes","1280","21"
"300","100","100","792.5","792.5","black","no","xpyriment","legacy","legacy","0","208","NA","uniform","58072","1000","0.0172200027552","1","undefined","1","0","3","3","3","0","3","3","3","NA","3","3","0","3","NA","3","3","0","3","NA","3","NA","3","0","0","3","3","0","3","3","4","z","12/04/18 16:03:48","The main experiment item","yes","FIN__BA__M21__7%3A10%3A17.osexp","C:\Users\ERP Testing Room\Desktop\Joanna\morph21","no","mono","no","18","no","white","no","yes","1080","legacy","3","3","C:/Users/ERP Testing Room/Desktop/Joanna/morph21/subject-155.csv","xpyriment","Kafkaesque Koffka","3.2.5","0","z","NA","NA","NA","NA","space","z","764","NA","NA","NA","NA","330939","764","2","legacy","1024","2","48000","-16","BA_m21","155","odd","FILL_NW","HEEM","1946","346446","344771","341779","332906","NA","NA","NA","NA","346438","345268","NA","344271","NA","344268","346438","1967","346746","NA","NA","345446","1947","1947","345837","344268","1947","345446","346746","morph21_Oliver/Morris","4","3170","4","yes","1280","27"
"300","100","100","770.4","770.4","black","no","xpyriment","legacy","legacy","0","207","NA","uniform","63975","1000","0.0156311059007","1","undefined","1","0","4","4","4","0","4","4","4","NA","4","4","0","4","NA","4","4","0","4","NA","4","NA","4","0","0","4","4","0","4","4","5","/","12/04/18 16:03:48","The main experiment item","yes","FIN__BA__M21__7%3A10%3A17.osexp","C:\Users\ERP Testing Room\Desktop\Joanna\morph21","no","mono","no","18","no","white","no","yes","1080","legacy","4","4","C:/Users/ERP Testing Room/Desktop/Joanna/morph21/subject-155.csv","xpyriment","Kafkaesque Koffka","3.2.5","0","/","NA","NA","NA","NA","space","/","682","NA","NA","NA","NA","330939","682","2","legacy","1024","2","48000","-16","BA_m21","155","odd","FILL_W","BOX","1946","349496","347837","341779","332906","NA","NA","NA","NA","349491","348335","NA","347337","NA","347330","349491","1967","349796","NA","NA","348496","1947","1947","348896","347330","1947","348496","349796","morph21_Oliver/Morris","5","3852","5","yes","1280","42"
"350","100","100","733.666666667","733.666666667","black","no","xpyriment","legacy","legacy","0","207","NA","uniform","71280","1000","0.0140291806958","1","undefined","1","0","5","5","5","0","5","5","5","NA","5","5","0","5","NA","5","5","0","5","NA","5","NA","5","0","0","5","5","0","5","5","6","/","12/04/18 16:03:48","The main experiment item","yes","FIN__BA__M21__7%3A10%3A17.osexp","C:\Users\ERP Testing Room\Desktop\Joanna\morph21","no","mono","no","18","no","white","no","yes","1080","legacy","5","5","C:/Users/ERP Testing Room/Desktop/Joanna/morph21/subject-155.csv","xpyriment","Kafkaesque Koffka","3.2.5","0","/","NA","NA","NA","NA","space","/","550","NA","NA","NA","NA","330939","550","2","legacy","1024","2","48000","-16","BA_m21","155","odd","FILL_W","GLOOM","1946","354114","350921","352604","332906","NA","NA","NA","NA","352601","351418","NA","350421","NA","350410","352601","1967","354464","NA","NA","351604","1947","1947","352004","350410","1947","351604","354464","morph21_Oliver/Morris","6","4402","6","yes","1280","14"
"250","85.7142857143","85.7142857143","732.428571429","732.428571429","black","no","xpyriment","legacy","legacy","0","201","NA","uniform","64648","1000","0.0154683826259","0","undefined","0","0","6","6","6","0","6","6","6","NA","6","6","0","6","NA","6","6","0","6","NA","6","NA","6","0","0","6","6","0","6","6","7","/","12/04/18 16:03:48","The main experiment item","yes","FIN__BA__M21__7%3A10%3A17.osexp","C:\Users\ERP Testing Room\Desktop\Joanna\morph21","no","mono","no","18","no","white","no","yes","1080","legacy","6","6","C:/Users/ERP Testing Room/Desktop/Joanna/morph21/subject-155.csv","xpyriment","Kafkaesque Koffka","3.2.5","0","z","NA","NA","NA","NA","space","z","725","NA","NA","NA","NA","330939","725","2","legacy","1024","2","48000","-16","BA_m21","155","odd","CW_S","GRIMLY","1946","357222","355539","352604","332906","NA","NA","NA","NA","352601","356036","NA","355039","NA","355033","357212","1967","357472","NA","NA","356222","1947","1947","356614","355033","1947","356222","357472","morph21_Oliver/Morris","6","5127","7","yes","1280","31"
"400","87.5","87.5","731.5","731.5","black","no","xpyriment","legacy","legacy","0","202","NA","uniform","59853","1000","0.0167076002874","1","undefined","1","0","7","7","7","0","7","7","7","NA","7","7","0","7","NA","7","7","0","7","NA","7","NA","7","0","0","7","7","0","7","7","8","/","12/04/18 16:03:48","The main experiment item","yes","FIN__BA__M21__7%3A10%3A17.osexp","C:\Users\ERP Testing Room\Desktop\Joanna\morph21","no","mono","no","18","no","white","no","yes","1080","legacy","7","7","C:/Users/ERP Testing Room/Desktop/Joanna/morph21/subject-155.csv","xpyriment","Kafkaesque Koffka","3.2.5","0","/","NA","NA","NA","NA","space","/","725","NA","NA","NA","NA","330939","725","2","legacy","1024","2","48000","-16","BA_m21","155","odd","CW_L","DRYNESS","1946","360214","358531","352604","332906","NA","NA","NA","NA","360204","359028","NA","358031","NA","358024","360204","1967","360614","NA","NA","359214","1947","1947","359606","358024","1947","359214","360614","morph21_Oliver/Morris","7","5852","8","yes","1280","42"
"350","88.8888888889","88.8888888889","717.222222222","717.222222222","black","no","xpyriment","legacy","legacy","0","207","NA","uniform","69497","1000","0.0143891103213","1","undefined","1","0","8","8","8","0","8","8","8","NA","8","8","0","8","NA","8","8","0","8","NA","8","NA","8","0","0","8","8","0","8","8","9","/","12/04/18 16:03:48","The main experiment item","yes","FIN__BA__M21__7%3A10%3A17.osexp","C:\Users\ERP Testing Room\Desktop\Joanna\morph21","no","mono","no","18","no","white","no","yes","1080","legacy","8","8","C:/Users/ERP Testing Room/Desktop/Joanna/morph21/subject-155.csv","xpyriment","Kafkaesque Koffka","3.2.5","0","/","NA","NA","NA","NA","space","/","603","NA","NA","NA","NA","330939","603","2","legacy","1024","2","48000","-16","BA_m21","155","odd","FILL_W","FOLLOW","1946","364948","361781","363439","332906","NA","NA","NA","NA","363436","362278","NA","361281","NA","361275","363436","1967","365298","NA","NA","362439","1947","1947","362839","361275","1947","362439","365298","morph21_Oliver/Morris","8","6455","9","yes","1280","17"
"200","90","90","701.6","701.6","black","no","xpyriment","legacy","legacy","0","202","NA","uniform","67982","1000","0.0147097761172","1","undefined","1","0","9","9","9","0","9","9","9","NA","9","9","0","9","NA","9","9","0","9","NA","9","NA","9","0","0","9","9","0","9","9","10","/","12/04/18 16:03:48","The main experiment item","yes","FIN__BA__M21__7%3A10%3A17.osexp","C:\Users\ERP Testing Room\Desktop\Joanna\morph21","no","mono","no","18","no","white","no","yes","1080","legacy","9","9","C:/Users/ERP Testing Room/Desktop/Joanna/morph21/subject-155.csv","xpyriment","Kafkaesque Koffka","3.2.5","0","/","NA","NA","NA","NA","space","/","561","NA","NA","NA","NA","330939","561","2","legacy","1024","2","48000","-16","BA_m21","155","odd","CW_L","COLLECTOR","1946","368089","366431","363439","332906","NA","NA","NA","NA","368086","366928","NA","365931","NA","365924","368086","1967","368289","NA","NA","367089","1947","1947","367489","365924","1947","367089","368289","morph21_Oliver/Morris","9","7016","10","yes","1280","46"
"350","90.9090909091","90.9090909091","680.181818182","680.181818182","black","no","xpyriment","legacy","legacy","0","202","NA","uniform","74258","1000","0.0134665625252","1","undefined","1","0","10","10","10","0","10","10","10","NA","10","10","0","10","NA","10","10","0","10","NA","10","NA","10","0","0","10","10","0","10","10","11","/","12/04/18 16:03:48","The main experiment item","yes","FIN__BA__M21__7%3A10%3A17.osexp","C:\Users\ERP Testing Room\Desktop\Joanna\morph21","no","mono","no","18","no","white","no","yes","1080","legacy","10","10","C:/Users/ERP Testing Room/Desktop/Joanna/morph21/subject-155.csv","xpyriment","Kafkaesque Koffka","3.2.5","0","/","NA","NA","NA","NA","space","/","466","NA","NA","NA","NA","330939","466","2","legacy","1024","2","48000","-16","BA_m21","155","odd","CW_L","PUNCHER","1946","371057","369398","363439","332906","NA","NA","NA","NA","371054","369895","NA","368898","NA","368891","371054","1967","371407","NA","NA","370064","1947","1947","370456","368891","1947","370064","371407","morph21_Oliver/Morris","10","7482","11","yes","1280","1"
"250","91.6666666667","91.6666666667","670.75","670.75","black","no","xpyriment","legacy","legacy","0","201","NA","uniform","69981","1000","0.0142895928895","1","undefined","1","0","11","11","11","0","11","11","11","NA","11","11","0","11","NA","11","11","0","11","NA","11","NA","11","0","0","11","11","0","11","11","12","/","12/04/18 16:03:48","The main experiment item","yes","FIN__BA__M21__7%3A10%3A17.osexp","C:\Users\ERP Testing Room\Desktop\Joanna\morph21","no","mono","no","18","no","white","no","yes","1080","legacy","11","11","C:/Users/ERP Testing Room/Desktop/Joanna/morph21/subject-155.csv","xpyriment","Kafkaesque Koffka","3.2.5","0","/","NA","NA","NA","NA","space","/","567","NA","NA","NA","NA","330939","567","2","legacy","1024","2","48000","-16","BA_m21","155","odd","CW_S","AWARENESS","1946","375641","372457","374132","332906","NA","NA","NA","NA","374123","372954","NA","371957","NA","371950","374123","1967","375891","NA","NA","373132","1947","1947","373524","371950","1947","373132","375891","morph21_Oliver/Morris","11","8049","12","yes","1280","44"
"350","92.3076923077","92.3076923077","669.769230769","669.769230769","black","no","xpyriment","legacy","legacy","0","208","NA","uniform","65413","1000","0.0152874810817","1","undefined","1","0","12","12","12","0","12","12","12","NA","12","12","0","12","NA","12","12","0","12","NA","12","NA","12","0","0","12","12","0","12","12","13","z","12/04/18 16:03:48","The main experiment item","yes","FIN__BA__M21__7%3A10%3A17.osexp","C:\Users\ERP Testing Room\Desktop\Joanna\morph21","no","mono","no","18","no","white","no","yes","1080","legacy","12","12","C:/Users/ERP Testing Room/Desktop/Joanna/morph21/subject-155.csv","xpyriment","Kafkaesque Koffka","3.2.5","0","z","NA","NA","NA","NA","space","z","658","NA","NA","NA","NA","330939","658","2","legacy","1024","2","48000","-16","BA_m21","155","odd","FILL_NW","DELP","1946","378657","377007","374132","332906","NA","NA","NA","NA","378649","377504","NA","376507","NA","376498","378649","1967","379007","NA","NA","377657","1947","1947","378049","376498","1947","377657","379007","morph21_Oliver/Morris","12","8707","13","yes","1280","14"
"400","92.8571428571","92.8571428571","655.142857143","655.142857143","black","no","xpyriment","legacy","legacy","0","207","NA","uniform","74328","1000","0.013453880099","1","undefined","1","0","13","13","13","0","13","13","13","NA","13","13","0","13","NA","13","13","0","13","NA","13","NA","13","0","0","13","13","0","13","13","14","/","12/04/18 16:03:48","The main experiment item","yes","FIN__BA__M21__7%3A10%3A17.osexp","C:\Users\ERP Testing Room\Desktop\Joanna\morph21","no","mono","no","18","no","white","no","yes","1080","legacy","13","13","C:/Users/ERP Testing Room/Desktop/Joanna/morph21/subject-155.csv","xpyriment","Kafkaesque Koffka","3.2.5","0","/","NA","NA","NA","NA","space","/","465","NA","NA","NA","NA","330939","465","2","legacy","1024","2","48000","-16","BA_m21","155","odd","FILL_W","CRUNCH","1946","381841","380166","374132","332906","NA","NA","NA","NA","381836","380663","NA","379666","NA","379659","381836","1967","382241","NA","NA","380841","1947","1947","381241","379659","1947","380841","382241","morph21_Oliver/Morris","13","9172","14","yes","1280","20"
"250","93.3333333333","93.3333333333","661.2","661.2","black","no","xpyriment","legacy","legacy","0","203","NA","uniform","60318","1000","0.0165787990318","1","undefined","1","0","14","14","14","0","14","14","14","NA","14","14","0","14","NA","14","14","0","14","NA","14","NA","14","0","0","14","14","0","14","14","15","z","12/04/18 16:03:48","The main experiment item","yes","FIN__BA__M21__7%3A10%3A17.osexp","C:\Users\ERP Testing Room\Desktop\Joanna\morph21","no","mono","no","18","no","white","no","yes","1080","legacy","14","14","C:/Users/ERP Testing Room/Desktop/Joanna/morph21/subject-155.csv","xpyriment","Kafkaesque Koffka","3.2.5","0","z","NA","NA","NA","NA","space","z","746","NA","NA","NA","NA","330939","746","2","legacy","1024","2","48000","-16","BA_m21","155","odd","NW_S_COMP","BRANCHEL","1946","386516","383349","385008","332906","NA","NA","NA","NA","385004","383846","NA","382849","NA","382838","385004","1967","386766","NA","NA","384016","1947","1947","384408","382838","1947","384016","386766","morph21_Oliver/Morris","14","9918","15","yes","1280","16"
"400","93.75","93.75","673.0625","673.0625","black","no","xpyriment","legacy","legacy","0","205","NA","uniform","57764","1000","0.017311820511","1","undefined","1","0","15","15","15","0","15","15","15","NA","15","15","0","15","NA","15","15","0","15","NA","15","NA","15","0","0","15","15","0","15","15","16","z","12/04/18 16:03:48","The main experiment item","yes","FIN__BA__M21__7%3A10%3A17.osexp","C:\Users\ERP Testing Room\Desktop\Joanna\morph21","no","mono","no","18","no","white","no","yes","1080","legacy","15","15","C:/Users/ERP Testing Room/Desktop/Joanna/morph21/subject-155.csv","xpyriment","Kafkaesque Koffka","3.2.5","0","z","NA","NA","NA","NA","space","z","851","NA","NA","NA","NA","330939","851","2","legacy","1024","2","48000","-16","BA_m21","155","odd","NW_S_SIMP","RAMPIZE","1946","389584","387908","385008","332906","NA","NA","NA","NA","389574","388405","NA","387408","NA","387401","389574","1967","389984","NA","NA","388584","1947","1947","388976","387401","1947","388584","389984","morph21_Oliver/Morris","15","10769","16","yes","1280","6"
"350","94.1176470588","94.1176470588","675.588235294","675.588235294","black","no","xpyriment","legacy","legacy","0","202","NA","uniform","59609","1000","0.0167759902028","1","undefined","1","0","16","16","16","0","16","16","16","NA","16","16","0","16","NA","16","16","0","16","NA","16","NA","16","0","0","16","16","0","16","16","17","/","12/04/18 16:03:48","The main experiment item","yes","FIN__BA__M21__7%3A10%3A17.osexp","C:\Users\ERP Testing Room\Desktop\Joanna\morph21","no","mono","no","18","no","white","no","yes","1080","legacy","16","16","C:/Users/ERP Testing Room/Desktop/Joanna/morph21/subject-155.csv","xpyriment","Kafkaesque Koffka","3.2.5","0","/","NA","NA","NA","NA","space","/","716","NA","NA","NA","NA","330939","716","2","legacy","1024","2","48000","-16","BA_m21","155","odd","CW_L","SWIMMER","1946","392767","391067","385008","332906","NA","NA","NA","NA","392757","391564","NA","390567","NA","390556","392757","1967","393117","NA","NA","391767","1947","1947","392159","390556","1947","391767","393117","morph21_Oliver/Morris","16","11485","17","yes","1280","5"
"300","88.8888888889","88.8888888889","693.333333333","693.333333333","black","no","xpyriment","legacy","legacy","0","201","NA","uniform","52340","1000","0.019105846389","0","undefined","0","0","17","17","17","0","17","17","17","NA","17","17","0","17","NA","17","17","0","17","NA","17","NA","17","0","0","17","17","0","17","17","18","/","12/04/18 16:03:48","The main experiment item","yes","FIN__BA__M21__7%3A10%3A17.osexp","C:\Users\ERP Testing Room\Desktop\Joanna\morph21","no","mono","no","18","no","white","no","yes","1080","legacy","17","17","C:/Users/ERP Testing Room/Desktop/Joanna/morph21/subject-155.csv","xpyriment","Kafkaesque Koffka","3.2.5","0","None","NA","NA","NA","NA","space","None","995","NA","NA","NA","NA","330939","995","2","legacy","1024","2","48000","-16","BA_m21","155","odd","CW_S","DETECTABLE","1946","397351","394184","395842","332906","NA","NA","NA","NA","392757","394681","NA","393684","NA","393677","395837","1967","397651","NA","NA","394842","1947","1947","395234","393677","1947","394842","397651","morph21_Oliver/Morris","16","12480","18","yes","1280","1"
"350","89.4736842105","89.4736842105","690.789473684","690.789473684","black","no","xpyriment","legacy","legacy","0","201","NA","uniform","66254","1000","0.0150934283213","1","undefined","1","0","18","18","18","0","18","18","18","NA","18","18","0","18","NA","18","18","0","18","NA","18","NA","18","0","0","18","18","0","18","18","19","/","12/04/18 16:03:48","The main experiment item","yes","FIN__BA__M21__7%3A10%3A17.osexp","C:\Users\ERP Testing Room\Desktop\Joanna\morph21","no","mono","no","18","no","white","no","yes","1080","legacy","18","18","C:/Users/ERP Testing Room/Desktop/Joanna/morph21/subject-155.csv","xpyriment","Kafkaesque Koffka","3.2.5","0","/","NA","NA","NA","NA","space","/","645","NA","NA","NA","NA","330939","645","2","legacy","1024","2","48000","-16","BA_m21","155","odd","CW_S","NEATLY","1946","400484","398818","395842","332906","NA","NA","NA","NA","400481","399315","NA","398318","NA","398312","400481","1967","400834","NA","NA","399493","1947","1947","399884","398312","1947","399493","400834","morph21_Oliver/Morris","17","13125","19","yes","1280","33"
"200","90","90","690.7","690.7","black","no","xpyriment","legacy","legacy","0","205","NA","uniform","64186","1000","0.0155797214346","1","undefined","1","0","19","19","19","0","19","19","19","NA","19","19","0","19","NA","19","19","0","19","NA","19","NA","19","0","0","19","19","0","19","19","20","z","12/04/18 16:03:48","The main experiment item","yes","FIN__BA__M21__7%3A10%3A17.osexp","C:\Users\ERP Testing Room\Desktop\Joanna\morph21","no","mono","no","18","no","white","no","yes","1080","legacy","19","19","C:/Users/ERP Testing Room/Desktop/Joanna/morph21/subject-155.csv","xpyriment","Kafkaesque Koffka","3.2.5","0","z","NA","NA","NA","NA","space","z","689","NA","NA","NA","NA","330939","689","2","legacy","1024","2","48000","-16","BA_m21","155","odd","NW_S_SIMP","NULLISH","1946","403593","401926","395842","332906","NA","NA","NA","NA","403589","402423","NA","401426","NA","401423","403589","1967","403793","NA","NA","402601","1947","1947","402993","401423","1947","402601","403793","morph21_Oliver/Morris","18","13814","20","yes","1280","23"
"200","90.4761904762","90.4761904762","684","684","black","no","xpyriment","legacy","legacy","0","207","NA","uniform","71014","1000","0.014081730363","1","undefined","1","0","20","20","20","0","20","20","20","NA","20","20","0","20","NA","20","20","0","20","NA","20","NA","20","0","0","20","20","0","20","20","21","/","12/04/18 16:03:48","The main experiment item","yes","FIN__BA__M21__7%3A10%3A17.osexp","C:\Users\ERP Testing Room\Desktop\Joanna\morph21","no","mono","no","18","no","white","no","yes","1080","legacy","20","20","C:/Users/ERP Testing Room/Desktop/Joanna/morph21/subject-155.csv","xpyriment","Kafkaesque Koffka","3.2.5","0","/","NA","NA","NA","NA","space","/","550","NA","NA","NA","NA","330939","550","2","legacy","1024","2","48000","-16","BA_m21","155","odd","FILL_W","BRASS","1946","408186","405018","406677","332906","NA","NA","NA","NA","406668","405515","NA","404518","NA","404508","406668","1967","408386","NA","NA","405677","1947","1947","406069","404508","1947","405677","408386","morph21_Oliver/Morris","19","14364","21","yes","1280","10"
"300","90.9090909091","90.9090909091","682.5","682.5","black","no","xpyriment","legacy","legacy","0","207","NA","uniform","63464","1000","0.0157569645783","1","undefined","1","0","21","21","21","0","21","21","21","NA","21","21","0","21","NA","21","21","0","21","NA","21","NA","21","0","0","21","21","0","21","21","22","/","12/04/18 16:03:48","The main experiment item","yes","FIN__BA__M21__7%3A10%3A17.osexp","C:\Users\ERP Testing Room\Desktop\Joanna\morph21","no","mono","no","18","no","white","no","yes","1080","legacy","21","21","C:/Users/ERP Testing Room/Desktop/Joanna/morph21/subject-155.csv","xpyriment","Kafkaesque Koffka","3.2.5","0","/","NA","NA","NA","NA","space","/","651","NA","NA","NA","NA","330939","651","2","legacy","1024","2","48000","-16","BA_m21","155","odd","FILL_W","IRON","1946","411152","409494","406677","332906","NA","NA","NA","NA","411143","409991","NA","408994","NA","408985","411143","1967","411452","NA","NA","410152","1947","1947","410544","408985","1947","410152","411452","morph21_Oliver/Morris","20","15015","22","yes","1280","33"
"250","86.9565217391","86.9565217391","695.913043478","695.913043478","black","no","xpyriment","legacy","legacy","0","207","NA","uniform","49182","1000","0.0203326420235","0","undefined","0","0","22","22","22","0","22","22","22","NA","22","22","0","22","NA","22","22","0","22","NA","22","NA","22","0","0","22","22","0","22","22","23","/","12/04/18 16:03:48","The main experiment item","yes","FIN__BA__M21__7%3A10%3A17.osexp","C:\Users\ERP Testing Room\Desktop\Joanna\morph21","no","mono","no","18","no","white","no","yes","1080","legacy","22","22","C:/Users/ERP Testing Room/Desktop/Joanna/morph21/subject-155.csv","xpyriment","Kafkaesque Koffka","3.2.5","0","None","NA","NA","NA","NA","space","None","991","NA","NA","NA","NA","330939","991","2","legacy","1024","2","48000","-16","BA_m21","155","odd","FILL_W","SPLICE","1946","414253","412544","406677","332906","NA","NA","NA","NA","411143","413041","NA","412044","NA","412035","414245","1967","414503","NA","NA","413253","1947","1947","413644","412035","1947","413252","414503","morph21_Oliver/Morris","20","16006","23","yes","1280","22"
"300","87.5","87.5","690.833333333","690.833333333","black","no","xpyriment","legacy","legacy","0","202","NA","uniform","64987","1000","0.0153876929232","1","undefined","1","0","23","23","23","0","23","23","23","NA","23","23","0","23","NA","23","23","0","23","NA","23","NA","23","0","0","23","23","0","23","23","24","/","12/04/18 16:03:48","The main experiment item","yes","FIN__BA__M21__7%3A10%3A17.osexp","C:\Users\ERP Testing Room\Desktop\Joanna\morph21","no","mono","no","18","no","white","no","yes","1080","legacy","23","23","C:/Users/ERP Testing Room/Desktop/Joanna/morph21/subject-155.csv","xpyriment","Kafkaesque Koffka","3.2.5","0","/","NA","NA","NA","NA","space","/","574","NA","NA","NA","NA","330939","574","2","legacy","1024","2","48000","-16","BA_m21","155","odd","CW_L","PROFESSOR","1946","418753","415569","417244","332906","NA","NA","NA","NA","417238","416066","NA","415069","NA","415061","417238","1967","419053","NA","NA","416244","1947","1947","416636","415061","1947","416244","419053","morph21_Oliver/Morris","21","16580","24","yes","1280","47"
"200","88","88","690.28","690.28","black","no","xpyriment","legacy","legacy","0","201","NA","uniform","65816","1000","0.0151938738301","1","undefined","1","0","24","24","24","0","24","24","24","NA","24","24","0","24","NA","24","24","0","24","NA","24","NA","24","0","0","24","24","0","24","24","25","/","12/04/18 16:03:48","The main experiment item","yes","FIN__BA__M21__7%3A10%3A17.osexp","C:\Users\ERP Testing Room\Desktop\Joanna\morph21","no","mono","no","18","no","white","no","yes","1080","legacy","24","24","C:/Users/ERP Testing Room/Desktop/Joanna/morph21/subject-155.csv","xpyriment","Kafkaesque Koffka","3.2.5","0","/","NA","NA","NA","NA","space","/","677","NA","NA","NA","NA","330939","677","2","legacy","1024","2","48000","-16","BA_m21","155","odd","CW_S","CAMPAIGNER","1946","421836","420136","417244","332906","NA","NA","NA","NA","421834","420633","NA","419636","NA","419624","421834","1967","422036","NA","NA","420845","1947","1947","421236","419624","1947","420844","422036","morph21_Oliver/Morris","22","17257","25","yes","1280","15"
"300","88.4615384615","88.4615384615","692.615384615","692.615384615","black","no","xpyriment","legacy","legacy","0","206","NA","uniform","63282","1000","0.0158022818495","1","undefined","1","0","25","25","25","0","25","25","25","NA","25","25","0","25","NA","25","25","0","25","NA","25","NA","25","0","0","25","25","0","25","25","26","z","12/04/18 16:03:48","The main experiment item","yes","FIN__BA__M21__7%3A10%3A17.osexp","C:\Users\ERP Testing Room\Desktop\Joanna\morph21","no","mono","no","18","no","white","no","yes","1080","legacy","25","25","C:/Users/ERP Testing Room/Desktop/Joanna/morph21/subject-155.csv","xpyriment","Kafkaesque Koffka","3.2.5","0","z","NA","NA","NA","NA","space","z","751","NA","NA","NA","NA","330939","751","2","legacy","1024","2","48000","-16","BA_m21","155","odd","NW_L_SIMP","BEGENCE","1946","424796","423146","417244","332906","NA","NA","NA","NA","424791","423643","NA","422645","NA","422636","424791","1967","425096","NA","NA","423796","1947","1947","424196","422636","1947","423796","425096","morph21_Oliver/Morris","23","18008","26","yes","1280","4"
"250","88.8888888889","88.8888888889","689.888888889","689.888888889","black","no","xpyriment","legacy","legacy","0","208","NA","uniform","66453","1000","0.0150482295758","1","undefined","1","0","26","26","26","0","26","26","26","NA","26","26","0","26","NA","26","26","0","26","NA","26","NA","26","0","0","26","26","0","26","26","27","z","12/04/18 16:03:48","The main experiment item","yes","FIN__BA__M21__7%3A10%3A17.osexp","C:\Users\ERP Testing Room\Desktop\Joanna\morph21","no","mono","no","18","no","white","no","yes","1080","legacy","26","26","C:/Users/ERP Testing Room/Desktop/Joanna/morph21/subject-155.csv","xpyriment","Kafkaesque Koffka","3.2.5","0","z","NA","NA","NA","NA","space","z","619","NA","NA","NA","NA","330939","619","2","legacy","1024","2","48000","-16","BA_m21","155","odd","FILL_NW","PIFTH","1946","429413","426221","427904","332906","NA","NA","NA","NA","427894","426718","NA","425721","NA","425714","427894","1967","429663","NA","NA","426904","1947","1947","427296","425714","1947","426904","429663","morph21_Oliver/Morris","24","18627","27","yes","1280","36"
"250","89.2857142857","89.2857142857","685.75","685.75","black","no","xpyriment","legacy","legacy","0","207","NA","uniform","70326","1000","0.0142194920797","1","undefined","1","0","27","27","27","0","27","27","27","NA","27","27","0","27","NA","27","27","0","27","NA","27","NA","27","0","0","27","27","0","27","27","28","/","12/04/18 16:03:48","The main experiment item","yes","FIN__BA__M21__7%3A10%3A17.osexp","C:\Users\ERP Testing Room\Desktop\Joanna\morph21","no","mono","no","18","no","white","no","yes","1080","legacy","27","27","C:/Users/ERP Testing Room/Desktop/Joanna/morph21/subject-155.csv","xpyriment","Kafkaesque Koffka","3.2.5","0","/","NA","NA","NA","NA","space","/","574","NA","NA","NA","NA","330939","574","2","legacy","1024","2","48000","-16","BA_m21","155","odd","FILL_W","SLIM","1946","432429","430754","427904","332906","NA","NA","NA","NA","432423","431251","NA","430254","NA","430243","432423","1967","432679","NA","NA","431429","1947","1947","431821","430243","1947","431429","432679","morph21_Oliver/Morris","25","19201","28","yes","1280","6"
"200","89.6551724138","89.6551724138","683.275862069","683.275862069","black","no","xpyriment","legacy","legacy","0","202","NA","uniform","68777","1000","0.0145397443913","1","undefined","1","0","28","28","28","0","28","28","28","NA","28","28","0","28","NA","28","28","0","28","NA","28","NA","28","0","0","28","28","0","28","28","29","/","12/04/18 16:03:48","The main experiment item","yes","FIN__BA__M21__7%3A10%3A17.osexp","C:\Users\ERP Testing Room\Desktop\Joanna\morph21","no","mono","no","18","no","white","no","yes","1080","legacy","28","28","C:/Users/ERP Testing Room/Desktop/Joanna/morph21/subject-155.csv","xpyriment","Kafkaesque Koffka","3.2.5","0","/","NA","NA","NA","NA","space","/","614","NA","NA","NA","NA","330939","614","2","legacy","1024","2","48000","-16","BA_m21","155","odd","CW_L","BOOTLESS","1946","435588","433888","427904","332906","NA","NA","NA","NA","435582","434385","NA","433388","NA","433376","435582","1967","435788","NA","NA","434588","1947","1947","434979","433376","1947","434588","435788","morph21_Oliver/Morris","26","19815","29","yes","1280","32"
"200","90","90","687.3","687.3","black","no","xpyriment","legacy","legacy","0","205","NA","uniform","59387","1000","0.0168387020728","1","undefined","1","0","29","29","29","0","29","29","29","NA","29","29","0","29","NA","29","29","0","29","NA","29","NA","29","0","0","29","29","0","29","29","30","z","12/04/18 16:03:48","The main experiment item","yes","FIN__BA__M21__7%3A10%3A17.osexp","C:\Users\ERP Testing Room\Desktop\Joanna\morph21","no","mono","no","18","no","white","no","yes","1080","legacy","29","29","C:/Users/ERP Testing Room/Desktop/Joanna/morph21/subject-155.csv","xpyriment","Kafkaesque Koffka","3.2.5","0","z","NA","NA","NA","NA","space","z","804","NA","NA","NA","NA","330939","804","2","legacy","1024","2","48000","-16","BA_m21","155","odd","NW_S_SIMP","GUMFUL","1946","440138","436913","438630","332906","NA","NA","NA","NA","438619","437410","NA","436405","NA","436394","438619","1967","440338","NA","NA","437630","1947","1947","438021","436394","1947","437630","440338","morph21_Oliver/Morris","27","20619","30","yes","1280","2"
"350","90.3225806452","90.3225806452","684.258064516","684.258064516","black","no","xpyriment","legacy","legacy","0","208","NA","uniform","69450","1000","0.0143988480922","1","undefined","1","0","30","30","30","0","30","30","30","NA","30","30","0","30","NA","30","30","0","30","NA","30","NA","30","0","0","30","30","0","30","30","31","z","12/04/18 16:03:48","The main experiment item","yes","FIN__BA__M21__7%3A10%3A17.osexp","C:\Users\ERP Testing Room\Desktop\Joanna\morph21","no","mono","no","18","no","white","no","yes","1080","legacy","30","30","C:/Users/ERP Testing Room/Desktop/Joanna/morph21/subject-155.csv","xpyriment","Kafkaesque Koffka","3.2.5","0","z","NA","NA","NA","NA","space","z","593","NA","NA","NA","NA","330939","593","2","legacy","1024","2","48000","-16","BA_m21","155","odd","FILL_NW","DOADS","1946","443122","441464","438630","332906","NA","NA","NA","NA","443117","441961","NA","440964","NA","440961","443117","1967","443472","NA","NA","442122","1947","1947","442514","440960","1947","442122","443472","morph21_Oliver/Morris","28","21212","31","yes","1280","15"
"300","90.625","90.625","684.5","684.5","black","no","xpyriment","legacy","legacy","0","204","NA","uniform","65194","1000","0.0153388348621","1","undefined","1","0","31","31","31","0","31","31","31","NA","31","31","0","31","NA","31","31","0","31","NA","31","NA","31","0","0","31","31","0","31","31","32","z","12/04/18 16:03:48","The main experiment item","yes","FIN__BA__M21__7%3A10%3A17.osexp","C:\Users\ERP Testing Room\Desktop\Joanna\morph21","no","mono","no","18","no","white","no","yes","1080","legacy","31","31","C:/Users/ERP Testing Room/Desktop/Joanna/morph21/subject-155.csv","xpyriment","Kafkaesque Koffka","3.2.5","0","z","NA","NA","NA","NA","space","z","692","NA","NA","NA","NA","330939","692","2","legacy","1024","2","48000","-16","BA_m21","155","odd","NW_L_COMP","ILLILT","1946","446239","444573","438630","332906","NA","NA","NA","NA","446230","445070","NA","444072","NA","444067","446230","1967","446539","NA","NA","445239","1947","1947","445631","444067","1947","445239","446539","morph21_Oliver/Morris","29","21904","32","yes","1280","9"
"350","90.9090909091","90.9090909091","682.909090909","682.909090909","black","no","xpyriment","legacy","legacy","0","201","NA","uniform","68255","1000","0.014650941323","1","undefined","1","0","32","32","32","0","32","32","32","NA","32","32","0","32","NA","32","32","0","32","NA","32","NA","32","0","0","32","32","0","32","32","33","/","12/04/18 16:03:48","The main experiment item","yes","FIN__BA__M21__7%3A10%3A17.osexp","C:\Users\ERP Testing Room\Desktop\Joanna\morph21","no","mono","no","18","no","white","no","yes","1080","legacy","32","32","C:/Users/ERP Testing Room/Desktop/Joanna/morph21/subject-155.csv","xpyriment","Kafkaesque Koffka","3.2.5","0","/","NA","NA","NA","NA","space","/","632","NA","NA","NA","NA","330939","632","2","legacy","1024","2","48000","-16","BA_m21","155","odd","CW_S","TEACHER","1946","450848","447689","449339","332906","NA","NA","NA","NA","449334","448187","NA","447189","NA","447182","449334","1967","451198","NA","NA","448339","1947","1947","448731","447182","1947","448339","451198","morph21_Oliver/Morris","30","22536","33","yes","1280","23"
"350","91.1764705882","91.1764705882","680.676470588","680.676470588","black","no","xpyriment","legacy","legacy","0","208","NA","uniform","64619","1000","0.0154753245949","1","undefined","1","0","33","33","33","0","33","33","33","NA","33","33","0","33","NA","33","33","0","33","NA","33","NA","33","0","0","33","33","0","33","33","34","z","12/04/18 16:03:48","The main experiment item","yes","FIN__BA__M21__7%3A10%3A17.osexp","C:\Users\ERP Testing Room\Desktop\Joanna\morph21","no","mono","no","18","no","white","no","yes","1080","legacy","33","33","C:/Users/ERP Testing Room/Desktop/Joanna/morph21/subject-155.csv","xpyriment","Kafkaesque Koffka","3.2.5","0","z","NA","NA","NA","NA","space","z","607","NA","NA","NA","NA","330939","607","2","legacy","1024","2","48000","-16","BA_m21","155","odd","FILL_NW","DASP","1946","453931","452281","449339","332906","NA","NA","NA","NA","453923","452778","NA","451781","NA","451776","453923","1967","454281","NA","NA","452931","1947","1947","453323","451775","1947","452931","454281","morph21_Oliver/Morris","31","23143","34","yes","1280","13"
"400","91.4285714286","91.4285714286","681.314285714","681.314285714","black","no","xpyriment","legacy","legacy","0","202","NA","uniform","60526","1000","0.0165218253313","1","undefined","1","0","34","34","34","0","34","34","34","NA","34","34","0","34","NA","34","34","0","34","NA","34","NA","34","0","0","34","34","0","34","34","35","/","12/04/18 16:03:48","The main experiment item","yes","FIN__BA__M21__7%3A10%3A17.osexp","C:\Users\ERP Testing Room\Desktop\Joanna\morph21","no","mono","no","18","no","white","no","yes","1080","legacy","34","34","C:/Users/ERP Testing Room/Desktop/Joanna/morph21/subject-155.csv","xpyriment","Kafkaesque Koffka","3.2.5","0","/","NA","NA","NA","NA","space","/","703","NA","NA","NA","NA","330939","703","2","legacy","1024","2","48000","-16","BA_m21","155","odd","CW_L","WRONGLY","1946","457115","455465","449339","332906","NA","NA","NA","NA","457108","455962","NA","454965","NA","454954","457108","1967","457515","NA","NA","456115","1947","1947","456506","454954","1947","456115","457515","morph21_Oliver/Morris","32","23846","35","yes","1280","37"
"350","91.6666666667","91.6666666667","684.777777778","684.777777778","black","no","xpyriment","legacy","legacy","0","201","NA","uniform","63109","1000","0.015845600469","1","undefined","1","0","35","35","35","0","35","35","35","NA","35","35","0","35","NA","35","35","0","35","NA","35","NA","35","0","0","35","35","0","35","35","36","/","12/04/18 16:03:48","The main experiment item","yes","FIN__BA__M21__7%3A10%3A17.osexp","C:\Users\ERP Testing Room\Desktop\Joanna\morph21","no","mono","no","18","no","white","no","yes","1080","legacy","35","35","C:/Users/ERP Testing Room/Desktop/Joanna/morph21/subject-155.csv","xpyriment","Kafkaesque Koffka","3.2.5","0","/","NA","NA","NA","NA","space","/","806","NA","NA","NA","NA","330939","806","2","legacy","1024","2","48000","-16","BA_m21","155","odd","CW_S","TOASTER","1946","461841","458666","460333","332906","NA","NA","NA","NA","460325","459163","NA","458166","NA","458156","460325","1967","462191","NA","NA","459333","1947","1947","459724","458156","1947","459333","462191","morph21_Oliver/Morris","33","24652","36","yes","1280","10"
"400","91.8918918919","91.8918918919","682.432432432","682.432432432","black","no","xpyriment","legacy","legacy","0","208","NA","uniform","66589","1000","0.0150174953821","1","undefined","1","0","36","36","36","0","36","36","36","NA","36","36","0","36","NA","36","36","0","36","NA","36","NA","36","0","0","36","36","0","36","36","37","z","12/04/18 16:03:48","The main experiment item","yes","FIN__BA__M21__7%3A10%3A17.osexp","C:\Users\ERP Testing Room\Desktop\Joanna\morph21","no","mono","no","18","no","white","no","yes","1080","legacy","36","36","C:/Users/ERP Testing Room/Desktop/Joanna/morph21/subject-155.csv","xpyriment","Kafkaesque Koffka","3.2.5","0","z","NA","NA","NA","NA","space","z","598","NA","NA","NA","NA","330939","598","2","legacy","1024","2","48000","-16","BA_m21","155","odd","FILL_NW","HEND","1946","464941","463283","460333","332906","NA","NA","NA","NA","464930","463780","NA","462783","NA","462772","464930","1967","465341","NA","NA","463941","1947","1947","464333","462772","1947","463941","465341","morph21_Oliver/Morris","34","25250","37","yes","1280","28"
"300","89.4736842105","89.4736842105","690.605263158","690.605263158","black","no","xpyriment","legacy","legacy","0","205","NA","uniform","54571","1000","0.0183247512415","0","undefined","0","0","37","37","37","0","37","37","37","NA","37","37","0","37","NA","37","37","0","37","NA","37","NA","37","0","0","37","37","0","37","37","38","z","12/04/18 16:03:48","The main experiment item","yes","FIN__BA__M21__7%3A10%3A17.osexp","C:\Users\ERP Testing Room\Desktop\Joanna\morph21","no","mono","no","18","no","white","no","yes","1080","legacy","37","37","C:/Users/ERP Testing Room/Desktop/Joanna/morph21/subject-155.csv","xpyriment","Kafkaesque Koffka","3.2.5","0","None","NA","NA","NA","NA","space","None","993","NA","NA","NA","NA","330939","993","2","legacy","1024","2","48000","-16","BA_m21","155","odd","NW_S_SIMP","HEIRIC","1946","468166","466491","460333","332906","NA","NA","NA","NA","464930","466988","NA","465991","NA","465981","468160","1967","468466","NA","NA","467166","1947","1947","467558","465981","1947","467166","468466","morph21_Oliver/Morris","34","26243","38","yes","1280","3"
"300","89.7435897436","89.7435897436","692.153846154","692.153846154","black","no","xpyriment","legacy","legacy","0","205","NA","uniform","61220","1000","0.016334531199","1","undefined","1","0","38","38","38","0","38","38","38","NA","38","38","0","38","NA","38","38","0","38","NA","38","NA","38","0","0","38","38","0","38","38","39","z","12/04/18 16:03:48","The main experiment item","yes","FIN__BA__M21__7%3A10%3A17.osexp","C:\Users\ERP Testing Room\Desktop\Joanna\morph21","no","mono","no","18","no","white","no","yes","1080","legacy","38","38","C:/Users/ERP Testing Room/Desktop/Joanna/morph21/subject-155.csv","xpyriment","Kafkaesque Koffka","3.2.5","0","z","NA","NA","NA","NA","space","z","751","NA","NA","NA","NA","330939","751","2","legacy","1024","2","48000","-16","BA_m21","155","odd","NW_S_SIMP","BOLTOUS","1946","472800","469641","471291","332906","NA","NA","NA","NA","471286","470138","NA","469141","NA","469130","471286","1967","473100","NA","NA","470291","1947","1947","470683","469130","1947","470291","473100","morph21_Oliver/Morris","35","26994","39","yes","1280","13"
"250","90","90","690.625","690.625","black","no","xpyriment","legacy","legacy","0","201","NA","uniform","67982","1000","0.0147097761172","1","undefined","1","0","39","39","39","0","39","39","39","NA","39","39","0","39","NA","39","39","0","39","NA","39","NA","39","0","0","39","39","0","39","39","40","/","12/04/18 16:03:48","The main experiment item","yes","FIN__BA__M21__7%3A10%3A17.osexp","C:\Users\ERP Testing Room\Desktop\Joanna\morph21","no","mono","no","18","no","white","no","yes","1080","legacy","39","39","C:/Users/ERP Testing Room/Desktop/Joanna/morph21/subject-155.csv","xpyriment","Kafkaesque Koffka","3.2.5","0","/","NA","NA","NA","NA","space","/","631","NA","NA","NA","NA","330939","631","2","legacy","1024","2","48000","-16","BA_m21","155","odd","CW_S","PEAKING","1946","475884","474216","471291","332906","NA","NA","NA","NA","475875","474714","NA","473716","NA","473709","475875","1967","476134","NA","NA","474883","1947","1947","475275","473709","1947","474883","476134","morph21_Oliver/Morris","36","27625","40","yes","1280","28"
"200","90.243902439","90.243902439","689.682926829","689.682926829","black","no","xpyriment","legacy","legacy","0","208","NA","uniform","67822","1000","0.0147444781929","1","undefined","1","0","40","40","40","0","40","40","40","NA","40","40","0","40","NA","40","40","0","40","NA","40","NA","40","0","0","40","40","0","40","40","41","z","12/04/18 16:03:48","The main experiment item","yes","FIN__BA__M21__7%3A10%3A17.osexp","C:\Users\ERP Testing Room\Desktop\Joanna\morph21","no","mono","no","18","no","white","no","yes","1080","legacy","40","40","C:/Users/ERP Testing Room/Desktop/Joanna/morph21/subject-155.csv","xpyriment","Kafkaesque Koffka","3.2.5","0","z","NA","NA","NA","NA","space","z","652","NA","NA","NA","NA","330939","652","2","legacy","1024","2","48000","-16","BA_m21","155","odd","FILL_NW","FROT","1946","478943","477284","471291","332906","NA","NA","NA","NA","478937","477781","NA","476784","NA","476776","478937","1967","479143","NA","NA","477943","1947","1947","478334","476776","1947","477943","479143","morph21_Oliver/Morris","37","28277","41","yes","1280","22"
"250","90.4761904762","90.4761904762","689.80952381","689.80952381","black","no","xpyriment","legacy","legacy","0","207","NA","uniform","63023","1000","0.0158672230773","1","undefined","1","0","41","41","41","0","41","41","41","NA","41","41","0","41","NA","41","41","0","41","NA","41","NA","41","0","0","41","41","0","41","41","42","/","12/04/18 16:03:48","The main experiment item","yes","FIN__BA__M21__7%3A10%3A17.osexp","C:\Users\ERP Testing Room\Desktop\Joanna\morph21","no","mono","no","18","no","white","no","yes","1080","legacy","41","41","C:/Users/ERP Testing Room/Desktop/Joanna/morph21/subject-155.csv","xpyriment","Kafkaesque Koffka","3.2.5","0","/","NA","NA","NA","NA","space","/","695","NA","NA","NA","NA","330939","695","2","legacy","1024","2","48000","-16","BA_m21","155","odd","FILL_W","SOUGHT","1946","483385","480201","481876","332906","NA","NA","NA","NA","481867","480698","NA","479701","NA","479695","481867","1967","483635","NA","NA","480876","1947","1947","481268","479695","1947","480876","483635","morph21_Oliver/Morris","38","28972","42","yes","1280","40"
"250","90.6976744186","90.6976744186","688.534883721","688.534883721","black","no","xpyriment","legacy","legacy","0","201","NA","uniform","67250","1000","0.0148698884758","1","undefined","1","0","42","42","42","0","42","42","42","NA","42","42","0","42","NA","42","42","0","42","NA","42","NA","42","0","0","42","42","0","42","42","43","/","12/04/18 16:03:48","The main experiment item","yes","FIN__BA__M21__7%3A10%3A17.osexp","C:\Users\ERP Testing Room\Desktop\Joanna\morph21","no","mono","no","18","no","white","no","yes","1080","legacy","42","42","C:/Users/ERP Testing Room/Desktop/Joanna/morph21/subject-155.csv","xpyriment","Kafkaesque Koffka","3.2.5","0","/","NA","NA","NA","NA","space","/","635","NA","NA","NA","NA","330939","635","2","legacy","1024","2","48000","-16","BA_m21","155","odd","CW_S","HARMLESS","1946","486368","484718","481876","332906","NA","NA","NA","NA","486365","485215","NA","484218","NA","484210","486365","1967","486618","NA","NA","485376","1947","1947","485768","484210","1947","485376","486618","morph21_Oliver/Morris","39","29607","43","yes","1280","29"
"200","90.9090909091","90.9090909091","686.75","686.75","black","no","xpyriment","legacy","legacy","0","208","NA","uniform","61802","1000","0.016180706126","1","undefined","1","0","43","43","43","0","43","43","43","NA","43","43","0","43","NA","43","43","0","43","NA","43","NA","43","0","0","43","43","0","43","43","44","z","12/04/18 16:03:48","The main experiment item","yes","FIN__BA__M21__7%3A10%3A17.osexp","C:\Users\ERP Testing Room\Desktop\Joanna\morph21","no","mono","no","18","no","white","no","yes","1080","legacy","43","43","C:/Users/ERP Testing Room/Desktop/Joanna/morph21/subject-155.csv","xpyriment","Kafkaesque Koffka","3.2.5","0","z","NA","NA","NA","NA","space","z","610","NA","NA","NA","NA","330939","610","2","legacy","1024","2","48000","-16","BA_m21","155","odd","FILL_NW","BROUPS","1946","489368","487701","481876","332906","NA","NA","NA","NA","489359","488199","NA","487201","NA","487196","489359","1967","489568","NA","NA","488368","1947","1947","488760","487196","1947","488368","489568","morph21_Oliver/Morris","40","30217","44","yes","1280","4"
"250","88.8888888889","88.8888888889","683.666666667","683.666666667","black","no","xpyriment","legacy","legacy","0","207","NA","uniform","70173","1000","0.0142504952047","0","undefined","0","0","44","44","44","0","44","44","44","NA","44","44","0","44","NA","44","44","0","44","NA","44","NA","44","0","0","44","44","0","44","44","45","/","12/04/18 16:03:48","The main experiment item","yes","FIN__BA__M21__7%3A10%3A17.osexp","C:\Users\ERP Testing Room\Desktop\Joanna\morph21","no","mono","no","18","no","white","no","yes","1080","legacy","44","44","C:/Users/ERP Testing Room/Desktop/Joanna/morph21/subject-155.csv","xpyriment","Kafkaesque Koffka","3.2.5","0","z","NA","NA","NA","NA","space","z","548","NA","NA","NA","NA","330939","548","2","legacy","1024","2","48000","-16","BA_m21","155","odd","FILL_W","SUIT","1946","493828","490660","492318","332906","NA","NA","NA","NA","489359","491157","NA","490160","NA","490153","492312","1967","494078","NA","NA","491318","1947","1947","491710","490153","1947","491318","494078","morph21_Oliver/Morris","40","30765","45","yes","1280","49"
"350","89.1304347826","89.1304347826","684.108695652","684.108695652","black","no","xpyriment","legacy","legacy","0","203","NA","uniform","65204","1000","0.0153364824244","1","undefined","1","0","45","45","45","0","45","45","45","NA","45","45","0","45","NA","45","45","0","45","NA","45","NA","45","0","0","45","45","0","45","45","46","z","12/04/18 16:03:48","The main experiment item","yes","FIN__BA__M21__7%3A10%3A17.osexp","C:\Users\ERP Testing Room\Desktop\Joanna\morph21","no","mono","no","18","no","white","no","yes","1080","legacy","45","45","C:/Users/ERP Testing Room/Desktop/Joanna/morph21/subject-155.csv","xpyriment","Kafkaesque Koffka","3.2.5","0","z","NA","NA","NA","NA","space","z","704","NA","NA","NA","NA","330939","704","2","legacy","1024","2","48000","-16","BA_m21","155","odd","NW_S_COMP","PRINCEMANT","1946","496819","495161","492318","332906","NA","NA","NA","NA","496816","495658","NA","494661","NA","494651","496816","1967","497169","NA","NA","495819","1947","1947","496219","494651","1947","495819","497169","morph21_Oliver/Morris","41","31469","46","yes","1280","17"
"200","89.3617021277","89.3617021277","682.382978723","682.382978723","black","no","xpyriment","legacy","legacy","0","204","NA","uniform","68209","1000","0.0146608218857","1","undefined","1","0","46","46","46","0","46","46","46","NA","46","46","0","46","NA","46","46","0","46","NA","46","NA","46","0","0","46","46","0","46","46","47","z","12/04/18 16:03:48","The main experiment item","yes","FIN__BA__M21__7%3A10%3A17.osexp","C:\Users\ERP Testing Room\Desktop\Joanna\morph21","no","mono","no","18","no","white","no","yes","1080","legacy","46","46","C:/Users/ERP Testing Room/Desktop/Joanna/morph21/subject-155.csv","xpyriment","Kafkaesque Koffka","3.2.5","0","z","NA","NA","NA","NA","space","z","603","NA","NA","NA","NA","330939","603","2","legacy","1024","2","48000","-16","BA_m21","155","odd","NW_L_COMP","PITCHODY","1946","499928","498278","492318","332906","NA","NA","NA","NA","499924","498775","NA","497778","NA","497768","499924","1967","500128","NA","NA","498936","1947","1947","499328","497768","1947","498936","500128","morph21_Oliver/Morris","42","32072","47","yes","1280","25"
"200","89.5833333333","89.5833333333","684.583333333","684.583333333","black","no","xpyriment","legacy","legacy","0","208","NA","uniform","59239","1000","0.0168807711136","1","undefined","1","0","47","47","47","0","47","47","47","NA","47","47","0","47","NA","47","47","0","47","NA","47","NA","47","0","0","47","47","0","47","47","48","z","12/04/18 16:03:48","The main experiment item","yes","FIN__BA__M21__7%3A10%3A17.osexp","C:\Users\ERP Testing Room\Desktop\Joanna\morph21","no","mono","no","18","no","white","no","yes","1080","legacy","47","47","C:/Users/ERP Testing Room/Desktop/Joanna/morph21/subject-155.csv","xpyriment","Kafkaesque Koffka","3.2.5","0","z","NA","NA","NA","NA","space","z","788","NA","NA","NA","NA","330939","788","2","legacy","1024","2","48000","-16","BA_m21","155","odd","FILL_NW","SMADE","1946","504395","501203","502886","332906","NA","NA","NA","NA","502878","501700","NA","500703","NA","500700","502878","1967","504595","NA","NA","501886","1947","1947","502278","500700","1947","501886","504595","morph21_Oliver/Morris","43","32860","48","yes","1280","42"
"200","89.7959183673","89.7959183673","689.571428571","689.571428571","black","no","xpyriment","legacy","legacy","0","203","NA","uniform","57204","1000","0.0174812950143","1","undefined","1","0","48","48","48","0","48","48","48","NA","48","48","0","48","NA","48","48","0","48","NA","48","NA","48","0","0","48","48","0","48","48","49","z","12/04/18 16:03:48","The main experiment item","yes","FIN__BA__M21__7%3A10%3A17.osexp","C:\Users\ERP Testing Room\Desktop\Joanna\morph21","no","mono","no","18","no","white","no","yes","1080","legacy","48","48","C:/Users/ERP Testing Room/Desktop/Joanna/morph21/subject-155.csv","xpyriment","Kafkaesque Koffka","3.2.5","0","z","NA","NA","NA","NA","space","z","929","NA","NA","NA","NA","330939","929","2","legacy","1024","2","48000","-16","BA_m21","155","odd","NW_S_COMP","PILLIME","1946","507353","505695","502886","332906","NA","NA","NA","NA","507344","506192","NA","505186","NA","505180","507344","1967","507553","NA","NA","506353","1947","1947","506745","505180","1947","506353","507553","morph21_Oliver/Morris","44","33789","49","yes","1280","13"
"300","90","90","688.62","688.62","black","no","xpyriment","legacy","legacy","0","208","NA","uniform","67388","1000","0.0148394372885","1","undefined","1","0","49","49","49","0","49","49","49","NA","49","49","0","49","NA","49","49","0","49","NA","49","NA","49","0","0","49","49","0","49","49","50","z","12/04/18 16:03:48","The main experiment item","yes","FIN__BA__M21__7%3A10%3A17.osexp","C:\Users\ERP Testing Room\Desktop\Joanna\morph21","no","mono","no","18","no","white","no","yes","1080","legacy","49","49","C:/Users/ERP Testing Room/Desktop/Joanna/morph21/subject-155.csv","xpyriment","Kafkaesque Koffka","3.2.5","0","z","NA","NA","NA","NA","space","z","642","NA","NA","NA","NA","330939","642","2","legacy","1024","2","48000","-16","BA_m21","155","odd","FILL_NW","VOGS","1946","510303","508653","502886","332906","NA","NA","NA","NA","510301","509150","NA","508153","NA","508144","510301","1967","510603","NA","NA","509312","1947","1947","509703","508144","1947","509312","510603","morph21_Oliver/Morris","45","34431","50","yes","1280","47"
"400","88.2352941176","88.2352941176","694.549019608","694.549019608","black","no","xpyriment","legacy","legacy","0","202","NA","uniform","53902","1000","0.0185521873029","0","undefined","0","0","50","50","50","0","50","50","50","NA","50","50","0","50","NA","50","50","0","50","NA","50","NA","50","0","0","50","50","0","50","50","51","/","12/04/18 16:03:48","The main experiment item","yes","FIN__BA__M21__7%3A10%3A17.osexp","C:\Users\ERP Testing Room\Desktop\Joanna\morph21","no","mono","no","18","no","white","no","yes","1080","legacy","50","50","C:/Users/ERP Testing Room/Desktop/Joanna/morph21/subject-155.csv","xpyriment","Kafkaesque Koffka","3.2.5","0","None","NA","NA","NA","NA","space","None","991","NA","NA","NA","NA","330939","991","2","legacy","1024","2","48000","-16","BA_m21","155","odd","CW_L","STYLISH","1946","514838","511671","513329","332906","NA","NA","NA","NA","510301","512168","NA","511171","NA","511161","513320","1967","515238","NA","NA","512329","1947","1947","512721","511161","1947","512329","515238","morph21_Oliver/Morris","45","35422","51","yes","1280","29"
"400","86.5384615385","86.5384615385","700.230769231","700.230769231","black","no","xpyriment","legacy","legacy","0","206","NA","uniform","47691","1000","0.0209683168732","0","undefined","0","0","51","51","51","0","51","51","51","NA","51","51","0","51","NA","51","51","0","51","NA","51","NA","51","0","0","51","51","0","51","51","52","z","12/04/18 16:03:48","The main experiment item","yes","FIN__BA__M21__7%3A10%3A17.osexp","C:\Users\ERP Testing Room\Desktop\Joanna\morph21","no","mono","no","18","no","white","no","yes","1080","legacy","51","51","C:/Users/ERP Testing Room/Desktop/Joanna/morph21/subject-155.csv","xpyriment","Kafkaesque Koffka","3.2.5","0","None","NA","NA","NA","NA","space","None","990","NA","NA","NA","NA","330939","990","2","legacy","1024","2","48000","-16","BA_m21","155","odd","NW_L_SIMP","BLOODER","1946","517971","516305","513329","332906","NA","NA","NA","NA","510301","516802","NA","515805","NA","515798","517961","1967","518371","NA","NA","516971","1947","1947","517363","515798","1947","516971","518371","morph21_Oliver/Morris","45","36412","52","yes","1280","24"
"250","86.7924528302","86.7924528302","703.358490566","703.358490566","black","no","xpyriment","legacy","legacy","0","207","NA","uniform","58599","1000","0.0170651376303","1","undefined","1","0","52","52","52","0","52","52","52","NA","52","52","0","52","NA","52","52","0","52","NA","52","NA","52","0","0","52","52","0","52","52","53","/","12/04/18 16:03:48","The main experiment item","yes","FIN__BA__M21__7%3A10%3A17.osexp","C:\Users\ERP Testing Room\Desktop\Joanna\morph21","no","mono","no","18","no","white","no","yes","1080","legacy","52","52","C:/Users/ERP Testing Room/Desktop/Joanna/morph21/subject-155.csv","xpyriment","Kafkaesque Koffka","3.2.5","0","/","NA","NA","NA","NA","space","/","866","NA","NA","NA","NA","330939","866","2","legacy","1024","2","48000","-16","BA_m21","155","odd","FILL_W","PACK","1946","521121","519463","513329","332906","NA","NA","NA","NA","521117","519960","NA","518963","NA","518951","521117","1967","521372","NA","NA","520121","1947","1947","520521","518951","1947","520121","521372","morph21_Oliver/Morris","46","37278","53","yes","1280","41"
"200","87.037037037","87.037037037","703.648148148","703.648148148","black","no","xpyriment","legacy","legacy","0","203","NA","uniform","62614","1000","0.0159708691347","1","undefined","1","0","53","53","53","0","53","53","53","NA","53","53","0","53","NA","53","53","0","53","NA","53","NA","53","0","0","53","53","0","53","53","54","z","12/04/18 16:03:48","The main experiment item","yes","FIN__BA__M21__7%3A10%3A17.osexp","C:\Users\ERP Testing Room\Desktop\Joanna\morph21","no","mono","no","18","no","white","no","yes","1080","legacy","53","53","C:/Users/ERP Testing Room/Desktop/Joanna/morph21/subject-155.csv","xpyriment","Kafkaesque Koffka","3.2.5","0","z","NA","NA","NA","NA","space","z","719","NA","NA","NA","NA","330939","719","2","legacy","1024","2","48000","-16","BA_m21","155","odd","NW_S_COMP","FANFIL","1946","525655","522488","524147","332906","NA","NA","NA","NA","524144","522985","NA","521988","NA","521981","524144","1967","525855","NA","NA","523155","1947","1947","523547","521981","1947","523155","525855","morph21_Oliver/Morris","47","37997","54","yes","1280","6"
"400","87.2727272727","87.2727272727","700.109090909","700.109090909","black","no","xpyriment","legacy","legacy","0","201","NA","uniform","71383","1000","0.0140089377023","1","undefined","1","0","54","54","54","0","54","54","54","NA","54","54","0","54","NA","54","54","0","54","NA","54","NA","54","0","0","54","54","0","54","54","55","/","12/04/18 16:03:48","The main experiment item","yes","FIN__BA__M21__7%3A10%3A17.osexp","C:\Users\ERP Testing Room\Desktop\Joanna\morph21","no","mono","no","18","no","white","no","yes","1080","legacy","54","54","C:/Users/ERP Testing Room/Desktop/Joanna/morph21/subject-155.csv","xpyriment","Kafkaesque Koffka","3.2.5","0","/","NA","NA","NA","NA","space","/","509","NA","NA","NA","NA","330939","509","2","legacy","1024","2","48000","-16","BA_m21","155","odd","CW_S","ALLOWANCE","1946","528623","526972","524147","332906","NA","NA","NA","NA","528619","527469","NA","526472","NA","526467","528619","1967","529023","NA","NA","527630","1947","1947","528023","526467","1947","527630","529023","morph21_Oliver/Morris","48","38506","55","yes","1280","5"
"250","87.5","87.5","700.410714286","700.410714286","black","no","xpyriment","legacy","legacy","0","206","NA","uniform","59051","1000","0.0169345142335","1","undefined","1","0","55","55","55","0","55","55","55","NA","55","55","0","55","NA","55","55","0","55","NA","55","NA","55","0","0","55","55","0","55","55","56","z","12/04/18 16:03:48","The main experiment item","yes","FIN__BA__M21__7%3A10%3A17.osexp","C:\Users\ERP Testing Room\Desktop\Joanna\morph21","no","mono","no","18","no","white","no","yes","1080","legacy","55","55","C:/Users/ERP Testing Room/Desktop/Joanna/morph21/subject-155.csv","xpyriment","Kafkaesque Koffka","3.2.5","0","z","NA","NA","NA","NA","space","z","717","NA","NA","NA","NA","330939","717","2","legacy","1024","2","48000","-16","BA_m21","155","odd","NW_L_SIMP","BEARIST","1946","531790","530115","524147","332906","NA","NA","NA","NA","531781","530612","NA","529614","NA","529606","531781","1967","532040","NA","NA","530790","1947","1947","531181","529606","1947","530790","532040","morph21_Oliver/Morris","49","39223","56","yes","1280","25"
"200","87.7192982456","87.7192982456","701.403508772","701.403508772","black","no","xpyriment","legacy","legacy","0","207","NA","uniform","59804","1000","0.0167212895458","1","undefined","1","0","56","56","56","0","56","56","56","NA","56","56","0","56","NA","56","56","0","56","NA","56","NA","56","0","0","56","56","0","56","56","57","/","12/04/18 16:03:48","The main experiment item","yes","FIN__BA__M21__7%3A10%3A17.osexp","C:\Users\ERP Testing Room\Desktop\Joanna\morph21","no","mono","no","18","no","white","no","yes","1080","legacy","56","56","C:/Users/ERP Testing Room/Desktop/Joanna/morph21/subject-155.csv","xpyriment","Kafkaesque Koffka","3.2.5","0","/","NA","NA","NA","NA","space","/","757","NA","NA","NA","NA","330939","757","2","legacy","1024","2","48000","-16","BA_m21","155","odd","FILL_W","FLOAT","1946","536315","533140","534806","332906","NA","NA","NA","NA","534796","533637","NA","532640","NA","532628","534796","1967","536515","NA","NA","533806","1947","1947","534198","532628","1947","533806","536515","morph21_Oliver/Morris","50","39980","57","yes","1280","30"
"300","86.2068965517","86.2068965517","702.724137931","702.724137931","black","no","xpyriment","legacy","legacy","0","206","NA","uniform","61940","1000","0.0161446561188","0","undefined","0","0","57","57","57","0","57","57","57","NA","57","57","0","57","NA","57","57","0","57","NA","57","NA","57","0","0","57","57","0","57","57","58","z","12/04/18 16:03:48","The main experiment item","yes","FIN__BA__M21__7%3A10%3A17.osexp","C:\Users\ERP Testing Room\Desktop\Joanna\morph21","no","mono","no","18","no","white","no","yes","1080","legacy","57","57","C:/Users/ERP Testing Room/Desktop/Joanna/morph21/subject-155.csv","xpyriment","Kafkaesque Koffka","3.2.5","0","/","NA","NA","NA","NA","space","/","778","NA","NA","NA","NA","330939","778","2","legacy","1024","2","48000","-16","BA_m21","155","odd","NW_L_SIMP","LONGNESS","1946","539248","537590","534806","332906","NA","NA","NA","NA","534796","538087","NA","537090","NA","537084","539240","1967","539548","NA","NA","538248","1947","1947","538640","537084","1947","538248","539548","morph21_Oliver/Morris","50","40758","58","yes","1280","17"
"300","84.7457627119","84.7457627119","707.644067797","707.644067797","black","no","xpyriment","legacy","legacy","0","204","NA","uniform","50926","1000","0.0196363350744","0","undefined","0","0","58","58","58","0","58","58","58","NA","58","58","0","58","NA","58","58","0","58","NA","58","NA","58","0","0","58","58","0","58","58","59","z","12/04/18 16:03:48","The main experiment item","yes","FIN__BA__M21__7%3A10%3A17.osexp","C:\Users\ERP Testing Room\Desktop\Joanna\morph21","no","mono","no","18","no","white","no","yes","1080","legacy","58","58","C:/Users/ERP Testing Room/Desktop/Joanna/morph21/subject-155.csv","xpyriment","Kafkaesque Koffka","3.2.5","0","None","NA","NA","NA","NA","space","None","993","NA","NA","NA","NA","330939","993","2","legacy","1024","2","48000","-16","BA_m21","155","odd","NW_L_COMP","FELLOWOES","1946","542273","540623","534806","332906","NA","NA","NA","NA","534796","541120","NA","540123","NA","540112","542266","1967","542573","NA","NA","541273","1947","1947","541665","540112","1947","541273","542573","morph21_Oliver/Morris","50","41751","59","yes","1280","17"
"350","85","85","704.5","704.5","black","no","xpyriment","legacy","legacy","0","202","NA","uniform","72591","1000","0.0137758124285","1","undefined","1","0","59","59","59","0","59","59","59","NA","59","59","0","59","NA","59","59","0","59","NA","59","NA","59","0","0","59","59","0","59","59","60","/","12/04/18 16:03:48","The main experiment item","yes","FIN__BA__M21__7%3A10%3A17.osexp","C:\Users\ERP Testing Room\Desktop\Joanna\morph21","no","mono","no","18","no","white","no","yes","1080","legacy","59","59","C:/Users/ERP Testing Room/Desktop/Joanna/morph21/subject-155.csv","xpyriment","Kafkaesque Koffka","3.2.5","0","/","NA","NA","NA","NA","space","/","519","NA","NA","NA","NA","330939","519","2","legacy","1024","2","48000","-16","BA_m21","155","odd","CW_L","FEEDER","1946","546825","543648","545315","332906","NA","NA","NA","NA","545311","544146","NA","543148","NA","543142","545311","1967","547175","NA","NA","544315","1947","1947","544715","543142","1947","544315","547175","morph21_Oliver/Morris","51","42270","60","yes","1280","14"
"400","85.2459016393","85.2459016393","703.229508197","703.229508197","black","no","xpyriment","legacy","legacy","0","206","NA","uniform","68051","1000","0.014694861207","1","undefined","1","0","60","60","60","0","60","60","60","NA","60","60","0","60","NA","60","60","0","60","NA","60","NA","60","0","0","60","60","0","60","60","61","z","12/04/18 16:03:48","The main experiment item","yes","FIN__BA__M21__7%3A10%3A17.osexp","C:\Users\ERP Testing Room\Desktop\Joanna\morph21","no","mono","no","18","no","white","no","yes","1080","legacy","60","60","C:/Users/ERP Testing Room/Desktop/Joanna/morph21/subject-155.csv","xpyriment","Kafkaesque Koffka","3.2.5","0","z","NA","NA","NA","NA","space","z","627","NA","NA","NA","NA","330939","627","2","legacy","1024","2","48000","-16","BA_m21","155","odd","NW_L_SIMP","CLASSOUS","1946","550008","548308","545315","332906","NA","NA","NA","NA","550001","548805","NA","547808","NA","547802","550001","1967","550408","NA","NA","549008","1947","1947","549400","547802","1947","549008","550408","morph21_Oliver/Morris","52","42897","61","yes","1280","18"
"300","85.4838709677","85.4838709677","702.435483871","702.435483871","black","no","xpyriment","legacy","legacy","0","205","NA","uniform","66925","1000","0.014942099365","1","undefined","1","0","61","61","61","0","61","61","61","NA","61","61","0","61","NA","61","61","0","61","NA","61","NA","61","0","0","61","61","0","61","61","62","z","12/04/18 16:03:48","The main experiment item","yes","FIN__BA__M21__7%3A10%3A17.osexp","C:\Users\ERP Testing Room\Desktop\Joanna\morph21","no","mono","no","18","no","white","no","yes","1080","legacy","61","61","C:/Users/ERP Testing Room/Desktop/Joanna/morph21/subject-155.csv","xpyriment","Kafkaesque Koffka","3.2.5","0","z","NA","NA","NA","NA","space","z","654","NA","NA","NA","NA","330939","654","2","legacy","1024","2","48000","-16","BA_m21","155","odd","NW_S_SIMP","WARNORY","1946","553133","551483","545315","332906","NA","NA","NA","NA","553130","551980","NA","550983","NA","550973","553130","1967","553433","NA","NA","552141","1947","1947","552533","550973","1947","552141","553433","morph21_Oliver/Morris","53","43551","62","yes","1280","12"
"350","84.126984127","84.126984127","699.285714286","699.285714286","black","no","xpyriment","legacy","legacy","0","202","NA","uniform","72023","1000","0.0138844535773","0","undefined","0","0","62","62","62","0","62","62","62","NA","62","62","0","62","NA","62","62","0","62","NA","62","NA","62","0","0","62","62","0","62","62","63","/","12/04/18 16:03:48","The main experiment item","yes","FIN__BA__M21__7%3A10%3A17.osexp","C:\Users\ERP Testing Room\Desktop\Joanna\morph21","no","mono","no","18","no","white","no","yes","1080","legacy","62","62","C:/Users/ERP Testing Room/Desktop/Joanna/morph21/subject-155.csv","xpyriment","Kafkaesque Koffka","3.2.5","0","z","NA","NA","NA","NA","space","z","504","NA","NA","NA","NA","330939","504","2","legacy","1024","2","48000","-16","BA_m21","155","odd","CW_L","GUARDING","1946","557775","554583","556267","332906","NA","NA","NA","NA","553130","555080","NA","554083","NA","554072","556257","1967","558125","NA","NA","555267","1947","1947","555658","554072","1947","555267","558125","morph21_Oliver/Morris","53","44055","63","yes","1280","26"
"350","84.375","84.375","696.96875","696.96875","black","no","xpyriment","legacy","legacy","0","207","NA","uniform","70803","1000","0.0141236953236","1","undefined","1","0","63","63","63","0","63","63","63","NA","63","63","0","63","NA","63","63","0","63","NA","63","NA","63","0","0","63","63","0","63","63","64","/","12/04/18 16:03:48","The main experiment item","yes","FIN__BA__M21__7%3A10%3A17.osexp","C:\Users\ERP Testing Room\Desktop\Joanna\morph21","no","mono","no","18","no","white","no","yes","1080","legacy","63","63","C:/Users/ERP Testing Room/Desktop/Joanna/morph21/subject-155.csv","xpyriment","Kafkaesque Koffka","3.2.5","0","/","NA","NA","NA","NA","space","/","551","NA","NA","NA","NA","330939","551","2","legacy","1024","2","48000","-16","BA_m21","155","odd","FILL_W","FAINT","1946","560858","559192","556267","332906","NA","NA","NA","NA","560852","559689","NA","558692","NA","558688","560852","1967","561209","NA","NA","559859","1947","1947","560250","558688","1947","559858","561209","morph21_Oliver/Morris","54","44606","64","yes","1280","31"
"200","84.6153846154","84.6153846154","696.4","696.4","black","no","xpyriment","legacy","legacy","0","208","NA","uniform","67838","1000","0.0147410006191","1","undefined","1","0","64","64","64","0","64","64","64","NA","64","64","0","64","NA","64","64","0","64","NA","64","NA","64","0","0","64","64","0","64","64","65","z","12/04/18 16:03:48","The main experiment item","yes","FIN__BA__M21__7%3A10%3A17.osexp","C:\Users\ERP Testing Room\Desktop\Joanna\morph21","no","mono","no","18","no","white","no","yes","1080","legacy","64","64","C:/Users/ERP Testing Room/Desktop/Joanna/morph21/subject-155.csv","xpyriment","Kafkaesque Koffka","3.2.5","0","z","NA","NA","NA","NA","space","z","660","NA","NA","NA","NA","330939","660","2","legacy","1024","2","48000","-16","BA_m21","155","odd","FILL_NW","GAIRS","1946","563951","562275","556267","332906","NA","NA","NA","NA","563948","562772","NA","561775","NA","561770","563948","1967","564151","NA","NA","562959","1947","1947","563351","561770","1947","562959","564151","morph21_Oliver/Morris","55","45266","65","yes","1280","23"
"300","84.8484848485","84.8484848485","697.772727273","697.772727273","black","no","xpyriment","legacy","legacy","0","208","NA","uniform","62521","1000","0.0159946258057","1","undefined","1","0","65","65","65","0","65","65","65","NA","65","65","0","65","NA","65","65","0","65","NA","65","NA","65","0","0","65","65","0","65","65","66","z","12/04/18 16:03:48","The main experiment item","yes","FIN__BA__M21__7%3A10%3A17.osexp","C:\Users\ERP Testing Room\Desktop\Joanna\morph21","no","mono","no","18","no","white","no","yes","1080","legacy","65","65","C:/Users/ERP Testing Room/Desktop/Joanna/morph21/subject-155.csv","xpyriment","Kafkaesque Koffka","3.2.5","0","z","NA","NA","NA","NA","space","z","787","NA","NA","NA","NA","330939","787","2","legacy","1024","2","48000","-16","BA_m21","155","odd","FILL_NW","TREMP","1946","568468","565310","566960","332906","NA","NA","NA","NA","566956","565807","NA","564810","NA","564803","566956","1967","568768","NA","NA","565960","1947","1947","566360","564803","1947","565960","568768","morph21_Oliver/Morris","56","46053","66","yes","1280","20"
"250","83.5820895522","83.5820895522","702.149253731","702.149253731","black","no","xpyriment","legacy","legacy","0","201","NA","uniform","53403","1000","0.0187255397637","0","undefined","0","0","66","66","66","0","66","66","66","NA","66","66","0","66","NA","66","66","0","66","NA","66","NA","66","0","0","66","66","0","66","66","67","/","12/04/18 16:03:48","The main experiment item","yes","FIN__BA__M21__7%3A10%3A17.osexp","C:\Users\ERP Testing Room\Desktop\Joanna\morph21","no","mono","no","18","no","white","no","yes","1080","legacy","66","66","C:/Users/ERP Testing Room/Desktop/Joanna/morph21/subject-155.csv","xpyriment","Kafkaesque Koffka","3.2.5","0","None","NA","NA","NA","NA","space","None","991","NA","NA","NA","NA","330939","991","2","legacy","1024","2","48000","-16","BA_m21","155","odd","CW_S","MILDNESS","1946","571635","569952","566960","332906","NA","NA","NA","NA","566956","570449","NA","569452","NA","569448","571627","1967","571885","NA","NA","570635","1947","1947","571027","569448","1947","570635","571885","morph21_Oliver/Morris","56","47044","67","yes","1280","42"
"300","83.8235294118","83.8235294118","699.544117647","699.544117647","black","no","xpyriment","legacy","legacy","0","201","NA","uniform","71173","1000","0.0140502718728","1","undefined","1","0","67","67","67","0","67","67","67","NA","67","67","0","67","NA","67","67","0","67","NA","67","NA","67","0","0","67","67","0","67","67","68","/","12/04/18 16:03:48","The main experiment item","yes","FIN__BA__M21__7%3A10%3A17.osexp","C:\Users\ERP Testing Room\Desktop\Joanna\morph21","no","mono","no","18","no","white","no","yes","1080","legacy","67","67","C:/Users/ERP Testing Room/Desktop/Joanna/morph21/subject-155.csv","xpyriment","Kafkaesque Koffka","3.2.5","0","/","NA","NA","NA","NA","space","/","525","NA","NA","NA","NA","330939","525","2","legacy","1024","2","48000","-16","BA_m21","155","odd","CW_S","GUILTY","1946","574685","572993","566960","332906","NA","NA","NA","NA","574676","573491","NA","572493","NA","572483","574676","1967","574985","NA","NA","573685","1947","1947","574077","572483","1947","573685","574985","morph21_Oliver/Morris","57","47569","68","yes","1280","34"
"200","84.0579710145","84.0579710145","700.014492754","700.014492754","black","no","xpyriment","legacy","legacy","0","203","NA","uniform","59227","1000","0.0168841913317","1","undefined","1","0","68","68","68","0","68","68","68","NA","68","68","0","68","NA","68","68","0","68","NA","68","NA","68","0","0","68","68","0","68","68","69","z","12/04/18 16:03:48","The main experiment item","yes","FIN__BA__M21__7%3A10%3A17.osexp","C:\Users\ERP Testing Room\Desktop\Joanna\morph21","no","mono","no","18","no","white","no","yes","1080","legacy","68","68","C:/Users/ERP Testing Room/Desktop/Joanna/morph21/subject-155.csv","xpyriment","Kafkaesque Koffka","3.2.5","0","z","NA","NA","NA","NA","space","z","732","NA","NA","NA","NA","330939","732","2","legacy","1024","2","48000","-16","BA_m21","155","odd","NW_S_COMP","ELMILT","1946","579210","576052","577702","332906","NA","NA","NA","NA","577697","576549","NA","575552","NA","575542","577697","1967","579411","NA","NA","576702","1947","1947","577102","575542","1947","576702","579411","morph21_Oliver/Morris","58","48301","69","yes","1280","10"
"300","82.8571428571","82.8571428571","704.142857143","704.142857143","black","no","xpyriment","legacy","legacy","0","202","NA","uniform","51805","1000","0.019303156066","0","undefined","0","0","69","69","69","0","69","69","69","NA","69","69","0","69","NA","69","69","0","69","NA","69","NA","69","0","0","69","69","0","69","69","70","/","12/04/18 16:03:48","The main experiment item","yes","FIN__BA__M21__7%3A10%3A17.osexp","C:\Users\ERP Testing Room\Desktop\Joanna\morph21","no","mono","no","18","no","white","no","yes","1080","legacy","69","69","C:/Users/ERP Testing Room/Desktop/Joanna/morph21/subject-155.csv","xpyriment","Kafkaesque Koffka","3.2.5","0","None","NA","NA","NA","NA","space","None","989","NA","NA","NA","NA","330939","989","2","legacy","1024","2","48000","-16","BA_m21","155","odd","CW_L","DOUBTFUL","1946","582170","580511","577702","332906","NA","NA","NA","NA","577697","581008","NA","580010","NA","579998","582159","1967","582470","NA","NA","581170","1947","1947","581561","579998","1947","581170","582470","morph21_Oliver/Morris","58","49290","70","yes","1280","21"
"250","83.0985915493","83.0985915493","703.309859155","703.309859155","black","no","xpyriment","legacy","legacy","0","207","NA","uniform","67182","1000","0.0148849394183","1","undefined","1","0","70","70","70","0","70","70","70","NA","70","70","0","70","NA","70","70","0","70","NA","70","NA","70","0","0","70","70","0","70","70","71","/","12/04/18 16:03:48","The main experiment item","yes","FIN__BA__M21__7%3A10%3A17.osexp","C:\Users\ERP Testing Room\Desktop\Joanna\morph21","no","mono","no","18","no","white","no","yes","1080","legacy","70","70","C:/Users/ERP Testing Room/Desktop/Joanna/morph21/subject-155.csv","xpyriment","Kafkaesque Koffka","3.2.5","0","/","NA","NA","NA","NA","space","/","645","NA","NA","NA","NA","330939","645","2","legacy","1024","2","48000","-16","BA_m21","155","odd","FILL_W","TREAT","1946","585270","583620","577702","332906","NA","NA","NA","NA","585265","584117","NA","583111","NA","583102","585265","1967","585520","NA","NA","584270","1947","1947","584670","583102","1947","584270","585520","morph21_Oliver/Morris","59","49935","71","yes","1280","48"
"300","81.9444444444","81.9444444444","702.402777778","702.402777778","black","no","xpyriment","legacy","legacy","0","205","NA","uniform","57724","1000","0.0173238167833","0","undefined","0","0","71","71","71","0","71","71","71","NA","71","71","0","71","NA","71","71","0","71","NA","71","NA","71","0","0","71","71","0","71","71","72","z","12/04/18 16:03:48","The main experiment item","yes","FIN__BA__M21__7%3A10%3A17.osexp","C:\Users\ERP Testing Room\Desktop\Joanna\morph21","no","mono","no","18","no","white","no","yes","1080","legacy","71","71","C:/Users/ERP Testing Room/Desktop/Joanna/morph21/subject-155.csv","xpyriment","Kafkaesque Koffka","3.2.5","0","/","NA","NA","NA","NA","space","/","638","NA","NA","NA","NA","330939","638","2","legacy","1024","2","48000","-16","BA_m21","155","odd","NW_S_SIMP","FEVERIZE","1946","589753","586570","588245","332906","NA","NA","NA","NA","585265","587067","NA","586070","NA","586064","588239","1967","590054","NA","NA","587245","1947","1947","587637","586064","1947","587245","590054","morph21_Oliver/Morris","59","50573","72","yes","1280","24"
"300","82.1917808219","82.1917808219","703.04109589","703.04109589","black","no","xpyriment","legacy","legacy","0","201","NA","uniform","63325","1000","0.0157915515199","1","undefined","1","0","72","72","72","0","72","72","72","NA","72","72","0","72","NA","72","72","0","72","NA","72","NA","72","0","0","72","72","0","72","72","73","/","12/04/18 16:03:48","The main experiment item","yes","FIN__BA__M21__7%3A10%3A17.osexp","C:\Users\ERP Testing Room\Desktop\Joanna\morph21","no","mono","no","18","no","white","no","yes","1080","legacy","72","72","C:/Users/ERP Testing Room/Desktop/Joanna/morph21/subject-155.csv","xpyriment","Kafkaesque Koffka","3.2.5","0","/","NA","NA","NA","NA","space","/","749","NA","NA","NA","NA","330939","749","2","legacy","1024","2","48000","-16","BA_m21","155","odd","CW_S","MAGICAL","1946","592837","591145","588245","332906","NA","NA","NA","NA","592833","591642","NA","590645","NA","590639","592833","1967","593137","NA","NA","591837","1947","1947","592237","590639","1947","591837","593137","morph21_Oliver/Morris","60","51322","73","yes","1280","4"
"350","82.4324324324","82.4324324324","700.256756757","700.256756757","black","no","xpyriment","legacy","legacy","0","207","NA","uniform","63824","1000","0.0156680872399","1","undefined","1","0","73","73","73","0","73","73","73","NA","73","73","0","73","NA","73","73","0","73","NA","73","NA","73","0","0","73","73","0","73","73","74","/","12/04/18 16:03:48","The main experiment item","yes","FIN__BA__M21__7%3A10%3A17.osexp","C:\Users\ERP Testing Room\Desktop\Joanna\morph21","no","mono","no","18","no","white","no","yes","1080","legacy","73","73","C:/Users/ERP Testing Room/Desktop/Joanna/morph21/subject-155.csv","xpyriment","Kafkaesque Koffka","3.2.5","0","/","NA","NA","NA","NA","space","/","497","NA","NA","NA","NA","330939","497","2","legacy","1024","2","48000","-16","BA_m21","155","odd","FILL_W","LEAK","1946","595945","594287","588245","332906","NA","NA","NA","NA","595938","594784","NA","593787","NA","593779","595938","1967","596295","NA","NA","594945","1947","1947","595337","593779","1947","594945","596295","morph21_Oliver/Morris","61","51819","74","yes","1280","9"
"200","82.6666666667","82.6666666667","697.693333333","697.693333333","black","no","xpyriment","legacy","legacy","0","201","NA","uniform","72325","1000","0.0138264777048","undefined","undefined","1","0","74","74","74","0","74","74","74","NA","74","74","0","74","NA","74","74","0","74","NA","74","NA","74","0","0","74","74","0","74","74","75","/","12/04/18 16:03:48","The main experiment item","yes","FIN__BA__M21__7%3A10%3A17.osexp","C:\Users\ERP Testing Room\Desktop\Joanna\morph21","no","mono","no","18","no","white","no","yes","1080","legacy","74","74","C:/Users/ERP Testing Room/Desktop/Joanna/morph21/subject-155.csv","xpyriment","Kafkaesque Koffka","3.2.5","0","space","space","NA","NA","NA","space","/","13511","13511","NA","NA","NA","330939","508","2","legacy","1024","2","48000","-16","BA_m21","155","odd","CW_S","ENJOYMENT","1946","600555","597395","599046","332906","600763","NA","NA","NA","599044","597893","NA","596895","NA","596886","599044","1967","614275","NA","NA","598055","1947","1947","598446","596886","1947","598055","600755","morph21_Oliver/Morris","62","52327","75","yes","1280","40"
"400","82.8947368421","82.8947368421","696.973684211","696.973684211","black","no","xpyriment","legacy","legacy","0","208","NA","uniform","66453","1000","0.0150482295758","1","undefined","1","0","75","75","75","0","75","75","75","NA","75","75","0","75","NA","75","75","0","75","NA","75","NA","75","0","0","75","75","0","75","75","76","z","12/04/18 16:03:48","The main experiment item","yes","FIN__BA__M21__7%3A10%3A17.osexp","C:\Users\ERP Testing Room\Desktop\Joanna\morph21","no","mono","no","18","no","white","no","yes","1080","legacy","75","75","C:/Users/ERP Testing Room/Desktop/Joanna/morph21/subject-155.csv","xpyriment","Kafkaesque Koffka","3.2.5","0","z","space","NA","NA","NA","space","z","643","13511","NA","NA","NA","330939","643","2","legacy","1024","2","48000","-16","BA_m21","155","odd","FILL_NW","BALFS","1946","617032","615364","599046","332906","600763","NA","NA","NA","617024","615861","NA","614864","NA","614858","617024","1967","617432","NA","NA","616032","1947","1947","616423","614858","1947","616032","617432","morph21_Oliver/Morris","63","52970","76","yes","1280","2"
"300","83.1168831169","83.1168831169","697.103896104","697.103896104","black","no","xpyriment","legacy","legacy","0","206","NA","uniform","63080","1000","0.0158528852251","1","undefined","1","0","76","76","76","0","76","76","76","NA","76","76","0","76","NA","76","76","0","76","NA","76","NA","76","0","0","76","76","0","76","76","77","z","12/04/18 16:03:48","The main experiment item","yes","FIN__BA__M21__7%3A10%3A17.osexp","C:\Users\ERP Testing Room\Desktop\Joanna\morph21","no","mono","no","18","no","white","no","yes","1080","legacy","76","76","C:/Users/ERP Testing Room/Desktop/Joanna/morph21/subject-155.csv","xpyriment","Kafkaesque Koffka","3.2.5","0","z","space","NA","NA","NA","space","z","707","13511","NA","NA","NA","330939","707","2","legacy","1024","2","48000","-16","BA_m21","155","odd","NW_L_SIMP","BANDARY","1946","620232","618557","599046","332906","600763","NA","NA","NA","620226","619054","NA","618057","NA","618048","620226","1967","620532","NA","NA","619232","1947","1947","619623","618048","1947","619232","620532","morph21_Oliver/Morris","64","53677","77","yes","1280","3"
"300","83.3333333333","83.3333333333","697.307692308","697.307692308","black","no","xpyriment","legacy","legacy","0","206","NA","uniform","64760","1000","0.0154416306362","1","undefined","1","0","77","77","77","0","77","77","77","NA","77","77","0","77","NA","77","77","0","77","NA","77","NA","77","0","0","77","77","0","77","77","78","z","12/04/18 16:03:48","The main experiment item","yes","FIN__BA__M21__7%3A10%3A17.osexp","C:\Users\ERP Testing Room\Desktop\Joanna\morph21","no","mono","no","18","no","white","no","yes","1080","legacy","77","77","C:/Users/ERP Testing Room/Desktop/Joanna/morph21/subject-155.csv","xpyriment","Kafkaesque Koffka","3.2.5","0","z","space","NA","NA","NA","space","z","713","13511","NA","NA","NA","330939","713","2","legacy","1024","2","48000","-16","BA_m21","155","odd","NW_L_SIMP","EARIST","1946","624799","621615","623290","332906","600763","NA","NA","NA","623285","622112","NA","621115","NA","621106","623285","1967","625099","NA","NA","622290","1947","1947","622690","621106","1947","622290","625099","morph21_Oliver/Morris","65","54390","78","yes","1280","12"
"400","83.5443037975","83.5443037975","694.936708861","694.936708861","black","no","xpyriment","legacy","legacy","0","208","NA","uniform","72289","1000","0.0138333633056","1","undefined","1","0","78","78","78","0","78","78","78","NA","78","78","0","78","NA","78","78","0","78","NA","78","NA","78","0","0","78","78","0","78","78","79","z","12/04/18 16:03:48","The main experiment item","yes","FIN__BA__M21__7%3A10%3A17.osexp","C:\Users\ERP Testing Room\Desktop\Joanna\morph21","no","mono","no","18","no","white","no","yes","1080","legacy","78","78","C:/Users/ERP Testing Room/Desktop/Joanna/morph21/subject-155.csv","xpyriment","Kafkaesque Koffka","3.2.5","0","z","space","NA","NA","NA","space","z","510","13511","NA","NA","NA","330939","510","2","legacy","1024","2","48000","-16","BA_m21","155","odd","FILL_NW","GIKE","1946","627924","626274","623290","332906","600763","NA","NA","NA","627921","626771","NA","625774","NA","625763","627921","1967","628324","NA","NA","626932","1947","1947","627324","625763","1947","626932","628324","morph21_Oliver/Morris","66","54900","79","yes","1280","24"
"250","83.75","83.75","692.6125","692.6125","black","no","xpyriment","legacy","legacy","0","204","NA","uniform","73044","1000","0.0136903784021","1","undefined","1","0","79","79","79","0","79","79","79","NA","79","79","0","79","NA","79","79","0","79","NA","79","NA","79","0","0","79","79","0","79","79","80","z","12/04/18 16:03:48","The main experiment item","yes","FIN__BA__M21__7%3A10%3A17.osexp","C:\Users\ERP Testing Room\Desktop\Joanna\morph21","no","mono","no","18","no","white","no","yes","1080","legacy","79","79","C:/Users/ERP Testing Room/Desktop/Joanna/morph21/subject-155.csv","xpyriment","Kafkaesque Koffka","3.2.5","0","z","space","NA","NA","NA","space","z","509","13511","NA","NA","NA","330939","509","2","legacy","1024","2","48000","-16","BA_m21","155","odd","NW_L_COMP","MUDLA","1946","631149","629482","623290","332906","600763","NA","NA","NA","631142","629979","NA","628982","NA","628977","631142","1967","631399","NA","NA","630149","1947","1947","630540","628977","1947","630149","631399","morph21_Oliver/Morris","67","55409","80","yes","1280","12"
"300","83.950617284","83.950617284","689.444444444","689.444444444","black","no","xpyriment","legacy","legacy","0","206","NA","uniform","76000","1000","0.0131578947368","1","undefined","1","0","80","80","80","0","80","80","80","NA","80","80","0","80","NA","80","80","0","80","NA","80","NA","80","0","0","80","80","0","80","80","81","z","12/04/18 16:03:48","The main experiment item","yes","FIN__BA__M21__7%3A10%3A17.osexp","C:\Users\ERP Testing Room\Desktop\Joanna\morph21","no","mono","no","18","no","white","no","yes","1080","legacy","80","80","C:/Users/ERP Testing Room/Desktop/Joanna/morph21/subject-155.csv","xpyriment","Kafkaesque Koffka","3.2.5","0","z","space","NA","NA","NA","space","z","436","13511","NA","NA","NA","330939","436","2","legacy","1024","2","48000","-16","BA_m21","155","odd","NW_L_SIMP","BEANISH","1946","635692","632516","634183","332906","600763","NA","NA","NA","634178","633013","NA","632016","NA","632005","634178","1967","635992","NA","NA","633183","1947","1947","633583","632005","1947","633183","635992","morph21_Oliver/Morris","68","55845","81","yes","1280","8"
"400","82.9268292683","82.9268292683","687.207317073","687.207317073","black","no","xpyriment","legacy","legacy","0","207","NA","uniform","66816","1000","0.0149664750958","0","undefined","0","0","81","81","81","0","81","81","81","NA","81","81","0","81","NA","81","81","0","81","NA","81","NA","81","0","0","81","81","0","81","81","82","/","12/04/18 16:03:48","The main experiment item","yes","FIN__BA__M21__7%3A10%3A17.osexp","C:\Users\ERP Testing Room\Desktop\Joanna\morph21","no","mono","no","18","no","white","no","yes","1080","legacy","81","81","C:/Users/ERP Testing Room/Desktop/Joanna/morph21/subject-155.csv","xpyriment","Kafkaesque Koffka","3.2.5","0","z","space","NA","NA","NA","space","z","506","13511","NA","NA","NA","330939","506","2","legacy","1024","2","48000","-16","BA_m21","155","odd","FILL_W","LITHE","1946","638808","637133","634183","332906","600763","NA","NA","NA","634178","637631","NA","636633","NA","636624","638802","1967","639209","NA","NA","637809","1947","1947","638200","636624","1947","637809","639209","morph21_Oliver/Morris","68","56351","82","yes","1280","23"
"300","83.1325301205","83.1325301205","685.590361446","685.590361446","black","no","xpyriment","legacy","legacy","0","202","NA","uniform","67279","1000","0.0148634789459","1","undefined","1","0","82","82","82","0","82","82","82","NA","82","82","0","82","NA","82","82","0","82","NA","82","NA","82","0","0","82","82","0","82","82","83","/","12/04/18 16:03:48","The main experiment item","yes","FIN__BA__M21__7%3A10%3A17.osexp","C:\Users\ERP Testing Room\Desktop\Joanna\morph21","no","mono","no","18","no","white","no","yes","1080","legacy","82","82","C:/Users/ERP Testing Room/Desktop/Joanna/morph21/subject-155.csv","xpyriment","Kafkaesque Koffka","3.2.5","0","/","space","NA","NA","NA","space","/","553","13511","NA","NA","NA","330939","553","2","legacy","1024","2","48000","-16","BA_m21","155","odd","CW_L","MADNESS","1946","642042","640342","634183","332906","600763","NA","NA","NA","642034","640839","NA","639834","NA","639830","642034","1967","642342","NA","NA","641042","1947","1947","641434","639830","1947","641042","642342","morph21_Oliver/Morris","69","56904","83","yes","1280","41"
"350","82.1428571429","82.1428571429","685.595238095","685.595238095","black","no","xpyriment","legacy","legacy","0","202","NA","uniform","64639","1000","0.0154705363635","0","undefined","0","0","83","83","83","0","83","83","83","NA","83","83","0","83","NA","83","83","0","83","NA","83","NA","83","0","0","83","83","0","83","83","84","/","12/04/18 16:03:48","The main experiment item","yes","FIN__BA__M21__7%3A10%3A17.osexp","C:\Users\ERP Testing Room\Desktop\Joanna\morph21","no","mono","no","18","no","white","no","yes","1080","legacy","83","83","C:/Users/ERP Testing Room/Desktop/Joanna/morph21/subject-155.csv","xpyriment","Kafkaesque Koffka","3.2.5","0","z","space","NA","NA","NA","space","z","686","13511","NA","NA","NA","330939","686","2","legacy","1024","2","48000","-16","BA_m21","155","odd","CW_L","GUILELESS","1946","646601","643400","645092","332906","600763","NA","NA","NA","642034","643898","NA","642900","NA","642895","645084","1967","646951","NA","NA","644092","1947","1947","644484","642895","1947","644092","646951","morph21_Oliver/Morris","69","57590","84","yes","1280","31"
"400","82.3529411765","82.3529411765","683.976470588","683.976470588","black","no","xpyriment","legacy","legacy","0","207","NA","uniform","71107","1000","0.0140633130353","1","undefined","1","0","84","84","84","0","84","84","84","NA","84","84","0","84","NA","84","84","0","84","NA","84","NA","84","0","0","84","84","0","84","84","85","/","12/04/18 16:03:48","The main experiment item","yes","FIN__BA__M21__7%3A10%3A17.osexp","C:\Users\ERP Testing Room\Desktop\Joanna\morph21","no","mono","no","18","no","white","no","yes","1080","legacy","84","84","C:/Users/ERP Testing Room/Desktop/Joanna/morph21/subject-155.csv","xpyriment","Kafkaesque Koffka","3.2.5","0","/","space","NA","NA","NA","space","/","548","13511","NA","NA","NA","330939","548","2","legacy","1024","2","48000","-16","BA_m21","155","odd","FILL_W","STEEP","1946","649734","648076","645092","332906","600763","NA","NA","NA","649728","648573","NA","647576","NA","647571","649728","1967","650134","NA","NA","648734","1947","1947","649126","647571","1947","648734","650134","morph21_Oliver/Morris","70","58138","85","yes","1280","16"
"400","81.3953488372","81.3953488372","682.5","682.5","black","no","xpyriment","legacy","legacy","0","204","NA","uniform","69181","1000","0.0144548358653","0","undefined","0","0","85","85","85","0","85","85","85","NA","85","85","0","85","NA","85","85","0","85","NA","85","NA","85","0","0","85","85","0","85","85","86","z","12/04/18 16:03:48","The main experiment item","yes","FIN__BA__M21__7%3A10%3A17.osexp","C:\Users\ERP Testing Room\Desktop\Joanna\morph21","no","mono","no","18","no","white","no","yes","1080","legacy","85","85","C:/Users/ERP Testing Room/Desktop/Joanna/morph21/subject-155.csv","xpyriment","Kafkaesque Koffka","3.2.5","0","/","space","NA","NA","NA","space","/","557","13511","NA","NA","NA","330939","557","2","legacy","1024","2","48000","-16","BA_m21","155","odd","NW_L_COMP","BOIL","1946","652910","651243","645092","332906","600763","NA","NA","NA","649728","651740","NA","650743","NA","650737","652905","1967","653310","NA","NA","651910","1947","1947","652310","650737","1947","651910","653310","morph21_Oliver/Morris","70","58695","86","yes","1280","18"
"400","81.6091954023","81.6091954023","681.24137931","681.24137931","black","no","xpyriment","legacy","legacy","0","204","NA","uniform","65562","1000","0.0152527378664","1","undefined","1","0","86","86","86","0","86","86","86","NA","86","86","0","86","NA","86","86","0","86","NA","86","NA","86","0","0","86","86","0","86","86","87","z","12/04/18 16:03:48","The main experiment item","yes","FIN__BA__M21__7%3A10%3A17.osexp","C:\Users\ERP Testing Room\Desktop\Joanna\morph21","no","mono","no","18","no","white","no","yes","1080","legacy","86","86","C:/Users/ERP Testing Room/Desktop/Joanna/morph21/subject-155.csv","xpyriment","Kafkaesque Koffka","3.2.5","0","z","space","NA","NA","NA","space","z","573","13511","NA","NA","NA","330939","573","2","legacy","1024","2","48000","-16","BA_m21","155","odd","NW_L_COMP","COLDIDY","1946","657610","654444","656102","332906","600763","NA","NA","NA","656092","654941","NA","653943","NA","653934","656092","1967","658011","NA","NA","655102","1947","1947","655494","653934","1947","655102","658011","morph21_Oliver/Morris","71","59268","87","yes","1280","10"
"250","81.8181818182","81.8181818182","679.261363636","679.261363636","black","no","xpyriment","legacy","legacy","0","207","NA","uniform","72215","1000","0.0138475386","1","undefined","1","0","87","87","87","0","87","87","87","NA","87","87","0","87","NA","87","87","0","87","NA","87","NA","87","0","0","87","87","0","87","87","88","/","12/04/18 16:03:48","The main experiment item","yes","FIN__BA__M21__7%3A10%3A17.osexp","C:\Users\ERP Testing Room\Desktop\Joanna\morph21","no","mono","no","18","no","white","no","yes","1080","legacy","87","87","C:/Users/ERP Testing Room/Desktop/Joanna/morph21/subject-155.csv","xpyriment","Kafkaesque Koffka","3.2.5","0","/","space","NA","NA","NA","space","/","507","13511","NA","NA","NA","330939","507","2","legacy","1024","2","48000","-16","BA_m21","155","odd","FILL_W","WEAVE","1946","660744","659077","656102","332906","600763","NA","NA","NA","660734","659574","NA","658577","NA","658573","660734","1967","660994","NA","NA","659744","1947","1947","660135","658573","1947","659744","660994","morph21_Oliver/Morris","72","59775","88","yes","1280","12"
"350","82.0224719101","82.0224719101","678.584269663","678.584269663","black","no","xpyriment","legacy","legacy","0","204","NA","uniform","66209","1000","0.01510368681","1","undefined","1","0","88","88","88","0","88","88","88","NA","88","88","0","88","NA","88","88","0","88","NA","88","NA","88","0","0","88","88","0","88","88","89","z","12/04/18 16:03:48","The main experiment item","yes","FIN__BA__M21__7%3A10%3A17.osexp","C:\Users\ERP Testing Room\Desktop\Joanna\morph21","no","mono","no","18","no","white","no","yes","1080","legacy","88","88","C:/Users/ERP Testing Room/Desktop/Joanna/morph21/subject-155.csv","xpyriment","Kafkaesque Koffka","3.2.5","0","z","space","NA","NA","NA","space","z","619","13511","NA","NA","NA","330939","619","2","legacy","1024","2","48000","-16","BA_m21","155","odd","NW_L_COMP","MOUTHIME","1946","663719","662069","656102","332906","600763","NA","NA","NA","663711","662566","NA","661569","NA","661560","663711","1967","664069","NA","NA","662719","1947","1947","663111","661560","1947","662719","664069","morph21_Oliver/Morris","73","60394","89","yes","1280","11"
"400","82.2222222222","82.2222222222","678.133333333","678.133333333","black","no","xpyriment","legacy","legacy","0","204","NA","uniform","67659","1000","0.0147799997044","1","undefined","1","0","89","89","89","0","89","89","89","NA","89","89","0","89","NA","89","89","0","89","NA","89","NA","89","0","0","89","89","0","89","89","90","z","12/04/18 16:03:48","The main experiment item","yes","FIN__BA__M21__7%3A10%3A17.osexp","C:\Users\ERP Testing Room\Desktop\Joanna\morph21","no","mono","no","18","no","white","no","yes","1080","legacy","89","89","C:/Users/ERP Testing Room/Desktop/Joanna/morph21/subject-155.csv","xpyriment","Kafkaesque Koffka","3.2.5","0","z","space","NA","NA","NA","space","z","638","13511","NA","NA","NA","330939","638","2","legacy","1024","2","48000","-16","BA_m21","155","odd","NW_L_COMP","PASSMANT","1946","668345","665177","666836","332906","600763","NA","NA","NA","666829","665674","NA","664677","NA","664670","666829","1967","668745","NA","NA","665836","1947","1947","666227","664670","1947","665836","668745","morph21_Oliver/Morris","74","61032","90","yes","1280","14"
