"ITI","acc","accuracy","average_response_time","avg_rt","background","bidi","canvas_backend","clock_backend","color_backend","compensation","cond_trig","condtrigtime","coordinates","coroutines_cycles","coroutines_duration","coroutines_mean_cycle_duration","correct","correct_instructions_1","correct_new_keyboard_response_1","count_BA_m21","count_ITI","count_blank_screen","count_blink_screen","count_block1","count_break1","count_break2","count_break3_1","count_canvas","count_correct_trigger","count_def_chain","count_end_screen","count_fixation_1","count_getting_started","count_inc_counter","count_incorrect_trigger","count_instructions_1","count_logger","count_logscript","count_new_coroutines","count_new_inline_script","count_new_keyboard_response_1","count_reset_counter_prep","count_reset_counter_run","count_responsescreen","count_sequence","count_start_trigger","count_target_present","count_word_trigger","counter","cresp","datetime","description","disable_garbage_collection","experiment_file","experiment_path","font_bold","font_family","font_italic","font_size","font_underline","foreground","form_clicks","fullscreen","height","keyboard_backend","live_row","live_row_block1","logfile","mouse_backend","opensesame_codename","opensesame_version","repeat_cycle","response","response_break1","response_break2","response_break3_1","response_end_screen","response_instructions_1","response_new_keyboard_response_1","response_time","response_time_break1","response_time_break2","response_time_break3_1","response_time_end_screen","response_time_instructions_1","response_time_new_keyboard_response_1","round_decimals","sampler_backend","sound_buf_size","sound_channels","sound_freq","sound_sample_size","start","subject_nr","subject_parity","targ_type","target","time_BA_m21","time_ITI","time_blank_screen","time_blink_screen","time_block1","time_break1","time_break2","time_break3_1","time_canvas","time_correct_trigger","time_def_chain","time_end_screen","time_fixation_1","time_getting_started","time_inc_counter","time_incorrect_trigger","time_instructions_1","time_logger","time_logscript","time_new_inline_script","time_new_keyboard_response_1","time_reset_counter_prep","time_reset_counter_run","time_responsescreen","time_sequence","time_start_trigger","time_target_present","time_word_trigger","title","total_correct","total_response_time","total_responses","uniform_coordinates","width","word_trig"
"200","100","100","787","787","black","no","xpyriment","legacy","legacy","0","204","NA","uniform","67179","1000","0.0148856041322","1","undefined","1","0","0","0","0","0","0","0","0","NA","0","0","0","0","NA","0","0","0","0","NA","0","NA","0","0","0","0","0","0","0","0","1","z","10/30/18 16:16:30","The main experiment item","yes","FIN__BA__M21__7%3A10%3A17.osexp","C:\Users\ERP Testing Room\Desktop\Joanna\morph21","no","mono","no","18","no","white","no","yes","1080","legacy","0","0","C:/Users/ERP Testing Room/Desktop/Joanna/morph21/subject-147.csv","xpyriment","Jazzy James","3.1.4","0","z","NA","NA","NA","NA","space","z","787","NA","NA","NA","NA","133148","787","2","legacy","1024","2","48000","-16","BA_m21","147","odd","NW_L_COMP","GASFIL","2569","138562","136978","NA","135725","NA","NA","NA","NA","138558","137476","NA","136473","NA","136404","138558","2577","138762","NA","NA","137562","2569","2569","137962","136403","2569","137562","138762","morph21_Oliver/Morris","1","787","1","yes","1280","6"
"200","100","100","669","669","black","no","xpyriment","legacy","legacy","0","207","NA","uniform","71198","1000","0.0140453383522","1","undefined","1","0","1","1","1","0","1","1","1","NA","1","1","0","1","NA","1","1","0","1","NA","1","NA","1","0","0","1","1","0","1","1","2","/","10/30/18 16:16:30","The main experiment item","yes","FIN__BA__M21__7%3A10%3A17.osexp","C:\Users\ERP Testing Room\Desktop\Joanna\morph21","no","mono","no","18","no","white","no","yes","1080","legacy","1","1","C:/Users/ERP Testing Room/Desktop/Joanna/morph21/subject-147.csv","xpyriment","Jazzy James","3.1.4","0","/","NA","NA","NA","NA","space","/","551","NA","NA","NA","NA","133148","551","2","legacy","1024","2","48000","-16","BA_m21","147","odd","FILL_W","WRECK","2569","141670","140054","NA","135725","NA","NA","NA","NA","141663","140551","NA","139553","NA","139548","141663","2577","141870","NA","NA","140670","2569","2569","141062","139548","2569","140670","141870","morph21_Oliver/Morris","2","1338","2","yes","1280","13"
"250","100","100","566","566","black","no","xpyriment","legacy","legacy","0","207","NA","uniform","73591","1000","0.0135886181734","1","undefined","1","0","2","2","2","0","2","2","2","NA","2","2","0","2","NA","2","2","0","2","NA","2","NA","2","0","0","2","2","0","2","2","3","/","10/30/18 16:16:30","The main experiment item","yes","FIN__BA__M21__7%3A10%3A17.osexp","C:\Users\ERP Testing Room\Desktop\Joanna\morph21","no","mono","no","18","no","white","no","yes","1080","legacy","2","2","C:/Users/ERP Testing Room/Desktop/Joanna/morph21/subject-147.csv","xpyriment","Jazzy James","3.1.4","0","/","NA","NA","NA","NA","space","/","360","NA","NA","NA","NA","133148","360","2","legacy","1024","2","48000","-16","BA_m21","147","odd","FILL_W","SMOKE","2569","146146","143037","144637","135725","NA","NA","NA","NA","144627","143534","NA","142537","NA","142534","144627","2577","146396","NA","NA","143637","2569","2569","144029","142534","2569","143637","146396","morph21_Oliver/Morris","3","1698","3","yes","1280","50"
"250","100","100","586","586","black","no","xpyriment","legacy","legacy","0","204","NA","uniform","72195","1000","0.0138513747489","1","undefined","1","0","3","3","3","0","3","3","3","NA","3","3","0","3","NA","3","3","0","3","NA","3","NA","3","0","0","3","3","0","3","3","4","z","10/30/18 16:16:30","The main experiment item","yes","FIN__BA__M21__7%3A10%3A17.osexp","C:\Users\ERP Testing Room\Desktop\Joanna\morph21","no","mono","no","18","no","white","no","yes","1080","legacy","3","3","C:/Users/ERP Testing Room/Desktop/Joanna/morph21/subject-147.csv","xpyriment","Jazzy James","3.1.4","0","z","NA","NA","NA","NA","space","z","646","NA","NA","NA","NA","133148","646","2","legacy","1024","2","48000","-16","BA_m21","147","odd","NW_L_COMP","FREENELS","2569","149263","147680","144637","135725","NA","NA","NA","NA","149258","148177","NA","147180","NA","147170","149258","2577","149513","NA","NA","148263","2569","2569","148655","147170","2569","148263","149513","morph21_Oliver/Morris","4","2344","4","yes","1280","15"
"250","100","100","567.6","567.6","black","no","xpyriment","legacy","legacy","0","201","NA","uniform","76318","1000","0.0131030687387","1","undefined","1","0","4","4","4","0","4","4","4","NA","4","4","0","4","NA","4","4","0","4","NA","4","NA","4","0","0","4","4","0","4","4","5","/","10/30/18 16:16:30","The main experiment item","yes","FIN__BA__M21__7%3A10%3A17.osexp","C:\Users\ERP Testing Room\Desktop\Joanna\morph21","no","mono","no","18","no","white","no","yes","1080","legacy","4","4","C:/Users/ERP Testing Room/Desktop/Joanna/morph21/subject-147.csv","xpyriment","Jazzy James","3.1.4","0","/","NA","NA","NA","NA","space","/","494","NA","NA","NA","NA","133148","494","2","legacy","1024","2","48000","-16","BA_m21","147","odd","CW_S","PEAKING","2569","152263","150663","144637","135725","NA","NA","NA","NA","152258","151160","NA","150163","NA","150160","152258","2577","152513","NA","NA","151263","2569","2569","151655","150160","2569","151263","152513","morph21_Oliver/Morris","5","2838","5","yes","1280","28"
"200","100","100","552.666666667","552.666666667","black","no","xpyriment","legacy","legacy","0","207","NA","uniform","79193","1000","0.0126273786825","1","undefined","1","0","5","5","5","0","5","5","5","NA","5","5","0","5","NA","5","5","0","5","NA","5","NA","5","0","0","5","5","0","5","5","6","/","10/30/18 16:16:30","The main experiment item","yes","FIN__BA__M21__7%3A10%3A17.osexp","C:\Users\ERP Testing Room\Desktop\Joanna\morph21","no","mono","no","18","no","white","no","yes","1080","legacy","5","5","C:/Users/ERP Testing Room/Desktop/Joanna/morph21/subject-147.csv","xpyriment","Jazzy James","3.1.4","0","/","NA","NA","NA","NA","space","/","478","NA","NA","NA","NA","133148","478","2","legacy","1024","2","48000","-16","BA_m21","147","odd","FILL_W","FLOAT","2569","156755","153655","155247","135725","NA","NA","NA","NA","155242","154152","NA","153155","NA","153147","155242","2577","156955","NA","NA","154247","2569","2569","154647","153147","2569","154247","156955","morph21_Oliver/Morris","6","3316","6","yes","1280","30"
"250","100","100","533","533","black","no","xpyriment","legacy","legacy","0","201","NA","uniform","75989","1000","0.0131597994447","1","undefined","1","0","6","6","6","0","6","6","6","NA","6","6","0","6","NA","6","6","0","6","NA","6","NA","6","0","0","6","6","0","6","6","7","/","10/30/18 16:16:30","The main experiment item","yes","FIN__BA__M21__7%3A10%3A17.osexp","C:\Users\ERP Testing Room\Desktop\Joanna\morph21","no","mono","no","18","no","white","no","yes","1080","legacy","6","6","C:/Users/ERP Testing Room/Desktop/Joanna/morph21/subject-147.csv","xpyriment","Jazzy James","3.1.4","0","/","NA","NA","NA","NA","space","/","415","NA","NA","NA","NA","133148","415","2","legacy","1024","2","48000","-16","BA_m21","147","odd","CW_S","COSTLY","2569","159830","158247","155247","135725","NA","NA","NA","NA","159821","158744","NA","157747","NA","157742","159821","2577","160080","NA","NA","158830","2569","2569","159222","157741","2569","158830","160080","morph21_Oliver/Morris","7","3731","7","yes","1280","36"
"200","100","100","529.125","529.125","black","no","xpyriment","legacy","legacy","0","207","NA","uniform","75573","1000","0.0132322390272","1","undefined","1","0","7","7","7","0","7","7","7","NA","7","7","0","7","NA","7","7","0","7","NA","7","NA","7","0","0","7","7","0","7","7","8","/","10/30/18 16:16:30","The main experiment item","yes","FIN__BA__M21__7%3A10%3A17.osexp","C:\Users\ERP Testing Room\Desktop\Joanna\morph21","no","mono","no","18","no","white","no","yes","1080","legacy","7","7","C:/Users/ERP Testing Room/Desktop/Joanna/morph21/subject-147.csv","xpyriment","Jazzy James","3.1.4","0","/","NA","NA","NA","NA","space","/","502","NA","NA","NA","NA","133148","502","2","legacy","1024","2","48000","-16","BA_m21","147","odd","FILL_W","OLD","2569","163022","161397","155247","135725","NA","NA","NA","NA","163013","161894","NA","160897","NA","160894","163013","2577","163222","NA","NA","162022","2569","2569","162414","160894","2569","162022","163222","morph21_Oliver/Morris","8","4233","8","yes","1280","44"
"400","100","100","522.777777778","522.777777778","black","no","xpyriment","legacy","legacy","0","202","NA","uniform","81775","1000","0.0122286762458","1","undefined","1","0","8","8","8","0","8","8","8","NA","8","8","0","8","NA","8","8","0","8","NA","8","NA","8","0","0","8","8","0","8","8","9","/","10/30/18 16:16:30","The main experiment item","yes","FIN__BA__M21__7%3A10%3A17.osexp","C:\Users\ERP Testing Room\Desktop\Joanna\morph21","no","mono","no","18","no","white","no","yes","1080","legacy","8","8","C:/Users/ERP Testing Room/Desktop/Joanna/morph21/subject-147.csv","xpyriment","Jazzy James","3.1.4","0","/","NA","NA","NA","NA","space","/","472","NA","NA","NA","NA","133148","472","2","legacy","1024","2","48000","-16","BA_m21","147","odd","CW_L","SHAPELY","2569","167482","164390","165973","135725","NA","NA","NA","NA","165968","164887","NA","163889","NA","163883","165968","2577","167882","NA","NA","164973","2569","2569","165365","163883","2569","164973","167882","morph21_Oliver/Morris","9","4705","9","yes","1280","35"
"250","100","100","514.9","514.9","black","no","xpyriment","legacy","legacy","0","207","NA","uniform","75256","1000","0.0132879770384","1","undefined","1","0","9","9","9","0","9","9","9","NA","9","9","0","9","NA","9","9","0","9","NA","9","NA","9","0","0","9","9","0","9","9","10","/","10/30/18 16:16:30","The main experiment item","yes","FIN__BA__M21__7%3A10%3A17.osexp","C:\Users\ERP Testing Room\Desktop\Joanna\morph21","no","mono","no","18","no","white","no","yes","1080","legacy","9","9","C:/Users/ERP Testing Room/Desktop/Joanna/morph21/subject-147.csv","xpyriment","Jazzy James","3.1.4","0","/","NA","NA","NA","NA","space","/","444","NA","NA","NA","NA","133148","444","2","legacy","1024","2","48000","-16","BA_m21","147","odd","FILL_W","PACK","2569","170657","169057","165973","135725","NA","NA","NA","NA","170649","169554","NA","168557","NA","168547","170649","2577","170907","NA","NA","169657","2569","2569","170048","168547","2569","169657","170907","morph21_Oliver/Morris","10","5149","10","yes","1280","41"
"200","100","100","506.090909091","506.090909091","black","no","xpyriment","legacy","legacy","0","201","NA","uniform","68787","1000","0.014537630657","1","undefined","1","0","10","10","10","0","10","10","10","NA","10","10","0","10","NA","10","10","0","10","NA","10","NA","10","0","0","10","10","0","10","10","11","/","10/30/18 16:16:30","The main experiment item","yes","FIN__BA__M21__7%3A10%3A17.osexp","C:\Users\ERP Testing Room\Desktop\Joanna\morph21","no","mono","no","18","no","white","no","yes","1080","legacy","10","10","C:/Users/ERP Testing Room/Desktop/Joanna/morph21/subject-147.csv","xpyriment","Jazzy James","3.1.4","0","/","NA","NA","NA","NA","space","/","418","NA","NA","NA","NA","133148","418","2","legacy","1024","2","48000","-16","BA_m21","147","odd","CW_S","AMUSEMENT","2569","173699","172082","165973","135725","NA","NA","NA","NA","173689","172579","NA","171582","NA","171573","173689","2577","173899","NA","NA","172699","2569","2569","173090","171573","2569","172699","173899","morph21_Oliver/Morris","11","5567","11","yes","1280","38"
"200","100","100","502.666666667","502.666666667","black","no","xpyriment","legacy","legacy","0","207","NA","uniform","81285","1000","0.0123023928154","1","undefined","1","0","11","11","11","0","11","11","11","NA","11","11","0","11","NA","11","11","0","11","NA","11","NA","11","0","0","11","11","0","11","11","12","/","10/30/18 16:16:30","The main experiment item","yes","FIN__BA__M21__7%3A10%3A17.osexp","C:\Users\ERP Testing Room\Desktop\Joanna\morph21","no","mono","no","18","no","white","no","yes","1080","legacy","11","11","C:/Users/ERP Testing Room/Desktop/Joanna/morph21/subject-147.csv","xpyriment","Jazzy James","3.1.4","0","/","NA","NA","NA","NA","space","/","465","NA","NA","NA","NA","133148","465","2","legacy","1024","2","48000","-16","BA_m21","147","odd","FILL_W","BRASS","2569","178224","175124","176716","135725","NA","NA","NA","NA","176707","175621","NA","174615","NA","174609","176707","2577","178424","NA","NA","175716","2569","2569","176107","174609","2569","175715","178424","morph21_Oliver/Morris","12","6032","12","yes","1280","10"
"250","92.3076923077","92.3076923077","506.923076923","506.923076923","black","no","xpyriment","legacy","legacy","0","208","NA","uniform","78990","1000","0.0126598303583","0","undefined","0","0","12","12","12","0","12","12","12","NA","12","12","0","12","NA","12","12","0","12","NA","12","NA","12","0","0","12","12","0","12","12","13","z","10/30/18 16:16:30","The main experiment item","yes","FIN__BA__M21__7%3A10%3A17.osexp","C:\Users\ERP Testing Room\Desktop\Joanna\morph21","no","mono","no","18","no","white","no","yes","1080","legacy","12","12","C:/Users/ERP Testing Room/Desktop/Joanna/morph21/subject-147.csv","xpyriment","Jazzy James","3.1.4","0","/","NA","NA","NA","NA","space","/","558","NA","NA","NA","NA","133148","558","2","legacy","1024","2","48000","-16","BA_m21","147","odd","FILL_NW","DOWED","2569","181174","179591","176716","135725","NA","NA","NA","NA","176707","180088","NA","179091","NA","179081","181168","2577","181424","NA","NA","180174","2569","2569","180566","179081","2569","180174","181424","morph21_Oliver/Morris","12","6590","13","yes","1280","16"
"300","92.8571428571","92.8571428571","514.785714286","514.785714286","black","no","xpyriment","legacy","legacy","0","204","NA","uniform","76324","1000","0.0131020386772","1","undefined","1","0","13","13","13","0","13","13","13","NA","13","13","0","13","NA","13","13","0","13","NA","13","NA","13","0","0","13","13","0","13","13","14","z","10/30/18 16:16:30","The main experiment item","yes","FIN__BA__M21__7%3A10%3A17.osexp","C:\Users\ERP Testing Room\Desktop\Joanna\morph21","no","mono","no","18","no","white","no","yes","1080","legacy","13","13","C:/Users/ERP Testing Room/Desktop/Joanna/morph21/subject-147.csv","xpyriment","Jazzy James","3.1.4","0","z","NA","NA","NA","NA","space","z","617","NA","NA","NA","NA","133148","617","2","legacy","1024","2","48000","-16","BA_m21","147","odd","NW_L_COMP","IME","2569","184300","182717","176716","135725","NA","NA","NA","NA","184296","183214","NA","182217","NA","182206","184296","2577","184600","NA","NA","183300","2569","2569","183700","182206","2569","183300","184600","morph21_Oliver/Morris","13","7207","14","yes","1280","20"
"300","93.3333333333","93.3333333333","512.933333333","512.933333333","black","no","xpyriment","legacy","legacy","0","202","NA","uniform","77929","1000","0.0128321934068","1","undefined","1","0","14","14","14","0","14","14","14","NA","14","14","0","14","NA","14","14","0","14","NA","14","NA","14","0","0","14","14","0","14","14","15","/","10/30/18 16:16:30","The main experiment item","yes","FIN__BA__M21__7%3A10%3A17.osexp","C:\Users\ERP Testing Room\Desktop\Joanna\morph21","no","mono","no","18","no","white","no","yes","1080","legacy","14","14","C:/Users/ERP Testing Room/Desktop/Joanna/morph21/subject-147.csv","xpyriment","Jazzy James","3.1.4","0","/","NA","NA","NA","NA","space","/","487","NA","NA","NA","NA","133148","487","2","legacy","1024","2","48000","-16","BA_m21","147","odd","CW_L","HEATER","2569","188859","185742","187350","135725","NA","NA","NA","NA","187345","186239","NA","185242","NA","185237","187345","2577","189159","NA","NA","186350","2569","2569","186750","185237","2569","186350","189159","morph21_Oliver/Morris","14","7694","15","yes","1280","16"
"250","93.75","93.75","515.8125","515.8125","black","no","xpyriment","legacy","legacy","0","208","NA","uniform","77466","1000","0.012908889061","1","undefined","1","0","15","15","15","0","15","15","15","NA","15","15","0","15","NA","15","15","0","15","NA","15","NA","15","0","0","15","15","0","15","15","16","z","10/30/18 16:16:30","The main experiment item","yes","FIN__BA__M21__7%3A10%3A17.osexp","C:\Users\ERP Testing Room\Desktop\Joanna\morph21","no","mono","no","18","no","white","no","yes","1080","legacy","15","15","C:/Users/ERP Testing Room/Desktop/Joanna/morph21/subject-147.csv","xpyriment","Jazzy James","3.1.4","0","z","NA","NA","NA","NA","space","z","559","NA","NA","NA","NA","133148","559","2","legacy","1024","2","48000","-16","BA_m21","147","odd","FILL_NW","PLAODS","2569","191942","190334","187350","135725","NA","NA","NA","NA","191933","190831","NA","189834","NA","189826","191933","2577","192192","NA","NA","190942","2569","2569","191334","189826","2569","190942","192192","morph21_Oliver/Morris","15","8253","16","yes","1280","37"
"250","94.1176470588","94.1176470588","510.705882353","510.705882353","black","no","xpyriment","legacy","legacy","0","207","NA","uniform","83026","1000","0.0120444198203","1","undefined","1","0","16","16","16","0","16","16","16","NA","16","16","0","16","NA","16","16","0","16","NA","16","NA","16","0","0","16","16","0","16","16","17","/","10/30/18 16:16:30","The main experiment item","yes","FIN__BA__M21__7%3A10%3A17.osexp","C:\Users\ERP Testing Room\Desktop\Joanna\morph21","no","mono","no","18","no","white","no","yes","1080","legacy","16","16","C:/Users/ERP Testing Room/Desktop/Joanna/morph21/subject-147.csv","xpyriment","Jazzy James","3.1.4","0","/","NA","NA","NA","NA","space","/","429","NA","NA","NA","NA","133148","429","2","legacy","1024","2","48000","-16","BA_m21","147","odd","FILL_W","SHIP","2569","194976","193392","187350","135725","NA","NA","NA","NA","194967","193889","NA","192892","NA","192885","194967","2577","195226","NA","NA","193976","2569","2569","194367","192885","2569","193976","195226","morph21_Oliver/Morris","16","8682","17","yes","1280","37"
"350","94.4444444444","94.4444444444","513.722222222","513.722222222","black","no","xpyriment","legacy","legacy","0","204","NA","uniform","74392","1000","0.0134423056243","1","undefined","1","0","17","17","17","0","17","17","17","NA","17","17","0","17","NA","17","17","0","17","NA","17","NA","17","0","0","17","17","0","17","17","18","z","10/30/18 16:16:30","The main experiment item","yes","FIN__BA__M21__7%3A10%3A17.osexp","C:\Users\ERP Testing Room\Desktop\Joanna\morph21","no","mono","no","18","no","white","no","yes","1080","legacy","17","17","C:/Users/ERP Testing Room/Desktop/Joanna/morph21/subject-147.csv","xpyriment","Jazzy James","3.1.4","0","z","NA","NA","NA","NA","space","z","565","NA","NA","NA","NA","133148","565","2","legacy","1024","2","48000","-16","BA_m21","147","odd","NW_L_COMP","INKILM","2569","199460","196367","197951","135725","NA","NA","NA","NA","197946","196864","NA","195867","NA","195857","197946","2577","199810","NA","NA","196951","2569","2569","197351","195857","2569","196951","199810","morph21_Oliver/Morris","17","9247","18","yes","1280","8"
"300","94.7368421053","94.7368421053","518.052631579","518.052631579","black","no","xpyriment","legacy","legacy","0","204","NA","uniform","66342","1000","0.0150734074945","1","undefined","1","0","18","18","18","0","18","18","18","NA","18","18","0","18","NA","18","18","0","18","NA","18","NA","18","0","0","18","18","0","18","18","19","z","10/30/18 16:16:30","The main experiment item","yes","FIN__BA__M21__7%3A10%3A17.osexp","C:\Users\ERP Testing Room\Desktop\Joanna\morph21","no","mono","no","18","no","white","no","yes","1080","legacy","18","18","C:/Users/ERP Testing Room/Desktop/Joanna/morph21/subject-147.csv","xpyriment","Jazzy James","3.1.4","0","z","NA","NA","NA","NA","space","z","596","NA","NA","NA","NA","133148","596","2","legacy","1024","2","48000","-16","BA_m21","147","odd","NW_L_COMP","ADDMANT","2569","202569","200977","197951","135725","NA","NA","NA","NA","202563","201474","NA","200477","NA","200470","202563","2577","202869","NA","NA","201569","2569","2569","201969","200470","2569","201569","202869","morph21_Oliver/Morris","18","9843","19","yes","1280","13"
"300","95","95","516.05","516.05","black","no","xpyriment","legacy","legacy","0","201","NA","uniform","81039","1000","0.0123397376572","1","undefined","1","0","19","19","19","0","19","19","19","NA","19","19","0","19","NA","19","19","0","19","NA","19","NA","19","0","0","19","19","0","19","19","20","/","10/30/18 16:16:30","The main experiment item","yes","FIN__BA__M21__7%3A10%3A17.osexp","C:\Users\ERP Testing Room\Desktop\Joanna\morph21","no","mono","no","18","no","white","no","yes","1080","legacy","19","19","C:/Users/ERP Testing Room/Desktop/Joanna/morph21/subject-147.csv","xpyriment","Jazzy James","3.1.4","0","/","NA","NA","NA","NA","space","/","478","NA","NA","NA","NA","133148","478","2","legacy","1024","2","48000","-16","BA_m21","147","odd","CW_S","BUYER","2569","205719","204135","197951","135725","NA","NA","NA","NA","205716","204632","NA","203635","NA","203628","205716","2577","206019","NA","NA","204727","2569","2569","205119","203627","2569","204727","206019","morph21_Oliver/Morris","19","10321","20","yes","1280","21"
"350","95.2380952381","95.2380952381","524.476190476","524.476190476","black","no","xpyriment","legacy","legacy","0","203","NA","uniform","73826","1000","0.0135453634221","1","undefined","1","0","20","20","20","0","20","20","20","NA","20","20","0","20","NA","20","20","0","20","NA","20","NA","20","0","0","20","20","0","20","20","21","z","10/30/18 16:16:30","The main experiment item","yes","FIN__BA__M21__7%3A10%3A17.osexp","C:\Users\ERP Testing Room\Desktop\Joanna\morph21","no","mono","no","18","no","white","no","yes","1080","legacy","20","20","C:/Users/ERP Testing Room/Desktop/Joanna/morph21/subject-147.csv","xpyriment","Jazzy James","3.1.4","0","z","NA","NA","NA","NA","space","z","693","NA","NA","NA","NA","133148","693","2","legacy","1024","2","48000","-16","BA_m21","147","odd","NW_S_COMP","HEIGHTENGE","2569","210261","207169","208752","135725","NA","NA","NA","NA","208747","207666","NA","206669","NA","206659","208747","2577","210611","NA","NA","207752","2569","2569","208152","206659","2569","207752","210611","morph21_Oliver/Morris","20","11014","21","yes","1280","18"
"300","95.4545454545","95.4545454545","521.181818182","521.181818182","black","no","xpyriment","legacy","legacy","0","201","NA","uniform","82442","1000","0.0121297396958","1","undefined","1","0","21","21","21","0","21","21","21","NA","21","21","0","21","NA","21","21","0","21","NA","21","NA","21","0","0","21","21","0","21","21","22","/","10/30/18 16:16:30","The main experiment item","yes","FIN__BA__M21__7%3A10%3A17.osexp","C:\Users\ERP Testing Room\Desktop\Joanna\morph21","no","mono","no","18","no","white","no","yes","1080","legacy","21","21","C:/Users/ERP Testing Room/Desktop/Joanna/morph21/subject-147.csv","xpyriment","Jazzy James","3.1.4","0","/","NA","NA","NA","NA","space","/","452","NA","NA","NA","NA","133148","452","2","legacy","1024","2","48000","-16","BA_m21","147","odd","CW_S","DETECTABLE","2569","213369","211777","208752","135725","NA","NA","NA","NA","213363","212275","NA","211277","NA","211267","213363","2577","213669","NA","NA","212369","2569","2569","212761","211267","2569","212369","213669","morph21_Oliver/Morris","21","11466","22","yes","1280","1"
"250","95.652173913","95.652173913","519.782608696","519.782608696","black","no","xpyriment","legacy","legacy","0","203","NA","uniform","80274","1000","0.0124573336323","1","undefined","1","0","22","22","22","0","22","22","22","NA","22","22","0","22","NA","22","22","0","22","NA","22","NA","22","0","0","22","22","0","22","22","23","z","10/30/18 16:16:30","The main experiment item","yes","FIN__BA__M21__7%3A10%3A17.osexp","C:\Users\ERP Testing Room\Desktop\Joanna\morph21","no","mono","no","18","no","white","no","yes","1080","legacy","22","22","C:/Users/ERP Testing Room/Desktop/Joanna/morph21/subject-147.csv","xpyriment","Jazzy James","3.1.4","0","z","NA","NA","NA","NA","space","z","489","NA","NA","NA","NA","133148","489","2","legacy","1024","2","48000","-16","BA_m21","147","odd","NW_S_COMP","LIDADY","2569","216403","214811","208752","135725","NA","NA","NA","NA","216394","215308","NA","214311","NA","214304","216394","2577","216653","NA","NA","215403","2569","2569","215794","214303","2569","215402","216653","morph21_Oliver/Morris","22","11955","23","yes","1280","3"
"300","95.8333333333","95.8333333333","517.875","517.875","black","no","xpyriment","legacy","legacy","0","202","NA","uniform","77860","1000","0.0128435653737","1","undefined","1","0","23","23","23","0","23","23","23","NA","23","23","0","23","NA","23","23","0","23","NA","23","NA","23","0","0","23","23","0","23","23","24","/","10/30/18 16:16:30","The main experiment item","yes","FIN__BA__M21__7%3A10%3A17.osexp","C:\Users\ERP Testing Room\Desktop\Joanna\morph21","no","mono","no","18","no","white","no","yes","1080","legacy","23","23","C:/Users/ERP Testing Room/Desktop/Joanna/morph21/subject-147.csv","xpyriment","Jazzy James","3.1.4","0","/","NA","NA","NA","NA","space","/","474","NA","NA","NA","NA","133148","474","2","legacy","1024","2","48000","-16","BA_m21","147","odd","CW_L","KNOCKER","2569","220887","217795","219379","135725","NA","NA","NA","NA","219371","218292","NA","217295","NA","217287","219371","2577","221187","NA","NA","218379","2569","2569","218770","217287","2569","218379","221187","morph21_Oliver/Morris","23","12429","24","yes","1280","4"
"250","96","96","518.12","518.12","black","no","xpyriment","legacy","legacy","0","203","NA","uniform","79478","1000","0.0125820981907","1","undefined","1","0","24","24","24","0","24","24","24","NA","24","24","0","24","NA","24","24","0","24","NA","24","NA","24","0","0","24","24","0","24","24","25","z","10/30/18 16:16:30","The main experiment item","yes","FIN__BA__M21__7%3A10%3A17.osexp","C:\Users\ERP Testing Room\Desktop\Joanna\morph21","no","mono","no","18","no","white","no","yes","1080","legacy","24","24","C:/Users/ERP Testing Room/Desktop/Joanna/morph21/subject-147.csv","xpyriment","Jazzy James","3.1.4","0","z","NA","NA","NA","NA","space","z","524","NA","NA","NA","NA","133148","524","2","legacy","1024","2","48000","-16","BA_m21","147","odd","NW_S_COMP","TREASONIME","2569","223937","222354","219379","135725","NA","NA","NA","NA","223928","222851","NA","221854","NA","221848","223928","2577","224187","NA","NA","222937","2569","2569","223329","221848","2569","222937","224187","morph21_Oliver/Morris","24","12953","25","yes","1280","14"
"300","92.3076923077","92.3076923077","518.923076923","518.923076923","black","no","xpyriment","legacy","legacy","0","206","NA","uniform","79030","1000","0.0126534227509","0","undefined","0","0","25","25","25","0","25","25","25","NA","25","25","0","25","NA","25","25","0","25","NA","25","NA","25","0","0","25","25","0","25","25","26","z","10/30/18 16:16:30","The main experiment item","yes","FIN__BA__M21__7%3A10%3A17.osexp","C:\Users\ERP Testing Room\Desktop\Joanna\morph21","no","mono","no","18","no","white","no","yes","1080","legacy","25","25","C:/Users/ERP Testing Room/Desktop/Joanna/morph21/subject-147.csv","xpyriment","Jazzy James","3.1.4","0","/","NA","NA","NA","NA","space","/","539","NA","NA","NA","NA","133148","539","2","legacy","1024","2","48000","-16","BA_m21","147","odd","NW_L_SIMP","TAXFUL","2569","227154","225546","219379","135725","NA","NA","NA","NA","223928","226043","NA","225046","NA","225043","227151","2577","227454","NA","NA","226162","2569","2569","226554","225043","2569","226162","227454","morph21_Oliver/Morris","24","13492","26","yes","1280","6"
"350","92.5925925926","92.5925925926","518.666666667","518.666666667","black","no","xpyriment","legacy","legacy","0","201","NA","uniform","72451","1000","0.0138024319885","1","undefined","1","0","26","26","26","0","26","26","26","NA","26","26","0","26","NA","26","26","0","26","NA","26","NA","26","0","0","26","26","0","26","26","27","/","10/30/18 16:16:30","The main experiment item","yes","FIN__BA__M21__7%3A10%3A17.osexp","C:\Users\ERP Testing Room\Desktop\Joanna\morph21","no","mono","no","18","no","white","no","yes","1080","legacy","26","26","C:/Users/ERP Testing Room/Desktop/Joanna/morph21/subject-147.csv","xpyriment","Jazzy James","3.1.4","0","/","NA","NA","NA","NA","space","/","512","NA","NA","NA","NA","133148","512","2","legacy","1024","2","48000","-16","BA_m21","147","odd","CW_S","RICHNESS","2569","231746","228654","230238","135725","NA","NA","NA","NA","230229","229151","NA","228154","NA","228145","230229","2577","232096","NA","NA","229237","2569","2569","229629","228144","2569","229237","232096","morph21_Oliver/Morris","25","14004","27","yes","1280","45"
"300","92.8571428571","92.8571428571","518.5","518.5","black","no","xpyriment","legacy","legacy","0","205","NA","uniform","79921","1000","0.0125123559515","1","undefined","1","0","27","27","27","0","27","27","27","NA","27","27","0","27","NA","27","27","0","27","NA","27","NA","27","0","0","27","27","0","27","27","28","z","10/30/18 16:16:30","The main experiment item","yes","FIN__BA__M21__7%3A10%3A17.osexp","C:\Users\ERP Testing Room\Desktop\Joanna\morph21","no","mono","no","18","no","white","no","yes","1080","legacy","27","27","C:/Users/ERP Testing Room/Desktop/Joanna/morph21/subject-147.csv","xpyriment","Jazzy James","3.1.4","0","z","NA","NA","NA","NA","space","z","514","NA","NA","NA","NA","133148","514","2","legacy","1024","2","48000","-16","BA_m21","147","odd","NW_S_SIMP","BOLTOUS","2569","234972","233379","230238","135725","NA","NA","NA","NA","234964","233876","NA","232879","NA","232872","234964","2577","235272","NA","NA","233971","2569","2569","234364","232872","2569","233971","235272","morph21_Oliver/Morris","26","14518","28","yes","1280","13"
"400","93.1034482759","93.1034482759","524","524","black","no","xpyriment","legacy","legacy","0","203","NA","uniform","74268","1000","0.0134647492864","1","undefined","1","0","28","28","28","0","28","28","28","NA","28","28","0","28","NA","28","28","0","28","NA","28","NA","28","0","0","28","28","0","28","28","29","z","10/30/18 16:16:30","The main experiment item","yes","FIN__BA__M21__7%3A10%3A17.osexp","C:\Users\ERP Testing Room\Desktop\Joanna\morph21","no","mono","no","18","no","white","no","yes","1080","legacy","28","28","C:/Users/ERP Testing Room/Desktop/Joanna/morph21/subject-147.csv","xpyriment","Jazzy James","3.1.4","0","z","NA","NA","NA","NA","space","z","678","NA","NA","NA","NA","133148","678","2","legacy","1024","2","48000","-16","BA_m21","147","odd","NW_S_COMP","TRUENELS","2569","238039","236455","230238","135725","NA","NA","NA","NA","238030","236953","NA","235955","NA","235948","238030","2577","238439","NA","NA","237039","2569","2569","237430","235948","2569","237039","238439","morph21_Oliver/Morris","27","15196","29","yes","1280","15"
"250","93.3333333333","93.3333333333","528.6","528.6","black","no","xpyriment","legacy","legacy","0","207","NA","uniform","70213","1000","0.0142423767678","1","undefined","1","0","29","29","29","0","29","29","29","NA","29","29","0","29","NA","29","29","0","29","NA","29","NA","29","0","0","29","29","0","29","29","30","/","10/30/18 16:16:30","The main experiment item","yes","FIN__BA__M21__7%3A10%3A17.osexp","C:\Users\ERP Testing Room\Desktop\Joanna\morph21","no","mono","no","18","no","white","no","yes","1080","legacy","29","29","C:/Users/ERP Testing Room/Desktop/Joanna/morph21/subject-147.csv","xpyriment","Jazzy James","3.1.4","0","/","NA","NA","NA","NA","space","/","662","NA","NA","NA","NA","133148","662","2","legacy","1024","2","48000","-16","BA_m21","147","odd","FILL_W","SPLICE","2569","242747","239639","241239","135725","NA","NA","NA","NA","241233","240136","NA","239139","NA","239129","241233","2577","242998","NA","NA","240239","2569","2569","240631","239129","2569","240239","242998","morph21_Oliver/Morris","28","15858","30","yes","1280","22"
"400","93.5483870968","93.5483870968","532.451612903","532.451612903","black","no","xpyriment","legacy","legacy","0","208","NA","uniform","69209","1000","0.0144489878484","1","undefined","1","0","30","30","30","0","30","30","30","NA","30","30","0","30","NA","30","30","0","30","NA","30","NA","30","0","0","30","30","0","30","30","31","z","10/30/18 16:16:30","The main experiment item","yes","FIN__BA__M21__7%3A10%3A17.osexp","C:\Users\ERP Testing Room\Desktop\Joanna\morph21","no","mono","no","18","no","white","no","yes","1080","legacy","30","30","C:/Users/ERP Testing Room/Desktop/Joanna/morph21/subject-147.csv","xpyriment","Jazzy James","3.1.4","0","z","NA","NA","NA","NA","space","z","648","NA","NA","NA","NA","133148","648","2","legacy","1024","2","48000","-16","BA_m21","147","odd","FILL_NW","GIKE","2569","245772","244189","241239","135725","NA","NA","NA","NA","245768","244686","NA","243689","NA","243683","245768","2577","246173","NA","NA","244773","2569","2569","245172","243683","2569","244772","246173","morph21_Oliver/Morris","29","16506","31","yes","1280","24"
"400","90.625","90.625","532.59375","532.59375","black","no","xpyriment","legacy","legacy","0","204","NA","uniform","69810","1000","0.0143245953302","0","undefined","0","0","31","31","31","0","31","31","31","NA","31","31","0","31","NA","31","31","0","31","NA","31","NA","31","0","0","31","31","0","31","31","32","z","10/30/18 16:16:30","The main experiment item","yes","FIN__BA__M21__7%3A10%3A17.osexp","C:\Users\ERP Testing Room\Desktop\Joanna\morph21","no","mono","no","18","no","white","no","yes","1080","legacy","31","31","C:/Users/ERP Testing Room/Desktop/Joanna/morph21/subject-147.csv","xpyriment","Jazzy James","3.1.4","0","/","NA","NA","NA","NA","space","/","537","NA","NA","NA","NA","133148","537","2","legacy","1024","2","48000","-16","BA_m21","147","odd","NW_L_COMP","BOIL","2569","248964","247356","241239","135725","NA","NA","NA","NA","245768","247853","NA","246856","NA","246845","248956","2577","249364","NA","NA","247964","2569","2569","248356","246845","2569","247964","249364","morph21_Oliver/Morris","29","17043","32","yes","1280","18"
"200","90.9090909091","90.9090909091","530.333333333","530.333333333","black","no","xpyriment","legacy","legacy","0","202","NA","uniform","81985","1000","0.0121973531744","1","undefined","1","0","32","32","32","0","32","32","32","NA","32","32","0","32","NA","32","32","0","32","NA","32","NA","32","0","0","32","32","0","32","32","33","/","10/30/18 16:16:30","The main experiment item","yes","FIN__BA__M21__7%3A10%3A17.osexp","C:\Users\ERP Testing Room\Desktop\Joanna\morph21","no","mono","no","18","no","white","no","yes","1080","legacy","32","32","C:/Users/ERP Testing Room/Desktop/Joanna/morph21/subject-147.csv","xpyriment","Jazzy James","3.1.4","0","/","NA","NA","NA","NA","space","/","458","NA","NA","NA","NA","133148","458","2","legacy","1024","2","48000","-16","BA_m21","147","odd","CW_L","SHAMEFUL","2569","253616","250523","252107","135725","NA","NA","NA","NA","252098","251020","NA","250023","NA","250017","252098","2577","253816","NA","NA","251106","2569","2569","251498","250017","2569","251106","253816","morph21_Oliver/Morris","30","17501","33","yes","1280","19"
"200","91.1764705882","91.1764705882","534.117647059","534.117647059","black","no","xpyriment","legacy","legacy","0","206","NA","uniform","69541","1000","0.0143800060396","1","undefined","1","0","33","33","33","0","33","33","33","NA","33","33","0","33","NA","33","33","0","33","NA","33","NA","33","0","0","33","33","0","33","33","34","z","10/30/18 16:16:30","The main experiment item","yes","FIN__BA__M21__7%3A10%3A17.osexp","C:\Users\ERP Testing Room\Desktop\Joanna\morph21","no","mono","no","18","no","white","no","yes","1080","legacy","33","33","C:/Users/ERP Testing Room/Desktop/Joanna/morph21/subject-147.csv","xpyriment","Jazzy James","3.1.4","0","z","NA","NA","NA","NA","space","z","659","NA","NA","NA","NA","133148","659","2","legacy","1024","2","48000","-16","BA_m21","147","odd","NW_L_SIMP","GROWIST","2569","256674","255057","252107","135725","NA","NA","NA","NA","256668","255554","NA","254557","NA","254548","256668","2577","256874","NA","NA","255674","2569","2569","256066","254548","2569","255674","256874","morph21_Oliver/Morris","31","18160","34","yes","1280","20"
"250","91.4285714286","91.4285714286","531.257142857","531.257142857","black","no","xpyriment","legacy","legacy","0","202","NA","uniform","82966","1000","0.0120531301979","1","undefined","1","0","34","34","34","0","34","34","34","NA","34","34","0","34","NA","34","34","0","34","NA","34","NA","34","0","0","34","34","0","34","34","35","/","10/30/18 16:16:30","The main experiment item","yes","FIN__BA__M21__7%3A10%3A17.osexp","C:\Users\ERP Testing Room\Desktop\Joanna\morph21","no","mono","no","18","no","white","no","yes","1080","legacy","34","34","C:/Users/ERP Testing Room/Desktop/Joanna/morph21/subject-147.csv","xpyriment","Jazzy James","3.1.4","0","/","NA","NA","NA","NA","space","/","434","NA","NA","NA","NA","133148","434","2","legacy","1024","2","48000","-16","BA_m21","147","odd","CW_L","LAUGHING","2569","259699","258116","252107","135725","NA","NA","NA","NA","259689","258613","NA","257616","NA","257606","259689","2577","259949","NA","NA","258699","2569","2569","259091","257606","2569","258699","259949","morph21_Oliver/Morris","32","18594","35","yes","1280","27"
"400","91.6666666667","91.6666666667","531.055555556","531.055555556","black","no","xpyriment","legacy","legacy","0","201","NA","uniform","72452","1000","0.013802241484","1","undefined","1","0","35","35","35","0","35","35","35","NA","35","35","0","35","NA","35","35","0","35","NA","35","NA","35","0","0","35","35","0","35","35","36","/","10/30/18 16:16:30","The main experiment item","yes","FIN__BA__M21__7%3A10%3A17.osexp","C:\Users\ERP Testing Room\Desktop\Joanna\morph21","no","mono","no","18","no","white","no","yes","1080","legacy","35","35","C:/Users/ERP Testing Room/Desktop/Joanna/morph21/subject-147.csv","xpyriment","Jazzy James","3.1.4","0","/","NA","NA","NA","NA","space","/","524","NA","NA","NA","NA","133148","524","2","legacy","1024","2","48000","-16","BA_m21","147","odd","CW_S","DESIGN","2569","264349","261241","262841","135725","NA","NA","NA","NA","262836","261738","NA","260733","NA","260728","262836","2577","264749","NA","NA","261841","2569","2569","262241","260728","2569","261841","264749","morph21_Oliver/Morris","33","19118","36","yes","1280","19"
"250","91.8918918919","91.8918918919","530.540540541","530.540540541","black","no","xpyriment","legacy","legacy","0","202","NA","uniform","72295","1000","0.0138322152293","1","undefined","1","0","36","36","36","0","36","36","36","NA","36","36","0","36","NA","36","36","0","36","NA","36","NA","36","0","0","36","36","0","36","36","37","/","10/30/18 16:16:30","The main experiment item","yes","FIN__BA__M21__7%3A10%3A17.osexp","C:\Users\ERP Testing Room\Desktop\Joanna\morph21","no","mono","no","18","no","white","no","yes","1080","legacy","36","36","C:/Users/ERP Testing Room/Desktop/Joanna/morph21/subject-147.csv","xpyriment","Jazzy James","3.1.4","0","/","NA","NA","NA","NA","space","/","512","NA","NA","NA","NA","133148","512","2","legacy","1024","2","48000","-16","BA_m21","147","odd","CW_L","PUSHER","2569","267533","265933","262841","135725","NA","NA","NA","NA","267529","266430","NA","265424","NA","265413","267529","2577","267783","NA","NA","266541","2569","2569","266933","265413","2569","266541","267783","morph21_Oliver/Morris","34","19630","37","yes","1280","13"
"200","92.1052631579","92.1052631579","532.710526316","532.710526316","black","no","xpyriment","legacy","legacy","0","208","NA","uniform","69785","1000","0.0143297270187","1","undefined","1","0","37","37","37","0","37","37","37","NA","37","37","0","37","NA","37","37","0","37","NA","37","NA","37","0","0","37","37","0","37","37","38","z","10/30/18 16:16:30","The main experiment item","yes","FIN__BA__M21__7%3A10%3A17.osexp","C:\Users\ERP Testing Room\Desktop\Joanna\morph21","no","mono","no","18","no","white","no","yes","1080","legacy","37","37","C:/Users/ERP Testing Room/Desktop/Joanna/morph21/subject-147.csv","xpyriment","Jazzy James","3.1.4","0","z","NA","NA","NA","NA","space","z","613","NA","NA","NA","NA","133148","613","2","legacy","1024","2","48000","-16","BA_m21","147","odd","FILL_NW","CINDS","2569","270584","268991","262841","135725","NA","NA","NA","NA","270575","269488","NA","268491","NA","268483","270575","2577","270784","NA","NA","269584","2569","2569","269975","268483","2569","269584","270784","morph21_Oliver/Morris","35","20243","38","yes","1280","6"
"400","92.3076923077","92.3076923077","536.025641026","536.025641026","black","no","xpyriment","legacy","legacy","0","205","NA","uniform","66373","1000","0.0150663673482","1","undefined","1","0","38","38","38","0","38","38","38","NA","38","38","0","38","NA","38","38","0","38","NA","38","NA","38","0","0","38","38","0","38","38","39","z","10/30/18 16:16:30","The main experiment item","yes","FIN__BA__M21__7%3A10%3A17.osexp","C:\Users\ERP Testing Room\Desktop\Joanna\morph21","no","mono","no","18","no","white","no","yes","1080","legacy","38","38","C:/Users/ERP Testing Room/Desktop/Joanna/morph21/subject-147.csv","xpyriment","Jazzy James","3.1.4","0","z","NA","NA","NA","NA","space","z","662","NA","NA","NA","NA","133148","662","2","legacy","1024","2","48000","-16","BA_m21","147","odd","NW_S_SIMP","SCHEMENESS","2569","275059","271967","273551","135725","NA","NA","NA","NA","273547","272464","NA","271467","NA","271459","273547","2577","275459","NA","NA","272551","2569","2569","272951","271459","2569","272551","275459","morph21_Oliver/Morris","36","20905","39","yes","1280","15"
"300","92.5","92.5","537.875","537.875","black","no","xpyriment","legacy","legacy","0","201","NA","uniform","77267","1000","0.0129421357112","1","undefined","1","0","39","39","39","0","39","39","39","NA","39","39","0","39","NA","39","39","0","39","NA","39","NA","39","0","0","39","39","0","39","39","40","/","10/30/18 16:16:30","The main experiment item","yes","FIN__BA__M21__7%3A10%3A17.osexp","C:\Users\ERP Testing Room\Desktop\Joanna\morph21","no","mono","no","18","no","white","no","yes","1080","legacy","39","39","C:/Users/ERP Testing Room/Desktop/Joanna/morph21/subject-147.csv","xpyriment","Jazzy James","3.1.4","0","/","NA","NA","NA","NA","space","/","610","NA","NA","NA","NA","133148","610","2","legacy","1024","2","48000","-16","BA_m21","147","odd","CW_S","GUILTY","2569","278251","276668","273551","135725","NA","NA","NA","NA","278248","277165","NA","276168","NA","276157","278248","2577","278551","NA","NA","277251","2569","2569","277651","276157","2569","277251","278551","morph21_Oliver/Morris","37","21515","40","yes","1280","34"
"350","90.243902439","90.243902439","539.87804878","539.87804878","black","no","xpyriment","legacy","legacy","0","208","NA","uniform","72277","1000","0.0138356600302","0","undefined","0","0","40","40","40","0","40","40","40","NA","40","40","0","40","NA","40","40","0","40","NA","40","NA","40","0","0","40","40","0","40","40","41","z","10/30/18 16:16:30","The main experiment item","yes","FIN__BA__M21__7%3A10%3A17.osexp","C:\Users\ERP Testing Room\Desktop\Joanna\morph21","no","mono","no","18","no","white","no","yes","1080","legacy","40","40","C:/Users/ERP Testing Room/Desktop/Joanna/morph21/subject-147.csv","xpyriment","Jazzy James","3.1.4","0","/","NA","NA","NA","NA","space","/","620","NA","NA","NA","NA","133148","620","2","legacy","1024","2","48000","-16","BA_m21","147","odd","FILL_NW","DARF","2569","281409","279818","273551","135725","NA","NA","NA","NA","278248","280315","NA","279318","NA","279314","281403","2577","281759","NA","NA","280409","2569","2569","280801","279314","2569","280409","281759","morph21_Oliver/Morris","37","22135","41","yes","1280","10"
"300","90.4761904762","90.4761904762","540.19047619","540.19047619","black","no","xpyriment","legacy","legacy","0","208","NA","uniform","69247","1000","0.0144410588184","1","undefined","1","0","41","41","41","0","41","41","41","NA","41","41","0","41","NA","41","41","0","41","NA","41","NA","41","0","0","41","41","0","41","41","42","z","10/30/18 16:16:30","The main experiment item","yes","FIN__BA__M21__7%3A10%3A17.osexp","C:\Users\ERP Testing Room\Desktop\Joanna\morph21","no","mono","no","18","no","white","no","yes","1080","legacy","41","41","C:/Users/ERP Testing Room/Desktop/Joanna/morph21/subject-147.csv","xpyriment","Jazzy James","3.1.4","0","z","NA","NA","NA","NA","space","z","553","NA","NA","NA","NA","133148","553","2","legacy","1024","2","48000","-16","BA_m21","147","odd","FILL_NW","VOOFS","2569","285985","282901","284476","135725","NA","NA","NA","NA","284471","283398","NA","282401","NA","282398","284471","2577","286285","NA","NA","283476","2569","2569","283876","282398","2569","283476","286285","morph21_Oliver/Morris","38","22688","42","yes","1280","48"
"300","90.6976744186","90.6976744186","540.23255814","540.23255814","black","no","xpyriment","legacy","legacy","0","208","NA","uniform","70956","1000","0.0140932408817","1","undefined","1","0","42","42","42","0","42","42","42","NA","42","42","0","42","NA","42","42","0","42","NA","42","NA","42","0","0","42","42","0","42","42","43","z","10/30/18 16:16:30","The main experiment item","yes","FIN__BA__M21__7%3A10%3A17.osexp","C:\Users\ERP Testing Room\Desktop\Joanna\morph21","no","mono","no","18","no","white","no","yes","1080","legacy","42","42","C:/Users/ERP Testing Room/Desktop/Joanna/morph21/subject-147.csv","xpyriment","Jazzy James","3.1.4","0","z","NA","NA","NA","NA","space","z","542","NA","NA","NA","NA","133148","542","2","legacy","1024","2","48000","-16","BA_m21","147","odd","FILL_NW","SCURE","2569","289119","287536","284476","135725","NA","NA","NA","NA","289116","288033","NA","287036","NA","287029","289116","2577","289419","NA","NA","288127","2569","2569","288519","287029","2569","288127","289419","morph21_Oliver/Morris","39","23230","43","yes","1280","41"
"300","90.9090909091","90.9090909091","540.363636364","540.363636364","black","no","xpyriment","legacy","legacy","0","203","NA","uniform","77552","1000","0.0128945739633","1","undefined","1","0","43","43","43","0","43","43","43","NA","43","43","0","43","NA","43","43","0","43","NA","43","NA","43","0","0","43","43","0","43","43","44","z","10/30/18 16:16:30","The main experiment item","yes","FIN__BA__M21__7%3A10%3A17.osexp","C:\Users\ERP Testing Room\Desktop\Joanna\morph21","no","mono","no","18","no","white","no","yes","1080","legacy","43","43","C:/Users/ERP Testing Room/Desktop/Joanna/morph21/subject-147.csv","xpyriment","Jazzy James","3.1.4","0","z","NA","NA","NA","NA","space","z","546","NA","NA","NA","NA","133148","546","2","legacy","1024","2","48000","-16","BA_m21","147","odd","NW_S_COMP","CURTIDY","2569","292219","290611","284476","135725","NA","NA","NA","NA","292211","291108","NA","290111","NA","290103","292211","2577","292519","NA","NA","291219","2569","2569","291611","290103","2569","291219","292519","morph21_Oliver/Morris","40","23776","44","yes","1280","11"
"350","88.8888888889","88.8888888889","550.288888889","550.288888889","black","no","xpyriment","legacy","legacy","0","208","NA","uniform","57164","1000","0.0174935273949","0","undefined","0","0","44","44","44","0","44","44","44","NA","44","44","0","44","NA","44","44","0","44","NA","44","NA","44","0","0","44","44","0","44","44","45","z","10/30/18 16:16:30","The main experiment item","yes","FIN__BA__M21__7%3A10%3A17.osexp","C:\Users\ERP Testing Room\Desktop\Joanna\morph21","no","mono","no","18","no","white","no","yes","1080","legacy","44","44","C:/Users/ERP Testing Room/Desktop/Joanna/morph21/subject-147.csv","xpyriment","Jazzy James","3.1.4","0","None","NA","NA","NA","NA","space","None","987","NA","NA","NA","NA","133148","987","2","legacy","1024","2","48000","-16","BA_m21","147","odd","FILL_NW","DASP","2569","296903","293819","295394","135725","NA","NA","NA","NA","292211","294316","NA","293319","NA","293309","295390","2577","297253","NA","NA","294403","2569","2569","294794","293309","2569","294403","297253","morph21_Oliver/Morris","40","24763","45","yes","1280","13"
"250","89.1304347826","89.1304347826","549.152173913","549.152173913","black","no","xpyriment","legacy","legacy","0","201","NA","uniform","81068","1000","0.0123353234322","1","undefined","1","0","45","45","45","0","45","45","45","NA","45","45","0","45","NA","45","45","0","45","NA","45","NA","45","0","0","45","45","0","45","45","46","/","10/30/18 16:16:30","The main experiment item","yes","FIN__BA__M21__7%3A10%3A17.osexp","C:\Users\ERP Testing Room\Desktop\Joanna\morph21","no","mono","no","18","no","white","no","yes","1080","legacy","45","45","C:/Users/ERP Testing Room/Desktop/Joanna/morph21/subject-147.csv","xpyriment","Jazzy James","3.1.4","0","/","NA","NA","NA","NA","space","/","498","NA","NA","NA","NA","133148","498","2","legacy","1024","2","48000","-16","BA_m21","147","odd","CW_S","AWARENESS","2569","300011","298436","295394","135725","NA","NA","NA","NA","300007","298933","NA","297936","NA","297928","300007","2577","300261","NA","NA","299011","2569","2569","299411","297928","2569","299011","300261","morph21_Oliver/Morris","41","25261","46","yes","1280","44"
"300","89.3617021277","89.3617021277","550.042553191","550.042553191","black","no","xpyriment","legacy","legacy","0","205","NA","uniform","58990","1000","0.0169520257671","1","undefined","1","0","46","46","46","0","46","46","46","NA","46","46","0","46","NA","46","46","0","46","NA","46","NA","46","0","0","46","46","0","46","46","47","z","10/30/18 16:16:30","The main experiment item","yes","FIN__BA__M21__7%3A10%3A17.osexp","C:\Users\ERP Testing Room\Desktop\Joanna\morph21","no","mono","no","18","no","white","no","yes","1080","legacy","46","46","C:/Users/ERP Testing Room/Desktop/Joanna/morph21/subject-147.csv","xpyriment","Jazzy James","3.1.4","0","z","NA","NA","NA","NA","space","z","591","NA","NA","NA","NA","133148","591","2","legacy","1024","2","48000","-16","BA_m21","147","odd","NW_S_SIMP","TILTARY","2569","303078","301470","295394","135725","NA","NA","NA","NA","303069","301967","NA","300970","NA","300958","303069","2577","303378","NA","NA","302078","2569","2569","302470","300958","2569","302078","303378","morph21_Oliver/Morris","42","25852","47","yes","1280","17"
"300","87.5","87.5","551.3125","551.3125","black","no","xpyriment","legacy","legacy","0","205","NA","uniform","66553","1000","0.0150256186798","0","undefined","0","0","47","47","47","0","47","47","47","NA","47","47","0","47","NA","47","47","0","47","NA","47","NA","47","0","0","47","47","0","47","47","48","z","10/30/18 16:16:30","The main experiment item","yes","FIN__BA__M21__7%3A10%3A17.osexp","C:\Users\ERP Testing Room\Desktop\Joanna\morph21","no","mono","no","18","no","white","no","yes","1080","legacy","47","47","C:/Users/ERP Testing Room/Desktop/Joanna/morph21/subject-147.csv","xpyriment","Jazzy James","3.1.4","0","/","NA","NA","NA","NA","space","/","611","NA","NA","NA","NA","133148","611","2","legacy","1024","2","48000","-16","BA_m21","147","odd","NW_S_SIMP","NEXTNESS","2569","307671","304571","306162","135725","NA","NA","NA","NA","303069","305068","NA","304070","NA","304065","306159","2577","307971","NA","NA","305162","2569","2569","305562","304065","2569","305162","307971","morph21_Oliver/Morris","42","26463","48","yes","1280","9"
"250","87.7551020408","87.7551020408","554.346938776","554.346938776","black","no","xpyriment","legacy","legacy","0","204","NA","uniform","65441","1000","0.0152809400834","1","undefined","1","0","48","48","48","0","48","48","48","NA","48","48","0","48","NA","48","48","0","48","NA","48","NA","48","0","0","48","48","0","48","48","49","z","10/30/18 16:16:30","The main experiment item","yes","FIN__BA__M21__7%3A10%3A17.osexp","C:\Users\ERP Testing Room\Desktop\Joanna\morph21","no","mono","no","18","no","white","no","yes","1080","legacy","48","48","C:/Users/ERP Testing Room/Desktop/Joanna/morph21/subject-147.csv","xpyriment","Jazzy James","3.1.4","0","z","NA","NA","NA","NA","space","z","700","NA","NA","NA","NA","133148","700","2","legacy","1024","2","48000","-16","BA_m21","147","odd","NW_L_COMP","STIRANGE","2569","310721","309129","306162","135725","NA","NA","NA","NA","310714","309626","NA","308629","NA","308622","310714","2577","310971","NA","NA","309721","2569","2569","310113","308622","2569","309721","310971","morph21_Oliver/Morris","43","27163","49","yes","1280","1"
"200","88","88","559.02","559.02","black","no","xpyriment","legacy","legacy","0","201","NA","uniform","70095","1000","0.0142663528069","1","undefined","1","0","49","49","49","0","49","49","49","NA","49","49","0","49","NA","49","49","0","49","NA","49","NA","49","0","0","49","49","0","49","49","50","/","10/30/18 16:16:30","The main experiment item","yes","FIN__BA__M21__7%3A10%3A17.osexp","C:\Users\ERP Testing Room\Desktop\Joanna\morph21","no","mono","no","18","no","white","no","yes","1080","legacy","49","49","C:/Users/ERP Testing Room/Desktop/Joanna/morph21/subject-147.csv","xpyriment","Jazzy James","3.1.4","0","/","NA","NA","NA","NA","space","/","788","NA","NA","NA","NA","133148","788","2","legacy","1024","2","48000","-16","BA_m21","147","odd","CW_S","THRUSTER","2569","313729","312146","306162","135725","NA","NA","NA","NA","313720","312643","NA","311646","NA","311635","313720","2577","313929","NA","NA","312729","2569","2569","313121","311635","2569","312729","313929","morph21_Oliver/Morris","44","27951","50","yes","1280","24"
"350","88.2352941176","88.2352941176","557.568627451","557.568627451","black","no","xpyriment","legacy","legacy","0","201","NA","uniform","81686","1000","0.0122419998531","1","undefined","1","0","50","50","50","0","50","50","50","NA","50","50","0","50","NA","50","50","0","50","NA","50","NA","50","0","0","50","50","0","50","50","51","/","10/30/18 16:16:30","The main experiment item","yes","FIN__BA__M21__7%3A10%3A17.osexp","C:\Users\ERP Testing Room\Desktop\Joanna\morph21","no","mono","no","18","no","white","no","yes","1080","legacy","50","50","C:/Users/ERP Testing Room/Desktop/Joanna/morph21/subject-147.csv","xpyriment","Jazzy James","3.1.4","0","/","NA","NA","NA","NA","space","/","485","NA","NA","NA","NA","133148","485","2","legacy","1024","2","48000","-16","BA_m21","147","odd","CW_S","BOSSY","2569","318205","315071","316696","135725","NA","NA","NA","NA","316689","315568","NA","314571","NA","314566","316689","2577","318555","NA","NA","315696","2569","2569","316088","314566","2569","315696","318555","morph21_Oliver/Morris","45","28436","51","yes","1280","49"
"200","88.4615384615","88.4615384615","559.615384615","559.615384615","black","no","xpyriment","legacy","legacy","0","203","NA","uniform","61750","1000","0.0161943319838","1","undefined","1","0","51","51","51","0","51","51","51","NA","51","51","0","51","NA","51","51","0","51","NA","51","NA","51","0","0","51","51","0","51","51","52","z","10/30/18 16:16:30","The main experiment item","yes","FIN__BA__M21__7%3A10%3A17.osexp","C:\Users\ERP Testing Room\Desktop\Joanna\morph21","no","mono","no","18","no","white","no","yes","1080","legacy","51","51","C:/Users/ERP Testing Room/Desktop/Joanna/morph21/subject-147.csv","xpyriment","Jazzy James","3.1.4","0","z","NA","NA","NA","NA","space","z","664","NA","NA","NA","NA","133148","664","2","legacy","1024","2","48000","-16","BA_m21","147","odd","NW_S_COMP","PILLIME","2569","321413","319805","316696","135725","NA","NA","NA","NA","321403","320302","NA","319305","NA","319295","321403","2577","321613","NA","NA","320413","2569","2569","320805","319295","2569","320413","321613","morph21_Oliver/Morris","46","29100","52","yes","1280","13"
"350","88.679245283","88.679245283","559.886792453","559.886792453","black","no","xpyriment","legacy","legacy","0","207","NA","uniform","77169","1000","0.0129585714471","1","undefined","1","0","52","52","52","0","52","52","52","NA","52","52","0","52","NA","52","52","0","52","NA","52","NA","52","0","0","52","52","0","52","52","53","/","10/30/18 16:16:30","The main experiment item","yes","FIN__BA__M21__7%3A10%3A17.osexp","C:\Users\ERP Testing Room\Desktop\Joanna\morph21","no","mono","no","18","no","white","no","yes","1080","legacy","52","52","C:/Users/ERP Testing Room/Desktop/Joanna/morph21/subject-147.csv","xpyriment","Jazzy James","3.1.4","0","/","NA","NA","NA","NA","space","/","574","NA","NA","NA","NA","133148","574","2","legacy","1024","2","48000","-16","BA_m21","147","odd","FILL_W","BRISK","2569","324423","322839","316696","135725","NA","NA","NA","NA","324419","323336","NA","322339","NA","322331","324419","2577","324773","NA","NA","323431","2569","2569","323823","322331","2569","323431","324773","morph21_Oliver/Morris","47","29674","53","yes","1280","8"
"350","88.8888888889","88.8888888889","559.944444444","559.944444444","black","no","xpyriment","legacy","legacy","0","203","NA","uniform","78916","1000","0.0126717015561","1","undefined","1","0","53","53","53","0","53","53","53","NA","53","53","0","53","NA","53","53","0","53","NA","53","NA","53","0","0","53","53","0","53","53","54","z","10/30/18 16:16:30","The main experiment item","yes","FIN__BA__M21__7%3A10%3A17.osexp","C:\Users\ERP Testing Room\Desktop\Joanna\morph21","no","mono","no","18","no","white","no","yes","1080","legacy","53","53","C:/Users/ERP Testing Room/Desktop/Joanna/morph21/subject-147.csv","xpyriment","Jazzy James","3.1.4","0","z","NA","NA","NA","NA","space","z","563","NA","NA","NA","NA","133148","563","2","legacy","1024","2","48000","-16","BA_m21","147","odd","NW_S_COMP","WELDIG","2569","329006","325923","327498","135725","NA","NA","NA","NA","327495","326420","NA","325423","NA","325419","327495","2577","329356","NA","NA","326498","2569","2569","326898","325419","2569","326498","329356","morph21_Oliver/Morris","48","30237","54","yes","1280","21"
"350","89.0909090909","89.0909090909","560.054545455","560.054545455","black","no","xpyriment","legacy","legacy","0","207","NA","uniform","78131","1000","0.0127990170355","1","undefined","1","0","54","54","54","0","54","54","54","NA","54","54","0","54","NA","54","54","0","54","NA","54","NA","54","0","0","54","54","0","54","54","55","/","10/30/18 16:16:30","The main experiment item","yes","FIN__BA__M21__7%3A10%3A17.osexp","C:\Users\ERP Testing Room\Desktop\Joanna\morph21","no","mono","no","18","no","white","no","yes","1080","legacy","54","54","C:/Users/ERP Testing Room/Desktop/Joanna/morph21/subject-147.csv","xpyriment","Jazzy James","3.1.4","0","/","NA","NA","NA","NA","space","/","566","NA","NA","NA","NA","133148","566","2","legacy","1024","2","48000","-16","BA_m21","147","odd","FILL_W","FAINT","2569","332215","330615","327498","135725","NA","NA","NA","NA","332209","331112","NA","330114","NA","330109","332209","2577","332565","NA","NA","331215","2569","2569","331606","330109","2569","331215","332565","morph21_Oliver/Morris","49","30803","55","yes","1280","31"
"300","89.2857142857","89.2857142857","563.964285714","563.964285714","black","no","xpyriment","legacy","legacy","0","206","NA","uniform","61432","1000","0.0162781612189","1","undefined","1","0","55","55","55","0","55","55","55","NA","55","55","0","55","NA","55","55","0","55","NA","55","NA","55","0","0","55","55","0","55","55","56","z","10/30/18 16:16:30","The main experiment item","yes","FIN__BA__M21__7%3A10%3A17.osexp","C:\Users\ERP Testing Room\Desktop\Joanna\morph21","no","mono","no","18","no","white","no","yes","1080","legacy","55","55","C:/Users/ERP Testing Room/Desktop/Joanna/morph21/subject-147.csv","xpyriment","Jazzy James","3.1.4","0","z","NA","NA","NA","NA","space","z","779","NA","NA","NA","NA","133148","779","2","legacy","1024","2","48000","-16","BA_m21","147","odd","NW_L_SIMP","BEGENCE","2569","335306","333706","327498","135725","NA","NA","NA","NA","335296","334203","NA","333206","NA","333202","335296","2577","335606","NA","NA","334306","2569","2569","334698","333202","2569","334306","335606","morph21_Oliver/Morris","50","31582","56","yes","1280","4"
"300","89.4736842105","89.4736842105","563.228070175","563.228070175","black","no","xpyriment","legacy","legacy","0","207","NA","uniform","72347","1000","0.0138222732111","1","undefined","1","0","56","56","56","0","56","56","56","NA","56","56","0","56","NA","56","56","0","56","NA","56","NA","56","0","0","56","56","0","56","56","57","/","10/30/18 16:16:30","The main experiment item","yes","FIN__BA__M21__7%3A10%3A17.osexp","C:\Users\ERP Testing Room\Desktop\Joanna\morph21","no","mono","no","18","no","white","no","yes","1080","legacy","56","56","C:/Users/ERP Testing Room/Desktop/Joanna/morph21/subject-147.csv","xpyriment","Jazzy James","3.1.4","0","/","NA","NA","NA","NA","space","/","522","NA","NA","NA","NA","133148","522","2","legacy","1024","2","48000","-16","BA_m21","147","odd","FILL_W","BOX","2569","340041","336931","338531","135725","NA","NA","NA","NA","338527","337429","NA","336432","NA","336426","338527","2577","340341","NA","NA","337531","2569","2569","337931","336426","2569","337531","340341","morph21_Oliver/Morris","51","32104","57","yes","1280","42"
"250","89.6551724138","89.6551724138","562.24137931","562.24137931","black","no","xpyriment","legacy","legacy","0","207","NA","uniform","79621","1000","0.0125595006343","1","undefined","1","0","57","57","57","0","57","57","57","NA","57","57","0","57","NA","57","57","0","57","NA","57","NA","57","0","0","57","57","0","57","57","58","/","10/30/18 16:16:30","The main experiment item","yes","FIN__BA__M21__7%3A10%3A17.osexp","C:\Users\ERP Testing Room\Desktop\Joanna\morph21","no","mono","no","18","no","white","no","yes","1080","legacy","57","57","C:/Users/ERP Testing Room/Desktop/Joanna/morph21/subject-147.csv","xpyriment","Jazzy James","3.1.4","0","/","NA","NA","NA","NA","space","/","506","NA","NA","NA","NA","133148","506","2","legacy","1024","2","48000","-16","BA_m21","147","odd","FILL_W","COOK","2569","343283","341683","338531","135725","NA","NA","NA","NA","343280","342180","NA","341183","NA","341180","343280","2577","343533","NA","NA","342291","2569","2569","342683","341180","2569","342291","343533","morph21_Oliver/Morris","52","32610","58","yes","1280","38"
"400","88.1355932203","88.1355932203","560.881355932","560.881355932","black","no","xpyriment","legacy","legacy","0","206","NA","uniform","78432","1000","0.0127498980008","0","undefined","0","0","58","58","58","0","58","58","58","NA","58","58","0","58","NA","58","58","0","58","NA","58","NA","58","0","0","58","58","0","58","58","59","z","10/30/18 16:16:30","The main experiment item","yes","FIN__BA__M21__7%3A10%3A17.osexp","C:\Users\ERP Testing Room\Desktop\Joanna\morph21","no","mono","no","18","no","white","no","yes","1080","legacy","58","58","C:/Users/ERP Testing Room/Desktop/Joanna/morph21/subject-147.csv","xpyriment","Jazzy James","3.1.4","0","/","NA","NA","NA","NA","space","/","482","NA","NA","NA","NA","133148","482","2","legacy","1024","2","48000","-16","BA_m21","147","odd","NW_L_SIMP","BLOODER","2569","346275","344683","338531","135725","NA","NA","NA","NA","343280","345180","NA","344183","NA","344177","346265","2577","346675","NA","NA","345275","2569","2569","345666","344177","2569","345274","346675","morph21_Oliver/Morris","52","33092","59","yes","1280","24"
"400","86.6666666667","86.6666666667","561.1","561.1","black","no","xpyriment","legacy","legacy","0","205","NA","uniform","74601","1000","0.0134046460503","0","undefined","0","0","59","59","59","0","59","59","59","NA","59","59","0","59","NA","59","59","0","59","NA","59","NA","59","0","0","59","59","0","59","59","60","z","10/30/18 16:16:30","The main experiment item","yes","FIN__BA__M21__7%3A10%3A17.osexp","C:\Users\ERP Testing Room\Desktop\Joanna\morph21","no","mono","no","18","no","white","no","yes","1080","legacy","59","59","C:/Users/ERP Testing Room/Desktop/Joanna/morph21/subject-147.csv","xpyriment","Jazzy James","3.1.4","0","/","NA","NA","NA","NA","space","/","574","NA","NA","NA","NA","133148","574","2","legacy","1024","2","48000","-16","BA_m21","147","odd","NW_S_SIMP","ADVERTISELY","2569","351091","348000","349583","135725","NA","NA","NA","NA","343280","348497","NA","347500","NA","347492","349575","2577","351492","NA","NA","348583","2569","2569","348975","347492","2569","348583","351492","morph21_Oliver/Morris","52","33666","60","yes","1280","25"
"200","86.8852459016","86.8852459016","563.606557377","563.606557377","black","no","xpyriment","legacy","legacy","0","201","NA","uniform","70836","1000","0.0141171155909","1","undefined","1","0","60","60","60","0","60","60","60","NA","60","60","0","60","NA","60","60","0","60","NA","60","NA","60","0","0","60","60","0","60","60","61","/","10/30/18 16:16:30","The main experiment item","yes","FIN__BA__M21__7%3A10%3A17.osexp","C:\Users\ERP Testing Room\Desktop\Joanna\morph21","no","mono","no","18","no","white","no","yes","1080","legacy","60","60","C:/Users/ERP Testing Room/Desktop/Joanna/morph21/subject-147.csv","xpyriment","Jazzy James","3.1.4","0","/","NA","NA","NA","NA","space","/","714","NA","NA","NA","NA","133148","714","2","legacy","1024","2","48000","-16","BA_m21","147","odd","CW_S","LOCALLY","2569","354283","352683","349583","135725","NA","NA","NA","NA","354273","353180","NA","352183","NA","352176","354273","2577","354483","NA","NA","353283","2569","2569","353675","352176","2569","353283","354483","morph21_Oliver/Morris","53","34380","61","yes","1280","37"
"300","87.0967741935","87.0967741935","564.790322581","564.790322581","black","no","xpyriment","legacy","legacy","0","202","NA","uniform","74998","1000","0.0133336888984","1","undefined","1","0","61","61","61","0","61","61","61","NA","61","61","0","61","NA","61","61","0","61","NA","61","NA","61","0","0","61","61","0","61","61","62","/","10/30/18 16:16:30","The main experiment item","yes","FIN__BA__M21__7%3A10%3A17.osexp","C:\Users\ERP Testing Room\Desktop\Joanna\morph21","no","mono","no","18","no","white","no","yes","1080","legacy","61","61","C:/Users/ERP Testing Room/Desktop/Joanna/morph21/subject-147.csv","xpyriment","Jazzy James","3.1.4","0","/","NA","NA","NA","NA","space","/","637","NA","NA","NA","NA","133148","637","2","legacy","1024","2","48000","-16","BA_m21","147","odd","CW_L","MADNESS","2569","357218","355633","349583","135725","NA","NA","NA","NA","357214","356130","NA","355133","NA","355126","357214","2577","357518","NA","NA","356225","2569","2569","356617","355126","2569","356225","357518","morph21_Oliver/Morris","54","35017","62","yes","1280","41"
"350","87.3015873016","87.3015873016","565.126984127","565.126984127","black","no","xpyriment","legacy","legacy","0","202","NA","uniform","70936","1000","0.0140972143904","1","undefined","1","0","62","62","62","0","62","62","62","NA","62","62","0","62","NA","62","62","0","62","NA","62","NA","62","0","0","62","62","0","62","62","63","/","10/30/18 16:16:30","The main experiment item","yes","FIN__BA__M21__7%3A10%3A17.osexp","C:\Users\ERP Testing Room\Desktop\Joanna\morph21","no","mono","no","18","no","white","no","yes","1080","legacy","62","62","C:/Users/ERP Testing Room/Desktop/Joanna/morph21/subject-147.csv","xpyriment","Jazzy James","3.1.4","0","/","NA","NA","NA","NA","space","/","586","NA","NA","NA","NA","133148","586","2","legacy","1024","2","48000","-16","BA_m21","147","odd","CW_L","HUNTER","2569","361760","358668","360251","135725","NA","NA","NA","NA","360247","359165","NA","358168","NA","358158","360247","2577","362110","NA","NA","359251","2569","2569","359651","358158","2569","359251","362110","morph21_Oliver/Morris","55","35603","63","yes","1280","10"
"200","87.5","87.5","564.71875","564.71875","black","no","xpyriment","legacy","legacy","0","207","NA","uniform","69476","1000","0.014393459612","1","undefined","1","0","63","63","63","0","63","63","63","NA","63","63","0","63","NA","63","63","0","63","NA","63","NA","63","0","0","63","63","0","63","63","64","/","10/30/18 16:16:30","The main experiment item","yes","FIN__BA__M21__7%3A10%3A17.osexp","C:\Users\ERP Testing Room\Desktop\Joanna\morph21","no","mono","no","18","no","white","no","yes","1080","legacy","63","63","C:/Users/ERP Testing Room/Desktop/Joanna/morph21/subject-147.csv","xpyriment","Jazzy James","3.1.4","0","/","NA","NA","NA","NA","space","/","539","NA","NA","NA","NA","133148","539","2","legacy","1024","2","48000","-16","BA_m21","147","odd","FILL_W","TEST","2569","365018","363376","360251","135725","NA","NA","NA","NA","365009","363873","NA","362876","NA","362871","365009","2577","365218","NA","NA","364018","2569","2569","364410","362871","2569","364018","365218","morph21_Oliver/Morris","56","36142","64","yes","1280","47"
"200","87.6923076923","87.6923076923","565.353846154","565.353846154","black","no","xpyriment","legacy","legacy","0","201","NA","uniform","77204","1000","0.0129526967515","1","undefined","1","0","64","64","64","0","64","64","64","NA","64","64","0","64","NA","64","64","0","64","NA","64","NA","64","0","0","64","64","0","64","64","65","/","10/30/18 16:16:30","The main experiment item","yes","FIN__BA__M21__7%3A10%3A17.osexp","C:\Users\ERP Testing Room\Desktop\Joanna\morph21","no","mono","no","18","no","white","no","yes","1080","legacy","64","64","C:/Users/ERP Testing Room/Desktop/Joanna/morph21/subject-147.csv","xpyriment","Jazzy James","3.1.4","0","/","NA","NA","NA","NA","space","/","606","NA","NA","NA","NA","133148","606","2","legacy","1024","2","48000","-16","BA_m21","147","odd","CW_S","BOLDNESS","2569","367943","366360","360251","135725","NA","NA","NA","NA","367939","366857","NA","365860","NA","365856","367939","2577","368143","NA","NA","366943","2569","2569","367343","365856","2569","366943","368143","morph21_Oliver/Morris","57","36748","65","yes","1280","41"
"400","87.8787878788","87.8787878788","566","566","black","no","xpyriment","legacy","legacy","0","208","NA","uniform","68754","1000","0.0145446083137","1","undefined","1","0","65","65","65","0","65","65","65","NA","65","65","0","65","NA","65","65","0","65","NA","65","NA","65","0","0","65","65","0","65","65","66","z","10/30/18 16:16:30","The main experiment item","yes","FIN__BA__M21__7%3A10%3A17.osexp","C:\Users\ERP Testing Room\Desktop\Joanna\morph21","no","mono","no","18","no","white","no","yes","1080","legacy","65","65","C:/Users/ERP Testing Room/Desktop/Joanna/morph21/subject-147.csv","xpyriment","Jazzy James","3.1.4","0","z","NA","NA","NA","NA","space","z","608","NA","NA","NA","NA","133148","608","2","legacy","1024","2","48000","-16","BA_m21","147","odd","FILL_NW","DROES","2569","372402","369285","370893","135725","NA","NA","NA","NA","370884","369782","NA","368785","NA","368777","370884","2577","372802","NA","NA","369893","2569","2569","370285","368777","2569","369893","372802","morph21_Oliver/Morris","58","37356","66","yes","1280","17"
"400","88.0597014925","88.0597014925","565.358208955","565.358208955","black","no","xpyriment","legacy","legacy","0","205","NA","uniform","79214","1000","0.0126240311056","1","undefined","1","0","66","66","66","0","66","66","66","NA","66","66","0","66","NA","66","66","0","66","NA","66","NA","66","0","0","66","66","0","66","66","67","z","10/30/18 16:16:30","The main experiment item","yes","FIN__BA__M21__7%3A10%3A17.osexp","C:\Users\ERP Testing Room\Desktop\Joanna\morph21","no","mono","no","18","no","white","no","yes","1080","legacy","66","66","C:/Users/ERP Testing Room/Desktop/Joanna/morph21/subject-147.csv","xpyriment","Jazzy James","3.1.4","0","z","NA","NA","NA","NA","space","z","523","NA","NA","NA","NA","133148","523","2","legacy","1024","2","48000","-16","BA_m21","147","odd","NW_S_SIMP","RAMPIZE","2569","375578","373993","370893","135725","NA","NA","NA","NA","375575","374490","NA","373493","NA","373485","375575","2577","375978","NA","NA","374586","2569","2569","374978","373485","2569","374586","375978","morph21_Oliver/Morris","59","37879","67","yes","1280","6"
"300","86.7647058824","86.7647058824","563.764705882","563.764705882","black","no","xpyriment","legacy","legacy","0","207","NA","uniform","82693","1000","0.0120929220127","0","undefined","0","0","67","67","67","0","67","67","67","NA","67","67","0","67","NA","67","67","0","67","NA","67","NA","67","0","0","67","67","0","67","67","68","/","10/30/18 16:16:30","The main experiment item","yes","FIN__BA__M21__7%3A10%3A17.osexp","C:\Users\ERP Testing Room\Desktop\Joanna\morph21","no","mono","no","18","no","white","no","yes","1080","legacy","67","67","C:/Users/ERP Testing Room/Desktop/Joanna/morph21/subject-147.csv","xpyriment","Jazzy James","3.1.4","0","z","NA","NA","NA","NA","space","z","457","NA","NA","NA","NA","133148","457","2","legacy","1024","2","48000","-16","BA_m21","147","odd","FILL_W","BLUNT","2569","378836","377253","370893","135725","NA","NA","NA","NA","375575","377750","NA","376753","NA","376742","378829","2577","379136","NA","NA","377836","2569","2569","378228","376742","2569","377836","379136","morph21_Oliver/Morris","59","38336","68","yes","1280","4"
"250","86.9565217391","86.9565217391","566.579710145","566.579710145","black","no","xpyriment","legacy","legacy","0","207","NA","uniform","70880","1000","0.0141083521445","1","undefined","1","0","68","68","68","0","68","68","68","NA","68","68","0","68","NA","68","68","0","68","NA","68","NA","68","0","0","68","68","0","68","68","69","/","10/30/18 16:16:30","The main experiment item","yes","FIN__BA__M21__7%3A10%3A17.osexp","C:\Users\ERP Testing Room\Desktop\Joanna\morph21","no","mono","no","18","no","white","no","yes","1080","legacy","68","68","C:/Users/ERP Testing Room/Desktop/Joanna/morph21/subject-147.csv","xpyriment","Jazzy James","3.1.4","0","/","NA","NA","NA","NA","space","/","758","NA","NA","NA","NA","133148","758","2","legacy","1024","2","48000","-16","BA_m21","147","odd","FILL_W","SOFT","2569","383411","380286","381903","135725","NA","NA","NA","NA","381896","380784","NA","379786","NA","379782","381896","2577","383662","NA","NA","380903","2569","2569","381295","379782","2569","380903","383662","morph21_Oliver/Morris","60","39094","69","yes","1280","43"
"400","87.1428571429","87.1428571429","567.457142857","567.457142857","black","no","xpyriment","legacy","legacy","0","208","NA","uniform","69173","1000","0.0144565075969","1","undefined","1","0","69","69","69","0","69","69","69","NA","69","69","0","69","NA","69","69","0","69","NA","69","NA","69","0","0","69","69","0","69","69","70","z","10/30/18 16:16:30","The main experiment item","yes","FIN__BA__M21__7%3A10%3A17.osexp","C:\Users\ERP Testing Room\Desktop\Joanna\morph21","no","mono","no","18","no","white","no","yes","1080","legacy","69","69","C:/Users/ERP Testing Room/Desktop/Joanna/morph21/subject-147.csv","xpyriment","Jazzy James","3.1.4","0","z","NA","NA","NA","NA","space","z","628","NA","NA","NA","NA","133148","628","2","legacy","1024","2","48000","-16","BA_m21","147","odd","FILL_NW","ULNS","2569","386545","384920","381903","135725","NA","NA","NA","NA","386537","385417","NA","384420","NA","384412","386537","2577","386945","NA","NA","385545","2569","2569","385937","384412","2569","385545","386945","morph21_Oliver/Morris","61","39722","70","yes","1280","45"
"400","87.323943662","87.323943662","569.802816901","569.802816901","black","no","xpyriment","legacy","legacy","0","205","NA","uniform","65669","1000","0.0152278853036","1","undefined","1","0","70","70","70","0","70","70","70","NA","70","70","0","70","NA","70","70","0","70","NA","70","NA","70","0","0","70","70","0","70","70","71","z","10/30/18 16:16:30","The main experiment item","yes","FIN__BA__M21__7%3A10%3A17.osexp","C:\Users\ERP Testing Room\Desktop\Joanna\morph21","no","mono","no","18","no","white","no","yes","1080","legacy","70","70","C:/Users/ERP Testing Room/Desktop/Joanna/morph21/subject-147.csv","xpyriment","Jazzy James","3.1.4","0","z","NA","NA","NA","NA","space","z","734","NA","NA","NA","NA","133148","734","2","legacy","1024","2","48000","-16","BA_m21","147","odd","NW_S_SIMP","MEDICALARY","2569","389695","388112","381903","135725","NA","NA","NA","NA","389689","388609","NA","387612","NA","387607","389689","2577","390095","NA","NA","388695","2569","2569","389087","387607","2569","388695","390095","morph21_Oliver/Morris","62","40456","71","yes","1280","18"
"350","87.5","87.5","569.305555556","569.305555556","black","no","xpyriment","legacy","legacy","0","202","NA","uniform","74967","1000","0.0133392025825","1","undefined","1","0","71","71","71","0","71","71","71","NA","71","71","0","71","NA","71","71","0","71","NA","71","NA","71","0","0","71","71","0","71","71","72","/","10/30/18 16:16:30","The main experiment item","yes","FIN__BA__M21__7%3A10%3A17.osexp","C:\Users\ERP Testing Room\Desktop\Joanna\morph21","no","mono","no","18","no","white","no","yes","1080","legacy","71","71","C:/Users/ERP Testing Room/Desktop/Joanna/morph21/subject-147.csv","xpyriment","Jazzy James","3.1.4","0","/","NA","NA","NA","NA","space","/","534","NA","NA","NA","NA","133148","534","2","legacy","1024","2","48000","-16","BA_m21","147","odd","CW_L","PUNCHER","2569","394396","391295","392888","135725","NA","NA","NA","NA","392883","391792","NA","390795","NA","390789","392883","2577","394747","NA","NA","391888","2569","2569","392288","390789","2569","391888","394747","morph21_Oliver/Morris","63","40990","72","yes","1280","1"
"300","87.6712328767","87.6712328767","570.767123288","570.767123288","black","no","xpyriment","legacy","legacy","0","205","NA","uniform","62737","1000","0.0159395571991","1","undefined","1","0","72","72","72","0","72","72","72","NA","72","72","0","72","NA","72","72","0","72","NA","72","NA","72","0","0","72","72","0","72","72","73","z","10/30/18 16:16:30","The main experiment item","yes","FIN__BA__M21__7%3A10%3A17.osexp","C:\Users\ERP Testing Room\Desktop\Joanna\morph21","no","mono","no","18","no","white","no","yes","1080","legacy","72","72","C:/Users/ERP Testing Room/Desktop/Joanna/morph21/subject-147.csv","xpyriment","Jazzy James","3.1.4","0","z","NA","NA","NA","NA","space","z","676","NA","NA","NA","NA","133148","676","2","legacy","1024","2","48000","-16","BA_m21","147","odd","NW_S_SIMP","HEIRIC","2569","397496","395905","392888","135725","NA","NA","NA","NA","397494","396402","NA","395405","NA","395400","397494","2577","397796","NA","NA","396505","2569","2569","396896","395400","2569","396505","397796","morph21_Oliver/Morris","64","41666","73","yes","1280","3"
"200","87.8378378378","87.8378378378","570.513513514","570.513513514","black","no","xpyriment","legacy","legacy","0","208","NA","uniform","72174","1000","0.0138554049935","1","undefined","1","0","73","73","73","0","73","73","73","NA","73","73","0","73","NA","73","73","0","73","NA","73","NA","73","0","0","73","73","0","73","73","74","z","10/30/18 16:16:30","The main experiment item","yes","FIN__BA__M21__7%3A10%3A17.osexp","C:\Users\ERP Testing Room\Desktop\Joanna\morph21","no","mono","no","18","no","white","no","yes","1080","legacy","73","73","C:/Users/ERP Testing Room/Desktop/Joanna/morph21/subject-147.csv","xpyriment","Jazzy James","3.1.4","0","z","NA","NA","NA","NA","space","z","552","NA","NA","NA","NA","133148","552","2","legacy","1024","2","48000","-16","BA_m21","147","odd","FILL_NW","PORDS","2569","400588","398988","392888","135725","NA","NA","NA","NA","400586","399485","NA","398488","NA","398479","400586","2577","400788","NA","NA","399597","2569","2569","399988","398479","2569","399597","400788","morph21_Oliver/Morris","65","42218","74","yes","1280","39"
"300","88","88","574.293333333","574.293333333","black","no","xpyriment","legacy","legacy","0","206","NA","uniform","56980","1000","0.01755001755","undefined","undefined","1","0","74","74","74","0","74","74","74","NA","74","74","0","74","NA","74","74","0","74","NA","74","NA","74","0","0","74","74","0","74","74","75","z","10/30/18 16:16:30","The main experiment item","yes","FIN__BA__M21__7%3A10%3A17.osexp","C:\Users\ERP Testing Room\Desktop\Joanna\morph21","no","mono","no","18","no","white","no","yes","1080","legacy","74","74","C:/Users/ERP Testing Room/Desktop/Joanna/morph21/subject-147.csv","xpyriment","Jazzy James","3.1.4","0","space","space","NA","NA","NA","space","z","15494","15494","NA","NA","NA","133148","854","2","legacy","1024","2","48000","-16","BA_m21","147","odd","NW_L_SIMP","ELBOWISM","2569","405155","402047","403647","135725","405463","NA","NA","NA","403642","402544","NA","401547","NA","401541","403642","2577","420958","NA","NA","402647","2569","2569","403047","401540","2569","402647","405455","morph21_Oliver/Morris","66","43072","75","yes","1280","10"
"200","88.1578947368","88.1578947368","574.868421053","574.868421053","black","no","xpyriment","legacy","legacy","0","202","NA","uniform","76254","1000","0.0131140661473","1","undefined","1","0","75","75","75","0","75","75","75","NA","75","75","0","75","NA","75","75","0","75","NA","75","NA","75","0","0","75","75","0","75","75","76","/","10/30/18 16:16:30","The main experiment item","yes","FIN__BA__M21__7%3A10%3A17.osexp","C:\Users\ERP Testing Room\Desktop\Joanna\morph21","no","mono","no","18","no","white","no","yes","1080","legacy","75","75","C:/Users/ERP Testing Room/Desktop/Joanna/morph21/subject-147.csv","xpyriment","Jazzy James","3.1.4","0","/","space","NA","NA","NA","space","/","618","15494","NA","NA","NA","133148","618","2","legacy","1024","2","48000","-16","BA_m21","147","odd","CW_L","COLLECTOR","2569","423715","422132","403647","135725","405463","NA","NA","NA","423708","422629","NA","421624","NA","421617","423708","2577","423915","NA","NA","422715","2569","2569","423107","421617","2569","422715","423915","morph21_Oliver/Morris","67","43690","76","yes","1280","46"
"300","87.012987013","87.012987013","578.376623377","578.376623377","black","no","xpyriment","legacy","legacy","0","202","NA","uniform","60544","1000","0.0165169133192","0","undefined","0","0","76","76","76","0","76","76","76","NA","76","76","0","76","NA","76","76","0","76","NA","76","NA","76","0","0","76","76","0","76","76","77","/","10/30/18 16:16:30","The main experiment item","yes","FIN__BA__M21__7%3A10%3A17.osexp","C:\Users\ERP Testing Room\Desktop\Joanna\morph21","no","mono","no","18","no","white","no","yes","1080","legacy","76","76","C:/Users/ERP Testing Room/Desktop/Joanna/morph21/subject-147.csv","xpyriment","Jazzy James","3.1.4","0","z","space","NA","NA","NA","space","z","845","15494","NA","NA","NA","133148","845","2","legacy","1024","2","48000","-16","BA_m21","147","odd","CW_L","WEEDY","2569","426841","425224","403647","135725","405463","NA","NA","NA","423708","425721","NA","424724","NA","424720","426837","2577","427141","NA","NA","425849","2569","2569","426240","424720","2569","425849","427141","morph21_Oliver/Morris","67","44535","77","yes","1280","48"
"200","87.1794871795","87.1794871795","579.448717949","579.448717949","black","no","xpyriment","legacy","legacy","0","208","NA","uniform","69710","1000","0.0143451441687","1","undefined","1","0","77","77","77","0","77","77","77","NA","77","77","0","77","NA","77","77","0","77","NA","77","NA","77","0","0","77","77","0","77","77","78","z","10/30/18 16:16:30","The main experiment item","yes","FIN__BA__M21__7%3A10%3A17.osexp","C:\Users\ERP Testing Room\Desktop\Joanna\morph21","no","mono","no","18","no","white","no","yes","1080","legacy","77","77","C:/Users/ERP Testing Room/Desktop/Joanna/morph21/subject-147.csv","xpyriment","Jazzy James","3.1.4","0","z","space","NA","NA","NA","space","z","662","15494","NA","NA","NA","133148","662","2","legacy","1024","2","48000","-16","BA_m21","147","odd","FILL_NW","BLAYS","2569","431525","428433","430016","135725","405463","NA","NA","NA","430009","428930","NA","427933","NA","427927","430009","2577","431725","NA","NA","429016","2569","2569","429408","427927","2569","429016","431725","morph21_Oliver/Morris","68","45197","78","yes","1280","8"
"300","87.3417721519","87.3417721519","579.886075949","579.886075949","black","no","xpyriment","legacy","legacy","0","205","NA","uniform","67085","1000","0.0149064619513","1","undefined","1","0","78","78","78","0","78","78","78","NA","78","78","0","78","NA","78","78","0","78","NA","78","NA","78","0","0","78","78","0","78","78","79","z","10/30/18 16:16:30","The main experiment item","yes","FIN__BA__M21__7%3A10%3A17.osexp","C:\Users\ERP Testing Room\Desktop\Joanna\morph21","no","mono","no","18","no","white","no","yes","1080","legacy","78","78","C:/Users/ERP Testing Room/Desktop/Joanna/morph21/subject-147.csv","xpyriment","Jazzy James","3.1.4","0","z","space","NA","NA","NA","space","z","614","15494","NA","NA","NA","133148","614","2","legacy","1024","2","48000","-16","BA_m21","147","odd","NW_S_SIMP","WINKITY","2569","434575","432967","430016","135725","405463","NA","NA","NA","434565","433464","NA","432467","NA","432455","434565","2577","434875","NA","NA","433575","2569","2569","433967","432455","2569","433575","434875","morph21_Oliver/Morris","69","45811","79","yes","1280","21"
"250","87.5","87.5","580.625","580.625","black","no","xpyriment","legacy","legacy","0","202","NA","uniform","67294","1000","0.0148601658395","1","undefined","1","0","79","79","79","0","79","79","79","NA","79","79","0","79","NA","79","79","0","79","NA","79","NA","79","0","0","79","79","0","79","79","80","/","10/30/18 16:16:30","The main experiment item","yes","FIN__BA__M21__7%3A10%3A17.osexp","C:\Users\ERP Testing Room\Desktop\Joanna\morph21","no","mono","no","18","no","white","no","yes","1080","legacy","79","79","C:/Users/ERP Testing Room/Desktop/Joanna/morph21/subject-147.csv","xpyriment","Jazzy James","3.1.4","0","/","space","NA","NA","NA","space","/","639","15494","NA","NA","NA","133148","639","2","legacy","1024","2","48000","-16","BA_m21","147","odd","CW_L","DANCER","2569","437742","436150","430016","135725","405463","NA","NA","NA","437734","436647","NA","435650","NA","435643","437734","2577","437992","NA","NA","436742","2569","2569","437133","435643","2569","436742","437992","morph21_Oliver/Morris","70","46450","80","yes","1280","11"
"400","87.6543209877","87.6543209877","579.271604938","579.271604938","black","no","xpyriment","legacy","legacy","0","202","NA","uniform","81222","1000","0.01231193519","1","undefined","1","0","80","80","80","0","80","80","80","NA","80","80","0","80","NA","80","80","0","80","NA","80","NA","80","0","0","80","80","0","80","80","81","/","10/30/18 16:16:30","The main experiment item","yes","FIN__BA__M21__7%3A10%3A17.osexp","C:\Users\ERP Testing Room\Desktop\Joanna\morph21","no","mono","no","18","no","white","no","yes","1080","legacy","80","80","C:/Users/ERP Testing Room/Desktop/Joanna/morph21/subject-147.csv","xpyriment","Jazzy James","3.1.4","0","/","space","NA","NA","NA","space","/","471","15494","NA","NA","NA","133148","471","2","legacy","1024","2","48000","-16","BA_m21","147","odd","CW_L","CLEANER","2569","442259","439167","440750","135725","405463","NA","NA","NA","440740","439664","NA","438667","NA","438657","440740","2577","442659","NA","NA","439750","2569","2569","440142","438657","2569","439750","442659","morph21_Oliver/Morris","71","46921","81","yes","1280","15"
"250","87.8048780488","87.8048780488","579.634146341","579.634146341","black","no","xpyriment","legacy","legacy","0","201","NA","uniform","66321","1000","0.0150781803652","1","undefined","1","0","81","81","81","0","81","81","81","NA","81","81","0","81","NA","81","81","0","81","NA","81","NA","81","0","0","81","81","0","81","81","82","/","10/30/18 16:16:30","The main experiment item","yes","FIN__BA__M21__7%3A10%3A17.osexp","C:\Users\ERP Testing Room\Desktop\Joanna\morph21","no","mono","no","18","no","white","no","yes","1080","legacy","81","81","C:/Users/ERP Testing Room/Desktop/Joanna/morph21/subject-147.csv","xpyriment","Jazzy James","3.1.4","0","/","space","NA","NA","NA","space","/","609","15494","NA","NA","NA","133148","609","2","legacy","1024","2","48000","-16","BA_m21","147","odd","CW_S","PLANNER","2569","445468","443875","440750","135725","405463","NA","NA","NA","445465","444373","NA","443375","NA","443371","445465","2577","445718","NA","NA","444477","2569","2569","444868","443371","2569","444477","445718","morph21_Oliver/Morris","72","47530","82","yes","1280","22"
"350","87.9518072289","87.9518072289","582.819277108","582.819277108","black","no","xpyriment","legacy","legacy","0","202","NA","uniform","65304","1000","0.0153129976724","1","undefined","1","0","82","82","82","0","82","82","82","NA","82","82","0","82","NA","82","82","0","82","NA","82","NA","82","0","0","82","82","0","82","82","83","/","10/30/18 16:16:30","The main experiment item","yes","FIN__BA__M21__7%3A10%3A17.osexp","C:\Users\ERP Testing Room\Desktop\Joanna\morph21","no","mono","no","18","no","white","no","yes","1080","legacy","82","82","C:/Users/ERP Testing Room/Desktop/Joanna/morph21/subject-147.csv","xpyriment","Jazzy James","3.1.4","0","/","space","NA","NA","NA","space","/","844","15494","NA","NA","NA","133148","844","2","legacy","1024","2","48000","-16","BA_m21","147","odd","CW_L","PARKING","2569","448585","446993","440750","135725","405463","NA","NA","NA","448582","447490","NA","446493","NA","446486","448582","2577","448935","NA","NA","447593","2569","2569","447985","446486","2569","447593","448935","morph21_Oliver/Morris","73","48374","83","yes","1280","25"
"300","88.0952380952","88.0952380952","582.142857143","582.142857143","black","no","xpyriment","legacy","legacy","0","207","NA","uniform","79889","1000","0.0125173678479","1","undefined","1","0","83","83","83","0","83","83","83","NA","83","83","0","83","NA","83","83","0","83","NA","83","NA","83","0","0","83","83","0","83","83","84","/","10/30/18 16:16:30","The main experiment item","yes","FIN__BA__M21__7%3A10%3A17.osexp","C:\Users\ERP Testing Room\Desktop\Joanna\morph21","no","mono","no","18","no","white","no","yes","1080","legacy","83","83","C:/Users/ERP Testing Room/Desktop/Joanna/morph21/subject-147.csv","xpyriment","Jazzy James","3.1.4","0","/","space","NA","NA","NA","space","/","526","15494","NA","NA","NA","133148","526","2","legacy","1024","2","48000","-16","BA_m21","147","odd","FILL_W","SICK","2569","453235","450143","451727","135725","405463","NA","NA","NA","451718","450640","NA","449643","NA","449635","451718","2577","453535","NA","NA","450727","2569","2569","451118","449634","2569","450727","453535","morph21_Oliver/Morris","74","48900","84","yes","1280","36"
"300","88.2352941176","88.2352941176","581.035294118","581.035294118","black","no","xpyriment","legacy","legacy","0","202","NA","uniform","81005","1000","0.0123449169804","1","undefined","1","0","84","84","84","0","84","84","84","NA","84","84","0","84","NA","84","84","0","84","NA","84","NA","84","0","0","84","84","0","84","84","85","/","10/30/18 16:16:30","The main experiment item","yes","FIN__BA__M21__7%3A10%3A17.osexp","C:\Users\ERP Testing Room\Desktop\Joanna\morph21","no","mono","no","18","no","white","no","yes","1080","legacy","84","84","C:/Users/ERP Testing Room/Desktop/Joanna/morph21/subject-147.csv","xpyriment","Jazzy James","3.1.4","0","/","space","NA","NA","NA","space","/","488","15494","NA","NA","NA","133148","488","2","legacy","1024","2","48000","-16","BA_m21","147","odd","CW_L","COMPOSER","2569","456285","454710","451727","135725","405463","NA","NA","NA","456281","455207","NA","454210","NA","454208","456281","2577","456585","NA","NA","455285","2569","2569","455685","454207","2569","455285","456585","morph21_Oliver/Morris","75","49388","85","yes","1280","6"
"300","87.2093023256","87.2093023256","579.651162791","579.651162791","black","no","xpyriment","legacy","legacy","0","206","NA","uniform","71138","1000","0.0140571846271","0","undefined","0","0","85","85","85","0","85","85","85","NA","85","85","0","85","NA","85","85","0","85","NA","85","NA","85","0","0","85","85","0","85","85","86","z","10/30/18 16:16:30","The main experiment item","yes","FIN__BA__M21__7%3A10%3A17.osexp","C:\Users\ERP Testing Room\Desktop\Joanna\morph21","no","mono","no","18","no","white","no","yes","1080","legacy","85","85","C:/Users/ERP Testing Room/Desktop/Joanna/morph21/subject-147.csv","xpyriment","Jazzy James","3.1.4","0","/","space","NA","NA","NA","space","/","462","15494","NA","NA","NA","133148","462","2","legacy","1024","2","48000","-16","BA_m21","147","odd","NW_L_SIMP","LONGNESS","2569","459327","457735","451727","135725","405463","NA","NA","NA","456281","458232","NA","457235","NA","457226","459319","2577","459627","NA","NA","458327","2569","2569","458719","457226","2569","458327","459627","morph21_Oliver/Morris","75","49850","86","yes","1280","17"
"300","87.3563218391","87.3563218391","579.563218391","579.563218391","black","no","xpyriment","legacy","legacy","0","204","NA","uniform","68841","1000","0.014526227103","1","undefined","1","0","86","86","86","0","86","86","86","NA","86","86","0","86","NA","86","86","0","86","NA","86","NA","86","0","0","86","86","0","86","86","87","z","10/30/18 16:16:30","The main experiment item","yes","FIN__BA__M21__7%3A10%3A17.osexp","C:\Users\ERP Testing Room\Desktop\Joanna\morph21","no","mono","no","18","no","white","no","yes","1080","legacy","86","86","C:/Users/ERP Testing Room/Desktop/Joanna/morph21/subject-147.csv","xpyriment","Jazzy James","3.1.4","0","z","space","NA","NA","NA","space","z","572","15494","NA","NA","NA","133148","572","2","legacy","1024","2","48000","-16","BA_m21","147","odd","NW_L_COMP","EMPLOYNELS","2569","464095","460994","462587","135725","405463","NA","NA","NA","462577","461491","NA","460494","NA","460487","462577","2577","464395","NA","NA","461586","2569","2569","461978","460487","2569","461586","464395","morph21_Oliver/Morris","76","50422","87","yes","1280","21"
"250","87.5","87.5","580.022727273","580.022727273","black","no","xpyriment","legacy","legacy","0","204","NA","uniform","68324","1000","0.0146361454247","1","undefined","1","0","87","87","87","0","87","87","87","NA","87","87","0","87","NA","87","87","0","87","NA","87","NA","87","0","0","87","87","0","87","87","88","z","10/30/18 16:16:30","The main experiment item","yes","FIN__BA__M21__7%3A10%3A17.osexp","C:\Users\ERP Testing Room\Desktop\Joanna\morph21","no","mono","no","18","no","white","no","yes","1080","legacy","87","87","C:/Users/ERP Testing Room/Desktop/Joanna/morph21/subject-147.csv","xpyriment","Jazzy James","3.1.4","0","z","space","NA","NA","NA","space","z","620","15494","NA","NA","NA","133148","620","2","legacy","1024","2","48000","-16","BA_m21","147","odd","NW_L_COMP","BREAKIDY","2569","467153","465570","462587","135725","405463","NA","NA","NA","467146","466067","NA","465070","NA","465067","467146","2577","467403","NA","NA","466153","2569","2569","466545","465067","2569","466153","467403","morph21_Oliver/Morris","77","51042","88","yes","1280","23"
"400","86.5168539326","86.5168539326","581.943820225","581.943820225","black","no","xpyriment","legacy","legacy","0","208","NA","uniform","69624","1000","0.0143628633804","0","undefined","0","0","88","88","88","0","88","88","88","NA","88","88","0","88","NA","88","88","0","88","NA","88","NA","88","0","0","88","88","0","88","88","89","z","10/30/18 16:16:30","The main experiment item","yes","FIN__BA__M21__7%3A10%3A17.osexp","C:\Users\ERP Testing Room\Desktop\Joanna\morph21","no","mono","no","18","no","white","no","yes","1080","legacy","88","88","C:/Users/ERP Testing Room/Desktop/Joanna/morph21/subject-147.csv","xpyriment","Jazzy James","3.1.4","0","/","space","NA","NA","NA","space","/","751","15494","NA","NA","NA","133148","751","2","legacy","1024","2","48000","-16","BA_m21","147","odd","FILL_NW","VELT","2569","470262","468637","462587","135725","405463","NA","NA","NA","467146","469134","NA","468137","NA","468133","470254","2577","470662","NA","NA","469262","2569","2569","469653","468133","2569","469262","470662","morph21_Oliver/Morris","77","51793","89","yes","1280","46"
"250","86.6666666667","86.6666666667","582.888888889","582.888888889","black","no","xpyriment","legacy","legacy","0","201","NA","uniform","66817","1000","0.0149662511038","1","undefined","1","0","89","89","89","0","89","89","89","NA","89","89","0","89","NA","89","89","0","89","NA","89","NA","89","0","0","89","89","0","89","89","90","/","10/30/18 16:16:30","The main experiment item","yes","FIN__BA__M21__7%3A10%3A17.osexp","C:\Users\ERP Testing Room\Desktop\Joanna\morph21","no","mono","no","18","no","white","no","yes","1080","legacy","89","89","C:/Users/ERP Testing Room/Desktop/Joanna/morph21/subject-147.csv","xpyriment","Jazzy James","3.1.4","0","/","space","NA","NA","NA","space","/","667","15494","NA","NA","NA","133148","667","2","legacy","1024","2","48000","-16","BA_m21","147","odd","CW_S","GRIMLY","2569","475070","471970","473562","135725","405463","NA","NA","NA","473558","472467","NA","471470","NA","471464","473558","2577","475321","NA","NA","472562","2569","2569","472962","471464","2569","472562","475321","morph21_Oliver/Morris","78","52460","90","yes","1280","31"
"400","86.8131868132","86.8131868132","582.692307692","582.692307692","black","no","xpyriment","legacy","legacy","0","208","NA","uniform","71803","1000","0.0139269946938","1","undefined","1","0","90","90","90","0","90","90","90","NA","90","90","0","90","NA","90","90","0","90","NA","90","NA","90","0","0","90","90","0","90","90","91","z","10/30/18 16:16:30","The main experiment item","yes","FIN__BA__M21__7%3A10%3A17.osexp","C:\Users\ERP Testing Room\Desktop\Joanna\morph21","no","mono","no","18","no","white","no","yes","1080","legacy","90","90","C:/Users/ERP Testing Room/Desktop/Joanna/morph21/subject-147.csv","xpyriment","Jazzy James","3.1.4","0","z","space","NA","NA","NA","space","z","565","15494","NA","NA","NA","133148","565","2","legacy","1024","2","48000","-16","BA_m21","147","odd","FILL_NW","BALFS","2569","478104","476512","473562","135725","405463","NA","NA","NA","478098","477009","NA","476012","NA","476001","478098","2577","478504","NA","NA","477104","2569","2569","477495","476001","2569","477104","478504","morph21_Oliver/Morris","79","53025","91","yes","1280","2"
