"ITI","acc","accuracy","average_response_time","avg_rt","background","bidi","canvas_backend","clock_backend","color_backend","compensation","cond_trig","condtrigtime","coordinates","coroutines_cycles","coroutines_duration","coroutines_mean_cycle_duration","correct","correct_instructions_1","correct_new_keyboard_response_1","count_BA_m21","count_ITI","count_blank_screen","count_blink_screen","count_block1","count_break1","count_break2","count_break3_1","count_canvas","count_correct_trigger","count_def_chain","count_end_screen","count_fixation_1","count_getting_started","count_inc_counter","count_incorrect_trigger","count_instructions_1","count_logger","count_logscript","count_new_coroutines","count_new_inline_script","count_new_keyboard_response_1","count_reset_counter_prep","count_reset_counter_run","count_responsescreen","count_sequence","count_start_trigger","count_target_present","count_word_trigger","counter","cresp","datetime","description","disable_garbage_collection","experiment_file","experiment_path","font_bold","font_family","font_italic","font_size","font_underline","foreground","form_clicks","fullscreen","height","keyboard_backend","live_row","live_row_block1","logfile","mouse_backend","opensesame_codename","opensesame_version","repeat_cycle","response","response_break1","response_break2","response_break3_1","response_end_screen","response_instructions_1","response_new_keyboard_response_1","response_time","response_time_break1","response_time_break2","response_time_break3_1","response_time_end_screen","response_time_instructions_1","response_time_new_keyboard_response_1","round_decimals","sampler_backend","sound_buf_size","sound_channels","sound_freq","sound_sample_size","start","subject_nr","subject_parity","targ_type","target","time_BA_m21","time_ITI","time_blank_screen","time_blink_screen","time_block1","time_break1","time_break2","time_break3_1","time_canvas","time_correct_trigger","time_def_chain","time_end_screen","time_fixation_1","time_getting_started","time_inc_counter","time_incorrect_trigger","time_instructions_1","time_logger","time_logscript","time_new_inline_script","time_new_keyboard_response_1","time_reset_counter_prep","time_reset_counter_run","time_responsescreen","time_sequence","time_start_trigger","time_target_present","time_word_trigger","title","total_correct","total_response_time","total_responses","uniform_coordinates","width","word_trig"
"300","0","0","945","945","black","no","xpyriment","legacy","legacy","0","208","NA","uniform","56975","1000","0.0175515577007","0","undefined","0","0","0","0","0","0","0","0","0","NA","0","0","0","0","NA","0","0","0","0","NA","0","NA","0","0","0","0","0","0","0","0","1","z","10/25/17 16:38:43","The main experiment item","yes","FIN__BA__M21__7%3A10%3A17.osexp","C:\Users\ERP Testing Room\Desktop\Joanna\morph21","no","mono","no","18","no","white","no","yes","1080","legacy","0","0","C:/Users/ERP Testing Room/Desktop/Joanna/morph21/subject-111.csv","xpyriment","Jazzy James","3.1.4","0","/","NA","NA","NA","NA","space","/","945","NA","NA","NA","NA","244990","945","2","legacy","1024","2","48000","-16","BA_m21","111","odd","FILL_NW","BAFED","1698","249522","247897","NA","246701","NA","NA","NA","NA","NA","248394","NA","247394","NA","247328","249519","1710","249822","NA","NA","248531","1698","1698","248922","247328","1698","248531","249822","morph21_Oliver/Morris","0","945","1","yes","1280","1"
"250","50","50","795.5","795.5","black","no","xpyriment","legacy","legacy","0","201","NA","uniform","72912","1000","0.0137151634847","1","undefined","1","0","1","1","1","0","1","1","1","NA","1","1","0","1","NA","1","1","0","1","NA","1","NA","1","0","0","1","1","0","1","1","2","/","10/25/17 16:38:43","The main experiment item","yes","FIN__BA__M21__7%3A10%3A17.osexp","C:\Users\ERP Testing Room\Desktop\Joanna\morph21","no","mono","no","18","no","white","no","yes","1080","legacy","1","1","C:/Users/ERP Testing Room/Desktop/Joanna/morph21/subject-111.csv","xpyriment","Jazzy James","3.1.4","0","/","NA","NA","NA","NA","space","/","646","NA","NA","NA","NA","244990","646","2","legacy","1024","2","48000","-16","BA_m21","111","odd","CW_S","HUGELY","1698","252815","251181","NA","246701","NA","NA","NA","NA","252805","251678","NA","250681","NA","250671","252805","1710","253065","NA","NA","251815","1698","1698","252207","250671","1698","251815","253065","morph21_Oliver/Morris","1","1591","2","yes","1280","35"
"200","66.6666666667","66.6666666667","795.333333333","795.333333333","black","no","xpyriment","legacy","legacy","0","203","NA","uniform","64408","1000","0.0155260216122","1","undefined","1","0","2","2","2","0","2","2","2","NA","2","2","0","2","NA","2","2","0","2","NA","2","NA","2","0","0","2","2","0","2","2","3","z","10/25/17 16:38:43","The main experiment item","yes","FIN__BA__M21__7%3A10%3A17.osexp","C:\Users\ERP Testing Room\Desktop\Joanna\morph21","no","mono","no","18","no","white","no","yes","1080","legacy","2","2","C:/Users/ERP Testing Room/Desktop/Joanna/morph21/subject-111.csv","xpyriment","Jazzy James","3.1.4","0","z","NA","NA","NA","NA","space","z","795","NA","NA","NA","NA","244990","795","2","legacy","1024","2","48000","-16","BA_m21","111","odd","NW_S_COMP","HAPPENANGE","1698","257374","254290","255865","246701","NA","NA","NA","NA","255862","254787","NA","253790","NA","253781","255862","1710","257574","NA","NA","254874","1698","1698","255265","253781","1698","254874","257574","morph21_Oliver/Morris","2","2386","3","yes","1280","2"
"250","75","75","780","780","black","no","xpyriment","legacy","legacy","0","207","NA","uniform","64395","1000","0.0155291559904","1","undefined","1","0","3","3","3","0","3","3","3","NA","3","3","0","3","NA","3","3","0","3","NA","3","NA","3","0","0","3","3","0","3","3","4","/","10/25/17 16:38:43","The main experiment item","yes","FIN__BA__M21__7%3A10%3A17.osexp","C:\Users\ERP Testing Room\Desktop\Joanna\morph21","no","mono","no","18","no","white","no","yes","1080","legacy","3","3","C:/Users/ERP Testing Room/Desktop/Joanna/morph21/subject-111.csv","xpyriment","Jazzy James","3.1.4","0","/","NA","NA","NA","NA","space","/","734","NA","NA","NA","NA","244990","734","2","legacy","1024","2","48000","-16","BA_m21","111","odd","FILL_W","FIERCE","1698","260382","258774","255865","246701","NA","NA","NA","NA","260377","259271","NA","258274","NA","258266","260377","1710","260632","NA","NA","259382","1698","1698","259782","258266","1698","259382","260632","morph21_Oliver/Morris","3","3120","4","yes","1280","24"
"350","80","80","784.8","784.8","black","no","xpyriment","legacy","legacy","0","207","NA","uniform","69768","1000","0.0143332186676","1","undefined","1","0","4","4","4","0","4","4","4","NA","4","4","0","4","NA","4","4","0","4","NA","4","NA","4","0","0","4","4","0","4","4","5","/","10/25/17 16:38:43","The main experiment item","yes","FIN__BA__M21__7%3A10%3A17.osexp","C:\Users\ERP Testing Room\Desktop\Joanna\morph21","no","mono","no","18","no","white","no","yes","1080","legacy","4","4","C:/Users/ERP Testing Room/Desktop/Joanna/morph21/subject-111.csv","xpyriment","Jazzy James","3.1.4","0","/","NA","NA","NA","NA","space","/","804","NA","NA","NA","NA","244990","804","2","legacy","1024","2","48000","-16","BA_m21","111","odd","FILL_W","LIFT","1698","263416","261807","255865","246701","NA","NA","NA","NA","263409","262304","NA","261307","NA","261299","263409","1710","263766","NA","NA","262416","1698","1698","262807","261299","1698","262416","263766","morph21_Oliver/Morris","4","3924","5","yes","1280","39"
"250","83.3333333333","83.3333333333","743.333333333","743.333333333","black","no","xpyriment","legacy","legacy","0","202","NA","uniform","76935","1000","0.0129979853123","1","undefined","1","0","5","5","5","0","5","5","5","NA","5","5","0","5","NA","5","5","0","5","NA","5","NA","5","0","0","5","5","0","5","5","6","/","10/25/17 16:38:43","The main experiment item","yes","FIN__BA__M21__7%3A10%3A17.osexp","C:\Users\ERP Testing Room\Desktop\Joanna\morph21","no","mono","no","18","no","white","no","yes","1080","legacy","5","5","C:/Users/ERP Testing Room/Desktop/Joanna/morph21/subject-111.csv","xpyriment","Jazzy James","3.1.4","0","/","NA","NA","NA","NA","space","/","536","NA","NA","NA","NA","244990","536","2","legacy","1024","2","48000","-16","BA_m21","111","odd","CW_L","LAUGHING","1698","268032","264916","266524","246701","NA","NA","NA","NA","266518","265413","NA","264416","NA","264406","266518","1710","268283","NA","NA","265524","1698","1698","265916","264406","1698","265524","268283","morph21_Oliver/Morris","5","4460","6","yes","1280","27"
"350","85.7142857143","85.7142857143","716","716","black","no","xpyriment","legacy","legacy","0","201","NA","uniform","78565","1000","0.0127283141348","1","undefined","1","0","6","6","6","0","6","6","6","NA","6","6","0","6","NA","6","6","0","6","NA","6","NA","6","0","0","6","6","0","6","6","7","/","10/25/17 16:38:43","The main experiment item","yes","FIN__BA__M21__7%3A10%3A17.osexp","C:\Users\ERP Testing Room\Desktop\Joanna\morph21","no","mono","no","18","no","white","no","yes","1080","legacy","6","6","C:/Users/ERP Testing Room/Desktop/Joanna/morph21/subject-111.csv","xpyriment","Jazzy James","3.1.4","0","/","NA","NA","NA","NA","space","/","552","NA","NA","NA","NA","244990","552","2","legacy","1024","2","48000","-16","BA_m21","111","odd","CW_S","DENSELY","1698","271125","269534","266524","246701","NA","NA","NA","NA","271119","270031","NA","269033","NA","269025","271119","1710","271475","NA","NA","270125","1698","1698","270517","269025","1698","270125","271475","morph21_Oliver/Morris","6","5012","7","yes","1280","32"
"250","87.5","87.5","706.75","706.75","black","no","xpyriment","legacy","legacy","0","203","NA","uniform","74842","1000","0.0133614815211","1","undefined","1","0","7","7","7","0","7","7","7","NA","7","7","0","7","NA","7","7","0","7","NA","7","NA","7","0","0","7","7","0","7","7","8","z","10/25/17 16:38:43","The main experiment item","yes","FIN__BA__M21__7%3A10%3A17.osexp","C:\Users\ERP Testing Room\Desktop\Joanna\morph21","no","mono","no","18","no","white","no","yes","1080","legacy","7","7","C:/Users/ERP Testing Room/Desktop/Joanna/morph21/subject-111.csv","xpyriment","Jazzy James","3.1.4","0","z","NA","NA","NA","NA","space","z","642","NA","NA","NA","NA","244990","642","2","legacy","1024","2","48000","-16","BA_m21","111","odd","NW_S_COMP","TREASONIME","1698","274275","272684","266524","246701","NA","NA","NA","NA","274269","273181","NA","272184","NA","272174","274269","1710","274525","NA","NA","273275","1698","1698","273667","272174","1698","273275","274525","morph21_Oliver/Morris","7","5654","8","yes","1280","14"
"300","88.8888888889","88.8888888889","694.222222222","694.222222222","black","no","xpyriment","legacy","legacy","0","201","NA","uniform","77269","1000","0.0129418007222","1","undefined","1","0","8","8","8","0","8","8","8","NA","8","8","0","8","NA","8","8","0","8","NA","8","NA","8","0","0","8","8","0","8","8","9","/","10/25/17 16:38:43","The main experiment item","yes","FIN__BA__M21__7%3A10%3A17.osexp","C:\Users\ERP Testing Room\Desktop\Joanna\morph21","no","mono","no","18","no","white","no","yes","1080","legacy","8","8","C:/Users/ERP Testing Room/Desktop/Joanna/morph21/subject-111.csv","xpyriment","Jazzy James","3.1.4","0","/","NA","NA","NA","NA","space","/","594","NA","NA","NA","NA","244990","594","2","legacy","1024","2","48000","-16","BA_m21","111","odd","CW_S","DETECTABLE","1698","278767","275675","277259","246701","NA","NA","NA","NA","277252","276173","NA","275176","NA","275168","277252","1710","279067","NA","NA","276259","1698","1698","276650","275168","1698","276259","279067","morph21_Oliver/Morris","8","6248","9","yes","1280","1"
"200","90","90","673","673","black","no","xpyriment","legacy","legacy","0","207","NA","uniform","69709","1000","0.0143453499548","1","undefined","1","0","9","9","9","0","9","9","9","NA","9","9","0","9","NA","9","9","0","9","NA","9","NA","9","0","0","9","9","0","9","9","10","/","10/25/17 16:38:43","The main experiment item","yes","FIN__BA__M21__7%3A10%3A17.osexp","C:\Users\ERP Testing Room\Desktop\Joanna\morph21","no","mono","no","18","no","white","no","yes","1080","legacy","9","9","C:/Users/ERP Testing Room/Desktop/Joanna/morph21/subject-111.csv","xpyriment","Jazzy James","3.1.4","0","/","NA","NA","NA","NA","space","/","482","NA","NA","NA","NA","244990","482","2","legacy","1024","2","48000","-16","BA_m21","111","odd","FILL_W","FLESH","1698","281842","280259","277259","246701","NA","NA","NA","NA","281833","280756","NA","279759","NA","279749","281833","1710","282043","NA","NA","280842","1698","1698","281234","279749","1698","280842","282043","morph21_Oliver/Morris","9","6730","10","yes","1280","32"
"350","90.9090909091","90.9090909091","655.363636364","655.363636364","black","no","xpyriment","legacy","legacy","0","202","NA","uniform","72965","1000","0.0137052011238","1","undefined","1","0","10","10","10","0","10","10","10","NA","10","10","0","10","NA","10","10","0","10","NA","10","NA","10","0","0","10","10","0","10","10","11","/","10/25/17 16:38:43","The main experiment item","yes","FIN__BA__M21__7%3A10%3A17.osexp","C:\Users\ERP Testing Room\Desktop\Joanna\morph21","no","mono","no","18","no","white","no","yes","1080","legacy","10","10","C:/Users/ERP Testing Room/Desktop/Joanna/morph21/subject-111.csv","xpyriment","Jazzy James","3.1.4","0","/","NA","NA","NA","NA","space","/","479","NA","NA","NA","NA","244990","479","2","legacy","1024","2","48000","-16","BA_m21","111","odd","CW_L","KICKING","1698","284901","283284","277259","246701","NA","NA","NA","NA","284891","283781","NA","282784","NA","282780","284891","1710","285251","NA","NA","283901","1698","1698","284292","282780","1698","283901","285251","morph21_Oliver/Morris","10","7209","11","yes","1280","23"
"200","91.6666666667","91.6666666667","642.083333333","642.083333333","black","no","xpyriment","legacy","legacy","0","202","NA","uniform","75911","1000","0.0131733213895","1","undefined","1","0","11","11","11","0","11","11","11","NA","11","11","0","11","NA","11","11","0","11","NA","11","NA","11","0","0","11","11","0","11","11","12","/","10/25/17 16:38:43","The main experiment item","yes","FIN__BA__M21__7%3A10%3A17.osexp","C:\Users\ERP Testing Room\Desktop\Joanna\morph21","no","mono","no","18","no","white","no","yes","1080","legacy","11","11","C:/Users/ERP Testing Room/Desktop/Joanna/morph21/subject-111.csv","xpyriment","Jazzy James","3.1.4","0","/","NA","NA","NA","NA","space","/","496","NA","NA","NA","NA","244990","496","2","legacy","1024","2","48000","-16","BA_m21","111","odd","CW_L","SHAMEFUL","1698","289585","286484","288077","246701","NA","NA","NA","NA","288071","286981","NA","285984","NA","285979","288071","1710","289786","NA","NA","287077","1698","1698","287469","285979","1698","287077","289786","morph21_Oliver/Morris","11","7705","12","yes","1280","19"
"300","84.6153846154","84.6153846154","628.846153846","628.846153846","black","no","xpyriment","legacy","legacy","0","205","NA","uniform","77476","1000","0.0129072228819","0","undefined","0","0","12","12","12","0","12","12","12","NA","12","12","0","12","NA","12","12","0","12","NA","12","NA","12","0","0","12","12","0","12","12","13","z","10/25/17 16:38:43","The main experiment item","yes","FIN__BA__M21__7%3A10%3A17.osexp","C:\Users\ERP Testing Room\Desktop\Joanna\morph21","no","mono","no","18","no","white","no","yes","1080","legacy","12","12","C:/Users/ERP Testing Room/Desktop/Joanna/morph21/subject-111.csv","xpyriment","Jazzy James","3.1.4","0","/","NA","NA","NA","NA","space","/","470","NA","NA","NA","NA","244990","470","2","legacy","1024","2","48000","-16","BA_m21","111","odd","NW_S_SIMP","FEVERIZE","1698","292711","291077","288077","246701","NA","NA","NA","NA","288071","291574","NA","290577","NA","290572","292703","1710","293011","NA","NA","291711","1698","1698","292102","290572","1698","291711","293011","morph21_Oliver/Morris","11","8175","13","yes","1280","24"
"300","85.7142857143","85.7142857143","648.428571429","648.428571429","black","no","xpyriment","legacy","legacy","0","205","NA","uniform","61797","1000","0.0161820153082","1","undefined","1","0","13","13","13","0","13","13","13","NA","13","13","0","13","NA","13","13","0","13","NA","13","NA","13","0","0","13","13","0","13","13","14","z","10/25/17 16:38:43","The main experiment item","yes","FIN__BA__M21__7%3A10%3A17.osexp","C:\Users\ERP Testing Room\Desktop\Joanna\morph21","no","mono","no","18","no","white","no","yes","1080","legacy","13","13","C:/Users/ERP Testing Room/Desktop/Joanna/morph21/subject-111.csv","xpyriment","Jazzy James","3.1.4","0","z","NA","NA","NA","NA","space","z","903","NA","NA","NA","NA","244990","903","2","legacy","1024","2","48000","-16","BA_m21","111","odd","NW_S_SIMP","WARNORY","1698","295877","294294","288077","246701","NA","NA","NA","NA","295871","294791","NA","293794","NA","293783","295871","1710","296178","NA","NA","294877","1698","1698","295269","293783","1698","294877","296178","morph21_Oliver/Morris","12","9078","14","yes","1280","12"
"400","80","80","639.333333333","639.333333333","black","no","xpyriment","legacy","legacy","0","208","NA","uniform","78164","1000","0.0127936134282","0","undefined","0","0","14","14","14","0","14","14","14","NA","14","14","0","14","NA","14","14","0","14","NA","14","NA","14","0","0","14","14","0","14","14","15","z","10/25/17 16:38:43","The main experiment item","yes","FIN__BA__M21__7%3A10%3A17.osexp","C:\Users\ERP Testing Room\Desktop\Joanna\morph21","no","mono","no","18","no","white","no","yes","1080","legacy","14","14","C:/Users/ERP Testing Room/Desktop/Joanna/morph21/subject-111.csv","xpyriment","Jazzy James","3.1.4","0","/","NA","NA","NA","NA","space","/","512","NA","NA","NA","NA","244990","512","2","legacy","1024","2","48000","-16","BA_m21","111","odd","FILL_NW","BUTE","1698","300561","297461","299052","246701","NA","NA","NA","NA","295871","297958","NA","296952","NA","296945","299049","1710","300961","NA","NA","298052","1698","1698","298452","296945","1698","298052","300961","morph21_Oliver/Morris","12","9590","15","yes","1280","5"
"250","81.25","81.25","631.4375","631.4375","black","no","xpyriment","legacy","legacy","0","202","NA","uniform","80597","1000","0.0124074097051","1","undefined","1","0","15","15","15","0","15","15","15","NA","15","15","0","15","NA","15","15","0","15","NA","15","NA","15","0","0","15","15","0","15","15","16","/","10/25/17 16:38:43","The main experiment item","yes","FIN__BA__M21__7%3A10%3A17.osexp","C:\Users\ERP Testing Room\Desktop\Joanna\morph21","no","mono","no","18","no","white","no","yes","1080","legacy","15","15","C:/Users/ERP Testing Room/Desktop/Joanna/morph21/subject-111.csv","xpyriment","Jazzy James","3.1.4","0","/","NA","NA","NA","NA","space","/","513","NA","NA","NA","NA","244990","513","2","legacy","1024","2","48000","-16","BA_m21","111","odd","CW_L","DREAMER","1698","303811","302228","299052","246701","NA","NA","NA","NA","303805","302725","NA","301728","NA","301723","303805","1710","304061","NA","NA","302811","1698","1698","303203","301723","1698","302811","304061","morph21_Oliver/Morris","13","10103","16","yes","1280","12"
"250","82.3529411765","82.3529411765","640.529411765","640.529411765","black","no","xpyriment","legacy","legacy","0","204","NA","uniform","70354","1000","0.0142138329022","1","undefined","1","0","16","16","16","0","16","16","16","NA","16","16","0","16","NA","16","16","0","16","NA","16","NA","16","0","0","16","16","0","16","16","17","z","10/25/17 16:38:43","The main experiment item","yes","FIN__BA__M21__7%3A10%3A17.osexp","C:\Users\ERP Testing Room\Desktop\Joanna\morph21","no","mono","no","18","no","white","no","yes","1080","legacy","16","16","C:/Users/ERP Testing Room/Desktop/Joanna/morph21/subject-111.csv","xpyriment","Jazzy James","3.1.4","0","z","NA","NA","NA","NA","space","z","786","NA","NA","NA","NA","244990","786","2","legacy","1024","2","48000","-16","BA_m21","111","odd","NW_L_COMP","STIRANGE","1698","306779","305195","299052","246701","NA","NA","NA","NA","306772","305693","NA","304695","NA","304689","306772","1710","307029","NA","NA","305779","1698","1698","306170","304689","1698","305779","307029","morph21_Oliver/Morris","14","10889","17","yes","1280","1"
"250","83.3333333333","83.3333333333","634.277777778","634.277777778","black","no","xpyriment","legacy","legacy","0","207","NA","uniform","74502","1000","0.0134224584575","1","undefined","1","0","17","17","17","0","17","17","17","NA","17","17","0","17","NA","17","17","0","17","NA","17","NA","17","0","0","17","17","0","17","17","18","/","10/25/17 16:38:43","The main experiment item","yes","FIN__BA__M21__7%3A10%3A17.osexp","C:\Users\ERP Testing Room\Desktop\Joanna\morph21","no","mono","no","18","no","white","no","yes","1080","legacy","17","17","C:/Users/ERP Testing Room/Desktop/Joanna/morph21/subject-111.csv","xpyriment","Jazzy James","3.1.4","0","/","NA","NA","NA","NA","space","/","528","NA","NA","NA","NA","244990","528","2","legacy","1024","2","48000","-16","BA_m21","111","odd","FILL_W","SLIM","1698","311337","308212","309829","246701","NA","NA","NA","NA","309820","308709","NA","307712","NA","307707","309820","1710","311588","NA","NA","308829","1698","1698","309221","307707","1698","308829","311588","morph21_Oliver/Morris","15","11417","18","yes","1280","6"
"400","84.2105263158","84.2105263158","628.315789474","628.315789474","black","no","xpyriment","legacy","legacy","0","201","NA","uniform","78387","1000","0.0127572173957","1","undefined","1","0","18","18","18","0","18","18","18","NA","18","18","0","18","NA","18","18","0","18","NA","18","NA","18","0","0","18","18","0","18","18","19","/","10/25/17 16:38:43","The main experiment item","yes","FIN__BA__M21__7%3A10%3A17.osexp","C:\Users\ERP Testing Room\Desktop\Joanna\morph21","no","mono","no","18","no","white","no","yes","1080","legacy","18","18","C:/Users/ERP Testing Room/Desktop/Joanna/morph21/subject-111.csv","xpyriment","Jazzy James","3.1.4","0","/","NA","NA","NA","NA","space","/","521","NA","NA","NA","NA","244990","521","2","legacy","1024","2","48000","-16","BA_m21","111","odd","CW_S","EFFORTLESS","1698","314371","312788","309829","246701","NA","NA","NA","NA","314365","313285","NA","312287","NA","312283","314365","1710","314771","NA","NA","313371","1698","1698","313762","312283","1698","313371","314771","morph21_Oliver/Morris","16","11938","19","yes","1280","30"
"200","85","85","621","621","black","no","xpyriment","legacy","legacy","0","207","NA","uniform","72452","1000","0.013802241484","1","undefined","1","0","19","19","19","0","19","19","19","NA","19","19","0","19","NA","19","19","0","19","NA","19","NA","19","0","0","19","19","0","19","19","20","/","10/25/17 16:38:43","The main experiment item","yes","FIN__BA__M21__7%3A10%3A17.osexp","C:\Users\ERP Testing Room\Desktop\Joanna\morph21","no","mono","no","18","no","white","no","yes","1080","legacy","19","19","C:/Users/ERP Testing Room/Desktop/Joanna/morph21/subject-111.csv","xpyriment","Jazzy James","3.1.4","0","/","NA","NA","NA","NA","space","/","482","NA","NA","NA","NA","244990","482","2","legacy","1024","2","48000","-16","BA_m21","111","odd","FILL_W","FLOAT","1698","317538","315921","309829","246701","NA","NA","NA","NA","317528","316418","NA","315421","NA","315409","317528","1710","317738","NA","NA","316538","1698","1698","316929","315409","1698","316538","317738","morph21_Oliver/Morris","17","12420","20","yes","1280","30"
"350","85.7142857143","85.7142857143","613.952380952","613.952380952","black","no","xpyriment","legacy","legacy","0","201","NA","uniform","74125","1000","0.0134907251265","1","undefined","1","0","20","20","20","0","20","20","20","NA","20","20","0","20","NA","20","20","0","20","NA","20","NA","20","0","0","20","20","0","20","20","21","/","10/25/17 16:38:43","The main experiment item","yes","FIN__BA__M21__7%3A10%3A17.osexp","C:\Users\ERP Testing Room\Desktop\Joanna\morph21","no","mono","no","18","no","white","no","yes","1080","legacy","20","20","C:/Users/ERP Testing Room/Desktop/Joanna/morph21/subject-111.csv","xpyriment","Jazzy James","3.1.4","0","/","NA","NA","NA","NA","space","/","473","NA","NA","NA","NA","244990","473","2","legacy","1024","2","48000","-16","BA_m21","111","odd","CW_S","SINGER","1698","322089","318996","320579","246701","NA","NA","NA","NA","320573","319493","NA","318496","NA","318490","320573","1710","322439","NA","NA","319579","1698","1698","319971","318490","1698","319579","322439","morph21_Oliver/Morris","18","12893","21","yes","1280","17"
"400","86.3636363636","86.3636363636","614.227272727","614.227272727","black","no","xpyriment","legacy","legacy","0","204","NA","uniform","64231","1000","0.0155688063396","1","undefined","1","0","21","21","21","0","21","21","21","NA","21","21","0","21","NA","21","21","0","21","NA","21","NA","21","0","0","21","21","0","21","21","22","z","10/25/17 16:38:43","The main experiment item","yes","FIN__BA__M21__7%3A10%3A17.osexp","C:\Users\ERP Testing Room\Desktop\Joanna\morph21","no","mono","no","18","no","white","no","yes","1080","legacy","21","21","C:/Users/ERP Testing Room/Desktop/Joanna/morph21/subject-111.csv","xpyriment","Jazzy James","3.1.4","0","z","NA","NA","NA","NA","space","z","620","NA","NA","NA","NA","244990","620","2","legacy","1024","2","48000","-16","BA_m21","111","odd","NW_L_COMP","FLITENGE","1698","325281","323697","320579","246701","NA","NA","NA","NA","325273","324194","NA","323197","NA","323189","325273","1710","325681","NA","NA","324281","1698","1698","324672","323188","1698","324281","325681","morph21_Oliver/Morris","19","13513","22","yes","1280","3"
"250","82.6086956522","82.6086956522","610.652173913","610.652173913","black","no","xpyriment","legacy","legacy","0","204","NA","uniform","79528","1000","0.0125741877075","0","undefined","0","0","22","22","22","0","22","22","22","NA","22","22","0","22","NA","22","22","0","22","NA","22","NA","22","0","0","22","22","0","22","22","23","z","10/25/17 16:38:43","The main experiment item","yes","FIN__BA__M21__7%3A10%3A17.osexp","C:\Users\ERP Testing Room\Desktop\Joanna\morph21","no","mono","no","18","no","white","no","yes","1080","legacy","22","22","C:/Users/ERP Testing Room/Desktop/Joanna/morph21/subject-111.csv","xpyriment","Jazzy James","3.1.4","0","/","NA","NA","NA","NA","space","/","532","NA","NA","NA","NA","244990","532","2","legacy","1024","2","48000","-16","BA_m21","111","odd","NW_L_COMP","BREAKIDY","1698","328489","326906","320579","246701","NA","NA","NA","NA","325273","327403","NA","326406","NA","326395","328483","1710","328739","NA","NA","327489","1698","1698","327881","326395","1698","327489","328739","morph21_Oliver/Morris","19","14045","23","yes","1280","23"
"250","83.3333333333","83.3333333333","616","616","black","no","xpyriment","legacy","legacy","0","204","NA","uniform","61553","1000","0.0162461618443","1","undefined","1","0","23","23","23","0","23","23","23","NA","23","23","0","23","NA","23","23","0","23","NA","23","NA","23","0","0","23","23","0","23","23","24","z","10/25/17 16:38:43","The main experiment item","yes","FIN__BA__M21__7%3A10%3A17.osexp","C:\Users\ERP Testing Room\Desktop\Joanna\morph21","no","mono","no","18","no","white","no","yes","1080","legacy","23","23","C:/Users/ERP Testing Room/Desktop/Joanna/morph21/subject-111.csv","xpyriment","Jazzy James","3.1.4","0","z","NA","NA","NA","NA","space","z","739","NA","NA","NA","NA","244990","739","2","legacy","1024","2","48000","-16","BA_m21","111","odd","NW_L_COMP","MUDLA","1698","332989","329881","331481","246701","NA","NA","NA","NA","331478","330378","NA","329381","NA","329372","331478","1710","333240","NA","NA","330481","1698","1698","330881","329372","1698","330481","333240","morph21_Oliver/Morris","20","14784","24","yes","1280","12"
"350","84","84","618.68","618.68","black","no","xpyriment","legacy","legacy","0","203","NA","uniform","59306","1000","0.0168617003339","1","undefined","1","0","24","24","24","0","24","24","24","NA","24","24","0","24","NA","24","24","0","24","NA","24","NA","24","0","0","24","24","0","24","24","25","z","10/25/17 16:38:43","The main experiment item","yes","FIN__BA__M21__7%3A10%3A17.osexp","C:\Users\ERP Testing Room\Desktop\Joanna\morph21","no","mono","no","18","no","white","no","yes","1080","legacy","24","24","C:/Users/ERP Testing Room/Desktop/Joanna/morph21/subject-111.csv","xpyriment","Jazzy James","3.1.4","0","z","NA","NA","NA","NA","space","z","683","NA","NA","NA","NA","244990","683","2","legacy","1024","2","48000","-16","BA_m21","111","odd","NW_S_COMP","PRINCEMANT","1698","336081","334456","331481","246701","NA","NA","NA","NA","336077","334953","NA","333956","NA","333945","336077","1710","336431","NA","NA","335081","1698","1698","335481","333945","1698","335081","336431","morph21_Oliver/Morris","21","15467","25","yes","1280","17"
"300","84.6153846154","84.6153846154","617.192307692","617.192307692","black","no","xpyriment","legacy","legacy","0","202","NA","uniform","74054","1000","0.0135036594917","1","undefined","1","0","25","25","25","0","25","25","25","NA","25","25","0","25","NA","25","25","0","25","NA","25","NA","25","0","0","25","25","0","25","25","26","/","10/25/17 16:38:43","The main experiment item","yes","FIN__BA__M21__7%3A10%3A17.osexp","C:\Users\ERP Testing Room\Desktop\Joanna\morph21","no","mono","no","18","no","white","no","yes","1080","legacy","25","25","C:/Users/ERP Testing Room/Desktop/Joanna/morph21/subject-111.csv","xpyriment","Jazzy James","3.1.4","0","/","NA","NA","NA","NA","space","/","580","NA","NA","NA","NA","244990","580","2","legacy","1024","2","48000","-16","BA_m21","111","odd","CW_L","COMPOSER","1698","339241","337656","331481","246701","NA","NA","NA","NA","339232","338153","NA","337156","NA","337149","339232","1710","339541","NA","NA","338240","1698","1698","338631","337149","1698","338240","339541","morph21_Oliver/Morris","22","16047","26","yes","1280","6"
"300","85.1851851852","85.1851851852","616.481481481","616.481481481","black","no","xpyriment","legacy","legacy","0","206","NA","uniform","76388","1000","0.0130910614233","1","undefined","1","0","26","26","26","0","26","26","26","NA","26","26","0","26","NA","26","26","0","26","NA","26","NA","26","0","0","26","26","0","26","26","27","z","10/25/17 16:38:43","The main experiment item","yes","FIN__BA__M21__7%3A10%3A17.osexp","C:\Users\ERP Testing Room\Desktop\Joanna\morph21","no","mono","no","18","no","white","no","yes","1080","legacy","26","26","C:/Users/ERP Testing Room/Desktop/Joanna/morph21/subject-111.csv","xpyriment","Jazzy James","3.1.4","0","z","NA","NA","NA","NA","space","z","598","NA","NA","NA","NA","244990","598","2","legacy","1024","2","48000","-16","BA_m21","111","odd","NW_L_SIMP","BEANISH","1698","343916","340816","342407","246701","NA","NA","NA","NA","342399","341313","NA","340316","NA","340306","342399","1710","344216","NA","NA","341407","1698","1698","341799","340306","1698","341407","344216","morph21_Oliver/Morris","23","16645","27","yes","1280","8"
"350","85.7142857143","85.7142857143","610.464285714","610.464285714","black","no","xpyriment","legacy","legacy","0","202","NA","uniform","67381","1000","0.014840978911","1","undefined","1","0","27","27","27","0","27","27","27","NA","27","27","0","27","NA","27","27","0","27","NA","27","NA","27","0","0","27","27","0","27","27","28","/","10/25/17 16:38:43","The main experiment item","yes","FIN__BA__M21__7%3A10%3A17.osexp","C:\Users\ERP Testing Room\Desktop\Joanna\morph21","no","mono","no","18","no","white","no","yes","1080","legacy","27","27","C:/Users/ERP Testing Room/Desktop/Joanna/morph21/subject-111.csv","xpyriment","Jazzy James","3.1.4","0","/","NA","NA","NA","NA","space","/","448","NA","NA","NA","NA","244990","448","2","legacy","1024","2","48000","-16","BA_m21","111","odd","CW_L","PAINTER","1698","347149","345524","342407","246701","NA","NA","NA","NA","347144","346021","NA","345024","NA","345016","347144","1710","347499","NA","NA","346149","1698","1698","346549","345016","1698","346149","347499","morph21_Oliver/Morris","24","17093","28","yes","1280","18"
"300","86.2068965517","86.2068965517","610.034482759","610.034482759","black","no","xpyriment","legacy","legacy","0","206","NA","uniform","76845","1000","0.0130132084065","1","undefined","1","0","28","28","28","0","28","28","28","NA","28","28","0","28","NA","28","28","0","28","NA","28","NA","28","0","0","28","28","0","28","28","29","z","10/25/17 16:38:43","The main experiment item","yes","FIN__BA__M21__7%3A10%3A17.osexp","C:\Users\ERP Testing Room\Desktop\Joanna\morph21","no","mono","no","18","no","white","no","yes","1080","legacy","28","28","C:/Users/ERP Testing Room/Desktop/Joanna/morph21/subject-111.csv","xpyriment","Jazzy James","3.1.4","0","z","NA","NA","NA","NA","space","z","598","NA","NA","NA","NA","244990","598","2","legacy","1024","2","48000","-16","BA_m21","111","odd","NW_L_SIMP","BEGENCE","1698","350366","348783","342407","246701","NA","NA","NA","NA","350357","349280","NA","348283","NA","348279","350357","1710","350666","NA","NA","349366","1698","1698","349758","348279","1698","349366","350666","morph21_Oliver/Morris","25","17691","29","yes","1280","4"
"200","83.3333333333","83.3333333333","610.766666667","610.766666667","black","no","xpyriment","legacy","legacy","0","207","NA","uniform","71316","1000","0.0140220988278","0","undefined","0","0","29","29","29","0","29","29","29","NA","29","29","0","29","NA","29","29","0","29","NA","29","NA","29","0","0","29","29","0","29","29","30","/","10/25/17 16:38:43","The main experiment item","yes","FIN__BA__M21__7%3A10%3A17.osexp","C:\Users\ERP Testing Room\Desktop\Joanna\morph21","no","mono","no","18","no","white","no","yes","1080","legacy","29","29","C:/Users/ERP Testing Room/Desktop/Joanna/morph21/subject-111.csv","xpyriment","Jazzy James","3.1.4","0","z","NA","NA","NA","NA","space","z","632","NA","NA","NA","NA","244990","632","2","legacy","1024","2","48000","-16","BA_m21","111","odd","FILL_W","BRASS","1698","355025","351933","353516","246701","NA","NA","NA","NA","350357","352430","NA","351433","NA","351423","353510","1710","355225","NA","NA","352516","1698","1698","352908","351423","1698","352516","355225","morph21_Oliver/Morris","25","18323","30","yes","1280","10"
"350","83.8709677419","83.8709677419","613.161290323","613.161290323","black","no","xpyriment","legacy","legacy","0","208","NA","uniform","74035","1000","0.0135071250084","1","undefined","1","0","30","30","30","0","30","30","30","NA","30","30","0","30","NA","30","30","0","30","NA","30","NA","30","0","0","30","30","0","30","30","31","z","10/25/17 16:38:43","The main experiment item","yes","FIN__BA__M21__7%3A10%3A17.osexp","C:\Users\ERP Testing Room\Desktop\Joanna\morph21","no","mono","no","18","no","white","no","yes","1080","legacy","30","30","C:/Users/ERP Testing Room/Desktop/Joanna/morph21/subject-111.csv","xpyriment","Jazzy James","3.1.4","0","z","NA","NA","NA","NA","space","z","685","NA","NA","NA","NA","244990","685","2","legacy","1024","2","48000","-16","BA_m21","111","odd","FILL_NW","JADS","1698","357984","356400","353516","246701","NA","NA","NA","NA","357975","356897","NA","355900","NA","355890","357975","1710","358334","NA","NA","356984","1698","1698","357376","355890","1698","356984","358334","morph21_Oliver/Morris","26","19008","31","yes","1280","31"
"400","81.25","81.25","612.375","612.375","black","no","xpyriment","legacy","legacy","0","204","NA","uniform","77105","1000","0.0129693275404","0","undefined","0","0","31","31","31","0","31","31","31","NA","31","31","0","31","NA","31","31","0","31","NA","31","NA","31","0","0","31","31","0","31","31","32","z","10/25/17 16:38:43","The main experiment item","yes","FIN__BA__M21__7%3A10%3A17.osexp","C:\Users\ERP Testing Room\Desktop\Joanna\morph21","no","mono","no","18","no","white","no","yes","1080","legacy","31","31","C:/Users/ERP Testing Room/Desktop/Joanna/morph21/subject-111.csv","xpyriment","Jazzy James","3.1.4","0","/","NA","NA","NA","NA","space","/","588","NA","NA","NA","NA","244990","588","2","legacy","1024","2","48000","-16","BA_m21","111","odd","NW_L_COMP","BOIL","1698","361193","359609","353516","246701","NA","NA","NA","NA","357975","360106","NA","359109","NA","359104","361183","1710","361593","NA","NA","360193","1698","1698","360584","359104","1698","360193","361593","morph21_Oliver/Morris","26","19596","32","yes","1280","18"
"350","81.8181818182","81.8181818182","612.454545455","612.454545455","black","no","xpyriment","legacy","legacy","0","204","NA","uniform","70280","1000","0.0142287990894","1","undefined","1","0","32","32","32","0","32","32","32","NA","32","32","0","32","NA","32","32","0","32","NA","32","NA","32","0","0","32","32","0","32","32","33","z","10/25/17 16:38:43","The main experiment item","yes","FIN__BA__M21__7%3A10%3A17.osexp","C:\Users\ERP Testing Room\Desktop\Joanna\morph21","no","mono","no","18","no","white","no","yes","1080","legacy","32","32","C:/Users/ERP Testing Room/Desktop/Joanna/morph21/subject-111.csv","xpyriment","Jazzy James","3.1.4","0","z","NA","NA","NA","NA","space","z","615","NA","NA","NA","NA","244990","615","2","legacy","1024","2","48000","-16","BA_m21","111","odd","NW_L_COMP","AGREELA","1698","365826","362734","364318","246701","NA","NA","NA","NA","364310","363232","NA","362234","NA","362224","364310","1710","366176","NA","NA","363318","1698","1698","363709","362224","1698","363318","366176","morph21_Oliver/Morris","27","20211","33","yes","1280","24"
"250","82.3529411765","82.3529411765","610.558823529","610.558823529","black","no","xpyriment","legacy","legacy","0","207","NA","uniform","71584","1000","0.0139696021457","1","undefined","1","0","33","33","33","0","33","33","33","NA","33","33","0","33","NA","33","33","0","33","NA","33","NA","33","0","0","33","33","0","33","33","34","/","10/25/17 16:38:43","The main experiment item","yes","FIN__BA__M21__7%3A10%3A17.osexp","C:\Users\ERP Testing Room\Desktop\Joanna\morph21","no","mono","no","18","no","white","no","yes","1080","legacy","33","33","C:/Users/ERP Testing Room/Desktop/Joanna/morph21/subject-111.csv","xpyriment","Jazzy James","3.1.4","0","/","NA","NA","NA","NA","space","/","548","NA","NA","NA","NA","244990","548","2","legacy","1024","2","48000","-16","BA_m21","111","odd","FILL_W","PREACH","1698","368976","367376","364318","246701","NA","NA","NA","NA","368971","367873","NA","366876","NA","366869","368971","1710","369226","NA","NA","367976","1698","1698","368376","366869","1698","367976","369226","morph21_Oliver/Morris","28","20759","34","yes","1280","7"
"200","82.8571428571","82.8571428571","613.514285714","613.514285714","black","no","xpyriment","legacy","legacy","0","208","NA","uniform","68580","1000","0.0145815106445","1","undefined","1","0","34","34","34","0","34","34","34","NA","34","34","0","34","NA","34","34","0","34","NA","34","NA","34","0","0","34","34","0","34","34","35","z","10/25/17 16:38:43","The main experiment item","yes","FIN__BA__M21__7%3A10%3A17.osexp","C:\Users\ERP Testing Room\Desktop\Joanna\morph21","no","mono","no","18","no","white","no","yes","1080","legacy","34","34","C:/Users/ERP Testing Room/Desktop/Joanna/morph21/subject-111.csv","xpyriment","Jazzy James","3.1.4","0","z","NA","NA","NA","NA","space","z","714","NA","NA","NA","NA","244990","714","2","legacy","1024","2","48000","-16","BA_m21","111","odd","FILL_NW","BLAYS","1698","372018","370418","364318","246701","NA","NA","NA","NA","372011","370915","NA","369918","NA","369914","372011","1710","372218","NA","NA","371018","1698","1698","371410","369914","1698","371018","372218","morph21_Oliver/Morris","29","21473","35","yes","1280","8"
"300","83.3333333333","83.3333333333","614.611111111","614.611111111","black","no","xpyriment","legacy","legacy","0","204","NA","uniform","74536","1000","0.0134163357304","1","undefined","1","0","35","35","35","0","35","35","35","NA","35","35","0","35","NA","35","35","0","35","NA","35","NA","35","0","0","35","35","0","35","35","36","z","10/25/17 16:38:43","The main experiment item","yes","FIN__BA__M21__7%3A10%3A17.osexp","C:\Users\ERP Testing Room\Desktop\Joanna\morph21","no","mono","no","18","no","white","no","yes","1080","legacy","35","35","C:/Users/ERP Testing Room/Desktop/Joanna/morph21/subject-111.csv","xpyriment","Jazzy James","3.1.4","0","z","NA","NA","NA","NA","space","z","653","NA","NA","NA","NA","244990","653","2","legacy","1024","2","48000","-16","BA_m21","111","odd","NW_L_COMP","IME","1698","376461","373368","374953","246701","NA","NA","NA","NA","374949","373865","NA","372868","NA","372859","374949","1710","376761","NA","NA","373960","1698","1698","374353","372859","1698","373960","376761","morph21_Oliver/Morris","30","22126","36","yes","1280","20"
"250","83.7837837838","83.7837837838","620.864864865","620.864864865","black","no","xpyriment","legacy","legacy","0","201","NA","uniform","66614","1000","0.0150118593689","1","undefined","1","0","36","36","36","0","36","36","36","NA","36","36","0","36","NA","36","36","0","36","NA","36","NA","36","0","0","36","36","0","36","36","37","/","10/25/17 16:38:43","The main experiment item","yes","FIN__BA__M21__7%3A10%3A17.osexp","C:\Users\ERP Testing Room\Desktop\Joanna\morph21","no","mono","no","18","no","white","no","yes","1080","legacy","36","36","C:/Users/ERP Testing Room/Desktop/Joanna/morph21/subject-111.csv","xpyriment","Jazzy James","3.1.4","0","/","NA","NA","NA","NA","space","/","846","NA","NA","NA","NA","244990","846","2","legacy","1024","2","48000","-16","BA_m21","111","odd","CW_S","PEAKING","1698","379519","377928","374953","246701","NA","NA","NA","NA","379510","378425","NA","377428","NA","377420","379510","1710","379770","NA","NA","378519","1698","1698","378911","377420","1698","378519","379770","morph21_Oliver/Morris","31","22972","37","yes","1280","28"
"250","84.2105263158","84.2105263158","619.973684211","619.973684211","black","no","xpyriment","legacy","legacy","0","201","NA","uniform","75874","1000","0.0131797453673","1","undefined","1","0","37","37","37","0","37","37","37","NA","37","37","0","37","NA","37","37","0","37","NA","37","NA","37","0","0","37","37","0","37","37","38","/","10/25/17 16:38:43","The main experiment item","yes","FIN__BA__M21__7%3A10%3A17.osexp","C:\Users\ERP Testing Room\Desktop\Joanna\morph21","no","mono","no","18","no","white","no","yes","1080","legacy","37","37","C:/Users/ERP Testing Room/Desktop/Joanna/morph21/subject-111.csv","xpyriment","Jazzy James","3.1.4","0","/","NA","NA","NA","NA","space","/","587","NA","NA","NA","NA","244990","587","2","legacy","1024","2","48000","-16","BA_m21","111","odd","CW_S","MILDNESS","1698","382578","380986","374953","246701","NA","NA","NA","NA","382569","381483","NA","380486","NA","380481","382569","1710","382828","NA","NA","381578","1698","1698","381970","380481","1698","381578","382828","morph21_Oliver/Morris","32","23559","38","yes","1280","42"
"200","82.0512820513","82.0512820513","620.435897436","620.435897436","black","no","xpyriment","legacy","legacy","0","201","NA","uniform","68402","1000","0.0146194555715","0","undefined","0","0","38","38","38","0","38","38","38","NA","38","38","0","38","NA","38","38","0","38","NA","38","NA","38","0","0","38","38","0","38","38","39","/","10/25/17 16:38:43","The main experiment item","yes","FIN__BA__M21__7%3A10%3A17.osexp","C:\Users\ERP Testing Room\Desktop\Joanna\morph21","no","mono","no","18","no","white","no","yes","1080","legacy","38","38","C:/Users/ERP Testing Room/Desktop/Joanna/morph21/subject-111.csv","xpyriment","Jazzy James","3.1.4","0","z","NA","NA","NA","NA","space","z","638","NA","NA","NA","NA","244990","638","2","legacy","1024","2","48000","-16","BA_m21","111","odd","CW_S","THRUSTER","1698","387186","384070","385678","246701","NA","NA","NA","NA","382569","384567","NA","383570","NA","383560","385673","1710","387387","NA","NA","384678","1698","1698","385078","383560","1698","384678","387387","morph21_Oliver/Morris","32","24197","39","yes","1280","24"
"200","82.5","82.5","617.975","617.975","black","no","xpyriment","legacy","legacy","0","207","NA","uniform","79852","1000","0.0125231678605","1","undefined","1","0","39","39","39","0","39","39","39","NA","39","39","0","39","NA","39","39","0","39","NA","39","NA","39","0","0","39","39","0","39","39","40","/","10/25/17 16:38:43","The main experiment item","yes","FIN__BA__M21__7%3A10%3A17.osexp","C:\Users\ERP Testing Room\Desktop\Joanna\morph21","no","mono","no","18","no","white","no","yes","1080","legacy","39","39","C:/Users/ERP Testing Room/Desktop/Joanna/morph21/subject-111.csv","xpyriment","Jazzy James","3.1.4","0","/","NA","NA","NA","NA","space","/","522","NA","NA","NA","NA","244990","522","2","legacy","1024","2","48000","-16","BA_m21","111","odd","FILL_W","STALK","1698","390162","388570","385678","246701","NA","NA","NA","NA","390156","389067","NA","388070","NA","388065","390156","1710","390362","NA","NA","389162","1698","1698","389553","388065","1698","389162","390362","morph21_Oliver/Morris","33","24719","40","yes","1280","27"
"350","82.9268292683","82.9268292683","619.951219512","619.951219512","black","no","xpyriment","legacy","legacy","0","204","NA","uniform","69689","1000","0.0143494669173","1","undefined","1","0","40","40","40","0","40","40","40","NA","40","40","0","40","NA","40","40","0","40","NA","40","NA","40","0","0","40","40","0","40","40","41","z","10/25/17 16:38:43","The main experiment item","yes","FIN__BA__M21__7%3A10%3A17.osexp","C:\Users\ERP Testing Room\Desktop\Joanna\morph21","no","mono","no","18","no","white","no","yes","1080","legacy","40","40","C:/Users/ERP Testing Room/Desktop/Joanna/morph21/subject-111.csv","xpyriment","Jazzy James","3.1.4","0","z","NA","NA","NA","NA","space","z","699","NA","NA","NA","NA","244990","699","2","legacy","1024","2","48000","-16","BA_m21","111","odd","NW_L_COMP","MOUTHIME","1698","393138","391553","385678","246701","NA","NA","NA","NA","393132","392050","NA","391053","NA","391044","393132","1710","393488","NA","NA","392138","1698","1698","392529","391044","1698","392138","393488","morph21_Oliver/Morris","34","25418","41","yes","1280","11"
"350","83.3333333333","83.3333333333","620.952380952","620.952380952","black","no","xpyriment","legacy","legacy","0","207","NA","uniform","71005","1000","0.0140835152454","1","undefined","1","0","41","41","41","0","41","41","41","NA","41","41","0","41","NA","41","41","0","41","NA","41","NA","41","0","0","41","41","0","41","41","42","/","10/25/17 16:38:43","The main experiment item","yes","FIN__BA__M21__7%3A10%3A17.osexp","C:\Users\ERP Testing Room\Desktop\Joanna\morph21","no","mono","no","18","no","white","no","yes","1080","legacy","41","41","C:/Users/ERP Testing Room/Desktop/Joanna/morph21/subject-111.csv","xpyriment","Jazzy James","3.1.4","0","/","NA","NA","NA","NA","space","/","662","NA","NA","NA","NA","244990","662","2","legacy","1024","2","48000","-16","BA_m21","111","odd","FILL_W","FOLLOW","1698","397771","394679","396263","246701","NA","NA","NA","NA","396254","395177","NA","394180","NA","394170","396254","1710","398121","NA","NA","395263","1698","1698","395655","394170","1698","395263","398121","morph21_Oliver/Morris","35","26080","42","yes","1280","17"
"350","83.7209302326","83.7209302326","618.558139535","618.558139535","black","no","xpyriment","legacy","legacy","0","201","NA","uniform","74026","1000","0.0135087671899","1","undefined","1","0","42","42","42","0","42","42","42","NA","42","42","0","42","NA","42","42","0","42","NA","42","NA","42","0","0","42","42","0","42","42","43","/","10/25/17 16:38:43","The main experiment item","yes","FIN__BA__M21__7%3A10%3A17.osexp","C:\Users\ERP Testing Room\Desktop\Joanna\morph21","no","mono","no","18","no","white","no","yes","1080","legacy","42","42","C:/Users/ERP Testing Room/Desktop/Joanna/morph21/subject-111.csv","xpyriment","Jazzy James","3.1.4","0","/","NA","NA","NA","NA","space","/","518","NA","NA","NA","NA","244990","518","2","legacy","1024","2","48000","-16","BA_m21","111","odd","CW_S","CHILLY","1698","401063","399480","396263","246701","NA","NA","NA","NA","401054","399977","NA","398980","NA","398973","401054","1710","401413","NA","NA","400063","1698","1698","400455","398973","1698","400063","401413","morph21_Oliver/Morris","36","26598","43","yes","1280","48"
"200","84.0909090909","84.0909090909","619.75","619.75","black","no","xpyriment","legacy","legacy","0","203","NA","uniform","71171","1000","0.0140506667041","1","undefined","1","0","43","43","43","0","43","43","43","NA","43","43","0","43","NA","43","43","0","43","NA","43","NA","43","0","0","43","43","0","43","43","44","z","10/25/17 16:38:43","The main experiment item","yes","FIN__BA__M21__7%3A10%3A17.osexp","C:\Users\ERP Testing Room\Desktop\Joanna\morph21","no","mono","no","18","no","white","no","yes","1080","legacy","43","43","C:/Users/ERP Testing Room/Desktop/Joanna/morph21/subject-111.csv","xpyriment","Jazzy James","3.1.4","0","z","NA","NA","NA","NA","space","z","671","NA","NA","NA","NA","244990","671","2","legacy","1024","2","48000","-16","BA_m21","111","odd","NW_S_COMP","ELMILT","1698","404197","402588","396263","246701","NA","NA","NA","NA","404190","403085","NA","402088","NA","402083","404190","1710","404397","NA","NA","403197","1698","1698","403588","402083","1698","403197","404397","morph21_Oliver/Morris","37","27269","44","yes","1280","10"
"350","84.4444444444","84.4444444444","620.6","620.6","black","no","xpyriment","legacy","legacy","0","208","NA","uniform","74358","1000","0.0134484520832","1","undefined","1","0","44","44","44","0","44","44","44","NA","44","44","0","44","NA","44","44","0","44","NA","44","NA","44","0","0","44","44","0","44","44","45","z","10/25/17 16:38:43","The main experiment item","yes","FIN__BA__M21__7%3A10%3A17.osexp","C:\Users\ERP Testing Room\Desktop\Joanna\morph21","no","mono","no","18","no","white","no","yes","1080","legacy","44","44","C:/Users/ERP Testing Room/Desktop/Joanna/morph21/subject-111.csv","xpyriment","Jazzy James","3.1.4","0","z","NA","NA","NA","NA","space","z","658","NA","NA","NA","NA","244990","658","2","legacy","1024","2","48000","-16","BA_m21","111","odd","FILL_NW","BLANTH","1698","408630","405538","407122","246701","NA","NA","NA","NA","407112","406035","NA","405038","NA","405032","407112","1710","408980","NA","NA","406122","1698","1698","406513","405032","1698","406122","408980","morph21_Oliver/Morris","38","27927","45","yes","1280","3"
"200","84.7826086957","84.7826086957","624.782608696","624.782608696","black","no","xpyriment","legacy","legacy","0","203","NA","uniform","65857","1000","0.0151844147167","1","undefined","1","0","45","45","45","0","45","45","45","NA","45","45","0","45","NA","45","45","0","45","NA","45","NA","45","0","0","45","45","0","45","45","46","z","10/25/17 16:38:43","The main experiment item","yes","FIN__BA__M21__7%3A10%3A17.osexp","C:\Users\ERP Testing Room\Desktop\Joanna\morph21","no","mono","no","18","no","white","no","yes","1080","legacy","45","45","C:/Users/ERP Testing Room/Desktop/Joanna/morph21/subject-111.csv","xpyriment","Jazzy James","3.1.4","0","z","NA","NA","NA","NA","space","z","813","NA","NA","NA","NA","244990","813","2","legacy","1024","2","48000","-16","BA_m21","111","odd","NW_S_COMP","ADOPTISH","1698","411856","410265","407122","246701","NA","NA","NA","NA","411850","410762","NA","409765","NA","409756","411850","1710","412056","NA","NA","410856","1698","1698","411248","409756","1698","410856","412056","morph21_Oliver/Morris","39","28740","46","yes","1280","19"
"400","85.1063829787","85.1063829787","623.382978723","623.382978723","black","no","xpyriment","legacy","legacy","0","202","NA","uniform","64757","1000","0.0154423460012","1","undefined","1","0","46","46","46","0","46","46","46","NA","46","46","0","46","NA","46","46","0","46","NA","46","NA","46","0","0","46","46","0","46","46","47","/","10/25/17 16:38:43","The main experiment item","yes","FIN__BA__M21__7%3A10%3A17.osexp","C:\Users\ERP Testing Room\Desktop\Joanna\morph21","no","mono","no","18","no","white","no","yes","1080","legacy","46","46","C:/Users/ERP Testing Room/Desktop/Joanna/morph21/subject-111.csv","xpyriment","Jazzy James","3.1.4","0","/","NA","NA","NA","NA","space","/","559","NA","NA","NA","NA","244990","559","2","legacy","1024","2","48000","-16","BA_m21","111","odd","CW_L","COOLING","1698","414806","413223","407122","246701","NA","NA","NA","NA","414797","413720","NA","412723","NA","412717","414797","1710","415206","NA","NA","413806","1698","1698","414198","412717","1698","413806","415206","morph21_Oliver/Morris","40","29299","47","yes","1280","24"
"200","85.4166666667","85.4166666667","621.979166667","621.979166667","black","no","xpyriment","legacy","legacy","0","201","NA","uniform","73550","1000","0.0135961930659","1","undefined","1","0","47","47","47","0","47","47","47","NA","47","47","0","47","NA","47","47","0","47","NA","47","NA","47","0","0","47","47","0","47","47","48","/","10/25/17 16:38:43","The main experiment item","yes","FIN__BA__M21__7%3A10%3A17.osexp","C:\Users\ERP Testing Room\Desktop\Joanna\morph21","no","mono","no","18","no","white","no","yes","1080","legacy","47","47","C:/Users/ERP Testing Room/Desktop/Joanna/morph21/subject-111.csv","xpyriment","Jazzy James","3.1.4","0","/","NA","NA","NA","NA","space","/","556","NA","NA","NA","NA","244990","556","2","legacy","1024","2","48000","-16","BA_m21","111","odd","CW_S","AMUSEMENT","1698","419590","416456","418082","246701","NA","NA","NA","NA","418074","416954","NA","415956","NA","415953","418074","1710","419790","NA","NA","417081","1698","1698","417473","415953","1698","417081","419790","morph21_Oliver/Morris","41","29855","48","yes","1280","38"
"250","85.7142857143","85.7142857143","622.224489796","622.224489796","black","no","xpyriment","legacy","legacy","0","203","NA","uniform","70752","1000","0.0141338760742","1","undefined","1","0","48","48","48","0","48","48","48","NA","48","48","0","48","NA","48","48","0","48","NA","48","NA","48","0","0","48","48","0","48","48","49","z","10/25/17 16:38:43","The main experiment item","yes","FIN__BA__M21__7%3A10%3A17.osexp","C:\Users\ERP Testing Room\Desktop\Joanna\morph21","no","mono","no","18","no","white","no","yes","1080","legacy","48","48","C:/Users/ERP Testing Room/Desktop/Joanna/morph21/subject-111.csv","xpyriment","Jazzy James","3.1.4","0","z","NA","NA","NA","NA","space","z","634","NA","NA","NA","NA","244990","634","2","legacy","1024","2","48000","-16","BA_m21","111","odd","NW_S_COMP","BEEREL","1698","422682","421090","418082","246701","NA","NA","NA","NA","422679","421587","NA","420590","NA","420578","422679","1710","422932","NA","NA","421690","1698","1698","422082","420578","1698","421690","422932","morph21_Oliver/Morris","42","30489","49","yes","1280","5"
"200","86","86","628.38","628.38","black","no","xpyriment","legacy","legacy","0","203","NA","uniform","59265","1000","0.0168733653927","1","undefined","1","0","49","49","49","0","49","49","49","NA","49","49","0","49","NA","49","49","0","49","NA","49","NA","49","0","0","49","49","0","49","49","50","z","10/25/17 16:38:43","The main experiment item","yes","FIN__BA__M21__7%3A10%3A17.osexp","C:\Users\ERP Testing Room\Desktop\Joanna\morph21","no","mono","no","18","no","white","no","yes","1080","legacy","49","49","C:/Users/ERP Testing Room/Desktop/Joanna/morph21/subject-111.csv","xpyriment","Jazzy James","3.1.4","0","z","NA","NA","NA","NA","space","z","930","NA","NA","NA","NA","244990","930","2","legacy","1024","2","48000","-16","BA_m21","111","odd","NW_S_COMP","FANFIL","1698","425690","424074","418082","246701","NA","NA","NA","NA","425685","424571","NA","423573","NA","423563","425685","1710","425890","NA","NA","424690","1698","1698","425090","423563","1698","424690","425890","morph21_Oliver/Morris","43","31419","50","yes","1280","6"
"400","86.2745098039","86.2745098039","631.803921569","631.803921569","black","no","xpyriment","legacy","legacy","0","208","NA","uniform","65135","1000","0.0153527289476","1","undefined","1","0","50","50","50","0","50","50","50","NA","50","50","0","50","NA","50","50","0","50","NA","50","NA","50","0","0","50","50","0","50","50","51","z","10/25/17 16:38:43","The main experiment item","yes","FIN__BA__M21__7%3A10%3A17.osexp","C:\Users\ERP Testing Room\Desktop\Joanna\morph21","no","mono","no","18","no","white","no","yes","1080","legacy","50","50","C:/Users/ERP Testing Room/Desktop/Joanna/morph21/subject-111.csv","xpyriment","Jazzy James","3.1.4","0","z","NA","NA","NA","NA","space","z","803","NA","NA","NA","NA","244990","803","2","legacy","1024","2","48000","-16","BA_m21","111","odd","FILL_NW","GIKE","1698","430158","427050","428650","246701","NA","NA","NA","NA","428643","427547","NA","426549","NA","426543","428643","1710","430558","NA","NA","427650","1698","1698","428041","426543","1698","427650","430558","morph21_Oliver/Morris","44","32222","51","yes","1280","24"
"250","86.5384615385","86.5384615385","631.903846154","631.903846154","black","no","xpyriment","legacy","legacy","0","201","NA","uniform","74086","1000","0.0134978268499","1","undefined","1","0","51","51","51","0","51","51","51","NA","51","51","0","51","NA","51","51","0","51","NA","51","NA","51","0","0","51","51","0","51","51","52","/","10/25/17 16:38:43","The main experiment item","yes","FIN__BA__M21__7%3A10%3A17.osexp","C:\Users\ERP Testing Room\Desktop\Joanna\morph21","no","mono","no","18","no","white","no","yes","1080","legacy","51","51","C:/Users/ERP Testing Room/Desktop/Joanna/morph21/subject-111.csv","xpyriment","Jazzy James","3.1.4","0","/","NA","NA","NA","NA","space","/","637","NA","NA","NA","NA","244990","637","2","legacy","1024","2","48000","-16","BA_m21","111","odd","CW_S","COSTLY","1698","433400","431825","428650","246701","NA","NA","NA","NA","433396","432322","NA","431325","NA","431317","433396","1710","433650","NA","NA","432400","1698","1698","432800","431317","1698","432400","433650","morph21_Oliver/Morris","45","32859","52","yes","1280","36"
"400","86.7924528302","86.7924528302","632.660377358","632.660377358","black","no","xpyriment","legacy","legacy","0","202","NA","uniform","73310","1000","0.0136407038603","1","undefined","1","0","52","52","52","0","52","52","52","NA","52","52","0","52","NA","52","52","0","52","NA","52","NA","52","0","0","52","52","0","52","52","53","/","10/25/17 16:38:43","The main experiment item","yes","FIN__BA__M21__7%3A10%3A17.osexp","C:\Users\ERP Testing Room\Desktop\Joanna\morph21","no","mono","no","18","no","white","no","yes","1080","legacy","52","52","C:/Users/ERP Testing Room/Desktop/Joanna/morph21/subject-111.csv","xpyriment","Jazzy James","3.1.4","0","/","NA","NA","NA","NA","space","/","672","NA","NA","NA","NA","244990","672","2","legacy","1024","2","48000","-16","BA_m21","111","odd","CW_L","STYLISH","1698","436483","434900","428650","246701","NA","NA","NA","NA","436480","435397","NA","434400","NA","434396","436480","1710","436883","NA","NA","435492","1698","1698","435883","434396","1698","435492","436883","morph21_Oliver/Morris","46","33531","53","yes","1280","29"
"250","87.037037037","87.037037037","630.777777778","630.777777778","black","no","xpyriment","legacy","legacy","0","207","NA","uniform","70939","1000","0.0140966182213","1","undefined","1","0","53","53","53","0","53","53","53","NA","53","53","0","53","NA","53","53","0","53","NA","53","NA","53","0","0","53","53","0","53","53","54","/","10/25/17 16:38:43","The main experiment item","yes","FIN__BA__M21__7%3A10%3A17.osexp","C:\Users\ERP Testing Room\Desktop\Joanna\morph21","no","mono","no","18","no","white","no","yes","1080","legacy","53","53","C:/Users/ERP Testing Room/Desktop/Joanna/morph21/subject-111.csv","xpyriment","Jazzy James","3.1.4","0","/","NA","NA","NA","NA","space","/","531","NA","NA","NA","NA","244990","531","2","legacy","1024","2","48000","-16","BA_m21","111","odd","FILL_W","TASTE","1698","441117","438025","439609","246701","NA","NA","NA","NA","439602","438522","NA","437525","NA","437517","439602","1710","441367","NA","NA","438609","1698","1698","439000","437517","1698","438608","441367","morph21_Oliver/Morris","47","34062","54","yes","1280","34"
"300","87.2727272727","87.2727272727","631.4","631.4","black","no","xpyriment","legacy","legacy","0","207","NA","uniform","67176","1000","0.0148862689056","1","undefined","1","0","54","54","54","0","54","54","54","NA","54","54","0","54","NA","54","54","0","54","NA","54","NA","54","0","0","54","54","0","54","54","55","/","10/25/17 16:38:43","The main experiment item","yes","FIN__BA__M21__7%3A10%3A17.osexp","C:\Users\ERP Testing Room\Desktop\Joanna\morph21","no","mono","no","18","no","white","no","yes","1080","legacy","54","54","C:/Users/ERP Testing Room/Desktop/Joanna/morph21/subject-111.csv","xpyriment","Jazzy James","3.1.4","0","/","NA","NA","NA","NA","space","/","665","NA","NA","NA","NA","244990","665","2","legacy","1024","2","48000","-16","BA_m21","111","odd","FILL_W","SICK","1698","444260","442659","439609","246701","NA","NA","NA","NA","444250","443156","NA","442159","NA","442153","444250","1710","444560","NA","NA","443259","1698","1698","443650","442153","1698","443259","444560","morph21_Oliver/Morris","48","34727","55","yes","1280","36"
"200","87.5","87.5","632.160714286","632.160714286","black","no","xpyriment","legacy","legacy","0","203","NA","uniform","67837","1000","0.0147412179194","1","undefined","1","0","55","55","55","0","55","55","55","NA","55","55","0","55","NA","55","55","0","55","NA","55","NA","55","0","0","55","55","0","55","55","56","z","10/25/17 16:38:43","The main experiment item","yes","FIN__BA__M21__7%3A10%3A17.osexp","C:\Users\ERP Testing Room\Desktop\Joanna\morph21","no","mono","no","18","no","white","no","yes","1080","legacy","55","55","C:/Users/ERP Testing Room/Desktop/Joanna/morph21/subject-111.csv","xpyriment","Jazzy James","3.1.4","0","z","NA","NA","NA","NA","space","z","674","NA","NA","NA","NA","244990","674","2","legacy","1024","2","48000","-16","BA_m21","111","odd","NW_S_COMP","MELTANGE","1698","447427","445810","439609","246701","NA","NA","NA","NA","447424","446307","NA","445310","NA","445303","447424","1710","447627","NA","NA","446427","1698","1698","446826","445303","1698","446426","447627","morph21_Oliver/Morris","49","35401","56","yes","1280","1"
"300","87.7192982456","87.7192982456","631.526315789","631.526315789","black","no","xpyriment","legacy","legacy","0","201","NA","uniform","72780","1000","0.0137400384721","1","undefined","1","0","56","56","56","0","56","56","56","NA","56","56","0","56","NA","56","56","0","56","NA","56","NA","56","0","0","56","56","0","56","56","57","/","10/25/17 16:38:43","The main experiment item","yes","FIN__BA__M21__7%3A10%3A17.osexp","C:\Users\ERP Testing Room\Desktop\Joanna\morph21","no","mono","no","18","no","white","no","yes","1080","legacy","56","56","C:/Users/ERP Testing Room/Desktop/Joanna/morph21/subject-111.csv","xpyriment","Jazzy James","3.1.4","0","/","NA","NA","NA","NA","space","/","596","NA","NA","NA","NA","244990","596","2","legacy","1024","2","48000","-16","BA_m21","111","odd","CW_S","BUYER","1698","451893","448802","450385","246701","NA","NA","NA","NA","450378","449299","NA","448302","NA","448295","450378","1710","452194","NA","NA","449385","1698","1698","449777","448295","1698","449385","452194","morph21_Oliver/Morris","50","35997","57","yes","1280","21"
"250","87.9310344828","87.9310344828","629.637931034","629.637931034","black","no","xpyriment","legacy","legacy","0","202","NA","uniform","77583","1000","0.0128894216517","1","undefined","1","0","57","57","57","0","57","57","57","NA","57","57","0","57","NA","57","57","0","57","NA","57","NA","57","0","0","57","57","0","57","57","58","/","10/25/17 16:38:43","The main experiment item","yes","FIN__BA__M21__7%3A10%3A17.osexp","C:\Users\ERP Testing Room\Desktop\Joanna\morph21","no","mono","no","18","no","white","no","yes","1080","legacy","57","57","C:/Users/ERP Testing Room/Desktop/Joanna/morph21/subject-111.csv","xpyriment","Jazzy James","3.1.4","0","/","NA","NA","NA","NA","space","/","522","NA","NA","NA","NA","244990","522","2","legacy","1024","2","48000","-16","BA_m21","111","odd","CW_L","CREAMY","1698","455010","453427","450385","246701","NA","NA","NA","NA","455003","453924","NA","452927","NA","452922","455003","1710","455260","NA","NA","454010","1698","1698","454402","452922","1698","454010","455260","morph21_Oliver/Morris","51","36519","58","yes","1280","49"
"300","86.4406779661","86.4406779661","631.033898305","631.033898305","black","no","xpyriment","legacy","legacy","0","202","NA","uniform","66875","1000","0.014953271028","0","undefined","0","0","58","58","58","0","58","58","58","NA","58","58","0","58","NA","58","58","0","58","NA","58","NA","58","0","0","58","58","0","58","58","59","/","10/25/17 16:38:43","The main experiment item","yes","FIN__BA__M21__7%3A10%3A17.osexp","C:\Users\ERP Testing Room\Desktop\Joanna\morph21","no","mono","no","18","no","white","no","yes","1080","legacy","58","58","C:/Users/ERP Testing Room/Desktop/Joanna/morph21/subject-111.csv","xpyriment","Jazzy James","3.1.4","0","z","NA","NA","NA","NA","space","z","712","NA","NA","NA","NA","244990","712","2","legacy","1024","2","48000","-16","BA_m21","111","odd","CW_L","DAMPISH","1698","458060","456477","450385","246701","NA","NA","NA","NA","455003","456974","NA","455977","NA","455972","458054","1710","458361","NA","NA","457060","1698","1698","457452","455972","1698","457060","458361","morph21_Oliver/Morris","51","37231","59","yes","1280","28"
"250","86.6666666667","86.6666666667","629.7","629.7","black","no","xpyriment","legacy","legacy","0","202","NA","uniform","68512","1000","0.0145959831854","1","undefined","1","0","59","59","59","0","59","59","59","NA","59","59","0","59","NA","59","59","0","59","NA","59","NA","59","0","0","59","59","0","59","59","60","/","10/25/17 16:38:43","The main experiment item","yes","FIN__BA__M21__7%3A10%3A17.osexp","C:\Users\ERP Testing Room\Desktop\Joanna\morph21","no","mono","no","18","no","white","no","yes","1080","legacy","59","59","C:/Users/ERP Testing Room/Desktop/Joanna/morph21/subject-111.csv","xpyriment","Jazzy James","3.1.4","0","/","NA","NA","NA","NA","space","/","551","NA","NA","NA","NA","244990","551","2","legacy","1024","2","48000","-16","BA_m21","111","odd","CW_L","FLEXIBLE","1698","462778","459669","461269","246701","NA","NA","NA","NA","461259","460166","NA","459169","NA","459159","461259","1710","463028","NA","NA","460269","1698","1698","460660","459159","1698","460269","463028","morph21_Oliver/Morris","52","37782","60","yes","1280","22"
"200","85.2459016393","85.2459016393","635.639344262","635.639344262","black","no","xpyriment","legacy","legacy","0","208","NA","uniform","58398","1000","0.0171238741053","0","undefined","0","0","60","60","60","0","60","60","60","NA","60","60","0","60","NA","60","60","0","60","NA","60","NA","60","0","0","60","60","0","60","60","61","z","10/25/17 16:38:43","The main experiment item","yes","FIN__BA__M21__7%3A10%3A17.osexp","C:\Users\ERP Testing Room\Desktop\Joanna\morph21","no","mono","no","18","no","white","no","yes","1080","legacy","60","60","C:/Users/ERP Testing Room/Desktop/Joanna/morph21/subject-111.csv","xpyriment","Jazzy James","3.1.4","0","None","NA","NA","NA","NA","space","None","992","NA","NA","NA","NA","244990","992","2","legacy","1024","2","48000","-16","BA_m21","111","odd","FILL_NW","FALONS","1698","465812","464228","461269","246701","NA","NA","NA","NA","461259","464725","NA","463728","NA","463725","465804","1710","466012","NA","NA","464812","1698","1698","465203","463725","1698","464812","466012","morph21_Oliver/Morris","52","38774","61","yes","1280","19"
"200","85.4838709677","85.4838709677","639","639","black","no","xpyriment","legacy","legacy","0","208","NA","uniform","61913","1000","0.0161516967357","1","undefined","1","0","61","61","61","0","61","61","61","NA","61","61","0","61","NA","61","61","0","61","NA","61","NA","61","0","0","61","61","0","61","61","62","z","10/25/17 16:38:43","The main experiment item","yes","FIN__BA__M21__7%3A10%3A17.osexp","C:\Users\ERP Testing Room\Desktop\Joanna\morph21","no","mono","no","18","no","white","no","yes","1080","legacy","61","61","C:/Users/ERP Testing Room/Desktop/Joanna/morph21/subject-111.csv","xpyriment","Jazzy James","3.1.4","0","z","NA","NA","NA","NA","space","z","844","NA","NA","NA","NA","244990","844","2","legacy","1024","2","48000","-16","BA_m21","111","odd","FILL_NW","GAIRS","1698","468945","467345","461269","246701","NA","NA","NA","NA","468939","467842","NA","466845","NA","466840","468939","1710","469145","NA","NA","467945","1698","1698","468337","466840","1698","467945","469145","morph21_Oliver/Morris","53","39618","62","yes","1280","23"
"300","85.7142857143","85.7142857143","641.111111111","641.111111111","black","no","xpyriment","legacy","legacy","0","206","NA","uniform","65235","1000","0.0153291944508","1","undefined","1","0","62","62","62","0","62","62","62","NA","62","62","0","62","NA","62","62","0","62","NA","62","NA","62","0","0","62","62","0","62","62","63","z","10/25/17 16:38:43","The main experiment item","yes","FIN__BA__M21__7%3A10%3A17.osexp","C:\Users\ERP Testing Room\Desktop\Joanna\morph21","no","mono","no","18","no","white","no","yes","1080","legacy","62","62","C:/Users/ERP Testing Room/Desktop/Joanna/morph21/subject-111.csv","xpyriment","Jazzy James","3.1.4","0","z","NA","NA","NA","NA","space","z","772","NA","NA","NA","NA","244990","772","2","legacy","1024","2","48000","-16","BA_m21","111","odd","NW_L_SIMP","ELBOWISM","1698","473437","470320","471929","246701","NA","NA","NA","NA","471918","470817","NA","469820","NA","469812","471918","1710","473737","NA","NA","470929","1698","1698","471320","469812","1698","470929","473737","morph21_Oliver/Morris","54","40390","63","yes","1280","10"
"200","85.9375","85.9375","645.296875","645.296875","black","no","xpyriment","legacy","legacy","0","204","NA","uniform","58856","1000","0.0169906211771","1","undefined","1","0","63","63","63","0","63","63","63","NA","63","63","0","63","NA","63","63","0","63","NA","63","NA","63","0","0","63","63","0","63","63","64","z","10/25/17 16:38:43","The main experiment item","yes","FIN__BA__M21__7%3A10%3A17.osexp","C:\Users\ERP Testing Room\Desktop\Joanna\morph21","no","mono","no","18","no","white","no","yes","1080","legacy","63","63","C:/Users/ERP Testing Room/Desktop/Joanna/morph21/subject-111.csv","xpyriment","Jazzy James","3.1.4","0","z","NA","NA","NA","NA","space","z","909","NA","NA","NA","NA","244990","909","2","legacy","1024","2","48000","-16","BA_m21","111","odd","NW_L_COMP","FLIPODY","1698","476487","474904","471929","246701","NA","NA","NA","NA","476479","475401","NA","474404","NA","474400","476479","1710","476687","NA","NA","475487","1698","1698","475879","474400","1698","475487","476687","morph21_Oliver/Morris","55","41299","64","yes","1280","16"
"200","86.1538461538","86.1538461538","646.4","646.4","black","no","xpyriment","legacy","legacy","0","206","NA","uniform","66815","1000","0.0149666990945","1","undefined","1","0","64","64","64","0","64","64","64","NA","64","64","0","64","NA","64","64","0","64","NA","64","NA","64","0","0","64","64","0","64","64","65","z","10/25/17 16:38:43","The main experiment item","yes","FIN__BA__M21__7%3A10%3A17.osexp","C:\Users\ERP Testing Room\Desktop\Joanna\morph21","no","mono","no","18","no","white","no","yes","1080","legacy","64","64","C:/Users/ERP Testing Room/Desktop/Joanna/morph21/subject-111.csv","xpyriment","Jazzy James","3.1.4","0","z","NA","NA","NA","NA","space","z","717","NA","NA","NA","NA","244990","717","2","legacy","1024","2","48000","-16","BA_m21","111","odd","NW_L_SIMP","GROWIST","1698","479505","477912","471929","246701","NA","NA","NA","NA","479499","478409","NA","477412","NA","477407","479499","1710","479705","NA","NA","478504","1698","1698","478904","477407","1698","478504","479705","morph21_Oliver/Morris","56","42016","65","yes","1280","20"
"250","86.3636363636","86.3636363636","646.984848485","646.984848485","black","no","xpyriment","legacy","legacy","0","206","NA","uniform","62733","1000","0.0159405735418","1","undefined","1","0","65","65","65","0","65","65","65","NA","65","65","0","65","NA","65","65","0","65","NA","65","NA","65","0","0","65","65","0","65","65","66","z","10/25/17 16:38:43","The main experiment item","yes","FIN__BA__M21__7%3A10%3A17.osexp","C:\Users\ERP Testing Room\Desktop\Joanna\morph21","no","mono","no","18","no","white","no","yes","1080","legacy","65","65","C:/Users/ERP Testing Room/Desktop/Joanna/morph21/subject-111.csv","xpyriment","Jazzy James","3.1.4","0","z","NA","NA","NA","NA","space","z","685","NA","NA","NA","NA","244990","685","2","legacy","1024","2","48000","-16","BA_m21","111","odd","NW_L_SIMP","BEARIST","1698","483989","480888","482480","246701","NA","NA","NA","NA","482470","481386","NA","480388","NA","480381","482470","1710","484239","NA","NA","481480","1698","1698","481872","480381","1698","481480","484239","morph21_Oliver/Morris","57","42701","66","yes","1280","25"
"350","86.5671641791","86.5671641791","646.507462687","646.507462687","black","no","xpyriment","legacy","legacy","0","202","NA","uniform","63114","1000","0.0158443451532","1","undefined","1","0","66","66","66","0","66","66","66","NA","66","66","0","66","NA","66","66","0","66","NA","66","NA","66","0","0","66","66","0","66","66","67","/","10/25/17 16:38:43","The main experiment item","yes","FIN__BA__M21__7%3A10%3A17.osexp","C:\Users\ERP Testing Room\Desktop\Joanna\morph21","no","mono","no","18","no","white","no","yes","1080","legacy","66","66","C:/Users/ERP Testing Room/Desktop/Joanna/morph21/subject-111.csv","xpyriment","Jazzy James","3.1.4","0","/","NA","NA","NA","NA","space","/","615","NA","NA","NA","NA","244990","615","2","legacy","1024","2","48000","-16","BA_m21","111","odd","CW_L","JUMPING","1698","487014","485430","482480","246701","NA","NA","NA","NA","487004","485927","NA","484930","NA","484923","487004","1710","487364","NA","NA","486014","1698","1698","486405","484923","1698","486014","487364","morph21_Oliver/Morris","58","43316","67","yes","1280","30"
"350","86.7647058824","86.7647058824","651.573529412","651.573529412","black","no","xpyriment","legacy","legacy","0","202","NA","uniform","63178","1000","0.0158282946595","1","undefined","1","0","67","67","67","0","67","67","67","NA","67","67","0","67","NA","67","67","0","67","NA","67","NA","67","0","0","67","67","0","67","67","68","/","10/25/17 16:38:43","The main experiment item","yes","FIN__BA__M21__7%3A10%3A17.osexp","C:\Users\ERP Testing Room\Desktop\Joanna\morph21","no","mono","no","18","no","white","no","yes","1080","legacy","67","67","C:/Users/ERP Testing Room/Desktop/Joanna/morph21/subject-111.csv","xpyriment","Jazzy James","3.1.4","0","/","NA","NA","NA","NA","space","/","991","NA","NA","NA","NA","244990","991","2","legacy","1024","2","48000","-16","BA_m21","111","odd","CW_L","EDITOR","1698","490197","488614","482480","246701","NA","NA","NA","NA","490190","489111","NA","488114","NA","488105","490190","1710","490547","NA","NA","489197","1698","1698","489589","488105","1698","489197","490547","morph21_Oliver/Morris","59","44307","68","yes","1280","45"
"300","86.9565217391","86.9565217391","650.637681159","650.637681159","black","no","xpyriment","legacy","legacy","0","204","NA","uniform","70364","1000","0.0142118128588","1","undefined","1","0","68","68","68","0","68","68","68","NA","68","68","0","68","NA","68","68","0","68","NA","68","NA","68","0","0","68","68","0","68","68","69","z","10/25/17 16:38:43","The main experiment item","yes","FIN__BA__M21__7%3A10%3A17.osexp","C:\Users\ERP Testing Room\Desktop\Joanna\morph21","no","mono","no","18","no","white","no","yes","1080","legacy","68","68","C:/Users/ERP Testing Room/Desktop/Joanna/morph21/subject-111.csv","xpyriment","Jazzy James","3.1.4","0","z","NA","NA","NA","NA","space","z","587","NA","NA","NA","NA","244990","587","2","legacy","1024","2","48000","-16","BA_m21","111","odd","NW_L_COMP","SHEETEL","1698","494806","491689","493297","246701","NA","NA","NA","NA","493288","492186","NA","491189","NA","491184","493288","1710","495106","NA","NA","492297","1698","1698","492689","491184","1698","492297","495106","morph21_Oliver/Morris","60","44894","69","yes","1280","5"
"350","87.1428571429","87.1428571429","648.742857143","648.742857143","black","no","xpyriment","legacy","legacy","0","201","NA","uniform","71668","1000","0.0139532287771","1","undefined","1","0","69","69","69","0","69","69","69","NA","69","69","0","69","NA","69","69","0","69","NA","69","NA","69","0","0","69","69","0","69","69","70","/","10/25/17 16:38:43","The main experiment item","yes","FIN__BA__M21__7%3A10%3A17.osexp","C:\Users\ERP Testing Room\Desktop\Joanna\morph21","no","mono","no","18","no","white","no","yes","1080","legacy","69","69","C:/Users/ERP Testing Room/Desktop/Joanna/morph21/subject-111.csv","xpyriment","Jazzy James","3.1.4","0","/","NA","NA","NA","NA","space","/","518","NA","NA","NA","NA","244990","518","2","legacy","1024","2","48000","-16","BA_m21","111","odd","CW_S","TOASTER","1698","498015","496389","493297","246701","NA","NA","NA","NA","498007","496886","NA","495889","NA","495878","498007","1710","498365","NA","NA","497015","1698","1698","497407","495878","1698","497015","498365","morph21_Oliver/Morris","61","45412","70","yes","1280","10"
"400","85.9154929577","85.9154929577","653.577464789","653.577464789","black","no","xpyriment","legacy","legacy","0","205","NA","uniform","50766","1000","0.0196982232203","0","undefined","0","0","70","70","70","0","70","70","70","NA","70","70","0","70","NA","70","70","0","70","NA","70","NA","70","0","0","70","70","0","70","70","71","z","10/25/17 16:38:43","The main experiment item","yes","FIN__BA__M21__7%3A10%3A17.osexp","C:\Users\ERP Testing Room\Desktop\Joanna\morph21","no","mono","no","18","no","white","no","yes","1080","legacy","70","70","C:/Users/ERP Testing Room/Desktop/Joanna/morph21/subject-111.csv","xpyriment","Jazzy James","3.1.4","0","None","NA","NA","NA","NA","space","None","992","NA","NA","NA","NA","244990","992","2","legacy","1024","2","48000","-16","BA_m21","111","odd","NW_S_SIMP","AIDIC","1698","501124","499540","493297","246701","NA","NA","NA","NA","498007","500037","NA","499040","NA","499034","501117","1710","501524","NA","NA","500124","1698","1698","500515","499034","1698","500124","501524","morph21_Oliver/Morris","61","46404","71","yes","1280","4"
"250","86.1111111111","86.1111111111","654.041666667","654.041666667","black","no","xpyriment","legacy","legacy","0","207","NA","uniform","68880","1000","0.0145180023229","1","undefined","1","0","71","71","71","0","71","71","71","NA","71","71","0","71","NA","71","71","0","71","NA","71","NA","71","0","0","71","71","0","71","71","72","/","10/25/17 16:38:43","The main experiment item","yes","FIN__BA__M21__7%3A10%3A17.osexp","C:\Users\ERP Testing Room\Desktop\Joanna\morph21","no","mono","no","18","no","white","no","yes","1080","legacy","71","71","C:/Users/ERP Testing Room/Desktop/Joanna/morph21/subject-111.csv","xpyriment","Jazzy James","3.1.4","0","/","NA","NA","NA","NA","space","/","687","NA","NA","NA","NA","244990","687","2","legacy","1024","2","48000","-16","BA_m21","111","odd","FILL_W","SMOKE","1698","505891","502799","504382","246701","NA","NA","NA","NA","504373","503296","NA","502299","NA","502288","504373","1710","506141","NA","NA","503382","1698","1698","503774","502288","1698","503382","506141","morph21_Oliver/Morris","62","47091","72","yes","1280","50"
"400","86.301369863","86.301369863","655.452054795","655.452054795","black","no","xpyriment","legacy","legacy","0","201","NA","uniform","70717","1000","0.0141408713605","1","undefined","1","0","72","72","72","0","72","72","72","NA","72","72","0","72","NA","72","72","0","72","NA","72","NA","72","0","0","72","72","0","72","72","73","/","10/25/17 16:38:43","The main experiment item","yes","FIN__BA__M21__7%3A10%3A17.osexp","C:\Users\ERP Testing Room\Desktop\Joanna\morph21","no","mono","no","18","no","white","no","yes","1080","legacy","72","72","C:/Users/ERP Testing Room/Desktop/Joanna/morph21/subject-111.csv","xpyriment","Jazzy James","3.1.4","0","/","NA","NA","NA","NA","space","/","757","NA","NA","NA","NA","244990","757","2","legacy","1024","2","48000","-16","BA_m21","111","odd","CW_S","DESIGN","1698","508991","507391","504382","246701","NA","NA","NA","NA","508985","507888","NA","506891","NA","506880","508985","1710","509391","NA","NA","507991","1698","1698","508382","506880","1698","507991","509391","morph21_Oliver/Morris","63","47848","73","yes","1280","19"
"300","86.4864864865","86.4864864865","654.743243243","654.743243243","black","no","xpyriment","legacy","legacy","0","208","NA","uniform","66954","1000","0.0149356274457","1","undefined","1","0","73","73","73","0","73","73","73","NA","73","73","0","73","NA","73","73","0","73","NA","73","NA","73","0","0","73","73","0","73","73","74","z","10/25/17 16:38:43","The main experiment item","yes","FIN__BA__M21__7%3A10%3A17.osexp","C:\Users\ERP Testing Room\Desktop\Joanna\morph21","no","mono","no","18","no","white","no","yes","1080","legacy","73","73","C:/Users/ERP Testing Room/Desktop/Joanna/morph21/subject-111.csv","xpyriment","Jazzy James","3.1.4","0","z","NA","NA","NA","NA","space","z","603","NA","NA","NA","NA","244990","603","2","legacy","1024","2","48000","-16","BA_m21","111","odd","FILL_NW","DULKS","1698","512232","510632","504382","246701","NA","NA","NA","NA","512225","511130","NA","510132","NA","510123","512225","1710","512533","NA","NA","511233","1698","1698","511624","510123","1698","511232","512533","morph21_Oliver/Morris","64","48451","74","yes","1280","18"
"400","86.6666666667","86.6666666667","655.36","655.36","black","no","xpyriment","legacy","legacy","0","207","NA","uniform","63016","1000","0.0158689856544","undefined","undefined","1","0","74","74","74","0","74","74","74","NA","74","74","0","74","NA","74","74","0","74","NA","74","NA","74","0","0","74","74","0","74","74","75","/","10/25/17 16:38:43","The main experiment item","yes","FIN__BA__M21__7%3A10%3A17.osexp","C:\Users\ERP Testing Room\Desktop\Joanna\morph21","no","mono","no","18","no","white","no","yes","1080","legacy","74","74","C:/Users/ERP Testing Room/Desktop/Joanna/morph21/subject-111.csv","xpyriment","Jazzy James","3.1.4","0","space","space","NA","NA","NA","space","/","6432","6432","NA","NA","NA","244990","701","2","legacy","1024","2","48000","-16","BA_m21","111","odd","FILL_W","DRUNK","1698","516900","513808","515392","246701","517309","NA","NA","NA","515384","514305","NA","513307","NA","513301","515384","1710","523741","NA","NA","514392","1698","1698","514784","513301","1698","514392","517301","morph21_Oliver/Morris","65","49152","75","yes","1280","19"
"400","86.8421052632","86.8421052632","657.75","657.75","black","no","xpyriment","legacy","legacy","0","201","NA","uniform","65006","1000","0.0153831953973","1","undefined","1","0","75","75","75","0","75","75","75","NA","75","75","0","75","NA","75","75","0","75","NA","75","NA","75","0","0","75","75","0","75","75","76","/","10/25/17 16:38:43","The main experiment item","yes","FIN__BA__M21__7%3A10%3A17.osexp","C:\Users\ERP Testing Room\Desktop\Joanna\morph21","no","mono","no","18","no","white","no","yes","1080","legacy","75","75","C:/Users/ERP Testing Room/Desktop/Joanna/morph21/subject-111.csv","xpyriment","Jazzy James","3.1.4","0","/","space","NA","NA","NA","space","/","837","6432","NA","NA","NA","244990","837","2","legacy","1024","2","48000","-16","BA_m21","111","odd","CW_S","RAIDER","1698","526559","524959","515392","246701","517309","NA","NA","NA","526554","525456","NA","524459","NA","524447","526554","1710","526959","NA","NA","525559","1698","1698","525959","524447","1698","525559","526959","morph21_Oliver/Morris","66","49989","76","yes","1280","12"
"350","87.012987013","87.012987013","659.948051948","659.948051948","black","no","xpyriment","legacy","legacy","0","206","NA","uniform","68329","1000","0.0146350744194","1","undefined","1","0","76","76","76","0","76","76","76","NA","76","76","0","76","NA","76","76","0","76","NA","76","NA","76","0","0","76","76","0","76","76","77","z","10/25/17 16:38:43","The main experiment item","yes","FIN__BA__M21__7%3A10%3A17.osexp","C:\Users\ERP Testing Room\Desktop\Joanna\morph21","no","mono","no","18","no","white","no","yes","1080","legacy","76","76","C:/Users/ERP Testing Room/Desktop/Joanna/morph21/subject-111.csv","xpyriment","Jazzy James","3.1.4","0","z","space","NA","NA","NA","space","z","827","6432","NA","NA","NA","244990","827","2","legacy","1024","2","48000","-16","BA_m21","111","odd","NW_L_SIMP","HABITIC","1698","529801","528218","515392","246701","517309","NA","NA","NA","529795","528715","NA","527718","NA","527714","529795","1710","530151","NA","NA","528801","1698","1698","529193","527714","1698","528801","530151","morph21_Oliver/Morris","67","50816","77","yes","1280","7"
"400","87.1794871795","87.1794871795","659.756410256","659.756410256","black","no","xpyriment","legacy","legacy","0","204","NA","uniform","71569","1000","0.013972530006","1","undefined","1","0","77","77","77","0","77","77","77","NA","77","77","0","77","NA","77","77","0","77","NA","77","NA","77","0","0","77","77","0","77","77","78","z","10/25/17 16:38:43","The main experiment item","yes","FIN__BA__M21__7%3A10%3A17.osexp","C:\Users\ERP Testing Room\Desktop\Joanna\morph21","no","mono","no","18","no","white","no","yes","1080","legacy","77","77","C:/Users/ERP Testing Room/Desktop/Joanna/morph21/subject-111.csv","xpyriment","Jazzy James","3.1.4","0","z","space","NA","NA","NA","space","z","645","6432","NA","NA","NA","244990","645","2","legacy","1024","2","48000","-16","BA_m21","111","odd","NW_L_COMP","RIPENGE","1698","534444","531351","532935","246701","517309","NA","NA","NA","532932","531848","NA","530851","NA","530840","532932","1710","534844","NA","NA","531944","1698","1698","532335","530840","1698","531944","534844","morph21_Oliver/Morris","68","51461","78","yes","1280","4"
"400","87.3417721519","87.3417721519","658.012658228","658.012658228","black","no","xpyriment","legacy","legacy","0","202","NA","uniform","73212","1000","0.0136589630115","1","undefined","1","0","78","78","78","0","78","78","78","NA","78","78","0","78","NA","78","78","0","78","NA","78","NA","78","0","0","78","78","0","78","78","79","/","10/25/17 16:38:43","The main experiment item","yes","FIN__BA__M21__7%3A10%3A17.osexp","C:\Users\ERP Testing Room\Desktop\Joanna\morph21","no","mono","no","18","no","white","no","yes","1080","legacy","78","78","C:/Users/ERP Testing Room/Desktop/Joanna/morph21/subject-111.csv","xpyriment","Jazzy James","3.1.4","0","/","space","NA","NA","NA","space","/","522","6432","NA","NA","NA","244990","522","2","legacy","1024","2","48000","-16","BA_m21","111","odd","CW_L","CLEANER","1698","537627","536019","532935","246701","517309","NA","NA","NA","537618","536516","NA","535519","NA","535510","537618","1710","538027","NA","NA","536627","1698","1698","537019","535510","1698","536627","538027","morph21_Oliver/Morris","69","51983","79","yes","1280","15"
"400","87.5","87.5","658.1875","658.1875","black","no","xpyriment","legacy","legacy","0","201","NA","uniform","63405","1000","0.0157716268433","1","undefined","1","0","79","79","79","0","79","79","79","NA","79","79","0","79","NA","79","79","0","79","NA","79","NA","79","0","0","79","79","0","79","79","80","/","10/25/17 16:38:43","The main experiment item","yes","FIN__BA__M21__7%3A10%3A17.osexp","C:\Users\ERP Testing Room\Desktop\Joanna\morph21","no","mono","no","18","no","white","no","yes","1080","legacy","79","79","C:/Users/ERP Testing Room/Desktop/Joanna/morph21/subject-111.csv","xpyriment","Jazzy James","3.1.4","0","/","space","NA","NA","NA","space","/","672","6432","NA","NA","NA","244990","672","2","legacy","1024","2","48000","-16","BA_m21","111","odd","CW_S","WIDOWED","1698","540877","539269","532935","246701","517309","NA","NA","NA","540867","539766","NA","538769","NA","538763","540867","1710","541277","NA","NA","539877","1698","1698","540269","538763","1698","539877","541277","morph21_Oliver/Morris","70","52655","80","yes","1280","7"
"200","87.6543209877","87.6543209877","656.395061728","656.395061728","black","no","xpyriment","legacy","legacy","0","208","NA","uniform","73130","1000","0.0136742786818","1","undefined","1","0","80","80","80","0","80","80","80","NA","80","80","0","80","NA","80","80","0","80","NA","80","NA","80","0","0","80","80","0","80","80","81","z","10/25/17 16:38:43","The main experiment item","yes","FIN__BA__M21__7%3A10%3A17.osexp","C:\Users\ERP Testing Room\Desktop\Joanna\morph21","no","mono","no","18","no","white","no","yes","1080","legacy","80","80","C:/Users/ERP Testing Room/Desktop/Joanna/morph21/subject-111.csv","xpyriment","Jazzy James","3.1.4","0","z","space","NA","NA","NA","space","z","513","6432","NA","NA","NA","244990","513","2","legacy","1024","2","48000","-16","BA_m21","111","odd","FILL_NW","PORDS","1698","545528","542436","544019","246701","517309","NA","NA","NA","544014","542933","NA","541936","NA","541925","544014","1710","545728","NA","NA","543019","1698","1698","543419","541925","1698","543019","545728","morph21_Oliver/Morris","71","53168","81","yes","1280","39"
"350","87.8048780488","87.8048780488","655.158536585","655.158536585","black","no","xpyriment","legacy","legacy","0","207","NA","uniform","75615","1000","0.0132248892416","1","undefined","1","0","81","81","81","0","81","81","81","NA","81","81","0","81","NA","81","81","0","81","NA","81","NA","81","0","0","81","81","0","81","81","82","/","10/25/17 16:38:43","The main experiment item","yes","FIN__BA__M21__7%3A10%3A17.osexp","C:\Users\ERP Testing Room\Desktop\Joanna\morph21","no","mono","no","18","no","white","no","yes","1080","legacy","81","81","C:/Users/ERP Testing Room/Desktop/Joanna/morph21/subject-111.csv","xpyriment","Jazzy James","3.1.4","0","/","space","NA","NA","NA","space","/","555","6432","NA","NA","NA","244990","555","2","legacy","1024","2","48000","-16","BA_m21","111","odd","FILL_W","BRISK","1698","548553","546969","544019","246701","517309","NA","NA","NA","548548","547466","NA","546469","NA","546463","548548","1710","548903","NA","NA","547553","1698","1698","547953","546463","1698","547553","548903","morph21_Oliver/Morris","72","53723","82","yes","1280","8"
"200","87.9518072289","87.9518072289","654.060240964","654.060240964","black","no","xpyriment","legacy","legacy","0","205","NA","uniform","77921","1000","0.0128335108636","1","undefined","1","0","82","82","82","0","82","82","82","NA","82","82","0","82","NA","82","82","0","82","NA","82","NA","82","0","0","82","82","0","82","82","83","z","10/25/17 16:38:43","The main experiment item","yes","FIN__BA__M21__7%3A10%3A17.osexp","C:\Users\ERP Testing Room\Desktop\Joanna\morph21","no","mono","no","18","no","white","no","yes","1080","legacy","82","82","C:/Users/ERP Testing Room/Desktop/Joanna/morph21/subject-111.csv","xpyriment","Jazzy James","3.1.4","0","z","space","NA","NA","NA","space","z","564","6432","NA","NA","NA","244990","564","2","legacy","1024","2","48000","-16","BA_m21","111","odd","NW_S_SIMP","JAWLY","1698","551721","550129","544019","246701","517309","NA","NA","NA","551710","550626","NA","549629","NA","549622","551710","1710","551921","NA","NA","550721","1698","1698","551112","549622","1698","550721","551921","morph21_Oliver/Morris","73","54287","83","yes","1280","7"
"250","88.0952380952","88.0952380952","653.654761905","653.654761905","black","no","xpyriment","legacy","legacy","0","205","NA","uniform","75516","1000","0.0132422268129","1","undefined","1","0","83","83","83","0","83","83","83","NA","83","83","0","83","NA","83","83","0","83","NA","83","NA","83","0","0","83","83","0","83","83","84","z","10/25/17 16:38:43","The main experiment item","yes","FIN__BA__M21__7%3A10%3A17.osexp","C:\Users\ERP Testing Room\Desktop\Joanna\morph21","no","mono","no","18","no","white","no","yes","1080","legacy","83","83","C:/Users/ERP Testing Room/Desktop/Joanna/morph21/subject-111.csv","xpyriment","Jazzy James","3.1.4","0","z","space","NA","NA","NA","space","z","620","6432","NA","NA","NA","244990","620","2","legacy","1024","2","48000","-16","BA_m21","111","odd","NW_S_SIMP","DIGORY","1698","556229","553096","554721","246701","517309","NA","NA","NA","554710","553593","NA","552596","NA","552592","554710","1710","556479","NA","NA","553721","1698","1698","554112","552592","1698","553721","556479","morph21_Oliver/Morris","74","54907","84","yes","1280","11"
"400","88.2352941176","88.2352941176","651.811764706","651.811764706","black","no","xpyriment","legacy","legacy","0","202","NA","uniform","73544","1000","0.0135973022952","1","undefined","1","0","84","84","84","0","84","84","84","NA","84","84","0","84","NA","84","84","0","84","NA","84","NA","84","0","0","84","84","0","84","84","85","/","10/25/17 16:38:43","The main experiment item","yes","FIN__BA__M21__7%3A10%3A17.osexp","C:\Users\ERP Testing Room\Desktop\Joanna\morph21","no","mono","no","18","no","white","no","yes","1080","legacy","84","84","C:/Users/ERP Testing Room/Desktop/Joanna/morph21/subject-111.csv","xpyriment","Jazzy James","3.1.4","0","/","space","NA","NA","NA","space","/","497","6432","NA","NA","NA","244990","497","2","legacy","1024","2","48000","-16","BA_m21","111","odd","CW_L","FAITHFUL","1698","559404","557821","554721","246701","517309","NA","NA","NA","559395","558318","NA","557321","NA","557317","559395","1710","559804","NA","NA","558404","1698","1698","558796","557317","1698","558404","559804","morph21_Oliver/Morris","75","55404","85","yes","1280","20"
"250","88.3720930233","88.3720930233","651.034883721","651.034883721","black","no","xpyriment","legacy","legacy","0","201","NA","uniform","75958","1000","0.0131651702257","1","undefined","1","0","85","85","85","0","85","85","85","NA","85","85","0","85","NA","85","85","0","85","NA","85","NA","85","0","0","85","85","0","85","85","86","/","10/25/17 16:38:43","The main experiment item","yes","FIN__BA__M21__7%3A10%3A17.osexp","C:\Users\ERP Testing Room\Desktop\Joanna\morph21","no","mono","no","18","no","white","no","yes","1080","legacy","85","85","C:/Users/ERP Testing Room/Desktop/Joanna/morph21/subject-111.csv","xpyriment","Jazzy James","3.1.4","0","/","space","NA","NA","NA","space","/","585","6432","NA","NA","NA","244990","585","2","legacy","1024","2","48000","-16","BA_m21","111","odd","CW_S","SEEKER","1698","562579","560996","554721","246701","517309","NA","NA","NA","562574","561493","NA","560496","NA","560489","562574","1710","562829","NA","NA","561579","1698","1698","561971","560489","1698","561579","562829","morph21_Oliver/Morris","76","55989","86","yes","1280","16"
"400","88.5057471264","88.5057471264","649.632183908","649.632183908","black","no","xpyriment","legacy","legacy","0","207","NA","uniform","76484","1000","0.013074629988","1","undefined","1","0","86","86","86","0","86","86","86","NA","86","86","0","86","NA","86","86","0","86","NA","86","NA","86","0","0","86","86","0","86","86","87","/","10/25/17 16:38:43","The main experiment item","yes","FIN__BA__M21__7%3A10%3A17.osexp","C:\Users\ERP Testing Room\Desktop\Joanna\morph21","no","mono","no","18","no","white","no","yes","1080","legacy","86","86","C:/Users/ERP Testing Room/Desktop/Joanna/morph21/subject-111.csv","xpyriment","Jazzy James","3.1.4","0","/","space","NA","NA","NA","space","/","529","6432","NA","NA","NA","244990","529","2","legacy","1024","2","48000","-16","BA_m21","111","odd","FILL_W","FLIRT","1698","567089","563996","565580","246701","517309","NA","NA","NA","565573","564493","NA","563496","NA","563488","565573","1710","567489","NA","NA","564579","1698","1698","564971","563488","1698","564579","567489","morph21_Oliver/Morris","77","56518","87","yes","1280","1"
"400","88.6363636364","88.6363636364","649.454545455","649.454545455","black","no","xpyriment","legacy","legacy","0","204","NA","uniform","74028","1000","0.0135084022262","1","undefined","1","0","87","87","87","0","87","87","87","NA","87","87","0","87","NA","87","87","0","87","NA","87","NA","87","0","0","87","87","0","87","87","88","z","10/25/17 16:38:43","The main experiment item","yes","FIN__BA__M21__7%3A10%3A17.osexp","C:\Users\ERP Testing Room\Desktop\Joanna\morph21","no","mono","no","18","no","white","no","yes","1080","legacy","87","87","C:/Users/ERP Testing Room/Desktop/Joanna/morph21/subject-111.csv","xpyriment","Jazzy James","3.1.4","0","z","space","NA","NA","NA","space","z","634","6432","NA","NA","NA","244990","634","2","legacy","1024","2","48000","-16","BA_m21","111","odd","NW_L_COMP","COLDIDY","1698","570347","568764","565580","246701","517309","NA","NA","NA","570343","569261","NA","568264","NA","568259","570343","1710","570747","NA","NA","569347","1698","1698","569747","568259","1698","569347","570747","morph21_Oliver/Morris","78","57152","88","yes","1280","10"
"200","87.6404494382","87.6404494382","649.617977528","649.617977528","black","no","xpyriment","legacy","legacy","0","208","NA","uniform","70780","1000","0.0141282848262","0","undefined","0","0","88","88","88","0","88","88","88","NA","88","88","0","88","NA","88","88","0","88","NA","88","NA","88","0","0","88","88","0","88","88","89","z","10/25/17 16:38:43","The main experiment item","yes","FIN__BA__M21__7%3A10%3A17.osexp","C:\Users\ERP Testing Room\Desktop\Joanna\morph21","no","mono","no","18","no","white","no","yes","1080","legacy","88","88","C:/Users/ERP Testing Room/Desktop/Joanna/morph21/subject-111.csv","xpyriment","Jazzy James","3.1.4","0","/","space","NA","NA","NA","space","/","664","6432","NA","NA","NA","244990","664","2","legacy","1024","2","48000","-16","BA_m21","111","odd","FILL_NW","DARM","1698","573581","571981","565580","246701","517309","NA","NA","NA","570343","572478","NA","571481","NA","571470","573574","1710","573781","NA","NA","572581","1698","1698","572972","571470","1698","572581","573781","morph21_Oliver/Morris","78","57816","89","yes","1280","11"
"300","87.7777777778","87.7777777778","651.033333333","651.033333333","black","no","xpyriment","legacy","legacy","0","204","NA","uniform","65046","1000","0.0153737355103","1","undefined","1","0","89","89","89","0","89","89","89","NA","89","89","0","89","NA","89","89","0","89","NA","89","NA","89","0","0","89","89","0","89","89","90","z","10/25/17 16:38:43","The main experiment item","yes","FIN__BA__M21__7%3A10%3A17.osexp","C:\Users\ERP Testing Room\Desktop\Joanna\morph21","no","mono","no","18","no","white","no","yes","1080","legacy","89","89","C:/Users/ERP Testing Room/Desktop/Joanna/morph21/subject-111.csv","xpyriment","Jazzy James","3.1.4","0","z","space","NA","NA","NA","space","z","777","6432","NA","NA","NA","244990","777","2","legacy","1024","2","48000","-16","BA_m21","111","odd","NW_L_COMP","FELLOWOES","1698","578064","574964","576556","246701","517309","NA","NA","NA","576548","575461","NA","574464","NA","574459","576548","1710","578365","NA","NA","575556","1698","1698","575948","574459","1698","575556","578365","morph21_Oliver/Morris","79","58593","90","yes","1280","17"
"300","87.9120879121","87.9120879121","650.032967033","650.032967033","black","no","xpyriment","legacy","legacy","0","201","NA","uniform","70150","1000","0.0142551674982","1","undefined","1","0","90","90","90","0","90","90","90","NA","90","90","0","90","NA","90","90","0","90","NA","90","NA","90","0","0","90","90","0","90","90","91","/","10/25/17 16:38:43","The main experiment item","yes","FIN__BA__M21__7%3A10%3A17.osexp","C:\Users\ERP Testing Room\Desktop\Joanna\morph21","no","mono","no","18","no","white","no","yes","1080","legacy","90","90","C:/Users/ERP Testing Room/Desktop/Joanna/morph21/subject-111.csv","xpyriment","Jazzy James","3.1.4","0","/","space","NA","NA","NA","space","/","560","6432","NA","NA","NA","244990","560","2","legacy","1024","2","48000","-16","BA_m21","111","odd","CW_S","RISKY","1698","581156","579573","576556","246701","517309","NA","NA","NA","581150","580070","NA","579064","NA","579059","581150","1710","581456","NA","NA","580156","1698","1698","580548","579059","1698","580156","581456","morph21_Oliver/Morris","80","59153","91","yes","1280","50"
