SubjID,TestSite,ExclReason,Included VSL2,Included LDT,Date,Sex,Age,Ethnicity,Race,handedness_score,read_for_pleasure,born_in_us,first_language,language_disability,spl_cor,spl_inc,spl_perc,vcb_cor,vcb_inc,vcb_perc,art_cor,art_inc,art_diff,TOWRE_rank,TOWRE_descriptor,hits,misses,correctRejections,falseAlarms,totalTrials,hit_rate,fa_rate,hit_rate_z,fa_rate_z,d_prime_raw,d_prime_zscore,sensitivity,z_vcb,z_spl,z_art,Dim.1,Dim.2,Orthographic_Sensitivity,Semantic_Sensitivity,List,accuracy,average_response_time,cond_trig,correct,counter,cresp,datetime,experiment_file,logfile,response,response_time,trial_type,family_size,complexity,target,total_correct,total_response_time,total_responses,word_trig,targ_type,base,affix,Source,FS,BF,LogBF,Family_Size,Base_Frequency,BaseLength,WholeFormLength,Sublist,Complexity,LogBF_std,FS_std,BF_std,Dim.2_std
S101,Hampshire,NA,1,1,2017-09-19,Male,21,Not Hispanic or Latino,Black,10,1-3 hours,Yes,English,No,55,25,68.75,33,17,66,40,26,14,NA,NA,13,13,13,13,26,0.5,0.5,-0.554335032726076,0.554335032726075,0,-1.10867006545215,Insensitive,-1.4018872914385454,-1.5086391054824275,-0.6399333407607103,-2.015120263591839,-0.6253309311087007,Low Orthographic,Low Semantic,AB,42.3076923077,804,205,1,26,z,09/19/17 15:43:22,AB,subject-101.csv,z,757,NW,S,SIMP,advertisela,11,20904,26,25,NW_S_SIMP,advertise,ly,XuTaft,4,4.76,1.56,Small Family,High BF,9,11,2,Simple,-3.145765995718849,-0.5492894890704371,-0.6476481261041231,-0.7494913065080693
S101,Hampshire,NA,1,1,2017-09-19,Male,21,Not Hispanic or Latino,Black,10,1-3 hours,Yes,English,No,55,25,68.75,33,17,66,40,26,14,NA,NA,13,13,13,13,26,0.5,0.5,-0.554335032726076,0.554335032726075,0,-1.10867006545215,Insensitive,-1.4018872914385454,-1.5086391054824275,-0.6399333407607103,-2.015120263591839,-0.6253309311087007,Low Orthographic,Low Semantic,AB,44.4444444444,757.62962963,206,1,54,z,09/19/17 15:43:22,AB,subject-101.csv,z,970,NW,L,SIMP,validel,24,40912,54,23,NW_L_SIMP,valid,er,RastleFiller,13,618,6.43,Large Family,High BF,5,7,2,Simple,0.024883478332966134,0.16612405216805937,-0.39714024858095415,-0.7494913065080693
S101,Hampshire,NA,1,1,2017-09-19,Male,21,Not Hispanic or Latino,Black,10,1-3 hours,Yes,English,No,55,25,68.75,33,17,66,40,26,14,NA,NA,13,13,13,13,26,0.5,0.5,-0.554335032726076,0.554335032726075,0,-1.10867006545215,Insensitive,-1.4018872914385454,-1.5086391054824275,-0.6399333407607103,-2.015120263591839,-0.6253309311087007,Low Orthographic,Low Semantic,AB,45.4545454545,757.890909091,205,1,55,z,09/19/17 15:43:22,AB,subject-101.csv,z,772,NW,S,SIMP,gumfil,25,41684,55,2,NW_S_SIMP,gum,ful,Crepaldi,2,57,4.04,Small Family,High BF,3,6,2,Simple,-1.5311436762838382,-0.7082702760123252,-0.626308142538455,-0.7494913065080693
S101,Hampshire,NA,1,1,2017-09-19,Male,21,Not Hispanic or Latino,Black,10,1-3 hours,Yes,English,No,55,25,68.75,33,17,66,40,26,14,NA,NA,13,13,13,13,26,0.5,0.5,-0.554335032726076,0.554335032726075,0,-1.10867006545215,Insensitive,-1.4018872914385454,-1.5086391054824275,-0.6399333407607103,-2.015120263591839,-0.6253309311087007,Low Orthographic,Low Semantic,AB,50.8196721311,754.098360656,206,1,61,z,09/19/17 15:43:22,AB,subject-101.csv,z,904,NW,L,SIMP,dressody,31,46000,61,21,NW_L_SIMP,dress,ory,Graves,33,3885,8.26,Large Family,High BF,5,9,2,Simple,1.2163184963031555,1.7559319215869404,0.9374257221127275,-0.7494913065080693
S101,Hampshire,NA,1,1,2017-09-19,Male,21,Not Hispanic or Latino,Black,10,1-3 hours,Yes,English,No,55,25,68.75,33,17,66,40,26,14,NA,NA,13,13,13,13,26,0.5,0.5,-0.554335032726076,0.554335032726075,0,-1.10867006545215,Insensitive,-1.4018872914385454,-1.5086391054824275,-0.6399333407607103,-2.015120263591839,-0.6253309311087007,Low Orthographic,Low Semantic,AB,56.5217391304,738.144927536,205,1,69,z,09/19/17 15:43:22,AB,subject-101.csv,z,719,NW,S,SIMP,warnody,39,50932,69,12,NW_S_SIMP,warn,ory,Crepaldi,5,1697,7.44,Small Family,High BF,4,7,2,Simple,0.682451439070612,-0.469799095599493,0.04363008578650297,-0.7494913065080693
S101,Hampshire,NA,1,1,2017-09-19,Male,21,Not Hispanic or Latino,Black,10,1-3 hours,Yes,English,No,55,25,68.75,33,17,66,40,26,14,NA,NA,13,13,13,13,26,0.5,0.5,-0.554335032726076,0.554335032726075,0,-1.10867006545215,Insensitive,-1.4018872914385454,-1.5086391054824275,-0.6399333407607103,-2.015120263591839,-0.6253309311087007,Low Orthographic,Low Semantic,AB,56.7567567568,729.445945946,205,1,74,z,09/19/17 15:43:22,AB,subject-101.csv,z,616,NW,S,SIMP,boltoes,42,53979,74,13,NW_S_SIMP,bolt,ous,Crepaldi,6,348,5.85,Small Family,High BF,4,7,2,Simple,-0.3527298060510283,-0.390308702128549,-0.507434956902746,-0.7494913065080693
S101,Hampshire,NA,1,1,2017-09-19,Male,21,Not Hispanic or Latino,Black,10,1-3 hours,Yes,English,No,55,25,68.75,33,17,66,40,26,14,NA,NA,13,13,13,13,26,0.5,0.5,-0.554335032726076,0.554335032726075,0,-1.10867006545215,Insensitive,-1.4018872914385454,-1.5086391054824275,-0.6399333407607103,-2.015120263591839,-0.6253309311087007,Low Orthographic,Low Semantic,AB,61.1111111111,719.388888889,205,1,90,z,09/19/17 15:43:22,AB,subject-101.csv,z,661,NW,S,SIMP,nullith,55,64745,90,23,NW_S_SIMP,null,ish,XuTaft,4,45,3.81,Small Family,High BF,4,7,2,Simple,-1.680886875263698,-0.5492894890704371,-0.6312101295749791,-0.7494913065080693
S101,Hampshire,NA,1,1,2017-09-19,Male,21,Not Hispanic or Latino,Black,10,1-3 hours,Yes,English,No,55,25,68.75,33,17,66,40,26,14,NA,NA,13,13,13,13,26,0.5,0.5,-0.554335032726076,0.554335032726075,0,-1.10867006545215,Insensitive,-1.4018872914385454,-1.5086391054824275,-0.6399333407607103,-2.015120263591839,-0.6253309311087007,Low Orthographic,Low Semantic,AB,64.347826087,701.547826087,206,1,115,z,09/19/17 15:43:22,AB,subject-101.csv,z,815,NW,L,SIMP,habitig,74,80678,115,7,NW_L_SIMP,habit,ic,Crepaldi,16,2066,7.63,Large Family,High BF,5,7,2,Simple,0.8061523425757133,0.40459523258089153,0.1943661871596185,-0.7494913065080693
S101,Hampshire,NA,1,1,2017-09-19,Male,21,Not Hispanic or Latino,Black,10,1-3 hours,Yes,English,No,55,25,68.75,33,17,66,40,26,14,NA,NA,13,13,13,13,26,0.5,0.5,-0.554335032726076,0.554335032726075,0,-1.10867006545215,Insensitive,-1.4018872914385454,-1.5086391054824275,-0.6399333407607103,-2.015120263591839,-0.6253309311087007,Low Orthographic,Low Semantic,AB,64.4628099174,702.371900826,206,1,121,z,09/19/17 15:43:22,AB,subject-101.csv,z,980,NW,L,SIMP,taxfil,78,84987,121,6,NW_L_SIMP,tax,ful,Crepaldi,14,2763,7.92,Large Family,High BF,3,6,2,Simple,0.9949589847677105,0.24561444563900342,0.47908993419772566,-0.7494913065080693
S101,Hampshire,NA,1,1,2017-09-19,Male,21,Not Hispanic or Latino,Black,10,1-3 hours,Yes,English,No,55,25,68.75,33,17,66,40,26,14,NA,NA,13,13,13,13,26,0.5,0.5,-0.554335032726076,0.554335032726075,0,-1.10867006545215,Insensitive,-1.4018872914385454,-1.5086391054824275,-0.6399333407607103,-2.015120263591839,-0.6253309311087007,Low Orthographic,Low Semantic,AB,65.0406504065,699.479674797,205,1,123,z,09/19/17 15:43:22,AB,subject-101.csv,z,578,NW,S,SIMP,urnilt,80,86036,123,5,NW_S_SIMP,urn,ist,Crepaldi,2,68,4.22,Small Family,High BF,3,6,2,Simple,-1.4139533466474263,-0.7082702760123252,-0.6218146544216413,-0.7494913065080693
S101,Hampshire,NA,1,1,2017-09-19,Male,21,Not Hispanic or Latino,Black,10,1-3 hours,Yes,English,No,55,25,68.75,33,17,66,40,26,14,NA,NA,13,13,13,13,26,0.5,0.5,-0.554335032726076,0.554335032726075,0,-1.10867006545215,Insensitive,-1.4018872914385454,-1.5086391054824275,-0.6399333407607103,-2.015120263591839,-0.6253309311087007,Low Orthographic,Low Semantic,AB,66.6666666667,687.386363636,206,1,132,z,09/19/17 15:43:22,AB,subject-101.csv,z,708,NW,L,SIMP,wigith,88,90735,132,9,NW_L_SIMP,wig,ish,Crepaldi,8,262,5.57,Large Family,High BF,3,6,2,Simple,-0.5350258743743356,-0.23132791518666088,-0.5425658639978352,-0.7494913065080693
S101,Hampshire,NA,1,1,2017-09-19,Male,21,Not Hispanic or Latino,Black,10,1-3 hours,Yes,English,No,55,25,68.75,33,17,66,40,26,14,NA,NA,13,13,13,13,26,0.5,0.5,-0.554335032726076,0.554335032726075,0,-1.10867006545215,Insensitive,-1.4018872914385454,-1.5086391054824275,-0.6399333407607103,-2.015120263591839,-0.6253309311087007,Low Orthographic,Low Semantic,AB,68.4210526316,684.480263158,206,1,152,z,09/19/17 15:43:22,AB,subject-101.csv,z,920,NW,L,SIMP,classoes,104,104041,152,18,NW_L_SIMP,class,ous,Crepaldi,29,6216,8.73,Large Family,High BF,5,8,2,Simple,1.5223154681315652,1.4379703477031642,1.8896367039575306,-0.7494913065080693
S101,Hampshire,NA,1,1,2017-09-19,Male,21,Not Hispanic or Latino,Black,10,1-3 hours,Yes,English,No,55,25,68.75,33,17,66,40,26,14,NA,NA,13,13,13,13,26,0.5,0.5,-0.554335032726076,0.554335032726075,0,-1.10867006545215,Insensitive,-1.4018872914385454,-1.5086391054824275,-0.6399333407607103,-2.015120263591839,-0.6253309311087007,Low Orthographic,Low Semantic,AB,68.5897435897,687.91025641,205,1,156,z,09/19/17 15:43:22,AB,subject-101.csv,z,814,NW,S,SIMP,acremant,107,107314,156,16,NW_S_SIMP,acre,ment,Rastle,3,708,6.56,Small Family,High BF,4,8,2,Simple,0.10952093862593033,-0.6287798825413812,-0.3603753458070235,-0.7494913065080693
S101,Hampshire,NA,1,1,2017-09-19,Male,21,Not Hispanic or Latino,Black,10,1-3 hours,Yes,English,No,55,25,68.75,33,17,66,40,26,14,NA,NA,13,13,13,13,26,0.5,0.5,-0.554335032726076,0.554335032726075,0,-1.10867006545215,Insensitive,-1.4018872914385454,-1.5086391054824275,-0.6399333407607103,-2.015120263591839,-0.6253309311087007,Low Orthographic,Low Semantic,AB,65.9340659341,697.335164835,205,1,182,z,09/19/17 15:43:22,AB,subject-101.csv,z,776,NW,S,SIMP,helmetoes,120,126915,182,14,NW_S_SIMP,helmet,ous,Crepaldi,6,242,5.49,Small Family,High BF,6,9,2,Simple,-0.587110465323852,-0.390308702128549,-0.5507358423920421,-0.7494913065080693
S101,Hampshire,NA,1,1,2017-09-19,Male,21,Not Hispanic or Latino,Black,10,1-3 hours,Yes,English,No,55,25,68.75,33,17,66,40,26,14,NA,NA,13,13,13,13,26,0.5,0.5,-0.554335032726076,0.554335032726075,0,-1.10867006545215,Insensitive,-1.4018872914385454,-1.5086391054824275,-0.6399333407607103,-2.015120263591839,-0.6253309311087007,Low Orthographic,Low Semantic,AB,63.3663366337,712.643564356,206,1,202,z,09/19/17 15:43:22,AB,subject-101.csv,z,870,NW,L,SIMP,witchith,128,143954,202,11,NW_L_SIMP,witch,ish,Crepaldi,11,890,6.79,Large Family,High BF,5,8,2,Simple,0.2592641376057905,0.007143265226171272,-0.28602854241974157,-0.7494913065080693
S101,Hampshire,NA,1,1,2017-09-19,Male,21,Not Hispanic or Latino,Black,10,1-3 hours,Yes,English,No,55,25,68.75,33,17,66,40,26,14,NA,NA,13,13,13,13,26,0.5,0.5,-0.554335032726076,0.554335032726075,0,-1.10867006545215,Insensitive,-1.4018872914385454,-1.5086391054824275,-0.6399333407607103,-2.015120263591839,-0.6253309311087007,Low Orthographic,Low Semantic,AB,64.5454545455,708.25,205,1,220,z,09/19/17 15:43:22,AB,subject-101.csv,z,649,NW,S,SIMP,jawla,142,155815,220,7,NW_S_SIMP,jaw,ly,Crepaldi,7,414,6.03,Small Family,High BF,3,5,2,Simple,-0.23553947641461587,-0.31081830865760496,-0.4804740282018635,-0.7494913065080693
S101,Hampshire,NA,1,1,2017-09-19,Male,21,Not Hispanic or Latino,Black,10,1-3 hours,Yes,English,No,55,25,68.75,33,17,66,40,26,14,NA,NA,13,13,13,13,26,0.5,0.5,-0.554335032726076,0.554335032726075,0,-1.10867006545215,Insensitive,-1.4018872914385454,-1.5086391054824275,-0.6399333407607103,-2.015120263591839,-0.6253309311087007,Low Orthographic,Low Semantic,AB,64.3137254902,700.470588235,205,1,255,z,09/19/17 15:43:22,AB,subject-101.csv,z,675,NW,S,SIMP,feverime,164,178620,255,24,NW_S_SIMP,fever,ize,XuTaft,4,594,6.39,Small Family,High BF,5,8,2,Simple,-0.0011588171417921244,-0.5492894890704371,-0.4069442226540023,-0.7494913065080693
S101,Hampshire,NA,1,1,2017-09-19,Male,21,Not Hispanic or Latino,Black,10,1-3 hours,Yes,English,No,55,25,68.75,33,17,66,40,26,14,NA,NA,13,13,13,13,26,0.5,0.5,-0.554335032726076,0.554335032726075,0,-1.10867006545215,Insensitive,-1.4018872914385454,-1.5086391054824275,-0.6399333407607103,-2.015120263591839,-0.6253309311087007,Low Orthographic,Low Semantic,AB,66.0583941606,696.518248175,205,1,274,z,09/19/17 15:43:22,AB,subject-101.csv,z,875,NW,S,SIMP,yieldilt,181,190846,274,20,NW_S_SIMP,yield,ist,RastleFiller,4,613,6.42,Small Family,High BF,5,8,2,Simple,0.018372904464276713,-0.5492894890704371,-0.39918274317950586,-0.7494913065080693
S101,Hampshire,NA,1,1,2017-09-19,Male,21,Not Hispanic or Latino,Black,10,1-3 hours,Yes,English,No,55,25,68.75,33,17,66,40,26,14,NA,NA,13,13,13,13,26,0.5,0.5,-0.554335032726076,0.554335032726075,0,-1.10867006545215,Insensitive,-1.4018872914385454,-1.5086391054824275,-0.6399333407607103,-2.015120263591839,-0.6253309311087007,Low Orthographic,Low Semantic,AB,65.8620689655,699.413793103,206,1,290,z,09/19/17 15:43:22,AB,subject-101.csv,z,687,NW,L,SIMP,towerla,191,202830,290,15,NW_L_SIMP,tower,ly,Crepaldi,9,1180,7.07,Large Family,High BF,5,7,2,Simple,0.4415602059290983,-0.15183752171571682,-0.16756385570374294,-0.7494913065080693
S101,Hampshire,NA,1,1,2017-09-19,Male,21,Not Hispanic or Latino,Black,10,1-3 hours,Yes,English,No,55,25,68.75,33,17,66,40,26,14,NA,NA,13,13,13,13,26,0.5,0.5,-0.554335032726076,0.554335032726075,0,-1.10867006545215,Insensitive,-1.4018872914385454,-1.5086391054824275,-0.6399333407607103,-2.015120263591839,-0.6253309311087007,Low Orthographic,Low Semantic,AB,65.9793814433,700.223367698,205,1,291,z,09/19/17 15:43:22,AB,subject-101.csv,z,935,NW,S,SIMP,winkidy,192,203765,291,21,NW_S_SIMP,wink,ity,RastleFiller,4,216,5.38,Small Family,High BF,4,7,2,Simple,-0.6587267778794375,-0.5492894890704371,-0.5613568143045109,-0.7494913065080693
S101,Hampshire,NA,1,1,2017-09-19,Male,21,Not Hispanic or Latino,Black,10,1-3 hours,Yes,English,No,55,25,68.75,33,17,66,40,26,14,NA,NA,13,13,13,13,26,0.5,0.5,-0.554335032726076,0.554335032726075,0,-1.10867006545215,Insensitive,-1.4018872914385454,-1.5086391054824275,-0.6399333407607103,-2.015120263591839,-0.6253309311087007,Low Orthographic,Low Semantic,AB,66.2116040956,699.938566553,206,1,293,z,09/19/17 15:43:22,AB,subject-101.csv,z,699,NW,L,SIMP,shootmant,194,205082,293,16,NW_L_SIMP,shoot,ment,Crepaldi,23,1828,7.51,Large Family,High BF,5,9,2,Simple,0.7280254561514385,0.9610279868774999,0.09714344426855753,-0.7494913065080693
S103,Hampshire,MissingEEG,0,1,2017-09-22,Female,20,Not Hispanic or Latino,White,10,1-3 hours,Yes,English,No,69,11,86.25,41,9,82,48,18,30,NA,NA,NA,NA,NA,NA,NA,NA,NA,NA,NA,NA,NA,NA,-0.00513511828365796,0.7111822676540035,0.8936514053794943,0.9008754556010866,0.2951016580929784,High Orthographic,High Semantic,BA,50,660.125,204,1,8,z,09/22/17 12:38:57,BA,subject-103.csv,z,862,NW,L,SIMP,stirange,4,5281,8,1,NW_L_SIMP,stir,ance,Crepaldi,12,841,6.73,Large Family,High BF,4,8,1,Simple,0.22020069439365336,0.08663365869711533,-0.30604498948554826,0.28599175173429253
S103,Hampshire,MissingEEG,0,1,2017-09-22,Female,20,Not Hispanic or Latino,White,10,1-3 hours,Yes,English,No,69,11,86.25,41,9,82,48,18,30,NA,NA,NA,NA,NA,NA,NA,NA,NA,NA,NA,NA,NA,NA,-0.00513511828365796,0.7111822676540035,0.8936514053794943,0.9008754556010866,0.2951016580929784,High Orthographic,High Semantic,BA,64.2857142857,699.428571429,203,1,14,z,09/22/17 12:38:57,BA,subject-103.csv,z,846,NW,S,SIMP,pillime,9,9792,14,13,NW_S_SIMP,pill,ize,Crepaldi,5,537,6.29,Small Family,High BF,4,7,1,Simple,-0.06626455582868748,-0.469799095599493,-0.4302286610774917,0.28599175173429253
S103,Hampshire,MissingEEG,0,1,2017-09-22,Female,20,Not Hispanic or Latino,White,10,1-3 hours,Yes,English,No,69,11,86.25,41,9,82,48,18,30,NA,NA,NA,NA,NA,NA,NA,NA,NA,NA,NA,NA,NA,NA,-0.00513511828365796,0.7111822676540035,0.8936514053794943,0.9008754556010866,0.2951016580929784,High Orthographic,High Semantic,BA,78.3783783784,737.189189189,203,1,37,z,09/22/17 12:38:57,BA,subject-103.csv,z,656,NW,S,SIMP,altarig,29,27276,37,7,NW_S_SIMP,altar,ic,Crepaldi,2,403,6,Small Family,High BF,5,7,1,Simple,-0.25507119802068473,-0.7082702760123252,-0.4849675163186773,0.28599175173429253
S103,Hampshire,MissingEEG,0,1,2017-09-22,Female,20,Not Hispanic or Latino,White,10,1-3 hours,Yes,English,No,69,11,86.25,41,9,82,48,18,30,NA,NA,NA,NA,NA,NA,NA,NA,NA,NA,NA,NA,NA,NA,-0.00513511828365796,0.7111822676540035,0.8936514053794943,0.9008754556010866,0.2951016580929784,High Orthographic,High Semantic,BA,78.9473684211,743.052631579,203,1,38,z,09/22/17 12:38:57,BA,subject-103.csv,z,960,NW,S,SIMP,elmilt,30,28236,38,10,NW_S_SIMP,elm,ist,Crepaldi,2,175,5.16,Small Family,High BF,3,6,1,Simple,-0.8019594029906075,-0.7082702760123252,-0.5781052700126349,0.28599175173429253
S103,Hampshire,MissingEEG,0,1,2017-09-22,Female,20,Not Hispanic or Latino,White,10,1-3 hours,Yes,English,No,69,11,86.25,41,9,82,48,18,30,NA,NA,NA,NA,NA,NA,NA,NA,NA,NA,NA,NA,NA,NA,-0.00513511828365796,0.7111822676540035,0.8936514053794943,0.9008754556010866,0.2951016580929784,High Orthographic,High Semantic,BA,78.0487804878,746.365853659,204,1,41,z,09/22/17 12:38:57,BA,subject-103.csv,z,907,NW,L,SIMP,breakidy,32,30601,41,23,NW_L_SIMP,break,ity,RastleFiller,43,6366,8.76,Large Family,High BF,5,8,1,Simple,1.5418471897376334,2.5508358562963807,1.9509115419140817,0.28599175173429253
S103,Hampshire,MissingEEG,0,1,2017-09-22,Female,20,Not Hispanic or Latino,White,10,1-3 hours,Yes,English,No,69,11,86.25,41,9,82,48,18,30,NA,NA,NA,NA,NA,NA,NA,NA,NA,NA,NA,NA,NA,NA,-0.00513511828365796,0.7111822676540035,0.8936514053794943,0.9008754556010866,0.2951016580929784,High Orthographic,High Semantic,BA,79.0697674419,751.627906977,203,1,43,z,09/22/17 12:38:57,BA,subject-103.csv,z,928,NW,S,SIMP,heightenge,34,32320,43,18,NW_S_SIMP,height,ence,Rastle,2,912,6.82,Small Family,High BF,6,10,1,Simple,0.2787958592118593,-0.7082702760123252,-0.2770415661861141,0.28599175173429253
S103,Hampshire,MissingEEG,0,1,2017-09-22,Female,20,Not Hispanic or Latino,White,10,1-3 hours,Yes,English,No,69,11,86.25,41,9,82,48,18,30,NA,NA,NA,NA,NA,NA,NA,NA,NA,NA,NA,NA,NA,NA,-0.00513511828365796,0.7111822676540035,0.8936514053794943,0.9008754556010866,0.2951016580929784,High Orthographic,High Semantic,BA,74.5762711864,733.898305085,204,1,59,z,09/22/17 12:38:57,BA,subject-103.csv,z,720,NW,L,SIMP,kingilm,44,43300,59,19,NW_L_SIMP,king,ish,Rastle,11,2275,7.73,Large Family,High BF,4,7,1,Simple,0.8712580812626093,0.007143265226171272,0.2797424613790796,0.28599175173429253
S103,Hampshire,MissingEEG,0,1,2017-09-22,Female,20,Not Hispanic or Latino,White,10,1-3 hours,Yes,English,No,69,11,86.25,41,9,82,48,18,30,NA,NA,NA,NA,NA,NA,NA,NA,NA,NA,NA,NA,NA,NA,-0.00513511828365796,0.7111822676540035,0.8936514053794943,0.9008754556010866,0.2951016580929784,High Orthographic,High Semantic,BA,75.4098360656,730.868852459,204,1,61,z,09/22/17 12:38:57,BA,subject-103.csv,z,847,NW,L,SIMP,fellowoes,46,44583,61,17,NW_L_SIMP,fellow,ous,Crepaldi,11,1324,7.19,Large Family,High BF,6,9,1,Simple,0.5196870923533731,0.007143265226171272,-0.10874001126545393,0.28599175173429253
S103,Hampshire,MissingEEG,0,1,2017-09-22,Female,20,Not Hispanic or Latino,White,10,1-3 hours,Yes,English,No,69,11,86.25,41,9,82,48,18,30,NA,NA,NA,NA,NA,NA,NA,NA,NA,NA,NA,NA,NA,NA,-0.00513511828365796,0.7111822676540035,0.8936514053794943,0.9008754556010866,0.2951016580929784,High Orthographic,High Semantic,BA,75.8064516129,733.967741935,203,1,62,z,09/22/17 12:38:57,BA,subject-103.csv,z,923,NW,S,SIMP,ejectenge,47,45506,62,20,NW_S_SIMP,eject,ence,RastleFiller,5,66,4.19,Small Family,High BF,5,9,1,Simple,-1.4334850682534945,-0.469799095599493,-0.622631652261062,0.28599175173429253
S103,Hampshire,MissingEEG,0,1,2017-09-22,Female,20,Not Hispanic or Latino,White,10,1-3 hours,Yes,English,No,69,11,86.25,41,9,82,48,18,30,NA,NA,NA,NA,NA,NA,NA,NA,NA,NA,NA,NA,NA,NA,-0.00513511828365796,0.7111822676540035,0.8936514053794943,0.9008754556010866,0.2951016580929784,High Orthographic,High Semantic,BA,75.7142857143,735.128571429,204,1,70,z,09/22/17 12:38:57,BA,subject-103.csv,z,919,NW,L,SIMP,flitenge,53,51459,70,3,NW_L_SIMP,flit,ence,Crepaldi,11,599,6.4,Large Family,High BF,4,8,1,Simple,0.0053517567268978735,0.007143265226171272,-0.4049017280554506,0.28599175173429253
S103,Hampshire,MissingEEG,0,1,2017-09-22,Female,20,Not Hispanic or Latino,White,10,1-3 hours,Yes,English,No,69,11,86.25,41,9,82,48,18,30,NA,NA,NA,NA,NA,NA,NA,NA,NA,NA,NA,NA,NA,NA,-0.00513511828365796,0.7111822676540035,0.8936514053794943,0.9008754556010866,0.2951016580929784,High Orthographic,High Semantic,BA,77.6315789474,732.907894737,203,1,76,z,09/22/17 12:38:57,BA,subject-103.csv,z,849,NW,S,SIMP,treasonime,59,55701,76,14,NW_S_SIMP,treason,ize,Crepaldi,4,138,4.93,Small Family,High BF,7,10,1,Simple,-0.9517026019704677,-0.5492894890704371,-0.5932197300419174,0.28599175173429253
S103,Hampshire,MissingEEG,0,1,2017-09-22,Female,20,Not Hispanic or Latino,White,10,1-3 hours,Yes,English,No,69,11,86.25,41,9,82,48,18,30,NA,NA,NA,NA,NA,NA,NA,NA,NA,NA,NA,NA,NA,NA,-0.00513511828365796,0.7111822676540035,0.8936514053794943,0.9008754556010866,0.2951016580929784,High Orthographic,High Semantic,BA,76.3513513514,736.790540541,203,1,148,z,09/22/17 12:38:57,BA,subject-103.csv,z,972,NW,S,SIMP,yankody,113,109045,148,23,NW_S_SIMP,yank,ory,RastleFiller,2,51,3.93,Small Family,High BF,4,7,1,Simple,-1.6027599888394233,-0.7082702760123252,-0.6287591360567171,0.28599175173429253
S103,Hampshire,MissingEEG,0,1,2017-09-22,Female,20,Not Hispanic or Latino,White,10,1-3 hours,Yes,English,No,69,11,86.25,41,9,82,48,18,30,NA,NA,NA,NA,NA,NA,NA,NA,NA,NA,NA,NA,NA,NA,-0.00513511828365796,0.7111822676540035,0.8936514053794943,0.9008754556010866,0.2951016580929784,High Orthographic,High Semantic,BA,71.9512195122,752.091463415,203,1,164,z,09/22/17 12:38:57,BA,subject-103.csv,z,849,NW,S,SIMP,debtith,118,123343,164,22,NW_S_SIMP,debt,ish,RastleFiller,4,656,6.49,Small Family,High BF,4,7,1,Simple,0.06394692154510381,-0.5492894890704371,-0.38161728963196123,0.28599175173429253
S103,Hampshire,MissingEEG,0,1,2017-09-22,Female,20,Not Hispanic or Latino,White,10,1-3 hours,Yes,English,No,69,11,86.25,41,9,82,48,18,30,NA,NA,NA,NA,NA,NA,NA,NA,NA,NA,NA,NA,NA,NA,-0.00513511828365796,0.7111822676540035,0.8936514053794943,0.9008754556010866,0.2951016580929784,High Orthographic,High Semantic,BA,71.2574850299,755.281437126,204,1,167,z,09/22/17 12:38:57,BA,subject-103.csv,z,802,NW,L,SIMP,coldidy,119,126132,167,10,NW_L_SIMP,cold,ity,Crepaldi,14,3585,8.18,Large Family,High BF,4,7,1,Simple,1.164233905353639,0.24561444563900342,0.8148760461996253,0.28599175173429253
S103,Hampshire,MissingEEG,0,1,2017-09-22,Female,20,Not Hispanic or Latino,White,10,1-3 hours,Yes,English,No,69,11,86.25,41,9,82,48,18,30,NA,NA,NA,NA,NA,NA,NA,NA,NA,NA,NA,NA,NA,NA,-0.00513511828365796,0.7111822676540035,0.8936514053794943,0.9008754556010866,0.2951016580929784,High Orthographic,High Semantic,BA,71.0059171598,756.621301775,204,1,169,z,09/22/17 12:38:57,BA,subject-103.csv,z,744,NW,L,SIMP,mudla,120,127869,169,12,NW_L_SIMP,mud,ly,Crepaldi,16,912,6.82,Large Family,High BF,3,5,1,Simple,0.2787958592118593,0.40459523258089153,-0.2770415661861141,0.28599175173429253
S103,Hampshire,MissingEEG,0,1,2017-09-22,Female,20,Not Hispanic or Latino,White,10,1-3 hours,Yes,English,No,69,11,86.25,41,9,82,48,18,30,NA,NA,NA,NA,NA,NA,NA,NA,NA,NA,NA,NA,NA,NA,-0.00513511828365796,0.7111822676540035,0.8936514053794943,0.9008754556010866,0.2951016580929784,High Orthographic,High Semantic,BA,69.9421965318,760.768786127,203,1,173,z,09/22/17 12:38:57,BA,subject-103.csv,z,761,NW,S,SIMP,branchel,121,131613,173,16,NW_S_SIMP,branch,er,Graves,3,1692,7.43,Small Family,High BF,6,8,1,Simple,0.675940865201922,-0.6287798825413812,0.041587591187951266,0.28599175173429253
S103,Hampshire,MissingEEG,0,1,2017-09-22,Female,20,Not Hispanic or Latino,White,10,1-3 hours,Yes,English,No,69,11,86.25,41,9,82,48,18,30,NA,NA,NA,NA,NA,NA,NA,NA,NA,NA,NA,NA,NA,NA,-0.00513511828365796,0.7111822676540035,0.8936514053794943,0.9008754556010866,0.2951016580929784,High Orthographic,High Semantic,BA,68.6486486486,768.502702703,204,1,185,z,09/22/17 12:38:57,BA,subject-103.csv,z,660,NW,L,SIMP,sheetel,127,142173,185,5,NW_L_SIMP,sheet,er,Crepaldi,14,1009,6.92,Large Family,High BF,5,7,1,Simple,0.3439015978987547,0.24561444563900342,-0.2374171709742111,0.28599175173429253
S103,Hampshire,MissingEEG,0,1,2017-09-22,Female,20,Not Hispanic or Latino,White,10,1-3 hours,Yes,English,No,69,11,86.25,41,9,82,48,18,30,NA,NA,NA,NA,NA,NA,NA,NA,NA,NA,NA,NA,NA,NA,-0.00513511828365796,0.7111822676540035,0.8936514053794943,0.9008754556010866,0.2951016580929784,High Orthographic,High Semantic,BA,67.0157068063,773.460732984,204,1,191,z,09/22/17 12:38:57,BA,subject-103.csv,z,709,NW,L,SIMP,employnels,128,147731,191,21,NW_L_SIMP,employ,ness,Rastle,12,4622,8.44,Large Family,High BF,6,10,1,Simple,1.3335088259395673,0.08663365869711533,1.2384894259392483,0.28599175173429253
S103,Hampshire,MissingEEG,0,1,2017-09-22,Female,20,Not Hispanic or Latino,White,10,1-3 hours,Yes,English,No,69,11,86.25,41,9,82,48,18,30,NA,NA,NA,NA,NA,NA,NA,NA,NA,NA,NA,NA,NA,NA,-0.00513511828365796,0.7111822676540035,0.8936514053794943,0.9008754556010866,0.2951016580929784,High Orthographic,High Semantic,BA,66.6666666667,775.805128205,204,1,195,z,09/22/17 12:38:57,BA,subject-103.csv,z,879,NW,L,SIMP,agreela,130,151282,195,24,NW_L_SIMP,agree,ly,RastleFiller,9,4745,8.46,Large Family,High BF,5,7,1,Simple,1.3465299736769474,-0.15183752171571682,1.2887347930636202,0.28599175173429253
S103,Hampshire,MissingEEG,0,1,2017-09-22,Female,20,Not Hispanic or Latino,White,10,1-3 hours,Yes,English,No,69,11,86.25,41,9,82,48,18,30,NA,NA,NA,NA,NA,NA,NA,NA,NA,NA,NA,NA,NA,NA,-0.00513511828365796,0.7111822676540035,0.8936514053794943,0.9008754556010866,0.2951016580929784,High Orthographic,High Semantic,BA,66.5,778.13,203,1,200,z,09/22/17 12:38:57,BA,subject-103.csv,z,793,NW,S,SIMP,fanfil,133,155626,200,6,NW_S_SIMP,fan,ful,Crepaldi,4,473,6.16,Small Family,High BF,3,6,1,Simple,-0.1509020161216517,-0.5492894890704371,-0.45637259193895346,0.28599175173429253
S103,Hampshire,MissingEEG,0,1,2017-09-22,Female,20,Not Hispanic or Latino,White,10,1-3 hours,Yes,English,No,69,11,86.25,41,9,82,48,18,30,NA,NA,NA,NA,NA,NA,NA,NA,NA,NA,NA,NA,NA,NA,-0.00513511828365796,0.7111822676540035,0.8936514053794943,0.9008754556010866,0.2951016580929784,High Orthographic,High Semantic,BA,65.8536585366,781.804878049,203,1,205,z,09/22/17 12:38:57,BA,subject-103.csv,z,845,NW,S,SIMP,aridilm,135,160270,205,9,NW_S_SIMP,arid,ish,Crepaldi,3,100,4.61,Small Family,High BF,4,7,1,Simple,-1.160040965768533,-0.6287798825413812,-0.6087426889909103,0.28599175173429253
S103,Hampshire,MissingEEG,0,1,2017-09-22,Female,20,Not Hispanic or Latino,White,10,1-3 hours,Yes,English,No,69,11,86.25,41,9,82,48,18,30,NA,NA,NA,NA,NA,NA,NA,NA,NA,NA,NA,NA,NA,NA,-0.00513511828365796,0.7111822676540035,0.8936514053794943,0.9008754556010866,0.2951016580929784,High Orthographic,High Semantic,BA,65.2380952381,785.738095238,204,1,210,z,09/22/17 12:38:57,BA,subject-103.csv,z,869,NW,L,SIMP,freenels,137,165005,210,15,NW_L_SIMP,free,ness,Crepaldi,88,7277,8.89,Large Family,High BF,4,8,1,Simple,1.6264846500305983,6.127903562488863,2.3230540577702015,0.28599175173429253
S103,Hampshire,MissingEEG,0,1,2017-09-22,Female,20,Not Hispanic or Latino,White,10,1-3 hours,Yes,English,No,69,11,86.25,41,9,82,48,18,30,NA,NA,NA,NA,NA,NA,NA,NA,NA,NA,NA,NA,NA,NA,-0.00513511828365796,0.7111822676540035,0.8936514053794943,0.9008754556010866,0.2951016580929784,High Orthographic,High Semantic,BA,64.5161290323,790.00921659,203,1,217,z,09/22/17 12:38:57,BA,subject-103.csv,z,977,NW,S,SIMP,dumbidy,140,171432,217,12,NW_S_SIMP,dumb,ity,Crepaldi,6,244,5.5,Small Family,High BF,4,7,1,Simple,-0.5805998914551627,-0.390308702128549,-0.5499188445526214,0.28599175173429253
S103,Hampshire,MissingEEG,0,1,2017-09-22,Female,20,Not Hispanic or Latino,White,10,1-3 hours,Yes,English,No,69,11,86.25,41,9,82,48,18,30,NA,NA,NA,NA,NA,NA,NA,NA,NA,NA,NA,NA,NA,NA,-0.00513511828365796,0.7111822676540035,0.8936514053794943,0.9008754556010866,0.2951016580929784,High Orthographic,High Semantic,BA,64.6788990826,789.80733945,204,1,218,z,09/22/17 12:38:57,BA,subject-103.csv,z,746,NW,L,SIMP,pitchody,141,172178,218,25,NW_L_SIMP,pitch,ory,RastleFiller,10,610,6.41,Large Family,High BF,5,8,1,Simple,0.011862330595587294,-0.07234712824477278,-0.40040823993863683,0.28599175173429253
S103,Hampshire,MissingEEG,0,1,2017-09-22,Female,20,Not Hispanic or Latino,White,10,1-3 hours,Yes,English,No,69,11,86.25,41,9,82,48,18,30,NA,NA,NA,NA,NA,NA,NA,NA,NA,NA,NA,NA,NA,NA,-0.00513511828365796,0.7111822676540035,0.8936514053794943,0.9008754556010866,0.2951016580929784,High Orthographic,High Semantic,BA,64.8648648649,793.783783784,204,1,259,z,09/22/17 12:38:57,BA,subject-103.csv,z,717,NW,L,SIMP,passmant,168,205590,259,14,NW_L_SIMP,pass,ment,Crepaldi,43,10035,9.21,Large Family,High BF,4,8,1,Simple,1.8348230138286643,2.5508358562963807,3.4496940783313197,0.28599175173429253
S103,Hampshire,MissingEEG,0,1,2017-09-22,Female,20,Not Hispanic or Latino,White,10,1-3 hours,Yes,English,No,69,11,86.25,41,9,82,48,18,30,NA,NA,NA,NA,NA,NA,NA,NA,NA,NA,NA,NA,NA,NA,-0.00513511828365796,0.7111822676540035,0.8936514053794943,0.9008754556010866,0.2951016580929784,High Orthographic,High Semantic,BA,65.6603773585,793.124528302,203,1,265,z,09/22/17 12:38:57,BA,subject-103.csv,z,862,NW,S,SIMP,meltange,174,210178,265,1,NW_S_SIMP,melt,ance,Crepaldi,5,429,6.06,Small Family,High BF,4,8,1,Simple,-0.21600775480854761,-0.469799095599493,-0.47434654440620844,0.28599175173429253
S103,Hampshire,MissingEEG,0,1,2017-09-22,Female,20,Not Hispanic or Latino,White,10,1-3 hours,Yes,English,No,69,11,86.25,41,9,82,48,18,30,NA,NA,NA,NA,NA,NA,NA,NA,NA,NA,NA,NA,NA,NA,-0.00513511828365796,0.7111822676540035,0.8936514053794943,0.9008754556010866,0.2951016580929784,High Orthographic,High Semantic,BA,66.1710037175,792.405204461,204,1,269,z,09/22/17 12:38:57,BA,subject-103.csv,z,718,NW,L,SIMP,gasfil,178,213157,269,6,NW_L_SIMP,gas,ful,Crepaldi,33,1501,7.31,Large Family,High BF,3,6,1,Simple,0.5978139787776473,1.7559319215869404,-0.036435702476723716,0.28599175173429253
S103,Hampshire,MissingEEG,0,1,2017-09-22,Female,20,Not Hispanic or Latino,White,10,1-3 hours,Yes,English,No,69,11,86.25,41,9,82,48,18,30,NA,NA,NA,NA,NA,NA,NA,NA,NA,NA,NA,NA,NA,NA,-0.00513511828365796,0.7111822676540035,0.8936514053794943,0.9008754556010866,0.2951016580929784,High Orthographic,High Semantic,BA,66.9064748201,788.769784173,203,1,278,z,09/22/17 12:38:57,BA,subject-103.csv,z,919,NW,S,SIMP,weldig,186,219278,278,21,NW_S_SIMP,weld,ic,RastleFiller,3,129,4.86,Small Family,High BF,4,6,1,Simple,-0.9972766190512942,-0.6287798825413812,-0.5968962203193106,0.28599175173429253
S103,Hampshire,MissingEEG,0,1,2017-09-22,Female,20,Not Hispanic or Latino,White,10,1-3 hours,Yes,English,No,69,11,86.25,41,9,82,48,18,30,NA,NA,NA,NA,NA,NA,NA,NA,NA,NA,NA,NA,NA,NA,-0.00513511828365796,0.7111822676540035,0.8936514053794943,0.9008754556010866,0.2951016580929784,High Orthographic,High Semantic,BA,67.6056338028,785.552816901,203,1,284,z,09/22/17 12:38:57,BA,subject-103.csv,z,761,NW,S,SIMP,truenels,192,223097,284,15,NW_S_SIMP,TRUE,ness,Crepaldi,6,6,1.79,Small Family,High BF,4,8,1,Simple,-2.996022796738989,-0.390308702128549,-0.6471415874436823,0.28599175173429253
S103,Hampshire,MissingEEG,0,1,2017-09-22,Female,20,Not Hispanic or Latino,White,10,1-3 hours,Yes,English,No,69,11,86.25,41,9,82,48,18,30,NA,NA,NA,NA,NA,NA,NA,NA,NA,NA,NA,NA,NA,NA,-0.00513511828365796,0.7111822676540035,0.8936514053794943,0.9008754556010866,0.2951016580929784,High Orthographic,High Semantic,BA,67.7192982456,785.375438596,204,1,285,z,09/22/17 12:38:57,BA,subject-103.csv,z,735,NW,L,SIMP,flipody,193,223832,285,16,NW_L_SIMP,flip,ory,Crepaldi,10,184,5.21,Large Family,High BF,4,7,1,Simple,-0.7694065336471599,-0.07234712824477278,-0.5744287797352418,0.28599175173429253
S103,Hampshire,MissingEEG,0,1,2017-09-22,Female,20,Not Hispanic or Latino,White,10,1-3 hours,Yes,English,No,69,11,86.25,41,9,82,48,18,30,NA,NA,NA,NA,NA,NA,NA,NA,NA,NA,NA,NA,NA,NA,-0.00513511828365796,0.7111822676540035,0.8936514053794943,0.9008754556010866,0.2951016580929784,High Orthographic,High Semantic,BA,67.9054054054,782.733108108,203,1,296,z,09/22/17 12:38:57,BA,subject-103.csv,z,699,NW,S,SIMP,humidoes,201,231689,296,25,NW_S_SIMP,humid,ous,XuTaft,4,92,4.52,Small Family,High BF,5,8,1,Simple,-1.2186361305867397,-0.5492894890704371,-0.6120106803485931,0.28599175173429253
S104,Hampshire,NA,1,1,2017-09-23,Female,21,Not Hispanic or Latino,White,11,1-3 hours,Yes,english,No,62,18,77.5,42,8,84,41,25,16,NA,NA,18,14,18,14,32,0.5625,0.4375,-0.13796015525443,0.13796015525443,0.125,-0.27592031050886,Insensitive,0.16945890336070296,-0.398728418914212,-0.4482352474931847,-0.3686415830602525,-0.2398231874937962,Low Orthographic,Low Semantic,AB,71.4285714286,690.25,206,1,28,z,09/23/17 11:13:35,AB,subject-104.csv,z,846,NW,L,SIMP,pickenge,20,19327,28,5,NW_L_SIMP,pick,ence,Crepaldi,20,3385,8.13,Large Family,High BF,4,8,2,Simple,1.1316810360101919,0.7225568064646677,0.7331762622575573,-0.3157966046715109
S104,Hampshire,NA,1,1,2017-09-23,Female,21,Not Hispanic or Latino,White,11,1-3 hours,Yes,english,No,62,18,77.5,42,8,84,41,25,16,NA,NA,18,14,18,14,32,0.5625,0.4375,-0.13796015525443,0.13796015525443,0.125,-0.27592031050886,Insensitive,0.16945890336070296,-0.398728418914212,-0.4482352474931847,-0.3686415830602525,-0.2398231874937962,Low Orthographic,Low Semantic,AB,70.9677419355,706.193548387,206,1,31,z,09/23/17 11:13:35,AB,subject-104.csv,z,879,NW,L,SIMP,nutla,22,21892,31,14,NW_L_SIMP,nut,ly,Crepaldi,31,946,6.85,Large Family,High BF,3,5,2,Simple,0.29832758081792754,1.5969511346450522,-0.26315260291596254,-0.3157966046715109
S104,Hampshire,NA,1,1,2017-09-23,Female,21,Not Hispanic or Latino,White,11,1-3 hours,Yes,english,No,62,18,77.5,42,8,84,41,25,16,NA,NA,18,14,18,14,32,0.5625,0.4375,-0.13796015525443,0.13796015525443,0.125,-0.27592031050886,Insensitive,0.16945890336070296,-0.398728418914212,-0.4482352474931847,-0.3686415830602525,-0.2398231874937962,Low Orthographic,Low Semantic,AB,75.6756756757,691.702702703,205,1,37,z,09/23/17 11:13:35,AB,subject-104.csv,z,827,NW,S,SIMP,urnilt,28,25593,37,5,NW_S_SIMP,urn,ist,Crepaldi,2,68,4.22,Small Family,High BF,3,6,2,Simple,-1.4139533466474263,-0.7082702760123252,-0.6218146544216413,-0.3157966046715109
S104,Hampshire,NA,1,1,2017-09-23,Female,21,Not Hispanic or Latino,White,11,1-3 hours,Yes,english,No,62,18,77.5,42,8,84,41,25,16,NA,NA,18,14,18,14,32,0.5625,0.4375,-0.13796015525443,0.13796015525443,0.125,-0.27592031050886,Insensitive,0.16945890336070296,-0.398728418914212,-0.4482352474931847,-0.3686415830602525,-0.2398231874937962,Low Orthographic,Low Semantic,AB,76.3157894737,694.736842105,206,1,38,z,09/23/17 11:13:35,AB,subject-104.csv,z,807,NW,L,SIMP,growilt,29,26400,38,20,NW_L_SIMP,grow,ic,Graves,14,8545,9.05,Large Family,High BF,4,7,2,Simple,1.7306538319296312,0.24561444563900342,2.841030687962913,-0.3157966046715109
S104,Hampshire,NA,1,1,2017-09-23,Female,21,Not Hispanic or Latino,White,11,1-3 hours,Yes,english,No,62,18,77.5,42,8,84,41,25,16,NA,NA,18,14,18,14,32,0.5625,0.4375,-0.13796015525443,0.13796015525443,0.125,-0.27592031050886,Insensitive,0.16945890336070296,-0.398728418914212,-0.4482352474931847,-0.3686415830602525,-0.2398231874937962,Low Orthographic,Low Semantic,AB,75,696.925,205,1,40,z,09/23/17 11:13:35,AB,subject-104.csv,z,878,NW,S,SIMP,rampime,30,27877,40,6,NW_S_SIMP,ramp,ize,Crepaldi,1,95,4.55,Small Family,High BF,4,7,2,Simple,-1.1991044089806708,-0.7877606694832693,-0.6107851835894621,-0.3157966046715109
S104,Hampshire,NA,1,1,2017-09-23,Female,21,Not Hispanic or Latino,White,11,1-3 hours,Yes,english,No,62,18,77.5,42,8,84,41,25,16,NA,NA,18,14,18,14,32,0.5625,0.4375,-0.13796015525443,0.13796015525443,0.125,-0.27592031050886,Insensitive,0.16945890336070296,-0.398728418914212,-0.4482352474931847,-0.3686415830602525,-0.2398231874937962,Low Orthographic,Low Semantic,AB,77.1428571429,709.371428571,205,1,70,z,09/23/17 11:13:35,AB,subject-104.csv,z,947,NW,S,SIMP,medicalady,54,49656,70,18,NW_S_SIMP,medical,ary,RastleFiller,3,1323,7.19,Small Family,High BF,7,10,2,Simple,0.5196870923533731,-0.6287798825413812,-0.10914851018516428,-0.3157966046715109
S104,Hampshire,NA,1,1,2017-09-23,Female,21,Not Hispanic or Latino,White,11,1-3 hours,Yes,english,No,62,18,77.5,42,8,84,41,25,16,NA,NA,18,14,18,14,32,0.5625,0.4375,-0.13796015525443,0.13796015525443,0.125,-0.27592031050886,Insensitive,0.16945890336070296,-0.398728418914212,-0.4482352474931847,-0.3686415830602525,-0.2398231874937962,Low Orthographic,Low Semantic,AB,72.8260869565,725.25,205,1,92,z,09/23/17 11:13:35,AB,subject-104.csv,z,893,NW,S,SIMP,socketel,67,66723,92,1,NW_S_SIMP,socket,er,Crepaldi,1,143,4.96,Small Family,High BF,6,8,2,Simple,-0.9321708803643989,-0.7877606694832693,-0.5911772354433658,-0.3157966046715109
S104,Hampshire,NA,1,1,2017-09-23,Female,21,Not Hispanic or Latino,White,11,1-3 hours,Yes,english,No,62,18,77.5,42,8,84,41,25,16,NA,NA,18,14,18,14,32,0.5625,0.4375,-0.13796015525443,0.13796015525443,0.125,-0.27592031050886,Insensitive,0.16945890336070296,-0.398728418914212,-0.4482352474931847,-0.3686415830602525,-0.2398231874937962,Low Orthographic,Low Semantic,AB,72.6315789474,723.536842105,205,1,95,z,09/23/17 11:13:35,AB,subject-104.csv,z,747,NW,S,SIMP,helmetoes,69,68736,95,14,NW_S_SIMP,helmet,ous,Crepaldi,6,242,5.49,Small Family,High BF,6,9,2,Simple,-0.587110465323852,-0.390308702128549,-0.5507358423920421,-0.3157966046715109
S104,Hampshire,NA,1,1,2017-09-23,Female,21,Not Hispanic or Latino,White,11,1-3 hours,Yes,english,No,62,18,77.5,42,8,84,41,25,16,NA,NA,18,14,18,14,32,0.5625,0.4375,-0.13796015525443,0.13796015525443,0.125,-0.27592031050886,Insensitive,0.16945890336070296,-0.398728418914212,-0.4482352474931847,-0.3686415830602525,-0.2398231874937962,Low Orthographic,Low Semantic,AB,75.8928571429,719.5,206,1,112,z,09/23/17 11:13:35,AB,subject-104.csv,z,796,NW,L,SIMP,beanith,85,80584,112,8,NW_L_SIMP,bean,ish,Crepaldi,9,425,6.05,Large Family,High BF,4,7,2,Simple,-0.22251832867723703,-0.15183752171571682,-0.4759805400850498,-0.3157966046715109
S104,Hampshire,NA,1,1,2017-09-23,Female,21,Not Hispanic or Latino,White,11,1-3 hours,Yes,english,No,62,18,77.5,42,8,84,41,25,16,NA,NA,18,14,18,14,32,0.5625,0.4375,-0.13796015525443,0.13796015525443,0.125,-0.27592031050886,Insensitive,0.16945890336070296,-0.398728418914212,-0.4482352474931847,-0.3686415830602525,-0.2398231874937962,Low Orthographic,Low Semantic,AB,76.5217391304,719.417391304,205,1,115,z,09/23/17 11:13:35,AB,subject-104.csv,z,727,NW,S,SIMP,nextnels,88,82733,115,9,NW_S_SIMP,next,ness,Crepaldi,4,7415,8.91,Small Family,High BF,4,8,2,Simple,1.639505797767977,-0.5492894890704371,2.3794269086902284,-0.3157966046715109
S104,Hampshire,NA,1,1,2017-09-23,Female,21,Not Hispanic or Latino,White,11,1-3 hours,Yes,english,No,62,18,77.5,42,8,84,41,25,16,NA,NA,18,14,18,14,32,0.5625,0.4375,-0.13796015525443,0.13796015525443,0.125,-0.27592031050886,Insensitive,0.16945890336070296,-0.398728418914212,-0.4482352474931847,-0.3686415830602525,-0.2398231874937962,Low Orthographic,Low Semantic,AB,77.4193548387,726.225806452,206,1,124,z,09/23/17 11:13:35,AB,subject-104.csv,z,814,NW,L,SIMP,prayange,96,90052,124,1,NW_L_SIMP,pray,ance,Crepaldi,9,1055,6.96,Large Family,High BF,4,8,2,Simple,0.3699438933735129,-0.15183752171571682,-0.21862622066753545,-0.3157966046715109
S104,Hampshire,NA,1,1,2017-09-23,Female,21,Not Hispanic or Latino,White,11,1-3 hours,Yes,english,No,62,18,77.5,42,8,84,41,25,16,NA,NA,18,14,18,14,32,0.5625,0.4375,-0.13796015525443,0.13796015525443,0.125,-0.27592031050886,Insensitive,0.16945890336070296,-0.398728418914212,-0.4482352474931847,-0.3686415830602525,-0.2398231874937962,Low Orthographic,Low Semantic,AB,76.2962962963,728.407407407,206,1,135,z,09/23/17 11:13:35,AB,subject-104.csv,z,803,NW,L,SIMP,towerla,103,98335,135,15,NW_L_SIMP,tower,ly,Crepaldi,9,1180,7.07,Large Family,High BF,5,7,2,Simple,0.4415602059290983,-0.15183752171571682,-0.16756385570374294,-0.3157966046715109
S104,Hampshire,NA,1,1,2017-09-23,Female,21,Not Hispanic or Latino,White,11,1-3 hours,Yes,english,No,62,18,77.5,42,8,84,41,25,16,NA,NA,18,14,18,14,32,0.5625,0.4375,-0.13796015525443,0.13796015525443,0.125,-0.27592031050886,Insensitive,0.16945890336070296,-0.398728418914212,-0.4482352474931847,-0.3686415830602525,-0.2398231874937962,Low Orthographic,Low Semantic,AB,76.6423357664,728.576642336,205,1,137,z,09/23/17 11:13:35,AB,subject-104.csv,z,876,NW,S,SIMP,nullith,105,99815,137,23,NW_S_SIMP,null,ish,XuTaft,4,45,3.81,Small Family,High BF,4,7,2,Simple,-1.680886875263698,-0.5492894890704371,-0.6312101295749791,-0.3157966046715109
S104,Hampshire,NA,1,1,2017-09-23,Female,21,Not Hispanic or Latino,White,11,1-3 hours,Yes,english,No,62,18,77.5,42,8,84,41,25,16,NA,NA,18,14,18,14,32,0.5625,0.4375,-0.13796015525443,0.13796015525443,0.125,-0.27592031050886,Insensitive,0.16945890336070296,-0.398728418914212,-0.4482352474931847,-0.3686415830602525,-0.2398231874937962,Low Orthographic,Low Semantic,AB,77.7777777778,724.833333333,206,1,144,z,09/23/17 11:13:35,AB,subject-104.csv,z,837,NW,L,SIMP,shootmant,112,104376,144,16,NW_L_SIMP,shoot,ment,Crepaldi,23,1828,7.51,Large Family,High BF,5,9,2,Simple,0.7280254561514385,0.9610279868774999,0.09714344426855753,-0.3157966046715109
S104,Hampshire,NA,1,1,2017-09-23,Female,21,Not Hispanic or Latino,White,11,1-3 hours,Yes,english,No,62,18,77.5,42,8,84,41,25,16,NA,NA,18,14,18,14,32,0.5625,0.4375,-0.13796015525443,0.13796015525443,0.125,-0.27592031050886,Insensitive,0.16945890336070296,-0.398728418914212,-0.4482352474931847,-0.3686415830602525,-0.2398231874937962,Low Orthographic,Low Semantic,AB,78.0821917808,727.198630137,205,1,146,z,09/23/17 11:13:35,AB,subject-104.csv,z,900,NW,S,SIMP,feverime,114,106171,146,24,NW_S_SIMP,fever,ize,XuTaft,4,594,6.39,Small Family,High BF,5,8,2,Simple,-0.0011588171417921244,-0.5492894890704371,-0.4069442226540023,-0.3157966046715109
S104,Hampshire,NA,1,1,2017-09-23,Female,21,Not Hispanic or Latino,White,11,1-3 hours,Yes,english,No,62,18,77.5,42,8,84,41,25,16,NA,NA,18,14,18,14,32,0.5625,0.4375,-0.13796015525443,0.13796015525443,0.125,-0.27592031050886,Insensitive,0.16945890336070296,-0.398728418914212,-0.4482352474931847,-0.3686415830602525,-0.2398231874937962,Low Orthographic,Low Semantic,AB,79.0849673203,724.581699346,206,1,153,z,09/23/17 11:13:35,AB,subject-104.csv,z,827,NW,L,SIMP,dressody,121,110861,153,21,NW_L_SIMP,dress,ory,Graves,33,3885,8.26,Large Family,High BF,5,9,2,Simple,1.2163184963031555,1.7559319215869404,0.9374257221127275,-0.3157966046715109
S104,Hampshire,NA,1,1,2017-09-23,Female,21,Not Hispanic or Latino,White,11,1-3 hours,Yes,english,No,62,18,77.5,42,8,84,41,25,16,NA,NA,18,14,18,14,32,0.5625,0.4375,-0.13796015525443,0.13796015525443,0.125,-0.27592031050886,Insensitive,0.16945890336070296,-0.398728418914212,-0.4482352474931847,-0.3686415830602525,-0.2398231874937962,Low Orthographic,Low Semantic,AB,78.488372093,719.005813953,206,1,172,z,09/23/17 11:13:35,AB,subject-104.csv,z,644,NW,L,SIMP,validel,135,123669,172,23,NW_L_SIMP,valid,er,RastleFiller,13,618,6.43,Large Family,High BF,5,7,2,Simple,0.024883478332966134,0.16612405216805937,-0.39714024858095415,-0.3157966046715109
S104,Hampshire,NA,1,1,2017-09-23,Female,21,Not Hispanic or Latino,White,11,1-3 hours,Yes,english,No,62,18,77.5,42,8,84,41,25,16,NA,NA,18,14,18,14,32,0.5625,0.4375,-0.13796015525443,0.13796015525443,0.125,-0.27592031050886,Insensitive,0.16945890336070296,-0.398728418914212,-0.4482352474931847,-0.3686415830602525,-0.2398231874937962,Low Orthographic,Low Semantic,AB,79.1208791209,713.78021978,206,1,182,z,09/23/17 11:13:35,AB,subject-104.csv,z,775,NW,L,SIMP,smoothfil,144,129908,182,19,NW_L_SIMP,smooth,ful,Graves,12,1042,6.95,Large Family,High BF,6,9,2,Simple,0.3634333195048235,0.08663365869711533,-0.22393670662376988,-0.3157966046715109
S104,Hampshire,NA,1,1,2017-09-23,Female,21,Not Hispanic or Latino,White,11,1-3 hours,Yes,english,No,62,18,77.5,42,8,84,41,25,16,NA,NA,18,14,18,14,32,0.5625,0.4375,-0.13796015525443,0.13796015525443,0.125,-0.27592031050886,Insensitive,0.16945890336070296,-0.398728418914212,-0.4482352474931847,-0.3686415830602525,-0.2398231874937962,Low Orthographic,Low Semantic,AB,80.1047120419,711.371727749,205,1,191,z,09/23/17 11:13:35,AB,subject-104.csv,z,660,NW,S,SIMP,heirig,153,135872,191,3,NW_S_SIMP,heir,ic,Crepaldi,3,211,5.35,Small Family,High BF,4,6,2,Simple,-0.6782584994855063,-0.6287798825413812,-0.5633993089030626,-0.3157966046715109
S104,Hampshire,NA,1,1,2017-09-23,Female,21,Not Hispanic or Latino,White,11,1-3 hours,Yes,english,No,62,18,77.5,42,8,84,41,25,16,NA,NA,18,14,18,14,32,0.5625,0.4375,-0.13796015525443,0.13796015525443,0.125,-0.27592031050886,Insensitive,0.16945890336070296,-0.398728418914212,-0.4482352474931847,-0.3686415830602525,-0.2398231874937962,Low Orthographic,Low Semantic,AB,80.412371134,710.335051546,205,1,194,z,09/23/17 11:13:35,AB,subject-104.csv,z,655,NW,S,SIMP,yieldilt,156,137805,194,20,NW_S_SIMP,yield,ist,RastleFiller,4,613,6.42,Small Family,High BF,5,8,2,Simple,0.018372904464276713,-0.5492894890704371,-0.39918274317950586,-0.3157966046715109
S104,Hampshire,NA,1,1,2017-09-23,Female,21,Not Hispanic or Latino,White,11,1-3 hours,Yes,english,No,62,18,77.5,42,8,84,41,25,16,NA,NA,18,14,18,14,32,0.5625,0.4375,-0.13796015525443,0.13796015525443,0.125,-0.27592031050886,Insensitive,0.16945890336070296,-0.398728418914212,-0.4482352474931847,-0.3686415830602525,-0.2398231874937962,Low Orthographic,Low Semantic,AB,80.5128205128,709.933333333,206,1,195,z,09/23/17 11:13:35,AB,subject-104.csv,z,632,NW,L,SIMP,pooridy,157,138437,195,13,NW_L_SIMP,poor,ity,Crepaldi,11,4350,8.38,Large Family,High BF,4,7,2,Simple,1.2944453827274307,0.007143265226171272,1.1273777197780357,-0.3157966046715109
S104,Hampshire,NA,1,1,2017-09-23,Female,21,Not Hispanic or Latino,White,11,1-3 hours,Yes,english,No,62,18,77.5,42,8,84,41,25,16,NA,NA,18,14,18,14,32,0.5625,0.4375,-0.13796015525443,0.13796015525443,0.125,-0.27592031050886,Insensitive,0.16945890336070296,-0.398728418914212,-0.4482352474931847,-0.3686415830602525,-0.2398231874937962,Low Orthographic,Low Semantic,AB,79.8994974874,711.005025126,206,1,199,z,09/23/17 11:13:35,AB,subject-104.csv,z,669,NW,L,SIMP,bearilt,159,141490,199,25,NW_L_SIMP,bear,ist,RastleFiller,30,2626,7.87,Large Family,High BF,4,7,2,Simple,0.9624061154242629,1.5174607411741083,0.42312558219740903,-0.3157966046715109
S104,Hampshire,NA,1,1,2017-09-23,Female,21,Not Hispanic or Latino,White,11,1-3 hours,Yes,english,No,62,18,77.5,42,8,84,41,25,16,NA,NA,18,14,18,14,32,0.5625,0.4375,-0.13796015525443,0.13796015525443,0.125,-0.27592031050886,Insensitive,0.16945890336070296,-0.398728418914212,-0.4482352474931847,-0.3686415830602525,-0.2398231874937962,Low Orthographic,Low Semantic,AB,79.0476190476,713.228571429,205,1,210,z,09/23/17 11:13:35,AB,subject-104.csv,z,769,NW,S,SIMP,advertisela,166,149778,210,25,NW_S_SIMP,advertise,ly,XuTaft,4,4.76,1.56,Small Family,High BF,9,11,2,Simple,-3.145765995718849,-0.5492894890704371,-0.6476481261041231,-0.3157966046715109
S104,Hampshire,NA,1,1,2017-09-23,Female,21,Not Hispanic or Latino,White,11,1-3 hours,Yes,english,No,62,18,77.5,42,8,84,41,25,16,NA,NA,18,14,18,14,32,0.5625,0.4375,-0.13796015525443,0.13796015525443,0.125,-0.27592031050886,Insensitive,0.16945890336070296,-0.398728418914212,-0.4482352474931847,-0.3686415830602525,-0.2398231874937962,Low Orthographic,Low Semantic,AB,79.7235023041,715.442396313,206,1,217,z,09/23/17 11:13:35,AB,subject-104.csv,z,833,NW,L,SIMP,taxfil,173,155251,217,6,NW_L_SIMP,tax,ful,Crepaldi,14,2763,7.92,Large Family,High BF,3,6,2,Simple,0.9949589847677105,0.24561444563900342,0.47908993419772566,-0.3157966046715109
S104,Hampshire,NA,1,1,2017-09-23,Female,21,Not Hispanic or Latino,White,11,1-3 hours,Yes,english,No,62,18,77.5,42,8,84,41,25,16,NA,NA,18,14,18,14,32,0.5625,0.4375,-0.13796015525443,0.13796015525443,0.125,-0.27592031050886,Insensitive,0.16945890336070296,-0.398728418914212,-0.4482352474931847,-0.3686415830602525,-0.2398231874937962,Low Orthographic,Low Semantic,AB,79.3721973094,716.98206278,205,1,223,z,09/23/17 11:13:35,AB,subject-104.csv,z,694,NW,S,SIMP,schemenels,177,159887,223,15,NW_S_SIMP,scheme,ness,Graves,3,1619,7.39,Small Family,High BF,6,10,2,Simple,0.6498985697271638,-0.6287798825413812,0.011767170049096432,-0.3157966046715109
S104,Hampshire,NA,1,1,2017-09-23,Female,21,Not Hispanic or Latino,White,11,1-3 hours,Yes,english,No,62,18,77.5,42,8,84,41,25,16,NA,NA,18,14,18,14,32,0.5625,0.4375,-0.13796015525443,0.13796015525443,0.125,-0.27592031050886,Insensitive,0.16945890336070296,-0.398728418914212,-0.4482352474931847,-0.3686415830602525,-0.2398231874937962,Low Orthographic,Low Semantic,AB,79.4759825328,714.384279476,206,1,229,z,09/23/17 11:13:35,AB,subject-104.csv,z,644,NW,L,SIMP,criticange,182,163594,229,22,NW_L_SIMP,critic,ize,Rastle,11,2720,7.91,Large Family,High BF,6,10,2,Simple,0.9884484108990211,0.007143265226171272,0.46152448065018103,-0.3157966046715109
S104,Hampshire,NA,1,1,2017-09-23,Female,21,Not Hispanic or Latino,White,11,1-3 hours,Yes,english,No,62,18,77.5,42,8,84,41,25,16,NA,NA,18,14,18,14,32,0.5625,0.4375,-0.13796015525443,0.13796015525443,0.125,-0.27592031050886,Insensitive,0.16945890336070296,-0.398728418914212,-0.4482352474931847,-0.3686415830602525,-0.2398231874937962,Low Orthographic,Low Semantic,AB,79.5652173913,715.473913043,203,1,230,z,09/23/17 11:13:35,AB,subject-104.csv,z,965,NW,S,COMP,adoptish,183,164559,230,19,NW_S_SIMP,adopt,ish,Rastle,4,1205,7.09,Small Family,High BF,5,5,1,Simple,0.4545813536664771,-0.5492894890704371,-0.15735138271098442,-0.3157966046715109
S104,Hampshire,NA,1,1,2017-09-23,Female,21,Not Hispanic or Latino,White,11,1-3 hours,Yes,english,No,62,18,77.5,42,8,84,41,25,16,NA,NA,18,14,18,14,32,0.5625,0.4375,-0.13796015525443,0.13796015525443,0.125,-0.27592031050886,Insensitive,0.16945890336070296,-0.398728418914212,-0.4482352474931847,-0.3686415830602525,-0.2398231874937962,Low Orthographic,Low Semantic,AB,79.6536796537,716.134199134,205,1,231,z,09/23/17 11:13:35,AB,subject-104.csv,z,868,NW,S,SIMP,thrillange,184,165427,231,22,NW_S_SIMP,thrill,ance,XuTaft,4,307,5.73,Small Family,High BF,6,10,2,Simple,-0.4308566924753025,-0.5492894890704371,-0.52418341261087,-0.3157966046715109
S104,Hampshire,NA,1,1,2017-09-23,Female,21,Not Hispanic or Latino,White,11,1-3 hours,Yes,english,No,62,18,77.5,42,8,84,41,25,16,NA,NA,18,14,18,14,32,0.5625,0.4375,-0.13796015525443,0.13796015525443,0.125,-0.27592031050886,Insensitive,0.16945890336070296,-0.398728418914212,-0.4482352474931847,-0.3686415830602525,-0.2398231874937962,Low Orthographic,Low Semantic,AB,79.8387096774,708.923387097,206,1,248,z,09/23/17 11:13:35,AB,subject-104.csv,z,688,NW,L,SIMP,classoes,198,175813,248,18,NW_L_SIMP,class,ous,Crepaldi,29,6216,8.73,Large Family,High BF,5,8,2,Simple,1.5223154681315652,1.4379703477031642,1.8896367039575306,-0.3157966046715109
S104,Hampshire,NA,1,1,2017-09-23,Female,21,Not Hispanic or Latino,White,11,1-3 hours,Yes,english,No,62,18,77.5,42,8,84,41,25,16,NA,NA,18,14,18,14,32,0.5625,0.4375,-0.13796015525443,0.13796015525443,0.125,-0.27592031050886,Insensitive,0.16945890336070296,-0.398728418914212,-0.4482352474931847,-0.3686415830602525,-0.2398231874937962,Low Orthographic,Low Semantic,AB,79.9212598425,707.531496063,205,1,254,z,09/23/17 11:13:35,AB,subject-104.csv,z,876,NW,S,SIMP,winkidy,203,179713,254,21,NW_S_SIMP,wink,ity,RastleFiller,4,216,5.38,Small Family,High BF,4,7,2,Simple,-0.6587267778794375,-0.5492894890704371,-0.5613568143045109,-0.3157966046715109
S104,Hampshire,NA,1,1,2017-09-23,Female,21,Not Hispanic or Latino,White,11,1-3 hours,Yes,english,No,62,18,77.5,42,8,84,41,25,16,NA,NA,18,14,18,14,32,0.5625,0.4375,-0.13796015525443,0.13796015525443,0.125,-0.27592031050886,Insensitive,0.16945890336070296,-0.398728418914212,-0.4482352474931847,-0.3686415830602525,-0.2398231874937962,Low Orthographic,Low Semantic,AB,80.078125,706.66015625,205,1,256,z,09/23/17 11:13:35,AB,subject-104.csv,z,592,NW,S,SIMP,warnody,205,180905,256,12,NW_S_SIMP,warn,ory,Crepaldi,5,1697,7.44,Small Family,High BF,4,7,2,Simple,0.682451439070612,-0.469799095599493,0.04363008578650297,-0.3157966046715109
S104,Hampshire,NA,1,1,2017-09-23,Female,21,Not Hispanic or Latino,White,11,1-3 hours,Yes,english,No,62,18,77.5,42,8,84,41,25,16,NA,NA,18,14,18,14,32,0.5625,0.4375,-0.13796015525443,0.13796015525443,0.125,-0.27592031050886,Insensitive,0.16945890336070296,-0.398728418914212,-0.4482352474931847,-0.3686415830602525,-0.2398231874937962,Low Orthographic,Low Semantic,AB,79.69348659,705.24137931,205,1,261,z,09/23/17 11:13:35,AB,subject-104.csv,z,627,NW,S,SIMP,boltoes,208,184068,261,13,NW_S_SIMP,bolt,ous,Crepaldi,6,348,5.85,Small Family,High BF,4,7,2,Simple,-0.3527298060510283,-0.390308702128549,-0.507434956902746,-0.3157966046715109
S104,Hampshire,NA,1,1,2017-09-23,Female,21,Not Hispanic or Latino,White,11,1-3 hours,Yes,english,No,62,18,77.5,42,8,84,41,25,16,NA,NA,18,14,18,14,32,0.5625,0.4375,-0.13796015525443,0.13796015525443,0.125,-0.27592031050886,Insensitive,0.16945890336070296,-0.398728418914212,-0.4482352474931847,-0.3686415830602525,-0.2398231874937962,Low Orthographic,Low Semantic,AB,79.7709923664,705.244274809,205,1,262,z,09/23/17 11:13:35,AB,subject-104.csv,z,706,NW,S,SIMP,baskody,209,184774,262,10,NW_S_SIMP,bask,ory,Crepaldi,1,68,4.22,Small Family,High BF,4,7,2,Simple,-1.4139533466474263,-0.7877606694832693,-0.6218146544216413,-0.3157966046715109
S104,Hampshire,NA,1,1,2017-09-23,Female,21,Not Hispanic or Latino,White,11,1-3 hours,Yes,english,No,62,18,77.5,42,8,84,41,25,16,NA,NA,18,14,18,14,32,0.5625,0.4375,-0.13796015525443,0.13796015525443,0.125,-0.27592031050886,Insensitive,0.16945890336070296,-0.398728418914212,-0.4482352474931847,-0.3686415830602525,-0.2398231874937962,Low Orthographic,Low Semantic,AB,79.8479087452,704.737642586,205,1,263,z,09/23/17 11:13:35,AB,subject-104.csv,z,572,NW,S,SIMP,jawla,210,185346,263,7,NW_S_SIMP,jaw,ly,Crepaldi,7,414,6.03,Small Family,High BF,3,5,2,Simple,-0.23553947641461587,-0.31081830865760496,-0.4804740282018635,-0.3157966046715109
S104,Hampshire,NA,1,1,2017-09-23,Female,21,Not Hispanic or Latino,White,11,1-3 hours,Yes,english,No,62,18,77.5,42,8,84,41,25,16,NA,NA,18,14,18,14,32,0.5625,0.4375,-0.13796015525443,0.13796015525443,0.125,-0.27592031050886,Insensitive,0.16945890336070296,-0.398728418914212,-0.4482352474931847,-0.3686415830602525,-0.2398231874937962,Low Orthographic,Low Semantic,AB,80.0751879699,703.293233083,206,1,266,z,09/23/17 11:13:35,AB,subject-104.csv,z,597,NW,L,SIMP,longnels,213,187076,266,17,NW_L_SIMP,long,ness,Crepaldi,59,19076,9.86,Large Family,High BF,4,8,2,Simple,2.2580103152934847,3.8226821518314855,7.142932811432505,-0.3157966046715109
S104,Hampshire,NA,1,1,2017-09-23,Female,21,Not Hispanic or Latino,White,11,1-3 hours,Yes,english,No,62,18,77.5,42,8,84,41,25,16,NA,NA,18,14,18,14,32,0.5625,0.4375,-0.13796015525443,0.13796015525443,0.125,-0.27592031050886,Insensitive,0.16945890336070296,-0.398728418914212,-0.4482352474931847,-0.3686415830602525,-0.2398231874937962,Low Orthographic,Low Semantic,AB,80.5860805861,703.926739927,206,1,273,z,09/23/17 11:13:35,AB,subject-104.csv,z,731,NW,L,SIMP,wigith,220,192172,273,9,NW_L_SIMP,wig,ish,Crepaldi,8,262,5.57,Large Family,High BF,3,6,2,Simple,-0.5350258743743356,-0.23132791518666088,-0.5425658639978352,-0.3157966046715109
S104,Hampshire,NA,1,1,2017-09-23,Female,21,Not Hispanic or Latino,White,11,1-3 hours,Yes,english,No,62,18,77.5,42,8,84,41,25,16,NA,NA,18,14,18,14,32,0.5625,0.4375,-0.13796015525443,0.13796015525443,0.125,-0.27592031050886,Insensitive,0.16945890336070296,-0.398728418914212,-0.4482352474931847,-0.3686415830602525,-0.2398231874937962,Low Orthographic,Low Semantic,AB,80.5653710247,701.466431095,205,1,283,z,09/23/17 11:13:35,AB,subject-104.csv,z,621,NW,S,SIMP,aidig,228,198515,283,4,NW_S_SIMP,aid,ic,Crepaldi,4,1159,7.06,Small Family,High BF,3,5,2,Simple,0.43504963206040825,-0.5492894890704371,-0.17614233301766008,-0.3157966046715109
S104,Hampshire,NA,1,1,2017-09-23,Female,21,Not Hispanic or Latino,White,11,1-3 hours,Yes,english,No,62,18,77.5,42,8,84,41,25,16,NA,NA,18,14,18,14,32,0.5625,0.4375,-0.13796015525443,0.13796015525443,0.125,-0.27592031050886,Insensitive,0.16945890336070296,-0.398728418914212,-0.4482352474931847,-0.3686415830602525,-0.2398231874937962,Low Orthographic,Low Semantic,AB,80.701754386,701.494736842,205,1,285,z,09/23/17 11:13:35,AB,subject-104.csv,z,637,NW,S,SIMP,acremant,230,199926,285,16,NW_S_SIMP,acre,ment,Rastle,3,708,6.56,Small Family,High BF,4,8,2,Simple,0.10952093862593033,-0.6287798825413812,-0.3603753458070235,-0.3157966046715109
S104,Hampshire,NA,1,1,2017-09-23,Female,21,Not Hispanic or Latino,White,11,1-3 hours,Yes,english,No,62,18,77.5,42,8,84,41,25,16,NA,NA,18,14,18,14,32,0.5625,0.4375,-0.13796015525443,0.13796015525443,0.125,-0.27592031050886,Insensitive,0.16945890336070296,-0.398728418914212,-0.4482352474931847,-0.3686415830602525,-0.2398231874937962,Low Orthographic,Low Semantic,AB,80.9027777778,700.211805556,206,1,288,z,09/23/17 11:13:35,AB,subject-104.csv,z,642,NW,L,SIMP,earilt,233,201661,288,12,NW_L_SIMP,ear,ist,Crepaldi,16,1711,2.77,Large Family,High BF,3,6,2,Simple,-2.357986557607412,0.40459523258089153,0.04934907066244773,-0.3157966046715109
S104,Hampshire,NA,1,1,2017-09-23,Female,21,Not Hispanic or Latino,White,11,1-3 hours,Yes,english,No,62,18,77.5,42,8,84,41,25,16,NA,NA,18,14,18,14,32,0.5625,0.4375,-0.13796015525443,0.13796015525443,0.125,-0.27592031050886,Insensitive,0.16945890336070296,-0.398728418914212,-0.4482352474931847,-0.3686415830602525,-0.2398231874937962,Low Orthographic,Low Semantic,AB,81.228668942,699.754266212,205,1,293,z,09/23/17 11:13:35,AB,subject-104.csv,z,691,NW,S,SIMP,gumfil,238,205028,293,2,NW_S_SIMP,gum,ful,Crepaldi,2,57,4.04,Small Family,High BF,3,6,2,Simple,-1.5311436762838382,-0.7082702760123252,-0.626308142538455,-0.3157966046715109
S105,Hampshire,NA,1,1,2017-10-01,Female,18,Not Hispanic or Latino,White,11,1-3 hours,Yes,english,No,64,16,80,32,18,64,45,21,24,NA,NA,24,8,24,8,32,0.75,0.25,1.11116447716051,-1.11116447716051,0.5,2.22232895432101,Sensitive,-1.5764813130829065,-0.08161107989472187,0.31855712557691757,-0.8258044315481203,0.3296197259925228,High Orthographic,Low Semantic,BA,50,633.1875,204,1,16,z,10/01/17 12:34:15,BA,subject-105.csv,z,680,NW,L,SIMP,fellowoes,8,10131,16,17,NW_L_SIMP,fellow,ous,Crepaldi,11,1324,7.19,Large Family,High BF,6,9,1,Simple,0.5196870923533731,0.007143265226171272,-0.10874001126545393,0.32482444294119417
S105,Hampshire,NA,1,1,2017-10-01,Female,18,Not Hispanic or Latino,White,11,1-3 hours,Yes,english,No,64,16,80,32,18,64,45,21,24,NA,NA,24,8,24,8,32,0.75,0.25,1.11116447716051,-1.11116447716051,0.5,2.22232895432101,Sensitive,-1.5764813130829065,-0.08161107989472187,0.31855712557691757,-0.8258044315481203,0.3296197259925228,High Orthographic,Low Semantic,BA,67.6470588235,585.235294118,204,1,34,z,10/01/17 12:34:15,BA,subject-105.csv,z,637,NW,L,SIMP,flipody,23,19898,34,16,NW_L_SIMP,flip,ory,Crepaldi,10,184,5.21,Large Family,High BF,4,7,1,Simple,-0.7694065336471599,-0.07234712824477278,-0.5744287797352418,0.32482444294119417
S105,Hampshire,NA,1,1,2017-10-01,Female,18,Not Hispanic or Latino,White,11,1-3 hours,Yes,english,No,64,16,80,32,18,64,45,21,24,NA,NA,24,8,24,8,32,0.75,0.25,1.11116447716051,-1.11116447716051,0.5,2.22232895432101,Sensitive,-1.5764813130829065,-0.08161107989472187,0.31855712557691757,-0.8258044315481203,0.3296197259925228,High Orthographic,Low Semantic,BA,71.0526315789,574.657894737,203,1,38,z,10/01/17 12:34:15,BA,subject-105.csv,z,528,NW,S,SIMP,beerel,27,21837,38,5,NW_S_SIMP,beer,er,Crepaldi,2,853,6.75,Small Family,High BF,4,6,1,Simple,0.2332218421310322,-0.7082702760123252,-0.3011430024490242,0.32482444294119417
S105,Hampshire,NA,1,1,2017-10-01,Female,18,Not Hispanic or Latino,White,11,1-3 hours,Yes,english,No,64,16,80,32,18,64,45,21,24,NA,NA,24,8,24,8,32,0.75,0.25,1.11116447716051,-1.11116447716051,0.5,2.22232895432101,Sensitive,-1.5764813130829065,-0.08161107989472187,0.31855712557691757,-0.8258044315481203,0.3296197259925228,High Orthographic,Low Semantic,BA,74.4186046512,564.162790698,204,1,43,z,10/01/17 12:34:15,BA,subject-105.csv,z,566,NW,L,SIMP,flitenge,32,24259,43,3,NW_L_SIMP,flit,ence,Crepaldi,11,599,6.4,Large Family,High BF,4,8,1,Simple,0.0053517567268978735,0.007143265226171272,-0.4049017280554506,0.32482444294119417
S105,Hampshire,NA,1,1,2017-10-01,Female,18,Not Hispanic or Latino,White,11,1-3 hours,Yes,english,No,64,16,80,32,18,64,45,21,24,NA,NA,24,8,24,8,32,0.75,0.25,1.11116447716051,-1.11116447716051,0.5,2.22232895432101,Sensitive,-1.5764813130829065,-0.08161107989472187,0.31855712557691757,-0.8258044315481203,0.3296197259925228,High Orthographic,Low Semantic,BA,75,565.295454545,203,1,44,z,10/01/17 12:34:15,BA,subject-105.csv,z,614,NW,S,SIMP,yankody,33,24873,44,23,NW_S_SIMP,yank,ory,RastleFiller,2,51,3.93,Small Family,High BF,4,7,1,Simple,-1.6027599888394233,-0.7082702760123252,-0.6287591360567171,0.32482444294119417
S105,Hampshire,NA,1,1,2017-10-01,Female,18,Not Hispanic or Latino,White,11,1-3 hours,Yes,english,No,64,16,80,32,18,64,45,21,24,NA,NA,24,8,24,8,32,0.75,0.25,1.11116447716051,-1.11116447716051,0.5,2.22232895432101,Sensitive,-1.5764813130829065,-0.08161107989472187,0.31855712557691757,-0.8258044315481203,0.3296197259925228,High Orthographic,Low Semantic,BA,71.4285714286,569.612244898,204,1,49,z,10/01/17 12:34:15,BA,subject-105.csv,z,701,NW,L,SIMP,sheetel,35,27911,49,5,NW_L_SIMP,sheet,er,Crepaldi,14,1009,6.92,Large Family,High BF,5,7,1,Simple,0.3439015978987547,0.24561444563900342,-0.2374171709742111,0.32482444294119417
S105,Hampshire,NA,1,1,2017-10-01,Female,18,Not Hispanic or Latino,White,11,1-3 hours,Yes,english,No,64,16,80,32,18,64,45,21,24,NA,NA,24,8,24,8,32,0.75,0.25,1.11116447716051,-1.11116447716051,0.5,2.22232895432101,Sensitive,-1.5764813130829065,-0.08161107989472187,0.31855712557691757,-0.8258044315481203,0.3296197259925228,High Orthographic,Low Semantic,BA,72.7272727273,572.418181818,203,1,55,z,10/01/17 12:34:15,BA,subject-105.csv,z,645,NW,S,SIMP,treasonime,40,31483,55,14,NW_S_SIMP,treason,ize,Crepaldi,4,138,4.93,Small Family,High BF,7,10,1,Simple,-0.9517026019704677,-0.5492894890704371,-0.5932197300419174,0.32482444294119417
S105,Hampshire,NA,1,1,2017-10-01,Female,18,Not Hispanic or Latino,White,11,1-3 hours,Yes,english,No,64,16,80,32,18,64,45,21,24,NA,NA,24,8,24,8,32,0.75,0.25,1.11116447716051,-1.11116447716051,0.5,2.22232895432101,Sensitive,-1.5764813130829065,-0.08161107989472187,0.31855712557691757,-0.8258044315481203,0.3296197259925228,High Orthographic,Low Semantic,BA,75.4098360656,586.606557377,203,1,61,z,10/01/17 12:34:15,BA,subject-105.csv,z,879,NW,S,SIMP,branchel,46,35783,61,16,NW_S_SIMP,branch,er,Graves,3,1692,7.43,Small Family,High BF,6,8,1,Simple,0.675940865201922,-0.6287798825413812,0.041587591187951266,0.32482444294119417
S105,Hampshire,NA,1,1,2017-10-01,Female,18,Not Hispanic or Latino,White,11,1-3 hours,Yes,english,No,64,16,80,32,18,64,45,21,24,NA,NA,24,8,24,8,32,0.75,0.25,1.11116447716051,-1.11116447716051,0.5,2.22232895432101,Sensitive,-1.5764813130829065,-0.08161107989472187,0.31855712557691757,-0.8258044315481203,0.3296197259925228,High Orthographic,Low Semantic,BA,77.4647887324,592.478873239,204,1,71,z,10/01/17 12:34:15,BA,subject-105.csv,z,619,NW,L,SIMP,bindig,55,42066,71,22,NW_L_SIMP,bind,ic,RastleFiller,14,451,6.11,Large Family,High BF,4,6,1,Simple,-0.18345488546509936,0.24561444563900342,-0.46535956817258095,0.32482444294119417
S105,Hampshire,NA,1,1,2017-10-01,Female,18,Not Hispanic or Latino,White,11,1-3 hours,Yes,english,No,64,16,80,32,18,64,45,21,24,NA,NA,24,8,24,8,32,0.75,0.25,1.11116447716051,-1.11116447716051,0.5,2.22232895432101,Sensitive,-1.5764813130829065,-0.08161107989472187,0.31855712557691757,-0.8258044315481203,0.3296197259925228,High Orthographic,Low Semantic,BA,75.3086419753,599.185185185,204,1,81,z,10/01/17 12:34:15,BA,subject-105.csv,z,913,NW,L,SIMP,mouthime,61,48534,81,11,NW_L_SIMP,mouth,ize,Crepaldi,18,2866,7.96,Large Family,High BF,5,8,1,Simple,1.0210012802424688,0.5635760195227796,0.5211653229278908,0.32482444294119417
S105,Hampshire,NA,1,1,2017-10-01,Female,18,Not Hispanic or Latino,White,11,1-3 hours,Yes,english,No,64,16,80,32,18,64,45,21,24,NA,NA,24,8,24,8,32,0.75,0.25,1.11116447716051,-1.11116447716051,0.5,2.22232895432101,Sensitive,-1.5764813130829065,-0.08161107989472187,0.31855712557691757,-0.8258044315481203,0.3296197259925228,High Orthographic,Low Semantic,BA,75.8241758242,602.593406593,203,1,91,z,10/01/17 12:34:15,BA,subject-105.csv,z,654,NW,S,SIMP,aridilm,69,54836,91,9,NW_S_SIMP,arid,ish,Crepaldi,3,100,4.61,Small Family,High BF,4,7,1,Simple,-1.160040965768533,-0.6287798825413812,-0.6087426889909103,0.32482444294119417
S105,Hampshire,NA,1,1,2017-10-01,Female,18,Not Hispanic or Latino,White,11,1-3 hours,Yes,english,No,64,16,80,32,18,64,45,21,24,NA,NA,24,8,24,8,32,0.75,0.25,1.11116447716051,-1.11116447716051,0.5,2.22232895432101,Sensitive,-1.5764813130829065,-0.08161107989472187,0.31855712557691757,-0.8258044315481203,0.3296197259925228,High Orthographic,Low Semantic,BA,76.0416666667,605.78125,203,1,96,z,10/01/17 12:34:15,BA,subject-105.csv,z,588,NW,S,SIMP,pillime,73,58155,96,13,NW_S_SIMP,pill,ize,Crepaldi,5,537,6.29,Small Family,High BF,4,7,1,Simple,-0.06626455582868748,-0.469799095599493,-0.4302286610774917,0.32482444294119417
S105,Hampshire,NA,1,1,2017-10-01,Female,18,Not Hispanic or Latino,White,11,1-3 hours,Yes,english,No,64,16,80,32,18,64,45,21,24,NA,NA,24,8,24,8,32,0.75,0.25,1.11116447716051,-1.11116447716051,0.5,2.22232895432101,Sensitive,-1.5764813130829065,-0.08161107989472187,0.31855712557691757,-0.8258044315481203,0.3296197259925228,High Orthographic,Low Semantic,BA,76.5306122449,606.887755102,203,1,98,z,10/01/17 12:34:15,BA,subject-105.csv,z,643,NW,S,SIMP,figel,75,59475,98,4,NW_S_SIMP,fig,er,Crepaldi,3,196,5.28,Small Family,High BF,3,5,1,Simple,-0.7238325165663327,-0.6287798825413812,-0.5695267926987178,0.32482444294119417
S105,Hampshire,NA,1,1,2017-10-01,Female,18,Not Hispanic or Latino,White,11,1-3 hours,Yes,english,No,64,16,80,32,18,64,45,21,24,NA,NA,24,8,24,8,32,0.75,0.25,1.11116447716051,-1.11116447716051,0.5,2.22232895432101,Sensitive,-1.5764813130829065,-0.08161107989472187,0.31855712557691757,-0.8258044315481203,0.3296197259925228,High Orthographic,Low Semantic,BA,75.4545454545,614.463636364,203,1,110,z,10/01/17 12:34:15,BA,subject-105.csv,z,620,NW,S,SIMP,dumbidy,83,67591,110,12,NW_S_SIMP,dumb,ity,Crepaldi,6,244,5.5,Small Family,High BF,4,7,1,Simple,-0.5805998914551627,-0.390308702128549,-0.5499188445526214,0.32482444294119417
S105,Hampshire,NA,1,1,2017-10-01,Female,18,Not Hispanic or Latino,White,11,1-3 hours,Yes,english,No,64,16,80,32,18,64,45,21,24,NA,NA,24,8,24,8,32,0.75,0.25,1.11116447716051,-1.11116447716051,0.5,2.22232895432101,Sensitive,-1.5764813130829065,-0.08161107989472187,0.31855712557691757,-0.8258044315481203,0.3296197259925228,High Orthographic,Low Semantic,BA,77.1186440678,611.279661017,203,1,118,z,10/01/17 12:34:15,BA,subject-105.csv,z,676,NW,S,SIMP,weldig,91,72131,118,21,NW_S_SIMP,weld,ic,RastleFiller,3,129,4.86,Small Family,High BF,4,6,1,Simple,-0.9972766190512942,-0.6287798825413812,-0.5968962203193106,0.32482444294119417
S105,Hampshire,NA,1,1,2017-10-01,Female,18,Not Hispanic or Latino,White,11,1-3 hours,Yes,english,No,64,16,80,32,18,64,45,21,24,NA,NA,24,8,24,8,32,0.75,0.25,1.11116447716051,-1.11116447716051,0.5,2.22232895432101,Sensitive,-1.5764813130829065,-0.08161107989472187,0.31855712557691757,-0.8258044315481203,0.3296197259925228,High Orthographic,Low Semantic,BA,77.6859504132,609.628099174,203,1,121,z,10/01/17 12:34:15,BA,subject-105.csv,z,577,NW,S,SIMP,debtith,94,73765,121,22,NW_S_SIMP,debt,ish,RastleFiller,4,656,6.49,Small Family,High BF,4,7,1,Simple,0.06394692154510381,-0.5492894890704371,-0.38161728963196123,0.32482444294119417
S105,Hampshire,NA,1,1,2017-10-01,Female,18,Not Hispanic or Latino,White,11,1-3 hours,Yes,english,No,64,16,80,32,18,64,45,21,24,NA,NA,24,8,24,8,32,0.75,0.25,1.11116447716051,-1.11116447716051,0.5,2.22232895432101,Sensitive,-1.5764813130829065,-0.08161107989472187,0.31855712557691757,-0.8258044315481203,0.3296197259925228,High Orthographic,Low Semantic,BA,77.868852459,610.393442623,203,1,122,z,10/01/17 12:34:15,BA,subject-105.csv,z,703,NW,S,SIMP,antilm,95,74468,122,8,NW_S_SIMP,ant,ish,Crepaldi,1,206,5.33,Small Family,High BF,3,6,1,Simple,-0.6912796472228852,-0.7877606694832693,-0.5654418035016143,0.32482444294119417
S105,Hampshire,NA,1,1,2017-10-01,Female,18,Not Hispanic or Latino,White,11,1-3 hours,Yes,english,No,64,16,80,32,18,64,45,21,24,NA,NA,24,8,24,8,32,0.75,0.25,1.11116447716051,-1.11116447716051,0.5,2.22232895432101,Sensitive,-1.5764813130829065,-0.08161107989472187,0.31855712557691757,-0.8258044315481203,0.3296197259925228,High Orthographic,Low Semantic,BA,79.8507462687,611.350746269,203,1,134,z,10/01/17 12:34:15,BA,subject-105.csv,z,530,NW,S,SIMP,fanfil,107,81921,134,6,NW_S_SIMP,fan,ful,Crepaldi,4,473,6.16,Small Family,High BF,3,6,1,Simple,-0.1509020161216517,-0.5492894890704371,-0.45637259193895346,0.32482444294119417
S105,Hampshire,NA,1,1,2017-10-01,Female,18,Not Hispanic or Latino,White,11,1-3 hours,Yes,english,No,64,16,80,32,18,64,45,21,24,NA,NA,24,8,24,8,32,0.75,0.25,1.11116447716051,-1.11116447716051,0.5,2.22232895432101,Sensitive,-1.5764813130829065,-0.08161107989472187,0.31855712557691757,-0.8258044315481203,0.3296197259925228,High Orthographic,Low Semantic,BA,79.4326241135,611.113475177,203,1,141,z,10/01/17 12:34:15,BA,subject-105.csv,z,604,NW,S,SIMP,humidoes,112,86167,141,25,NW_S_SIMP,humid,ous,XuTaft,4,92,4.52,Small Family,High BF,5,8,1,Simple,-1.2186361305867397,-0.5492894890704371,-0.6120106803485931,0.32482444294119417
S105,Hampshire,NA,1,1,2017-10-01,Female,18,Not Hispanic or Latino,White,11,1-3 hours,Yes,english,No,64,16,80,32,18,64,45,21,24,NA,NA,24,8,24,8,32,0.75,0.25,1.11116447716051,-1.11116447716051,0.5,2.22232895432101,Sensitive,-1.5764813130829065,-0.08161107989472187,0.31855712557691757,-0.8258044315481203,0.3296197259925228,High Orthographic,Low Semantic,BA,79.5918367347,610.204081633,204,1,147,z,10/01/17 12:34:15,BA,subject-105.csv,z,498,NW,L,SIMP,pitchody,117,89700,147,25,NW_L_SIMP,pitch,ory,RastleFiller,10,610,6.41,Large Family,High BF,5,8,1,Simple,0.011862330595587294,-0.07234712824477278,-0.40040823993863683,0.32482444294119417
S105,Hampshire,NA,1,1,2017-10-01,Female,18,Not Hispanic or Latino,White,11,1-3 hours,Yes,english,No,64,16,80,32,18,64,45,21,24,NA,NA,24,8,24,8,32,0.75,0.25,1.11116447716051,-1.11116447716051,0.5,2.22232895432101,Sensitive,-1.5764813130829065,-0.08161107989472187,0.31855712557691757,-0.8258044315481203,0.3296197259925228,High Orthographic,Low Semantic,BA,80.6451612903,608.180645161,204,1,155,z,10/01/17 12:34:15,BA,subject-105.csv,z,597,NW,L,SIMP,coldidy,125,94268,155,10,NW_L_SIMP,cold,ity,Crepaldi,14,3585,8.18,Large Family,High BF,4,7,1,Simple,1.164233905353639,0.24561444563900342,0.8148760461996253,0.32482444294119417
S105,Hampshire,NA,1,1,2017-10-01,Female,18,Not Hispanic or Latino,White,11,1-3 hours,Yes,english,No,64,16,80,32,18,64,45,21,24,NA,NA,24,8,24,8,32,0.75,0.25,1.11116447716051,-1.11116447716051,0.5,2.22232895432101,Sensitive,-1.5764813130829065,-0.08161107989472187,0.31855712557691757,-0.8258044315481203,0.3296197259925228,High Orthographic,Low Semantic,BA,80.769230769200007,608.846153846,203,1,156,z,10/01/17 12:34:15,BA,subject-105.csv,z,712,NW,S,SIMP,altarig,126,94980,156,7,NW_S_SIMP,altar,ic,Crepaldi,2,403,6,Small Family,High BF,5,7,1,Simple,-0.25507119802068473,-0.7082702760123252,-0.4849675163186773,0.32482444294119417
S105,Hampshire,NA,1,1,2017-10-01,Female,18,Not Hispanic or Latino,White,11,1-3 hours,Yes,english,No,64,16,80,32,18,64,45,21,24,NA,NA,24,8,24,8,32,0.75,0.25,1.11116447716051,-1.11116447716051,0.5,2.22232895432101,Sensitive,-1.5764813130829065,-0.08161107989472187,0.31855712557691757,-0.8258044315481203,0.3296197259925228,High Orthographic,Low Semantic,BA,81.6568047337,603.99408284,204,1,169,z,10/01/17 12:34:15,BA,subject-105.csv,z,626,NW,L,SIMP,gasfil,138,102075,169,6,NW_L_SIMP,gas,ful,Crepaldi,33,1501,7.31,Large Family,High BF,3,6,1,Simple,0.5978139787776473,1.7559319215869404,-0.036435702476723716,0.32482444294119417
S105,Hampshire,NA,1,1,2017-10-01,Female,18,Not Hispanic or Latino,White,11,1-3 hours,Yes,english,No,64,16,80,32,18,64,45,21,24,NA,NA,24,8,24,8,32,0.75,0.25,1.11116447716051,-1.11116447716051,0.5,2.22232895432101,Sensitive,-1.5764813130829065,-0.08161107989472187,0.31855712557691757,-0.8258044315481203,0.3296197259925228,High Orthographic,Low Semantic,BA,81.5028901734,604.36416185,204,1,173,z,10/01/17 12:34:15,BA,subject-105.csv,z,622,NW,L,SIMP,employnels,141,104555,173,21,NW_L_SIMP,employ,ness,Rastle,12,4622,8.44,Large Family,High BF,6,10,1,Simple,1.3335088259395673,0.08663365869711533,1.2384894259392483,0.32482444294119417
S105,Hampshire,NA,1,1,2017-10-01,Female,18,Not Hispanic or Latino,White,11,1-3 hours,Yes,english,No,64,16,80,32,18,64,45,21,24,NA,NA,24,8,24,8,32,0.75,0.25,1.11116447716051,-1.11116447716051,0.5,2.22232895432101,Sensitive,-1.5764813130829065,-0.08161107989472187,0.31855712557691757,-0.8258044315481203,0.3296197259925228,High Orthographic,Low Semantic,BA,81.6091954023,604.33908046,204,1,174,z,10/01/17 12:34:15,BA,subject-105.csv,z,600,NW,L,SIMP,freenels,142,105155,174,15,NW_L_SIMP,free,ness,Crepaldi,88,7277,8.89,Large Family,High BF,4,8,1,Simple,1.6264846500305983,6.127903562488863,2.3230540577702015,0.32482444294119417
S105,Hampshire,NA,1,1,2017-10-01,Female,18,Not Hispanic or Latino,White,11,1-3 hours,Yes,english,No,64,16,80,32,18,64,45,21,24,NA,NA,24,8,24,8,32,0.75,0.25,1.11116447716051,-1.11116447716051,0.5,2.22232895432101,Sensitive,-1.5764813130829065,-0.08161107989472187,0.31855712557691757,-0.8258044315481203,0.3296197259925228,High Orthographic,Low Semantic,BA,82.4175824176,603.412087912,204,1,182,z,10/01/17 12:34:15,BA,subject-105.csv,z,622,NW,L,SIMP,ripenge,150,109821,182,4,NW_L_SIMP,rip,ence,Crepaldi,8,471,6.15,Large Family,High BF,3,7,1,Simple,-0.1574125899903411,-0.23132791518666088,-0.45718958977837415,0.32482444294119417
S105,Hampshire,NA,1,1,2017-10-01,Female,18,Not Hispanic or Latino,White,11,1-3 hours,Yes,english,No,64,16,80,32,18,64,45,21,24,NA,NA,24,8,24,8,32,0.75,0.25,1.11116447716051,-1.11116447716051,0.5,2.22232895432101,Sensitive,-1.5764813130829065,-0.08161107989472187,0.31855712557691757,-0.8258044315481203,0.3296197259925228,High Orthographic,Low Semantic,BA,82.5136612022,602.928961749,204,1,183,z,10/01/17 12:34:15,BA,subject-105.csv,z,515,NW,L,SIMP,illilt,151,110336,183,9,NW_L_SIMP,ill,ist,Crepaldi,27,2375,7.77,Large Family,High BF,3,6,1,Simple,0.897300376737367,1.278989560761276,0.32059235335011366,0.32482444294119417
S105,Hampshire,NA,1,1,2017-10-01,Female,18,Not Hispanic or Latino,White,11,1-3 hours,Yes,english,No,64,16,80,32,18,64,45,21,24,NA,NA,24,8,24,8,32,0.75,0.25,1.11116447716051,-1.11116447716051,0.5,2.22232895432101,Sensitive,-1.5764813130829065,-0.08161107989472187,0.31855712557691757,-0.8258044315481203,0.3296197259925228,High Orthographic,Low Semantic,BA,82.8877005348,602.764705882,204,1,187,z,10/01/17 12:34:15,BA,subject-105.csv,z,587,NW,L,SIMP,stirange,155,112717,187,1,NW_L_SIMP,stir,ance,Crepaldi,12,841,6.73,Large Family,High BF,4,8,1,Simple,0.22020069439365336,0.08663365869711533,-0.30604498948554826,0.32482444294119417
S105,Hampshire,NA,1,1,2017-10-01,Female,18,Not Hispanic or Latino,White,11,1-3 hours,Yes,english,No,64,16,80,32,18,64,45,21,24,NA,NA,24,8,24,8,32,0.75,0.25,1.11116447716051,-1.11116447716051,0.5,2.22232895432101,Sensitive,-1.5764813130829065,-0.08161107989472187,0.31855712557691757,-0.8258044315481203,0.3296197259925228,High Orthographic,Low Semantic,BA,84.236453202,601.418719212,203,1,203,z,10/01/17 12:34:15,BA,subject-105.csv,z,572,NW,S,SIMP,lidady,171,122088,203,3,NW_S_SIMP,lid,ary,Crepaldi,3,523,6.26,Small Family,High BF,3,6,1,Simple,-0.08579627743475632,-0.6287798825413812,-0.43594764595343644,0.32482444294119417
S105,Hampshire,NA,1,1,2017-10-01,Female,18,Not Hispanic or Latino,White,11,1-3 hours,Yes,english,No,64,16,80,32,18,64,45,21,24,NA,NA,24,8,24,8,32,0.75,0.25,1.11116447716051,-1.11116447716051,0.5,2.22232895432101,Sensitive,-1.5764813130829065,-0.08161107989472187,0.31855712557691757,-0.8258044315481203,0.3296197259925228,High Orthographic,Low Semantic,BA,83.9805825243,600.024271845,204,1,206,z,10/01/17 12:34:15,BA,subject-105.csv,z,507,NW,L,SIMP,breakidy,173,123605,206,23,NW_L_SIMP,break,ity,RastleFiller,43,6366,8.76,Large Family,High BF,5,8,1,Simple,1.5418471897376334,2.5508358562963807,1.9509115419140817,0.32482444294119417
S105,Hampshire,NA,1,1,2017-10-01,Female,18,Not Hispanic or Latino,White,11,1-3 hours,Yes,english,No,64,16,80,32,18,64,45,21,24,NA,NA,24,8,24,8,32,0.75,0.25,1.11116447716051,-1.11116447716051,0.5,2.22232895432101,Sensitive,-1.5764813130829065,-0.08161107989472187,0.31855712557691757,-0.8258044315481203,0.3296197259925228,High Orthographic,Low Semantic,BA,84.5794392523,599.518691589,204,1,214,z,10/01/17 12:34:15,BA,subject-105.csv,z,502,NW,L,SIMP,mudla,181,128297,214,12,NW_L_SIMP,mud,ly,Crepaldi,16,912,6.82,Large Family,High BF,3,5,1,Simple,0.2787958592118593,0.40459523258089153,-0.2770415661861141,0.32482444294119417
S105,Hampshire,NA,1,1,2017-10-01,Female,18,Not Hispanic or Latino,White,11,1-3 hours,Yes,english,No,64,16,80,32,18,64,45,21,24,NA,NA,24,8,24,8,32,0.75,0.25,1.11116447716051,-1.11116447716051,0.5,2.22232895432101,Sensitive,-1.5764813130829065,-0.08161107989472187,0.31855712557691757,-0.8258044315481203,0.3296197259925228,High Orthographic,Low Semantic,BA,85,597.359090909,203,1,220,z,10/01/17 12:34:15,BA,subject-105.csv,z,566,NW,S,SIMP,truenels,187,131419,220,15,NW_S_SIMP,TRUE,ness,Crepaldi,6,6,1.79,Small Family,High BF,4,8,1,Simple,-2.996022796738989,-0.390308702128549,-0.6471415874436823,0.32482444294119417
S105,Hampshire,NA,1,1,2017-10-01,Female,18,Not Hispanic or Latino,White,11,1-3 hours,Yes,english,No,64,16,80,32,18,64,45,21,24,NA,NA,24,8,24,8,32,0.75,0.25,1.11116447716051,-1.11116447716051,0.5,2.22232895432101,Sensitive,-1.5764813130829065,-0.08161107989472187,0.31855712557691757,-0.8258044315481203,0.3296197259925228,High Orthographic,Low Semantic,BA,85.1351351351,596.675675676,204,1,222,z,10/01/17 12:34:15,BA,subject-105.csv,z,570,NW,L,SIMP,inkilm,189,132462,222,8,NW_L_SIMP,ink,ish,Crepaldi,12,290,5.67,Large Family,High BF,3,6,1,Simple,-0.4699201356874402,0.08663365869711533,-0.5311278942459458,0.32482444294119417
S105,Hampshire,NA,1,1,2017-10-01,Female,18,Not Hispanic or Latino,White,11,1-3 hours,Yes,english,No,64,16,80,32,18,64,45,21,24,NA,NA,24,8,24,8,32,0.75,0.25,1.11116447716051,-1.11116447716051,0.5,2.22232895432101,Sensitive,-1.5764813130829065,-0.08161107989472187,0.31855712557691757,-0.8258044315481203,0.3296197259925228,High Orthographic,Low Semantic,BA,85.652173913,593.334782609,203,1,230,z,10/01/17 12:34:15,BA,subject-105.csv,z,480,NW,S,SIMP,ejectenge,197,136467,230,20,NW_S_SIMP,eject,ence,RastleFiller,5,66,4.19,Small Family,High BF,5,9,1,Simple,-1.4334850682534945,-0.469799095599493,-0.622631652261062,0.32482444294119417
S105,Hampshire,NA,1,1,2017-10-01,Female,18,Not Hispanic or Latino,White,11,1-3 hours,Yes,english,No,64,16,80,32,18,64,45,21,24,NA,NA,24,8,24,8,32,0.75,0.25,1.11116447716051,-1.11116447716051,0.5,2.22232895432101,Sensitive,-1.5764813130829065,-0.08161107989472187,0.31855712557691757,-0.8258044315481203,0.3296197259925228,High Orthographic,Low Semantic,BA,85.7142857143,590.390756303,203,1,238,z,10/01/17 12:34:15,BA,subject-105.csv,z,538,NW,S,SIMP,fiendilm,204,140513,238,24,NW_S_SIMP,fiend,ism,XuTaft,4,53,3.97,Small Family,High BF,5,8,1,Simple,-1.576717693364665,-0.5492894890704371,-0.6279421382172964,0.32482444294119417
S105,Hampshire,NA,1,1,2017-10-01,Female,18,Not Hispanic or Latino,White,11,1-3 hours,Yes,english,No,64,16,80,32,18,64,45,21,24,NA,NA,24,8,24,8,32,0.75,0.25,1.11116447716051,-1.11116447716051,0.5,2.22232895432101,Sensitive,-1.5764813130829065,-0.08161107989472187,0.31855712557691757,-0.8258044315481203,0.3296197259925228,High Orthographic,Low Semantic,BA,85.8333333333,591.4375,203,1,240,z,10/01/17 12:34:15,BA,subject-105.csv,z,879,NW,S,SIMP,elmilt,206,141945,240,10,NW_S_SIMP,elm,ist,Crepaldi,2,175,5.16,Small Family,High BF,3,6,1,Simple,-0.8019594029906075,-0.7082702760123252,-0.5781052700126349,0.32482444294119417
S105,Hampshire,NA,1,1,2017-10-01,Female,18,Not Hispanic or Latino,White,11,1-3 hours,Yes,english,No,64,16,80,32,18,64,45,21,24,NA,NA,24,8,24,8,32,0.75,0.25,1.11116447716051,-1.11116447716051,0.5,2.22232895432101,Sensitive,-1.5764813130829065,-0.08161107989472187,0.31855712557691757,-0.8258044315481203,0.3296197259925228,High Orthographic,Low Semantic,BA,86.0655737705,590.803278689,203,1,244,z,10/01/17 12:34:15,BA,subject-105.csv,z,620,NW,S,SIMP,princemant,210,144156,244,17,NW_S_SIMP,prince,ment,Graves,4,910,6.81,Small Family,High BF,6,10,1,Simple,0.2722852853431693,-0.5492894890704371,-0.27785856402553477,0.32482444294119417
S105,Hampshire,NA,1,1,2017-10-01,Female,18,Not Hispanic or Latino,White,11,1-3 hours,Yes,english,No,64,16,80,32,18,64,45,21,24,NA,NA,24,8,24,8,32,0.75,0.25,1.11116447716051,-1.11116447716051,0.5,2.22232895432101,Sensitive,-1.5764813130829065,-0.08161107989472187,0.31855712557691757,-0.8258044315481203,0.3296197259925228,High Orthographic,Low Semantic,BA,86.1788617886,590.699186992,203,1,246,z,10/01/17 12:34:15,BA,subject-105.csv,z,656,NW,S,SIMP,adoptish,212,145312,246,19,NW_S_SIMP,adopt,ish,Rastle,4,1205,7.09,Small Family,High BF,5,5,1,Simple,0.4545813536664771,-0.5492894890704371,-0.15735138271098442,0.32482444294119417
S105,Hampshire,NA,1,1,2017-10-01,Female,18,Not Hispanic or Latino,White,11,1-3 hours,Yes,english,No,64,16,80,32,18,64,45,21,24,NA,NA,24,8,24,8,32,0.75,0.25,1.11116447716051,-1.11116447716051,0.5,2.22232895432101,Sensitive,-1.5764813130829065,-0.08161107989472187,0.31855712557691757,-0.8258044315481203,0.3296197259925228,High Orthographic,Low Semantic,BA,86.3453815261,589.497991968,204,1,249,z,10/01/17 12:34:15,BA,subject-105.csv,z,513,NW,L,SIMP,angelith,215,146785,249,7,NW_L_SIMP,angel,ish,Crepaldi,17,652,6.48,Large Family,High BF,5,8,1,Simple,0.05743634767641439,0.4840856260518356,-0.38325128531080255,0.32482444294119417
S105,Hampshire,NA,1,1,2017-10-01,Female,18,Not Hispanic or Latino,White,11,1-3 hours,Yes,english,No,64,16,80,32,18,64,45,21,24,NA,NA,24,8,24,8,32,0.75,0.25,1.11116447716051,-1.11116447716051,0.5,2.22232895432101,Sensitive,-1.5764813130829065,-0.08161107989472187,0.31855712557691757,-0.8258044315481203,0.3296197259925228,High Orthographic,Low Semantic,BA,86.328125,590.18359375,203,1,256,z,10/01/17 12:34:15,BA,subject-105.csv,z,809,NW,S,SIMP,curtidy,221,151087,256,11,NW_S_SIMP,curt,ity,Crepaldi,3,88,4.48,Small Family,High BF,4,7,1,Simple,-1.2446784260614974,-0.6287798825413812,-0.6136446760274344,0.32482444294119417
S105,Hampshire,NA,1,1,2017-10-01,Female,18,Not Hispanic or Latino,White,11,1-3 hours,Yes,english,No,64,16,80,32,18,64,45,21,24,NA,NA,24,8,24,8,32,0.75,0.25,1.11116447716051,-1.11116447716051,0.5,2.22232895432101,Sensitive,-1.5764813130829065,-0.08161107989472187,0.31855712557691757,-0.8258044315481203,0.3296197259925228,High Orthographic,Low Semantic,BA,85.8695652174,591.235507246,203,1,276,z,10/01/17 12:34:15,BA,subject-105.csv,z,873,NW,S,SIMP,heightenge,237,163181,276,18,NW_S_SIMP,height,ence,Rastle,2,912,6.82,Small Family,High BF,6,10,1,Simple,0.2787958592118593,-0.7082702760123252,-0.2770415661861141,0.32482444294119417
S105,Hampshire,NA,1,1,2017-10-01,Female,18,Not Hispanic or Latino,White,11,1-3 hours,Yes,english,No,64,16,80,32,18,64,45,21,24,NA,NA,24,8,24,8,32,0.75,0.25,1.11116447716051,-1.11116447716051,0.5,2.22232895432101,Sensitive,-1.5764813130829065,-0.08161107989472187,0.31855712557691757,-0.8258044315481203,0.3296197259925228,High Orthographic,Low Semantic,BA,86.0714285714,591.1,204,1,280,z,10/01/17 12:34:15,BA,subject-105.csv,z,540,NW,L,SIMP,passmant,241,165508,280,14,NW_L_SIMP,pass,ment,Crepaldi,43,10035,9.21,Large Family,High BF,4,8,1,Simple,1.8348230138286643,2.5508358562963807,3.4496940783313197,0.32482444294119417
S105,Hampshire,NA,1,1,2017-10-01,Female,18,Not Hispanic or Latino,White,11,1-3 hours,Yes,english,No,64,16,80,32,18,64,45,21,24,NA,NA,24,8,24,8,32,0.75,0.25,1.11116447716051,-1.11116447716051,0.5,2.22232895432101,Sensitive,-1.5764813130829065,-0.08161107989472187,0.31855712557691757,-0.8258044315481203,0.3296197259925228,High Orthographic,Low Semantic,BA,86.2676056338,591.105633803,204,1,284,z,10/01/17 12:34:15,BA,subject-105.csv,z,576,NW,L,SIMP,tripady,245,167874,284,2,NW_L_SIMP,trip,ary,Crepaldi,9,1382,7.23,Large Family,High BF,4,7,1,Simple,0.5457293878281313,-0.15183752171571682,-0.0850470739222542,0.32482444294119417
S105,Hampshire,NA,1,1,2017-10-01,Female,18,Not Hispanic or Latino,White,11,1-3 hours,Yes,english,No,64,16,80,32,18,64,45,21,24,NA,NA,24,8,24,8,32,0.75,0.25,1.11116447716051,-1.11116447716051,0.5,2.22232895432101,Sensitive,-1.5764813130829065,-0.08161107989472187,0.31855712557691757,-0.8258044315481203,0.3296197259925228,High Orthographic,Low Semantic,BA,85.6655290102,592.433447099,203,1,293,z,10/01/17 12:34:15,BA,subject-105.csv,z,567,NW,S,SIMP,meltange,251,173583,293,1,NW_S_SIMP,melt,ance,Crepaldi,5,429,6.06,Small Family,High BF,4,8,1,Simple,-0.21600775480854761,-0.469799095599493,-0.47434654440620844,0.32482444294119417
S105,Hampshire,NA,1,1,2017-10-01,Female,18,Not Hispanic or Latino,White,11,1-3 hours,Yes,english,No,64,16,80,32,18,64,45,21,24,NA,NA,24,8,24,8,32,0.75,0.25,1.11116447716051,-1.11116447716051,0.5,2.22232895432101,Sensitive,-1.5764813130829065,-0.08161107989472187,0.31855712557691757,-0.8258044315481203,0.3296197259925228,High Orthographic,Low Semantic,BA,86,592.753333333,204,1,300,z,10/01/17 12:34:15,BA,subject-105.csv,z,710,NW,L,SIMP,agreela,258,177826,300,24,NW_L_SIMP,agree,ly,RastleFiller,9,4745,8.46,Large Family,High BF,5,7,1,Simple,1.3465299736769474,-0.15183752171571682,1.2887347930636202,0.32482444294119417
S106,Hampshire,NA,1,1,2017-10-02,Female,20,Not Hispanic or Latino,White,10,1-3 hours,Yes,English,No,77,3,96.25,44,6,88,42,24,18,NA,NA,26,6,26,6,32,0.8125,0.1875,1.52753935463215,-1.52753935463215,0.625,3.0550787092643,Sensitive,0.5186469466494249,1.979651623731964,-0.25653715422565915,1.1434640633960211,1.660946387091918,High Orthographic,High Semantic,AB,80,684.6,206,1,15,z,10/02/17 13:45:09,AB,subject-106.csv,z,813,NW,L,SIMP,classoes,12,10269,15,18,NW_L_SIMP,class,ous,Crepaldi,29,6216,8.73,Large Family,High BF,5,8,2,Simple,1.5223154681315652,1.4379703477031642,1.8896367039575306,1.8225617229200235
S106,Hampshire,NA,1,1,2017-10-02,Female,20,Not Hispanic or Latino,White,10,1-3 hours,Yes,English,No,77,3,96.25,44,6,88,42,24,18,NA,NA,26,6,26,6,32,0.8125,0.1875,1.52753935463215,-1.52753935463215,0.625,3.0550787092643,Sensitive,0.5186469466494249,1.979651623731964,-0.25653715422565915,1.1434640633960211,1.660946387091918,High Orthographic,High Semantic,AB,82.3529411765,697.117647059,206,1,17,z,10/02/17 13:45:09,AB,subject-106.csv,z,783,NW,L,SIMP,bloodel,14,11851,17,24,NW_L_SIMP,blood,er,RastleFiller,53,3988,8.29,Large Family,High BF,5,7,2,Simple,1.2358502179092237,3.3457397910058213,0.9795011108428925,1.8225617229200235
S106,Hampshire,NA,1,1,2017-10-02,Female,20,Not Hispanic or Latino,White,10,1-3 hours,Yes,English,No,77,3,96.25,44,6,88,42,24,18,NA,NA,26,6,26,6,32,0.8125,0.1875,1.52753935463215,-1.52753935463215,0.625,3.0550787092643,Sensitive,0.5186469466494249,1.979651623731964,-0.25653715422565915,1.1434640633960211,1.660946387091918,High Orthographic,High Semantic,AB,80.9523809524,711.428571429,206,1,21,z,10/02/17 13:45:09,AB,subject-106.csv,z,893,NW,L,SIMP,begenge,17,14940,21,4,NW_L_SIMP,beg,ence,Crepaldi,8,604,6.4,Large Family,High BF,3,7,2,Simple,0.0053517567268978735,-0.23132791518666088,-0.4028592334568989,1.8225617229200235
S106,Hampshire,NA,1,1,2017-10-02,Female,20,Not Hispanic or Latino,White,10,1-3 hours,Yes,English,No,77,3,96.25,44,6,88,42,24,18,NA,NA,26,6,26,6,32,0.8125,0.1875,1.52753935463215,-1.52753935463215,0.625,3.0550787092643,Sensitive,0.5186469466494249,1.979651623731964,-0.25653715422565915,1.1434640633960211,1.660946387091918,High Orthographic,High Semantic,AB,85,671.55,205,1,40,z,10/02/17 13:45:09,AB,subject-106.csv,z,695,NW,S,SIMP,nextnels,34,26862,40,9,NW_S_SIMP,next,ness,Crepaldi,4,7415,8.91,Small Family,High BF,4,8,2,Simple,1.639505797767977,-0.5492894890704371,2.3794269086902284,1.8225617229200235
S106,Hampshire,NA,1,1,2017-10-02,Female,20,Not Hispanic or Latino,White,10,1-3 hours,Yes,English,No,77,3,96.25,44,6,88,42,24,18,NA,NA,26,6,26,6,32,0.8125,0.1875,1.52753935463215,-1.52753935463215,0.625,3.0550787092643,Sensitive,0.5186469466494249,1.979651623731964,-0.25653715422565915,1.1434640633960211,1.660946387091918,High Orthographic,High Semantic,AB,87.2340425532,661.553191489,205,1,47,z,10/02/17 13:45:09,AB,subject-106.csv,z,633,NW,S,SIMP,helmetoes,41,31093,47,14,NW_S_SIMP,helmet,ous,Crepaldi,6,242,5.49,Small Family,High BF,6,9,2,Simple,-0.587110465323852,-0.390308702128549,-0.5507358423920421,1.8225617229200235
S106,Hampshire,NA,1,1,2017-10-02,Female,20,Not Hispanic or Latino,White,10,1-3 hours,Yes,English,No,77,3,96.25,44,6,88,42,24,18,NA,NA,26,6,26,6,32,0.8125,0.1875,1.52753935463215,-1.52753935463215,0.625,3.0550787092643,Sensitive,0.5186469466494249,1.979651623731964,-0.25653715422565915,1.1434640633960211,1.660946387091918,High Orthographic,High Semantic,AB,85.9649122807,652.01754386,206,1,57,z,10/02/17 13:45:09,AB,subject-106.csv,z,685,NW,L,SIMP,criticange,49,37165,57,22,NW_L_SIMP,critic,ize,Rastle,11,2720,7.91,Large Family,High BF,6,10,2,Simple,0.9884484108990211,0.007143265226171272,0.46152448065018103,1.8225617229200235
S106,Hampshire,NA,1,1,2017-10-02,Female,20,Not Hispanic or Latino,White,10,1-3 hours,Yes,English,No,77,3,96.25,44,6,88,42,24,18,NA,NA,26,6,26,6,32,0.8125,0.1875,1.52753935463215,-1.52753935463215,0.625,3.0550787092643,Sensitive,0.5186469466494249,1.979651623731964,-0.25653715422565915,1.1434640633960211,1.660946387091918,High Orthographic,High Semantic,AB,81.8181818182,671.311688312,206,1,77,z,10/02/17 13:45:09,AB,subject-106.csv,z,656,NW,L,SIMP,habitig,63,51691,77,7,NW_L_SIMP,habit,ic,Crepaldi,16,2066,7.63,Large Family,High BF,5,7,2,Simple,0.8061523425757133,0.40459523258089153,0.1943661871596185,1.8225617229200235
S106,Hampshire,NA,1,1,2017-10-02,Female,20,Not Hispanic or Latino,White,10,1-3 hours,Yes,English,No,77,3,96.25,44,6,88,42,24,18,NA,NA,26,6,26,6,32,0.8125,0.1875,1.52753935463215,-1.52753935463215,0.625,3.0550787092643,Sensitive,0.5186469466494249,1.979651623731964,-0.25653715422565915,1.1434640633960211,1.660946387091918,High Orthographic,High Semantic,AB,84.0909090909,658.409090909,205,1,88,z,10/02/17 13:45:09,AB,subject-106.csv,z,793,NW,S,SIMP,gumfil,74,57940,88,2,NW_S_SIMP,gum,ful,Crepaldi,2,57,4.04,Small Family,High BF,3,6,2,Simple,-1.5311436762838382,-0.7082702760123252,-0.626308142538455,1.8225617229200235
S106,Hampshire,NA,1,1,2017-10-02,Female,20,Not Hispanic or Latino,White,10,1-3 hours,Yes,English,No,77,3,96.25,44,6,88,42,24,18,NA,NA,26,6,26,6,32,0.8125,0.1875,1.52753935463215,-1.52753935463215,0.625,3.0550787092643,Sensitive,0.5186469466494249,1.979651623731964,-0.25653715422565915,1.1434640633960211,1.660946387091918,High Orthographic,High Semantic,AB,84.7826086957,658.47826087,206,1,92,z,10/02/17 13:45:09,AB,subject-106.csv,z,826,NW,L,SIMP,witchith,78,60580,92,11,NW_L_SIMP,witch,ish,Crepaldi,11,890,6.79,Large Family,High BF,5,8,2,Simple,0.2592641376057905,0.007143265226171272,-0.28602854241974157,1.8225617229200235
S106,Hampshire,NA,1,1,2017-10-02,Female,20,Not Hispanic or Latino,White,10,1-3 hours,Yes,English,No,77,3,96.25,44,6,88,42,24,18,NA,NA,26,6,26,6,32,0.8125,0.1875,1.52753935463215,-1.52753935463215,0.625,3.0550787092643,Sensitive,0.5186469466494249,1.979651623731964,-0.25653715422565915,1.1434640633960211,1.660946387091918,High Orthographic,High Semantic,AB,85.1063829787,661.606382979,206,1,94,z,10/02/17 13:45:09,AB,subject-106.csv,z,735,NW,L,SIMP,dressody,80,62191,94,21,NW_L_SIMP,dress,ory,Graves,33,3885,8.26,Large Family,High BF,5,9,2,Simple,1.2163184963031555,1.7559319215869404,0.9374257221127275,1.8225617229200235
S106,Hampshire,NA,1,1,2017-10-02,Female,20,Not Hispanic or Latino,White,10,1-3 hours,Yes,English,No,77,3,96.25,44,6,88,42,24,18,NA,NA,26,6,26,6,32,0.8125,0.1875,1.52753935463215,-1.52753935463215,0.625,3.0550787092643,Sensitive,0.5186469466494249,1.979651623731964,-0.25653715422565915,1.1434640633960211,1.660946387091918,High Orthographic,High Semantic,AB,85.7142857143,666.551020408,206,1,98,z,10/02/17 13:45:09,AB,subject-106.csv,z,798,NW,L,SIMP,growilt,84,65322,98,20,NW_L_SIMP,grow,ic,Graves,14,8545,9.05,Large Family,High BF,4,7,2,Simple,1.7306538319296312,0.24561444563900342,2.841030687962913,1.8225617229200235
S106,Hampshire,NA,1,1,2017-10-02,Female,20,Not Hispanic or Latino,White,10,1-3 hours,Yes,English,No,77,3,96.25,44,6,88,42,24,18,NA,NA,26,6,26,6,32,0.8125,0.1875,1.52753935463215,-1.52753935463215,0.625,3.0550787092643,Sensitive,0.5186469466494249,1.979651623731964,-0.25653715422565915,1.1434640633960211,1.660946387091918,High Orthographic,High Semantic,AB,85.8585858586,668.797979798,205,1,99,z,10/02/17 13:45:09,AB,subject-106.csv,z,889,NW,S,SIMP,advertisela,85,66211,99,25,NW_S_SIMP,advertise,ly,XuTaft,4,4.76,1.56,Small Family,High BF,9,11,2,Simple,-3.145765995718849,-0.5492894890704371,-0.6476481261041231,1.8225617229200235
S106,Hampshire,NA,1,1,2017-10-02,Female,20,Not Hispanic or Latino,White,10,1-3 hours,Yes,English,No,77,3,96.25,44,6,88,42,24,18,NA,NA,26,6,26,6,32,0.8125,0.1875,1.52753935463215,-1.52753935463215,0.625,3.0550787092643,Sensitive,0.5186469466494249,1.979651623731964,-0.25653715422565915,1.1434640633960211,1.660946387091918,High Orthographic,High Semantic,AB,85.4368932039,674.417475728,203,1,103,z,10/02/17 13:45:09,AB,subject-106.csv,z,867,NW,S,COMP,adoptish,88,69465,103,19,NW_S_SIMP,adopt,ish,Rastle,4,1205,7.09,Small Family,High BF,5,5,1,Simple,0.4545813536664771,-0.5492894890704371,-0.15735138271098442,1.8225617229200235
S106,Hampshire,NA,1,1,2017-10-02,Female,20,Not Hispanic or Latino,White,10,1-3 hours,Yes,English,No,77,3,96.25,44,6,88,42,24,18,NA,NA,26,6,26,6,32,0.8125,0.1875,1.52753935463215,-1.52753935463215,0.625,3.0550787092643,Sensitive,0.5186469466494249,1.979651623731964,-0.25653715422565915,1.1434640633960211,1.660946387091918,High Orthographic,High Semantic,AB,86.1111111111,675.972222222,205,1,108,z,10/02/17 13:45:09,AB,subject-106.csv,z,839,NW,S,SIMP,rampime,93,73005,108,6,NW_S_SIMP,ramp,ize,Crepaldi,1,95,4.55,Small Family,High BF,4,7,2,Simple,-1.1991044089806708,-0.7877606694832693,-0.6107851835894621,1.8225617229200235
S106,Hampshire,NA,1,1,2017-10-02,Female,20,Not Hispanic or Latino,White,10,1-3 hours,Yes,English,No,77,3,96.25,44,6,88,42,24,18,NA,NA,26,6,26,6,32,0.8125,0.1875,1.52753935463215,-1.52753935463215,0.625,3.0550787092643,Sensitive,0.5186469466494249,1.979651623731964,-0.25653715422565915,1.1434640633960211,1.660946387091918,High Orthographic,High Semantic,AB,86.8421052632,679.552631579,205,1,114,z,10/02/17 13:45:09,AB,subject-106.csv,z,803,NW,S,SIMP,opposemant,99,77469,114,8,NW_S_SIMP,oppose,ment,Crepaldi,1,994,6.9,Small Family,High BF,6,10,2,Simple,0.3308804501613758,-0.7877606694832693,-0.2435446547698662,1.8225617229200235
S106,Hampshire,NA,1,1,2017-10-02,Female,20,Not Hispanic or Latino,White,10,1-3 hours,Yes,English,No,77,3,96.25,44,6,88,42,24,18,NA,NA,26,6,26,6,32,0.8125,0.1875,1.52753935463215,-1.52753935463215,0.625,3.0550787092643,Sensitive,0.5186469466494249,1.979651623731964,-0.25653715422565915,1.1434640633960211,1.660946387091918,High Orthographic,High Semantic,AB,86.9565217391,681.565217391,205,1,115,z,10/02/17 13:45:09,AB,subject-106.csv,z,911,NW,S,SIMP,zoomfil,100,78380,115,19,NW_S_SIMP,zoom,ful,RastleFiller,2,34,3.53,Small Family,High BF,4,7,2,Simple,-1.863182943587006,-0.7082702760123252,-0.6357036176917928,1.8225617229200235
S106,Hampshire,NA,1,1,2017-10-02,Female,20,Not Hispanic or Latino,White,10,1-3 hours,Yes,English,No,77,3,96.25,44,6,88,42,24,18,NA,NA,26,6,26,6,32,0.8125,0.1875,1.52753935463215,-1.52753935463215,0.625,3.0550787092643,Sensitive,0.5186469466494249,1.979651623731964,-0.25653715422565915,1.1434640633960211,1.660946387091918,High Orthographic,High Semantic,AB,85.9504132231,691.834710744,206,1,121,z,10/02/17 13:45:09,AB,subject-106.csv,z,879,NW,L,SIMP,taxfil,104,83712,121,6,NW_L_SIMP,tax,ful,Crepaldi,14,2763,7.92,Large Family,High BF,3,6,2,Simple,0.9949589847677105,0.24561444563900342,0.47908993419772566,1.8225617229200235
S106,Hampshire,NA,1,1,2017-10-02,Female,20,Not Hispanic or Latino,White,10,1-3 hours,Yes,English,No,77,3,96.25,44,6,88,42,24,18,NA,NA,26,6,26,6,32,0.8125,0.1875,1.52753935463215,-1.52753935463215,0.625,3.0550787092643,Sensitive,0.5186469466494249,1.979651623731964,-0.25653715422565915,1.1434640633960211,1.660946387091918,High Orthographic,High Semantic,AB,86.1788617886,694.845528455,206,1,123,z,10/02/17 13:45:09,AB,subject-106.csv,z,784,NW,L,SIMP,wigith,106,85466,123,9,NW_L_SIMP,wig,ish,Crepaldi,8,262,5.57,Large Family,High BF,3,6,2,Simple,-0.5350258743743356,-0.23132791518666088,-0.5425658639978352,1.8225617229200235
S106,Hampshire,NA,1,1,2017-10-02,Female,20,Not Hispanic or Latino,White,10,1-3 hours,Yes,English,No,77,3,96.25,44,6,88,42,24,18,NA,NA,26,6,26,6,32,0.8125,0.1875,1.52753935463215,-1.52753935463215,0.625,3.0550787092643,Sensitive,0.5186469466494249,1.979651623731964,-0.25653715422565915,1.1434640633960211,1.660946387091918,High Orthographic,High Semantic,AB,85.7142857143,696.658730159,206,1,126,z,10/02/17 13:45:09,AB,subject-106.csv,z,730,NW,L,SIMP,pickenge,108,87779,126,5,NW_L_SIMP,pick,ence,Crepaldi,20,3385,8.13,Large Family,High BF,4,8,2,Simple,1.1316810360101919,0.7225568064646677,0.7331762622575573,1.8225617229200235
S106,Hampshire,NA,1,1,2017-10-02,Female,20,Not Hispanic or Latino,White,10,1-3 hours,Yes,English,No,77,3,96.25,44,6,88,42,24,18,NA,NA,26,6,26,6,32,0.8125,0.1875,1.52753935463215,-1.52753935463215,0.625,3.0550787092643,Sensitive,0.5186469466494249,1.979651623731964,-0.25653715422565915,1.1434640633960211,1.660946387091918,High Orthographic,High Semantic,AB,86.0465116279,698.992248062,205,1,129,z,10/02/17 13:45:09,AB,subject-106.csv,z,760,NW,S,SIMP,baskody,111,90170,129,10,NW_S_SIMP,bask,ory,Crepaldi,1,68,4.22,Small Family,High BF,4,7,2,Simple,-1.4139533466474263,-0.7877606694832693,-0.6218146544216413,1.8225617229200235
S106,Hampshire,NA,1,1,2017-10-02,Female,20,Not Hispanic or Latino,White,10,1-3 hours,Yes,English,No,77,3,96.25,44,6,88,42,24,18,NA,NA,26,6,26,6,32,0.8125,0.1875,1.52753935463215,-1.52753935463215,0.625,3.0550787092643,Sensitive,0.5186469466494249,1.979651623731964,-0.25653715422565915,1.1434640633960211,1.660946387091918,High Orthographic,High Semantic,AB,85.4961832061,700.93129771,206,1,131,z,10/02/17 13:45:09,AB,subject-106.csv,z,874,NW,L,SIMP,elbowilm,112,91822,131,10,NW_L_SIMP,elbow,ish,Crepaldi,18,1756,7.47,Large Family,High BF,5,8,2,Simple,0.7019831606766803,0.5635760195227796,0.06773152204941305,1.8225617229200235
S106,Hampshire,NA,1,1,2017-10-02,Female,20,Not Hispanic or Latino,White,10,1-3 hours,Yes,English,No,77,3,96.25,44,6,88,42,24,18,NA,NA,26,6,26,6,32,0.8125,0.1875,1.52753935463215,-1.52753935463215,0.625,3.0550787092643,Sensitive,0.5186469466494249,1.979651623731964,-0.25653715422565915,1.1434640633960211,1.660946387091918,High Orthographic,High Semantic,AB,85.8208955224,701.126865672,206,1,134,z,10/02/17 13:45:09,AB,subject-106.csv,z,714,NW,L,SIMP,smoothfil,115,93951,134,19,NW_L_SIMP,smooth,ful,Graves,12,1042,6.95,Large Family,High BF,6,9,2,Simple,0.3634333195048235,0.08663365869711533,-0.22393670662376988,1.8225617229200235
