"ITI","acc","accuracy","average_response_time","avg_rt","background","bidi","canvas_backend","clock_backend","color_backend","compensation","cond_trig","condtrigtime","coordinates","coroutines_cycles","coroutines_duration","coroutines_mean_cycle_duration","correct","correct_instructions_1","correct_new_keyboard_response_1","count_AB_m21","count_ITI","count_blank_screen","count_blink_screen","count_block1","count_break1","count_break2","count_break3_1","count_canvas","count_close_port","count_cond_trigger","count_correct_trigger","count_def_chain","count_end_screen","count_fixation_1","count_getting_started","count_inc_counter","count_instructions_1","count_logger","count_logscript","count_new_inline_script","count_new_inline_script_2","count_new_keyboard_response_1","count_open_port","count_reset_counter_prep","count_reset_counter_run","count_response_trigger_trial","count_responsescreen","count_sequence","count_target_present","count_word_trigger","counter","cresp","datetime","description","disable_garbage_collection","experiment_file","experiment_path","font_bold","font_family","font_italic","font_size","font_underline","foreground","form_clicks","fullscreen","height","keyboard_backend","live_row","live_row_block1","logfile","mouse_backend","opensesame_codename","opensesame_version","repeat_cycle","response","response_break1","response_break2","response_break3_1","response_end_screen","response_instructions_1","response_new_keyboard_response_1","response_time","response_time_break1","response_time_break2","response_time_break3_1","response_time_end_screen","response_time_instructions_1","response_time_new_keyboard_response_1","round_decimals","sampler_backend","sound_buf_size","sound_channels","sound_freq","sound_sample_size","start","subject_nr","subject_parity","targ_type","target","time_AB_m21","time_ITI","time_blank_screen","time_blink_screen","time_block1","time_break1","time_break2","time_break3_1","time_canvas","time_close_port","time_cond_trigger","time_correct_trigger","time_def_chain","time_end_screen","time_fixation_1","time_getting_started","time_inc_counter","time_instructions_1","time_logger","time_logscript","time_new_inline_script","time_new_inline_script_2","time_new_keyboard_response_1","time_open_port","time_reset_counter_prep","time_reset_counter_run","time_response_trigger_trial","time_responsescreen","time_sequence","time_target_present","time_word_trigger","title","total_correct","total_response_time","total_responses","uniform_coordinates","width","word_trig"
"250","0","0","1200","1200","black","no","xpyriment","legacy","legacy","0","201","NA","uniform","NA","NA","NA","0","undefined","0","0","0","0","0","0","0","0","0","NA","0","0","NA","NA","0","0","NA","0","0","0","NA","NA","NA","0","0","0","NA","0","0","0","0","0","1","/","Tue Jun 13 18:44:05 2023","The main experiment item","yes","m21-ab-lexicalDecision.osexp","C:\Users\emoore8\Desktop\m21_vsl-main","no","mono","no","18","no","white","no","yes","1080","legacy","0","0","C:/Users/emoore8/Desktop/subject-203.csv","xpyriment","Lentiform Loewenfeld","3.3.11","0","None","NA","NA","NA","NA","space","None","1200","NA","NA","NA","NA","60798","1200","2","legacy","1024","2","48000","-16","AB_m21","203","odd","CW_S","MOSSY","1907","66820","64453","NA","62715","NA","NA","NA","NA","NA","64953","NA","NA","NA","63952","NA","63917","1916","67070","NA","NA","NA","64993","1907","1907","NA","66193","66216","63917","64953","64973","morph21_Oliver/Morris","0","1200","1","yes","1920","47"
"350","50","50","948","948","black","no","xpyriment","legacy","legacy","0","207","NA","uniform","NA","NA","NA","1","undefined","1","0","1","1","1","0","1","1","1","NA","0","1","NA","NA","0","1","NA","1","0","1","NA","NA","NA","1","0","0","NA","1","1","1","1","1","2","/","Tue Jun 13 18:44:05 2023","The main experiment item","yes","m21-ab-lexicalDecision.osexp","C:\Users\emoore8\Desktop\m21_vsl-main","no","mono","no","18","no","white","no","yes","1080","legacy","1","1","C:/Users/emoore8/Desktop/subject-203.csv","xpyriment","Lentiform Loewenfeld","3.3.11","0","/","NA","NA","NA","NA","space","/","696","NA","NA","NA","NA","60798","696","2","legacy","1024","2","48000","-16","AB_m21","203","odd","FILL_W","LEAK","1907","70504","68637","NA","62715","NA","NA","NA","NA","NA","69138","NA","NA","NA","68137","NA","68107","1916","70854","NA","NA","NA","69178","1907","1907","NA","69875","69900","68107","69138","69158","morph21_Oliver/Morris","1","1896","2","yes","1920","9"
"300","66.66666666666667","66.66666666666667","974.3333333333334","974.3333333333334","black","no","xpyriment","legacy","legacy","0","205","NA","uniform","NA","NA","NA","1","undefined","1","0","2","2","2","0","2","2","2","NA","0","2","NA","NA","0","2","NA","2","0","2","NA","NA","NA","2","0","0","NA","2","2","2","2","2","3","z","Tue Jun 13 18:44:05 2023","The main experiment item","yes","m21-ab-lexicalDecision.osexp","C:\Users\emoore8\Desktop\m21_vsl-main","no","mono","no","18","no","white","no","yes","1080","legacy","2","2","C:/Users/emoore8/Desktop/subject-203.csv","xpyriment","Lentiform Loewenfeld","3.3.11","0","z","NA","NA","NA","NA","space","z","1027","NA","NA","NA","NA","60798","1027","2","legacy","1024","2","48000","-16","AB_m21","203","odd","NW_S_SIMP","FEVERIME","1907","76098","72394","74591","62715","NA","NA","NA","NA","NA","72896","NA","NA","NA","71892","NA","71867","1916","76398","NA","NA","NA","72936","1907","1907","NA","73963","73987","71867","72896","72916","morph21_Oliver/Morris","2","2923","3","yes","1920","24"
"300","75","75","1017.75","1017.75","black","no","xpyriment","legacy","legacy","0","206","NA","uniform","NA","NA","NA","1","undefined","1","0","3","3","3","0","3","3","3","NA","0","3","NA","NA","0","3","NA","3","0","3","NA","NA","NA","3","0","0","NA","3","3","3","3","3","4","z","Tue Jun 13 18:44:05 2023","The main experiment item","yes","m21-ab-lexicalDecision.osexp","C:\Users\emoore8\Desktop\m21_vsl-main","no","mono","no","18","no","white","no","yes","1080","legacy","3","3","C:/Users/emoore8/Desktop/subject-203.csv","xpyriment","Lentiform Loewenfeld","3.3.11","0","z","NA","NA","NA","NA","space","z","1148","NA","NA","NA","NA","60798","1148","2","legacy","1024","2","48000","-16","AB_m21","203","odd","NW_L_SIMP","BEGENGE","1907","80253","77936","74591","62715","NA","NA","NA","NA","NA","78437","NA","NA","NA","77436","NA","77405","1916","80553","NA","NA","NA","78478","1907","1907","NA","79627","79650","77405","78437","78458","morph21_Oliver/Morris","3","4071","4","yes","1920","4"
"250","80","80","985.6","985.6","black","no","xpyriment","legacy","legacy","0","201","NA","uniform","NA","NA","NA","1","undefined","1","0","4","4","4","0","4","4","4","NA","0","4","NA","NA","0","4","NA","4","0","4","NA","NA","NA","4","0","0","NA","4","4","4","4","4","5","/","Tue Jun 13 18:44:05 2023","The main experiment item","yes","m21-ab-lexicalDecision.osexp","C:\Users\emoore8\Desktop\m21_vsl-main","no","mono","no","18","no","white","no","yes","1080","legacy","4","4","C:/Users/emoore8/Desktop/subject-203.csv","xpyriment","Lentiform Loewenfeld","3.3.11","0","/","NA","NA","NA","NA","space","/","857","NA","NA","NA","NA","60798","857","2","legacy","1024","2","48000","-16","AB_m21","203","odd","CW_S","SEEKER","1907","84085","82060","74591","62715","NA","NA","NA","NA","NA","82560","NA","NA","NA","81559","NA","81536","1916","84335","NA","NA","NA","82601","1907","1907","NA","83459","83482","81536","82560","82581","morph21_Oliver/Morris","4","4928","5","yes","1920","16"
"250","83.33333333333333","83.33333333333333","945","945","black","no","xpyriment","legacy","legacy","0","201","NA","uniform","NA","NA","NA","1","undefined","1","0","5","5","5","0","5","5","5","NA","0","5","NA","NA","0","5","NA","5","0","5","NA","NA","NA","5","0","0","NA","5","5","5","5","5","6","/","Tue Jun 13 18:44:05 2023","The main experiment item","yes","m21-ab-lexicalDecision.osexp","C:\Users\emoore8\Desktop\m21_vsl-main","no","mono","no","18","no","white","no","yes","1080","legacy","5","5","C:/Users/emoore8/Desktop/subject-203.csv","xpyriment","Lentiform Loewenfeld","3.3.11","0","/","NA","NA","NA","NA","space","/","742","NA","NA","NA","NA","60798","742","2","legacy","1024","2","48000","-16","AB_m21","203","odd","CW_S","COSTLY","1907","89264","85848","87759","62715","NA","NA","NA","NA","NA","86349","NA","NA","NA","85347","NA","85319","1916","89514","NA","NA","NA","86389","1907","1907","NA","87131","87155","85319","86349","86369","morph21_Oliver/Morris","5","5670","6","yes","1920","36"
"400","85.71428571428571","85.71428571428571","917.1428571428571","917.1428571428571","black","no","xpyriment","legacy","legacy","0","202","NA","uniform","NA","NA","NA","1","undefined","1","0","6","6","6","0","6","6","6","NA","0","6","NA","NA","0","6","NA","6","0","6","NA","NA","NA","6","0","0","NA","6","6","6","6","6","7","/","Tue Jun 13 18:44:05 2023","The main experiment item","yes","m21-ab-lexicalDecision.osexp","C:\Users\emoore8\Desktop\m21_vsl-main","no","mono","no","18","no","white","no","yes","1080","legacy","6","6","C:/Users/emoore8/Desktop/subject-203.csv","xpyriment","Lentiform Loewenfeld","3.3.11","0","/","NA","NA","NA","NA","space","/","750","NA","NA","NA","NA","60798","750","2","legacy","1024","2","48000","-16","AB_m21","203","odd","CW_L","DRYNESS","1907","92942","91024","87759","62715","NA","NA","NA","NA","NA","91524","NA","NA","NA","90524","NA","90494","1916","93342","NA","NA","NA","91565","1907","1907","NA","92315","92339","90494","91524","91545","morph21_Oliver/Morris","6","6420","7","yes","1920","42"
"200","87.5","87.5","892.875","892.875","black","no","xpyriment","legacy","legacy","0","207","NA","uniform","NA","NA","NA","1","undefined","1","0","7","7","7","0","7","7","7","NA","0","7","NA","NA","0","7","NA","7","0","7","NA","NA","NA","7","0","0","NA","7","7","7","7","7","8","/","Tue Jun 13 18:44:05 2023","The main experiment item","yes","m21-ab-lexicalDecision.osexp","C:\Users\emoore8\Desktop\m21_vsl-main","no","mono","no","18","no","white","no","yes","1080","legacy","7","7","C:/Users/emoore8/Desktop/subject-203.csv","xpyriment","Lentiform Loewenfeld","3.3.11","0","/","NA","NA","NA","NA","space","/","723","NA","NA","NA","NA","60798","723","2","legacy","1024","2","48000","-16","AB_m21","203","odd","FILL_W","SAVE","1907","96743","94850","87759","62715","NA","NA","NA","NA","NA","95352","NA","NA","NA","94349","NA","94321","1916","96943","NA","NA","NA","95392","1907","1907","NA","96115","96140","94321","95352","95372","morph21_Oliver/Morris","7","7143","8","yes","1920","46"
"350","88.88888888888889","88.88888888888889","877.1111111111111","877.1111111111111","black","no","xpyriment","legacy","legacy","0","204","NA","uniform","NA","NA","NA","1","undefined","1","0","8","8","8","0","8","8","8","NA","0","8","NA","NA","0","8","NA","8","0","8","NA","NA","NA","8","0","0","NA","8","8","8","8","8","9","z","Tue Jun 13 18:44:05 2023","The main experiment item","yes","m21-ab-lexicalDecision.osexp","C:\Users\emoore8\Desktop\m21_vsl-main","no","mono","no","18","no","white","no","yes","1080","legacy","8","8","C:/Users/emoore8/Desktop/subject-203.csv","xpyriment","Lentiform Loewenfeld","3.3.11","0","z","NA","NA","NA","NA","space","z","751","NA","NA","NA","NA","60798","751","2","legacy","1024","2","48000","-16","AB_m21","203","odd","NW_L_COMP","INKISM","1907","101871","98447","100366","62715","NA","NA","NA","NA","NA","98947","NA","NA","NA","97946","NA","97919","1916","102222","NA","NA","NA","98987","1907","1907","NA","99739","99762","97919","98947","98967","morph21_Oliver/Morris","8","7894","9","yes","1920","8"
"200","90","90","885.3","885.3","black","no","xpyriment","legacy","legacy","0","208","NA","uniform","NA","NA","NA","1","undefined","1","0","9","9","9","0","9","9","9","NA","0","9","NA","NA","0","9","NA","9","0","9","NA","NA","NA","9","0","0","NA","9","9","9","9","9","10","z","Tue Jun 13 18:44:05 2023","The main experiment item","yes","m21-ab-lexicalDecision.osexp","C:\Users\emoore8\Desktop\m21_vsl-main","no","mono","no","18","no","white","no","yes","1080","legacy","9","9","C:/Users/emoore8/Desktop/subject-203.csv","xpyriment","Lentiform Loewenfeld","3.3.11","0","z","NA","NA","NA","NA","space","z","959","NA","NA","NA","NA","60798","959","2","legacy","1024","2","48000","-16","AB_m21","203","odd","FILL_NW","PORDS","1907","105854","103727","100366","62715","NA","NA","NA","NA","NA","104227","NA","NA","NA","103226","NA","103202","1916","106054","NA","NA","NA","104268","1907","1907","NA","105227","105251","103202","104227","104248","morph21_Oliver/Morris","9","8853","10","yes","1920","39"
"250","90.9090909090909","90.9090909090909","884.5454545454545","884.5454545454545","black","no","xpyriment","legacy","legacy","0","202","NA","uniform","NA","NA","NA","1","undefined","1","0","10","10","10","0","10","10","10","NA","0","10","NA","NA","0","10","NA","10","0","10","NA","NA","NA","10","0","0","NA","10","10","10","10","10","11","/","Tue Jun 13 18:44:05 2023","The main experiment item","yes","m21-ab-lexicalDecision.osexp","C:\Users\emoore8\Desktop\m21_vsl-main","no","mono","no","18","no","white","no","yes","1080","legacy","10","10","C:/Users/emoore8/Desktop/subject-203.csv","xpyriment","Lentiform Loewenfeld","3.3.11","0","/","NA","NA","NA","NA","space","/","877","NA","NA","NA","NA","60798","877","2","legacy","1024","2","48000","-16","AB_m21","203","odd","CW_L","DEAFNESS","1907","109622","107577","100366","62715","NA","NA","NA","NA","NA","108077","NA","NA","NA","107077","NA","107049","1916","109872","NA","NA","NA","108118","1907","1907","NA","108995","109019","107049","108077","108098","morph21_Oliver/Morris","10","9730","11","yes","1920","39"
"200","91.66666666666667","91.66666666666667","876.25","876.25","black","no","xpyriment","legacy","legacy","0","204","NA","uniform","NA","NA","NA","1","undefined","1","0","11","11","11","0","11","11","11","NA","0","11","NA","NA","0","11","NA","11","0","11","NA","NA","NA","11","0","0","NA","11","11","11","11","11","12","z","Tue Jun 13 18:44:05 2023","The main experiment item","yes","m21-ab-lexicalDecision.osexp","C:\Users\emoore8\Desktop\m21_vsl-main","no","mono","no","18","no","white","no","yes","1080","legacy","11","11","C:/Users/emoore8/Desktop/subject-203.csv","xpyriment","Lentiform Loewenfeld","3.3.11","0","z","NA","NA","NA","NA","space","z","785","NA","NA","NA","NA","60798","785","2","legacy","1024","2","48000","-16","AB_m21","203","odd","NW_L_COMP","FLIPORY","1907","114832","111374","113329","62715","NA","NA","NA","NA","NA","111874","NA","NA","NA","110874","NA","110848","1916","115032","NA","NA","NA","111914","1907","1907","NA","112699","112724","110848","111874","111894","morph21_Oliver/Morris","11","10515","12","yes","1920","16"
"400","92.3076923076923","92.3076923076923","876","876","black","no","xpyriment","legacy","legacy","0","208","NA","uniform","NA","NA","NA","1","undefined","1","0","12","12","12","0","12","12","12","NA","0","12","NA","NA","0","12","NA","12","0","12","NA","NA","NA","12","0","0","NA","12","12","12","12","12","13","z","Tue Jun 13 18:44:05 2023","The main experiment item","yes","m21-ab-lexicalDecision.osexp","C:\Users\emoore8\Desktop\m21_vsl-main","no","mono","no","18","no","white","no","yes","1080","legacy","12","12","C:/Users/emoore8/Desktop/subject-203.csv","xpyriment","Lentiform Loewenfeld","3.3.11","0","z","NA","NA","NA","NA","space","z","873","NA","NA","NA","NA","60798","873","2","legacy","1024","2","48000","-16","AB_m21","203","odd","FILL_NW","CORG","1907","118586","116541","113329","62715","NA","NA","NA","NA","NA","117041","NA","NA","NA","116040","NA","116013","1916","118986","NA","NA","NA","117082","1907","1907","NA","117955","117983","116013","117041","117062","morph21_Oliver/Morris","12","11388","13","yes","1920","7"
"350","92.85714285714286","92.85714285714286","878.5714285714286","878.5714285714286","black","no","xpyriment","legacy","legacy","0","201","NA","uniform","NA","NA","NA","1","undefined","1","0","13","13","13","0","13","13","13","NA","0","13","NA","NA","0","13","NA","13","0","13","NA","NA","NA","13","0","0","NA","13","13","13","13","13","14","/","Tue Jun 13 18:44:05 2023","The main experiment item","yes","m21-ab-lexicalDecision.osexp","C:\Users\emoore8\Desktop\m21_vsl-main","no","mono","no","18","no","white","no","yes","1080","legacy","13","13","C:/Users/emoore8/Desktop/subject-203.csv","xpyriment","Lentiform Loewenfeld","3.3.11","0","/","NA","NA","NA","NA","space","/","912","NA","NA","NA","NA","60798","912","2","legacy","1024","2","48000","-16","AB_m21","203","odd","CW_S","SINGER","1907","122582","120502","113329","62715","NA","NA","NA","NA","NA","121003","NA","NA","NA","120001","NA","119968","1916","122932","NA","NA","NA","121043","1907","1907","NA","121955","121979","119968","121003","121023","morph21_Oliver/Morris","13","12300","14","yes","1920","17"
"250","93.33333333333333","93.33333333333333","864.6666666666666","864.6666666666666","black","no","xpyriment","legacy","legacy","0","207","NA","uniform","NA","NA","NA","1","undefined","1","0","14","14","14","0","14","14","14","NA","0","14","NA","NA","0","14","NA","14","0","14","NA","NA","NA","14","0","0","NA","14","14","14","14","14","15","/","Tue Jun 13 18:44:05 2023","The main experiment item","yes","m21-ab-lexicalDecision.osexp","C:\Users\emoore8\Desktop\m21_vsl-main","no","mono","no","18","no","white","no","yes","1080","legacy","14","14","C:/Users/emoore8/Desktop/subject-203.csv","xpyriment","Lentiform Loewenfeld","3.3.11","0","/","NA","NA","NA","NA","space","/","670","NA","NA","NA","NA","60798","670","2","legacy","1024","2","48000","-16","AB_m21","203","odd","FILL_W","SOFT","1907","127774","124430","126271","62715","NA","NA","NA","NA","NA","124931","NA","NA","NA","123927","NA","123903","1916","128024","NA","NA","NA","124972","1907","1907","NA","125643","125667","123902","124931","124952","morph21_Oliver/Morris","14","12970","15","yes","1920","43"
"350","93.75","93.75","847.625","847.625","black","no","xpyriment","legacy","legacy","0","202","NA","uniform","NA","NA","NA","1","undefined","1","0","15","15","15","0","15","15","15","NA","0","15","NA","NA","0","15","NA","15","0","15","NA","NA","NA","15","0","0","NA","15","15","15","15","15","16","/","Tue Jun 13 18:44:05 2023","The main experiment item","yes","m21-ab-lexicalDecision.osexp","C:\Users\emoore8\Desktop\m21_vsl-main","no","mono","no","18","no","white","no","yes","1080","legacy","15","15","C:/Users/emoore8/Desktop/subject-203.csv","xpyriment","Lentiform Loewenfeld","3.3.11","0","/","NA","NA","NA","NA","space","/","592","NA","NA","NA","NA","60798","592","2","legacy","1024","2","48000","-16","AB_m21","203","odd","CW_L","KICKING","1907","131278","129519","126271","62715","NA","NA","NA","NA","NA","130019","NA","NA","NA","129018","NA","128994","1916","131628","NA","NA","NA","130059","1907","1907","NA","130652","130675","128994","130019","130039","morph21_Oliver/Morris","15","13562","16","yes","1920","23"
"200","94.11764705882354","94.11764705882354","849.1176470588235","849.1176470588235","black","no","xpyriment","legacy","legacy","0","208","NA","uniform","NA","NA","NA","1","undefined","1","0","16","16","16","0","16","16","16","NA","0","16","NA","NA","0","16","NA","16","0","16","NA","NA","NA","16","0","0","NA","16","16","16","16","16","17","z","Tue Jun 13 18:44:05 2023","The main experiment item","yes","m21-ab-lexicalDecision.osexp","C:\Users\emoore8\Desktop\m21_vsl-main","no","mono","no","18","no","white","no","yes","1080","legacy","16","16","C:/Users/emoore8/Desktop/subject-203.csv","xpyriment","Lentiform Loewenfeld","3.3.11","0","z","NA","NA","NA","NA","space","z","873","NA","NA","NA","NA","60798","873","2","legacy","1024","2","48000","-16","AB_m21","203","odd","FILL_NW","CINDS","1907","135167","133124","126271","62715","NA","NA","NA","NA","NA","133625","NA","NA","NA","132624","NA","132596","1916","135367","NA","NA","NA","133666","1907","1907","NA","134540","134563","132596","133625","133646","morph21_Oliver/Morris","16","14435","17","yes","1920","6"
"300","94.44444444444444","94.44444444444444","856.2222222222222","856.2222222222222","black","no","xpyriment","legacy","legacy","0","208","NA","uniform","NA","NA","NA","1","undefined","1","0","17","17","17","0","17","17","17","NA","0","17","NA","NA","0","17","NA","17","0","17","NA","NA","NA","17","0","0","NA","17","17","17","17","17","18","z","Tue Jun 13 18:44:05 2023","The main experiment item","yes","m21-ab-lexicalDecision.osexp","C:\Users\emoore8\Desktop\m21_vsl-main","no","mono","no","18","no","white","no","yes","1080","legacy","17","17","C:/Users/emoore8/Desktop/subject-203.csv","xpyriment","Lentiform Loewenfeld","3.3.11","0","z","NA","NA","NA","NA","space","z","977","NA","NA","NA","NA","60798","977","2","legacy","1024","2","48000","-16","AB_m21","203","odd","FILL_NW","SCURE","1907","140550","136901","139046","62715","NA","NA","NA","NA","NA","137401","NA","NA","NA","136399","NA","136373","1916","140850","NA","NA","NA","137442","1907","1907","NA","138420","138443","136373","137401","137422","morph21_Oliver/Morris","17","15412","18","yes","1920","41"
"200","94.73684210526316","94.73684210526316","854.1052631578947","854.1052631578947","black","no","xpyriment","legacy","legacy","0","201","NA","uniform","NA","NA","NA","1","undefined","1","0","18","18","18","0","18","18","18","NA","0","18","NA","NA","0","18","NA","18","0","18","NA","NA","NA","18","0","0","NA","18","18","18","18","18","19","/","Tue Jun 13 18:44:05 2023","The main experiment item","yes","m21-ab-lexicalDecision.osexp","C:\Users\emoore8\Desktop\m21_vsl-main","no","mono","no","18","no","white","no","yes","1080","legacy","18","18","C:/Users/emoore8/Desktop/subject-203.csv","xpyriment","Lentiform Loewenfeld","3.3.11","0","/","NA","NA","NA","NA","space","/","816","NA","NA","NA","NA","60798","816","2","legacy","1024","2","48000","-16","AB_m21","203","odd","CW_S","THRUSTER","1907","144342","142358","139046","62715","NA","NA","NA","NA","NA","142858","NA","NA","NA","141857","NA","141834","1916","144542","NA","NA","NA","142899","1907","1907","NA","143715","143739","141834","142858","142879","morph21_Oliver/Morris","18","16228","19","yes","1920","24"
"350","95","95","848.15","848.15","black","no","xpyriment","legacy","legacy","0","206","NA","uniform","NA","NA","NA","1","undefined","1","0","19","19","19","0","19","19","19","NA","0","19","NA","NA","0","19","NA","19","0","19","NA","NA","NA","19","0","0","NA","19","19","19","19","19","20","z","Tue Jun 13 18:44:05 2023","The main experiment item","yes","m21-ab-lexicalDecision.osexp","C:\Users\emoore8\Desktop\m21_vsl-main","no","mono","no","18","no","white","no","yes","1080","legacy","19","19","C:/Users/emoore8/Desktop/subject-203.csv","xpyriment","Lentiform Loewenfeld","3.3.11","0","z","NA","NA","NA","NA","space","z","735","NA","NA","NA","NA","60798","735","2","legacy","1024","2","48000","-16","AB_m21","203","odd","NW_L_SIMP","PICKENGE","1907","147941","146039","139046","62715","NA","NA","NA","NA","NA","146540","NA","NA","NA","145537","NA","145512","1916","148291","NA","NA","NA","146580","1907","1907","NA","147315","147338","145512","146540","146560","morph21_Oliver/Morris","19","16963","20","yes","1920","5"
"200","95.23809523809524","95.23809523809524","840.952380952381","840.952380952381","black","no","xpyriment","legacy","legacy","0","208","NA","uniform","NA","NA","NA","1","undefined","1","0","20","20","20","0","20","20","20","NA","0","20","NA","NA","0","20","NA","20","0","20","NA","NA","NA","20","0","0","NA","20","20","20","20","20","21","z","Tue Jun 13 18:44:05 2023","The main experiment item","yes","m21-ab-lexicalDecision.osexp","C:\Users\emoore8\Desktop\m21_vsl-main","no","mono","no","18","no","white","no","yes","1080","legacy","20","20","C:/Users/emoore8/Desktop/subject-203.csv","xpyriment","Lentiform Loewenfeld","3.3.11","0","z","NA","NA","NA","NA","space","z","697","NA","NA","NA","NA","60798","697","2","legacy","1024","2","48000","-16","AB_m21","203","odd","FILL_NW","BLAYS","1907","153175","149802","151672","62715","NA","NA","NA","NA","NA","150305","NA","NA","NA","149300","NA","149274","1916","153375","NA","NA","NA","150346","1907","1907","NA","151043","151068","149274","150305","150326","morph21_Oliver/Morris","20","17660","21","yes","1920","8"
"200","95.45454545454545","95.45454545454545","832.8636363636364","832.8636363636364","black","no","xpyriment","legacy","legacy","0","208","NA","uniform","NA","NA","NA","1","undefined","1","0","21","21","21","0","21","21","21","NA","0","21","NA","NA","0","21","NA","21","0","21","NA","NA","NA","21","0","0","NA","21","21","21","21","21","22","z","Tue Jun 13 18:44:05 2023","The main experiment item","yes","m21-ab-lexicalDecision.osexp","C:\Users\emoore8\Desktop\m21_vsl-main","no","mono","no","18","no","white","no","yes","1080","legacy","21","21","C:/Users/emoore8/Desktop/subject-203.csv","xpyriment","Lentiform Loewenfeld","3.3.11","0","z","NA","NA","NA","NA","space","z","663","NA","NA","NA","NA","60798","663","2","legacy","1024","2","48000","-16","AB_m21","203","odd","FILL_NW","DARM","1907","156711","154878","151672","62715","NA","NA","NA","NA","NA","155379","NA","NA","NA","154378","NA","154352","1916","156911","NA","NA","NA","155420","1907","1907","NA","156084","156108","154352","155379","155400","morph21_Oliver/Morris","21","18323","22","yes","1920","11"
"350","91.30434782608695","91.30434782608695","848.8260869565217","848.8260869565217","black","no","xpyriment","legacy","legacy","0","203","NA","uniform","NA","NA","NA","0","undefined","0","0","22","22","22","0","22","22","22","NA","0","22","NA","NA","0","22","NA","22","0","22","NA","NA","NA","22","0","0","NA","22","22","22","22","22","23","z","Tue Jun 13 18:44:05 2023","The main experiment item","yes","m21-ab-lexicalDecision.osexp","C:\Users\emoore8\Desktop\m21_vsl-main","no","mono","no","18","no","white","no","yes","1080","legacy","22","22","C:/Users/emoore8/Desktop/subject-203.csv","xpyriment","Lentiform Loewenfeld","3.3.11","0","None","NA","NA","NA","NA","space","None","1200","NA","NA","NA","NA","60798","1200","2","legacy","1024","2","48000","-16","AB_m21","203","odd","NW_S_COMP","EJECTENCE","1907","160778","158412","151672","62715","NA","NA","NA","NA","NA","158912","NA","NA","NA","157912","NA","157886","1916","161128","NA","NA","NA","158953","1907","1907","NA","160153","160176","157886","158912","158933","morph21_Oliver/Morris","21","19523","23","yes","1920","20"
"350","87.5","87.5","863.4583333333334","863.4583333333334","black","no","xpyriment","legacy","legacy","0","205","NA","uniform","NA","NA","NA","0","undefined","0","0","23","23","23","0","23","23","23","NA","0","23","NA","NA","0","23","NA","23","0","23","NA","NA","NA","23","0","0","NA","23","23","23","23","23","24","z","Tue Jun 13 18:44:05 2023","The main experiment item","yes","m21-ab-lexicalDecision.osexp","C:\Users\emoore8\Desktop\m21_vsl-main","no","mono","no","18","no","white","no","yes","1080","legacy","23","23","C:/Users/emoore8/Desktop/subject-203.csv","xpyriment","Lentiform Loewenfeld","3.3.11","0","None","NA","NA","NA","NA","space","None","1200","NA","NA","NA","NA","60798","1200","2","legacy","1024","2","48000","-16","AB_m21","203","odd","NW_S_SIMP","ACREMANT","1907","166515","162643","165010","62715","NA","NA","NA","NA","NA","163143","NA","NA","NA","162142","NA","162114","1916","166865","NA","NA","NA","163184","1907","1907","NA","164384","164407","162114","163143","163164","morph21_Oliver/Morris","21","20723","24","yes","1920","16"
"400","88","88","854.04","854.04","black","no","xpyriment","legacy","legacy","0","208","NA","uniform","NA","NA","NA","1","undefined","1","0","24","24","24","0","24","24","24","NA","0","24","NA","NA","0","24","NA","24","0","24","NA","NA","NA","24","0","0","NA","24","24","24","24","24","25","z","Tue Jun 13 18:44:05 2023","The main experiment item","yes","m21-ab-lexicalDecision.osexp","C:\Users\emoore8\Desktop\m21_vsl-main","no","mono","no","18","no","white","no","yes","1080","legacy","24","24","C:/Users/emoore8/Desktop/subject-203.csv","xpyriment","Lentiform Loewenfeld","3.3.11","0","z","NA","NA","NA","NA","space","z","628","NA","NA","NA","NA","60798","628","2","legacy","1024","2","48000","-16","AB_m21","203","odd","FILL_NW","BUTE","1907","170182","168387","165010","62715","NA","NA","NA","NA","NA","168887","NA","NA","NA","167887","NA","167858","1916","170582","NA","NA","NA","168927","1907","1907","NA","169555","169579","167858","168887","168907","morph21_Oliver/Morris","22","21351","25","yes","1920","5"
"200","88.46153846153847","88.46153846153847","848.1153846153846","848.1153846153846","black","no","xpyriment","legacy","legacy","0","201","NA","uniform","NA","NA","NA","1","undefined","1","0","25","25","25","0","25","25","25","NA","0","25","NA","NA","0","25","NA","25","0","25","NA","NA","NA","25","0","0","NA","25","25","25","25","25","26","/","Tue Jun 13 18:44:05 2023","The main experiment item","yes","m21-ab-lexicalDecision.osexp","C:\Users\emoore8\Desktop\m21_vsl-main","no","mono","no","18","no","white","no","yes","1080","legacy","25","25","C:/Users/emoore8/Desktop/subject-203.csv","xpyriment","Lentiform Loewenfeld","3.3.11","0","/","NA","NA","NA","NA","space","/","700","NA","NA","NA","NA","60798","700","2","legacy","1024","2","48000","-16","AB_m21","203","odd","CW_S","ENJOYMENT","1907","173942","172074","165010","62715","NA","NA","NA","NA","NA","172575","NA","NA","NA","171573","NA","171548","1916","174143","NA","NA","NA","172615","1907","1907","NA","173315","173339","171548","172575","172595","morph21_Oliver/Morris","23","22051","26","yes","1920","40"
"200","88.88888888888889","88.88888888888889","837.7777777777778","837.7777777777778","black","no","xpyriment","legacy","legacy","0","202","NA","uniform","NA","NA","NA","1","undefined","1","0","26","26","26","0","26","26","26","NA","0","26","NA","NA","0","26","NA","26","0","26","NA","NA","NA","26","0","0","NA","26","26","26","26","26","27","/","Tue Jun 13 18:44:05 2023","The main experiment item","yes","m21-ab-lexicalDecision.osexp","C:\Users\emoore8\Desktop\m21_vsl-main","no","mono","no","18","no","white","no","yes","1080","legacy","26","26","C:/Users/emoore8/Desktop/subject-203.csv","xpyriment","Lentiform Loewenfeld","3.3.11","0","/","NA","NA","NA","NA","space","/","569","NA","NA","NA","NA","60798","569","2","legacy","1024","2","48000","-16","AB_m21","203","odd","CW_L","COLLECTOR","1907","178877","175636","177374","62715","NA","NA","NA","NA","NA","176136","NA","NA","NA","175135","NA","175108","1916","179077","NA","NA","NA","176177","1907","1907","NA","176747","176771","175108","176136","176157","morph21_Oliver/Morris","24","22620","27","yes","1920","46"
"300","89.28571428571429","89.28571428571429","831.8214285714286","831.8214285714286","black","no","xpyriment","legacy","legacy","0","207","NA","uniform","NA","NA","NA","1","undefined","1","0","27","27","27","0","27","27","27","NA","0","27","NA","NA","0","27","NA","27","0","27","NA","NA","NA","27","0","0","NA","27","27","27","27","27","28","/","Tue Jun 13 18:44:05 2023","The main experiment item","yes","m21-ab-lexicalDecision.osexp","C:\Users\emoore8\Desktop\m21_vsl-main","no","mono","no","18","no","white","no","yes","1080","legacy","27","27","C:/Users/emoore8/Desktop/subject-203.csv","xpyriment","Lentiform Loewenfeld","3.3.11","0","/","NA","NA","NA","NA","space","/","671","NA","NA","NA","NA","60798","671","2","legacy","1024","2","48000","-16","AB_m21","203","odd","FILL_W","BALD","1907","182469","180629","177374","62715","NA","NA","NA","NA","NA","181131","NA","NA","NA","180128","NA","180102","1916","182769","NA","NA","NA","181172","1907","1907","NA","181843","181866","180102","181131","181152","morph21_Oliver/Morris","25","23291","28","yes","1920","3"
"350","89.65517241379311","89.65517241379311","824.6896551724138","824.6896551724138","black","no","xpyriment","legacy","legacy","0","203","NA","uniform","NA","NA","NA","1","undefined","1","0","28","28","28","0","28","28","28","NA","0","28","NA","NA","0","28","NA","28","0","28","NA","NA","NA","28","0","0","NA","28","28","28","28","28","29","z","Tue Jun 13 18:44:05 2023","The main experiment item","yes","m21-ab-lexicalDecision.osexp","C:\Users\emoore8\Desktop\m21_vsl-main","no","mono","no","18","no","white","no","yes","1080","legacy","28","28","C:/Users/emoore8/Desktop/subject-203.csv","xpyriment","Lentiform Loewenfeld","3.3.11","0","z","NA","NA","NA","NA","space","z","625","NA","NA","NA","NA","60798","625","2","legacy","1024","2","48000","-16","AB_m21","203","odd","NW_S_COMP","DEBTISH","1907","186069","184278","177374","62715","NA","NA","NA","NA","NA","184778","NA","NA","NA","183777","NA","183751","1916","186420","NA","NA","NA","184818","1907","1907","NA","185443","185466","183751","184778","184798","morph21_Oliver/Morris","26","23916","29","yes","1920","22"
"300","90","90","823.4","823.4","black","no","xpyriment","legacy","legacy","0","208","NA","uniform","NA","NA","NA","1","undefined","1","0","29","29","29","0","29","29","29","NA","0","29","NA","NA","0","29","NA","29","0","29","NA","NA","NA","29","0","0","NA","29","29","29","29","29","30","z","Tue Jun 13 18:44:05 2023","The main experiment item","yes","m21-ab-lexicalDecision.osexp","C:\Users\emoore8\Desktop\m21_vsl-main","no","mono","no","18","no","white","no","yes","1080","legacy","29","29","C:/Users/emoore8/Desktop/subject-203.csv","xpyriment","Lentiform Loewenfeld","3.3.11","0","z","NA","NA","NA","NA","space","z","786","NA","NA","NA","NA","60798","786","2","legacy","1024","2","48000","-16","AB_m21","203","odd","FILL_NW","BAFED","1907","191381","187923","189879","62715","NA","NA","NA","NA","NA","188424","NA","NA","NA","187423","NA","187395","1916","191682","NA","NA","NA","188465","1907","1907","NA","189251","189276","187395","188424","188445","morph21_Oliver/Morris","27","24702","30","yes","1920","1"
"350","90.3225806451613","90.3225806451613","824.0645161290323","824.0645161290323","black","no","xpyriment","legacy","legacy","0","202","NA","uniform","NA","NA","NA","1","undefined","1","0","30","30","30","0","30","30","30","NA","0","30","NA","NA","0","30","NA","30","0","30","NA","NA","NA","30","0","0","NA","30","30","30","30","30","31","/","Tue Jun 13 18:44:05 2023","The main experiment item","yes","m21-ab-lexicalDecision.osexp","C:\Users\emoore8\Desktop\m21_vsl-main","no","mono","no","18","no","white","no","yes","1080","legacy","30","30","C:/Users/emoore8/Desktop/subject-203.csv","xpyriment","Lentiform Loewenfeld","3.3.11","0","/","NA","NA","NA","NA","space","/","844","NA","NA","NA","NA","60798","844","2","legacy","1024","2","48000","-16","AB_m21","203","odd","CW_L","BARKER","1907","195206","193193","189879","62715","NA","NA","NA","NA","NA","193694","NA","NA","NA","192693","NA","192669","1916","195556","NA","NA","NA","193734","1907","1907","NA","194579","194602","192669","193694","193714","morph21_Oliver/Morris","28","25546","31","yes","1920","2"
"400","90.625","90.625","822.0625","822.0625","black","no","xpyriment","legacy","legacy","0","208","NA","uniform","NA","NA","NA","1","undefined","1","0","31","31","31","0","31","31","31","NA","0","31","NA","NA","0","31","NA","31","0","31","NA","NA","NA","31","0","0","NA","31","31","31","31","31","32","z","Tue Jun 13 18:44:05 2023","The main experiment item","yes","m21-ab-lexicalDecision.osexp","C:\Users\emoore8\Desktop\m21_vsl-main","no","mono","no","18","no","white","no","yes","1080","legacy","31","31","C:/Users/emoore8/Desktop/subject-203.csv","xpyriment","Lentiform Loewenfeld","3.3.11","0","z","NA","NA","NA","NA","space","z","760","NA","NA","NA","NA","60798","760","2","legacy","1024","2","48000","-16","AB_m21","203","odd","FILL_NW","SOISE","1907","198982","197055","189879","62715","NA","NA","NA","NA","NA","197555","NA","NA","NA","196554","NA","196530","1916","199382","NA","NA","NA","197595","1907","1907","NA","198356","198379","196530","197555","197575","morph21_Oliver/Morris","29","26306","32","yes","1920","43"
"350","90.9090909090909","90.9090909090909","818.2424242424242","818.2424242424242","black","no","xpyriment","legacy","legacy","0","201","NA","uniform","NA","NA","NA","1","undefined","1","0","32","32","32","0","32","32","32","NA","0","32","NA","NA","0","32","NA","32","0","32","NA","NA","NA","32","0","0","NA","32","32","32","32","32","33","/","Tue Jun 13 18:44:05 2023","The main experiment item","yes","m21-ab-lexicalDecision.osexp","C:\Users\emoore8\Desktop\m21_vsl-main","no","mono","no","18","no","white","no","yes","1080","legacy","32","32","C:/Users/emoore8/Desktop/subject-203.csv","xpyriment","Lentiform Loewenfeld","3.3.11","0","/","NA","NA","NA","NA","space","/","696","NA","NA","NA","NA","60798","696","2","legacy","1024","2","48000","-16","AB_m21","203","odd","CW_S","BEARDED","1907","204254","200886","202751","62715","NA","NA","NA","NA","NA","201386","NA","NA","NA","200385","NA","200362","1916","204604","NA","NA","NA","201427","1907","1907","NA","202124","202148","200362","201386","201407","morph21_Oliver/Morris","30","27002","33","yes","1920","8"
"300","91.17647058823529","91.17647058823529","816.2647058823529","816.2647058823529","black","no","xpyriment","legacy","legacy","0","207","NA","uniform","NA","NA","NA","1","undefined","1","0","33","33","33","0","33","33","33","NA","0","33","NA","NA","0","33","NA","33","0","33","NA","NA","NA","33","0","0","NA","33","33","33","33","33","34","/","Tue Jun 13 18:44:05 2023","The main experiment item","yes","m21-ab-lexicalDecision.osexp","C:\Users\emoore8\Desktop\m21_vsl-main","no","mono","no","18","no","white","no","yes","1080","legacy","33","33","C:/Users/emoore8/Desktop/subject-203.csv","xpyriment","Lentiform Loewenfeld","3.3.11","0","/","NA","NA","NA","NA","space","/","751","NA","NA","NA","NA","60798","751","2","legacy","1024","2","48000","-16","AB_m21","203","odd","FILL_W","MOURN","1907","208022","206103","202751","62715","NA","NA","NA","NA","NA","206604","NA","NA","NA","205602","NA","205576","1916","208322","NA","NA","NA","206644","1907","1907","NA","207395","207419","205576","206604","206624","morph21_Oliver/Morris","31","27753","34","yes","1920","26"
"400","91.42857142857143","91.42857142857143","808.9714285714285","808.9714285714285","black","no","xpyriment","legacy","legacy","0","208","NA","uniform","NA","NA","NA","1","undefined","1","0","34","34","34","0","34","34","34","NA","0","34","NA","NA","0","34","NA","34","0","34","NA","NA","NA","34","0","0","NA","34","34","34","34","34","35","z","Tue Jun 13 18:44:05 2023","The main experiment item","yes","m21-ab-lexicalDecision.osexp","C:\Users\emoore8\Desktop\m21_vsl-main","no","mono","no","18","no","white","no","yes","1080","legacy","34","34","C:/Users/emoore8/Desktop/subject-203.csv","xpyriment","Lentiform Loewenfeld","3.3.11","0","z","NA","NA","NA","NA","space","z","561","NA","NA","NA","NA","60798","561","2","legacy","1024","2","48000","-16","AB_m21","203","odd","FILL_NW","FROES","1907","211551","209821","202751","62715","NA","NA","NA","NA","NA","210321","NA","NA","NA","209321","NA","209293","1916","211951","NA","NA","NA","210362","1907","1907","NA","210923","210947","209293","210321","210342","morph21_Oliver/Morris","32","28314","35","yes","1920","21"
"350","91.66666666666667","91.66666666666667","802.9722222222222","802.9722222222222","black","no","xpyriment","legacy","legacy","0","201","NA","uniform","NA","NA","NA","1","undefined","1","0","35","35","35","0","35","35","35","NA","0","35","NA","NA","0","35","NA","35","0","35","NA","NA","NA","35","0","0","NA","35","35","35","35","35","36","/","Tue Jun 13 18:44:05 2023","The main experiment item","yes","m21-ab-lexicalDecision.osexp","C:\Users\emoore8\Desktop\m21_vsl-main","no","mono","no","18","no","white","no","yes","1080","legacy","35","35","C:/Users/emoore8/Desktop/subject-203.csv","xpyriment","Lentiform Loewenfeld","3.3.11","0","/","NA","NA","NA","NA","space","/","593","NA","NA","NA","NA","60798","593","2","legacy","1024","2","48000","-16","AB_m21","203","odd","CW_S","NEATLY","1907","216718","213453","215215","62715","NA","NA","NA","NA","NA","213953","NA","NA","NA","212953","NA","212925","1916","217068","NA","NA","NA","213994","1907","1907","NA","214588","214612","212925","213953","213974","morph21_Oliver/Morris","33","28907","36","yes","1920","33"
"300","91.89189189189189","91.89189189189189","799.5405405405405","799.5405405405405","black","no","xpyriment","legacy","legacy","0","208","NA","uniform","NA","NA","NA","1","undefined","1","0","36","36","36","0","36","36","36","NA","0","36","NA","NA","0","36","NA","36","0","36","NA","NA","NA","36","0","0","NA","36","36","36","36","36","37","z","Tue Jun 13 18:44:05 2023","The main experiment item","yes","m21-ab-lexicalDecision.osexp","C:\Users\emoore8\Desktop\m21_vsl-main","no","mono","no","18","no","white","no","yes","1080","legacy","36","36","C:/Users/emoore8/Desktop/subject-203.csv","xpyriment","Lentiform Loewenfeld","3.3.11","0","z","NA","NA","NA","NA","space","z","676","NA","NA","NA","NA","60798","676","2","legacy","1024","2","48000","-16","AB_m21","203","odd","FILL_NW","KEMT","1907","220414","218571","215215","62715","NA","NA","NA","NA","NA","219071","NA","NA","NA","218071","NA","218045","1916","220715","NA","NA","NA","219111","1907","1907","NA","219788","219811","218045","219071","219091","morph21_Oliver/Morris","34","29583","37","yes","1920","32"
"350","92.10526315789474","92.10526315789474","798.8684210526316","798.8684210526316","black","no","xpyriment","legacy","legacy","0","205","NA","uniform","NA","NA","NA","1","undefined","1","0","37","37","37","0","37","37","37","NA","0","37","NA","NA","0","37","NA","37","0","37","NA","NA","NA","37","0","0","NA","37","37","37","37","37","38","z","Tue Jun 13 18:44:05 2023","The main experiment item","yes","m21-ab-lexicalDecision.osexp","C:\Users\emoore8\Desktop\m21_vsl-main","no","mono","no","18","no","white","no","yes","1080","legacy","37","37","C:/Users/emoore8/Desktop/subject-203.csv","xpyriment","Lentiform Loewenfeld","3.3.11","0","z","NA","NA","NA","NA","space","z","774","NA","NA","NA","NA","60798","774","2","legacy","1024","2","48000","-16","AB_m21","203","odd","NW_S_SIMP","BASKODY","1907","224159","222216","215215","62715","NA","NA","NA","NA","NA","222716","NA","NA","NA","221716","NA","221689","1916","224509","NA","NA","NA","222756","1907","1907","NA","223531","223556","221689","222716","222736","morph21_Oliver/Morris","35","30357","38","yes","1920","10"
"250","92.3076923076923","92.3076923076923","793.3589743589744","793.3589743589744","black","no","xpyriment","legacy","legacy","0","207","NA","uniform","NA","NA","NA","1","undefined","1","0","38","38","38","0","38","38","38","NA","0","38","NA","NA","0","38","NA","38","0","38","NA","NA","NA","38","0","0","NA","38","38","38","38","38","39","/","Tue Jun 13 18:44:05 2023","The main experiment item","yes","m21-ab-lexicalDecision.osexp","C:\Users\emoore8\Desktop\m21_vsl-main","no","mono","no","18","no","white","no","yes","1080","legacy","38","38","C:/Users/emoore8/Desktop/subject-203.csv","xpyriment","Lentiform Loewenfeld","3.3.11","0","/","NA","NA","NA","NA","space","/","584","NA","NA","NA","NA","60798","584","2","legacy","1024","2","48000","-16","AB_m21","203","odd","FILL_W","SUIT","1907","229279","226022","227776","62715","NA","NA","NA","NA","NA","226522","NA","NA","NA","225521","NA","225493","1916","229529","NA","NA","NA","226562","1907","1907","NA","227147","227172","225493","226522","226542","morph21_Oliver/Morris","36","30941","39","yes","1920","49"
"250","92.5","92.5","790.25","790.25","black","no","xpyriment","legacy","legacy","0","207","NA","uniform","NA","NA","NA","1","undefined","1","0","39","39","39","0","39","39","39","NA","0","39","NA","NA","0","39","NA","39","0","39","NA","NA","NA","39","0","0","NA","39","39","39","39","39","40","/","Tue Jun 13 18:44:05 2023","The main experiment item","yes","m21-ab-lexicalDecision.osexp","C:\Users\emoore8\Desktop\m21_vsl-main","no","mono","no","18","no","white","no","yes","1080","legacy","39","39","C:/Users/emoore8/Desktop/subject-203.csv","xpyriment","Lentiform Loewenfeld","3.3.11","0","/","NA","NA","NA","NA","space","/","669","NA","NA","NA","NA","60798","669","2","legacy","1024","2","48000","-16","AB_m21","203","odd","FILL_W","FIERCE","1907","232880","231041","227776","62715","NA","NA","NA","NA","NA","231542","NA","NA","NA","230539","NA","230511","1916","233130","NA","NA","NA","231582","1907","1907","NA","232251","232276","230511","231542","231562","morph21_Oliver/Morris","37","31610","40","yes","1920","24"
"400","92.6829268292683","92.6829268292683","787.4146341463414","787.4146341463414","black","no","xpyriment","legacy","legacy","0","201","NA","uniform","NA","NA","NA","1","undefined","1","0","40","40","40","0","40","40","40","NA","0","40","NA","NA","0","40","NA","40","0","40","NA","NA","NA","40","0","0","NA","40","40","40","40","40","41","/","Tue Jun 13 18:44:05 2023","The main experiment item","yes","m21-ab-lexicalDecision.osexp","C:\Users\emoore8\Desktop\m21_vsl-main","no","mono","no","18","no","white","no","yes","1080","legacy","40","40","C:/Users/emoore8/Desktop/subject-203.csv","xpyriment","Lentiform Loewenfeld","3.3.11","0","/","NA","NA","NA","NA","space","/","674","NA","NA","NA","NA","60798","674","2","legacy","1024","2","48000","-16","AB_m21","203","odd","CW_S","DIETARY","1907","236479","234636","227776","62715","NA","NA","NA","NA","NA","235137","NA","NA","NA","234136","NA","234110","1916","236879","NA","NA","NA","235177","1907","1907","NA","235851","235875","234110","235136","235157","morph21_Oliver/Morris","38","32284","41","yes","1920","6"
"400","92.85714285714286","92.85714285714286","786.3333333333334","786.3333333333334","black","no","xpyriment","legacy","legacy","0","208","NA","uniform","NA","NA","NA","1","undefined","1","0","41","41","41","0","41","41","41","NA","0","41","NA","NA","0","41","NA","41","0","41","NA","NA","NA","41","0","0","NA","41","41","41","41","41","42","z","Tue Jun 13 18:44:05 2023","The main experiment item","yes","m21-ab-lexicalDecision.osexp","C:\Users\emoore8\Desktop\m21_vsl-main","no","mono","no","18","no","white","no","yes","1080","legacy","41","41","C:/Users/emoore8/Desktop/subject-203.csv","xpyriment","Lentiform Loewenfeld","3.3.11","0","z","NA","NA","NA","NA","space","z","742","NA","NA","NA","NA","60798","742","2","legacy","1024","2","48000","-16","AB_m21","203","odd","FILL_NW","BORMS","1907","241789","238376","240286","62715","NA","NA","NA","NA","NA","238876","NA","NA","NA","237875","NA","237849","1916","242190","NA","NA","NA","238917","1907","1907","NA","239660","239683","237849","238876","238897","morph21_Oliver/Morris","39","33026","42","yes","1920","50"
"350","90.69767441860465","90.69767441860465","780.6511627906976","780.6511627906976","black","no","xpyriment","legacy","legacy","0","204","NA","uniform","NA","NA","NA","0","undefined","0","0","42","42","42","0","42","42","42","NA","0","42","NA","NA","0","42","NA","42","0","42","NA","NA","NA","42","0","0","NA","42","42","42","42","42","43","z","Tue Jun 13 18:44:05 2023","The main experiment item","yes","m21-ab-lexicalDecision.osexp","C:\Users\emoore8\Desktop\m21_vsl-main","no","mono","no","18","no","white","no","yes","1080","legacy","42","42","C:/Users/emoore8/Desktop/subject-203.csv","xpyriment","Lentiform Loewenfeld","3.3.11","0","/","NA","NA","NA","NA","space","/","542","NA","NA","NA","NA","60798","542","2","legacy","1024","2","48000","-16","AB_m21","203","odd","NW_L_COMP","AGREELY","1907","245400","243688","240286","62715","NA","NA","NA","NA","NA","244188","NA","NA","NA","243188","NA","243160","1916","245751","NA","NA","NA","244229","1907","1907","NA","244772","244797","243160","244188","244209","morph21_Oliver/Morris","39","33568","43","yes","1920","24"
"400","90.9090909090909","90.9090909090909","789.5227272727273","789.5227272727273","black","no","xpyriment","legacy","legacy","0","207","NA","uniform","NA","NA","NA","1","undefined","1","0","43","43","43","0","43","43","43","NA","0","43","NA","NA","0","43","NA","43","0","43","NA","NA","NA","43","0","0","NA","43","43","43","43","43","44","/","Tue Jun 13 18:44:05 2023","The main experiment item","yes","m21-ab-lexicalDecision.osexp","C:\Users\emoore8\Desktop\m21_vsl-main","no","mono","no","18","no","white","no","yes","1080","legacy","43","43","C:/Users/emoore8/Desktop/subject-203.csv","xpyriment","Lentiform Loewenfeld","3.3.11","0","/","NA","NA","NA","NA","space","/","1171","NA","NA","NA","NA","60798","1171","2","legacy","1024","2","48000","-16","AB_m21","203","odd","FILL_W","CHIP","1907","249583","247243","240286","62715","NA","NA","NA","NA","NA","247743","NA","NA","NA","246742","NA","246716","1916","249983","NA","NA","NA","247784","1907","1907","NA","248955","248979","246716","247743","247764","morph21_Oliver/Morris","40","34739","44","yes","1920","11"
"400","91.11111111111111","91.11111111111111","788.3333333333334","788.3333333333334","black","no","xpyriment","legacy","legacy","0","202","NA","uniform","NA","NA","NA","1","undefined","1","0","44","44","44","0","44","44","44","NA","0","44","NA","NA","0","44","NA","44","0","44","NA","NA","NA","44","0","0","NA","44","44","44","44","44","45","/","Tue Jun 13 18:44:05 2023","The main experiment item","yes","m21-ab-lexicalDecision.osexp","C:\Users\emoore8\Desktop\m21_vsl-main","no","mono","no","18","no","white","no","yes","1080","legacy","44","44","C:/Users/emoore8/Desktop/subject-203.csv","xpyriment","Lentiform Loewenfeld","3.3.11","0","/","NA","NA","NA","NA","space","/","736","NA","NA","NA","NA","60798","736","2","legacy","1024","2","48000","-16","AB_m21","203","odd","CW_L","BLINDNESS","1907","254896","251486","253392","62715","NA","NA","NA","NA","NA","251986","NA","NA","NA","250986","NA","250962","1916","255296","NA","NA","NA","252027","1907","1907","NA","252763","252787","250961","251986","252007","morph21_Oliver/Morris","41","35475","45","yes","1920","40"
"250","91.30434782608695","91.30434782608695","788.4130434782609","788.4130434782609","black","no","xpyriment","legacy","legacy","0","201","NA","uniform","NA","NA","NA","1","undefined","1","0","45","45","45","0","45","45","45","NA","0","45","NA","NA","0","45","NA","45","0","45","NA","NA","NA","45","0","0","NA","45","45","45","45","45","46","/","Tue Jun 13 18:44:05 2023","The main experiment item","yes","m21-ab-lexicalDecision.osexp","C:\Users\emoore8\Desktop\m21_vsl-main","no","mono","no","18","no","white","no","yes","1080","legacy","45","45","C:/Users/emoore8/Desktop/subject-203.csv","xpyriment","Lentiform Loewenfeld","3.3.11","0","/","NA","NA","NA","NA","space","/","792","NA","NA","NA","NA","60798","792","2","legacy","1024","2","48000","-16","AB_m21","203","odd","CW_S","NOTICEABLE","1907","258750","256790","253392","62715","NA","NA","NA","NA","NA","257290","NA","NA","NA","256289","NA","256265","1916","259000","NA","NA","NA","257331","1907","1907","NA","258124","258147","256265","257290","257311","morph21_Oliver/Morris","42","36267","46","yes","1920","3"
"400","91.48936170212765","91.48936170212765","787.468085106383","787.468085106383","black","no","xpyriment","legacy","legacy","0","206","NA","uniform","NA","NA","NA","1","undefined","1","0","46","46","46","0","46","46","46","NA","0","46","NA","NA","0","46","NA","46","0","46","NA","NA","NA","46","0","0","NA","46","46","46","46","46","47","z","Tue Jun 13 18:44:05 2023","The main experiment item","yes","m21-ab-lexicalDecision.osexp","C:\Users\emoore8\Desktop\m21_vsl-main","no","mono","no","18","no","white","no","yes","1080","legacy","46","46","C:/Users/emoore8/Desktop/subject-203.csv","xpyriment","Lentiform Loewenfeld","3.3.11","0","z","NA","NA","NA","NA","space","z","744","NA","NA","NA","NA","60798","744","2","legacy","1024","2","48000","-16","AB_m21","203","odd","NW_L_SIMP","BLOODEL","1907","262424","260511","253392","62715","NA","NA","NA","NA","NA","261011","NA","NA","NA","260011","NA","259984","1916","262824","NA","NA","NA","261051","1907","1907","NA","261796","261820","259984","261011","261031","morph21_Oliver/Morris","43","37011","47","yes","1920","24"
"200","91.66666666666667","91.66666666666667","786.2916666666666","786.2916666666666","black","no","xpyriment","legacy","legacy","0","207","NA","uniform","NA","NA","NA","1","undefined","1","0","47","47","47","0","47","47","47","NA","0","47","NA","NA","0","47","NA","47","0","47","NA","NA","NA","47","0","0","NA","47","47","47","47","47","48","/","Tue Jun 13 18:44:05 2023","The main experiment item","yes","m21-ab-lexicalDecision.osexp","C:\Users\emoore8\Desktop\m21_vsl-main","no","mono","no","18","no","white","no","yes","1080","legacy","47","47","C:/Users/emoore8/Desktop/subject-203.csv","xpyriment","Lentiform Loewenfeld","3.3.11","0","/","NA","NA","NA","NA","space","/","731","NA","NA","NA","NA","60798","731","2","legacy","1024","2","48000","-16","AB_m21","203","odd","FILL_W","TEST","1907","267741","264340","266239","62715","NA","NA","NA","NA","NA","264840","NA","NA","NA","263840","NA","263813","1916","267941","NA","NA","NA","264880","1907","1907","NA","265612","265635","263813","264840","264860","morph21_Oliver/Morris","44","37742","48","yes","1920","47"
"250","91.83673469387755","91.83673469387755","781.8979591836735","781.8979591836735","black","no","xpyriment","legacy","legacy","0","207","NA","uniform","NA","NA","NA","1","undefined","1","0","48","48","48","0","48","48","48","NA","0","48","NA","NA","0","48","NA","48","0","48","NA","NA","NA","48","0","0","NA","48","48","48","48","48","49","/","Tue Jun 13 18:44:05 2023","The main experiment item","yes","m21-ab-lexicalDecision.osexp","C:\Users\emoore8\Desktop\m21_vsl-main","no","mono","no","18","no","white","no","yes","1080","legacy","48","48","C:/Users/emoore8/Desktop/subject-203.csv","xpyriment","Lentiform Loewenfeld","3.3.11","0","/","NA","NA","NA","NA","space","/","571","NA","NA","NA","NA","60798","571","2","legacy","1024","2","48000","-16","AB_m21","203","odd","FILL_W","PACK","1907","271182","269444","266239","62715","NA","NA","NA","NA","NA","269944","NA","NA","NA","268944","NA","268918","1916","271432","NA","NA","NA","269984","1907","1907","NA","270556","270579","268918","269944","269964","morph21_Oliver/Morris","45","38313","49","yes","1920","41"
"400","92","92","779.3","779.3","black","no","xpyriment","legacy","legacy","0","203","NA","uniform","NA","NA","NA","1","undefined","1","0","49","49","49","0","49","49","49","NA","0","49","NA","NA","0","49","NA","49","0","49","NA","NA","NA","49","0","0","NA","49","49","49","49","49","50","z","Tue Jun 13 18:44:05 2023","The main experiment item","yes","m21-ab-lexicalDecision.osexp","C:\Users\emoore8\Desktop\m21_vsl-main","no","mono","no","18","no","white","no","yes","1080","legacy","49","49","C:/Users/emoore8/Desktop/subject-203.csv","xpyriment","Lentiform Loewenfeld","3.3.11","0","z","NA","NA","NA","NA","space","z","652","NA","NA","NA","NA","60798","652","2","legacy","1024","2","48000","-16","AB_m21","203","odd","NW_S_COMP","ARIDISM","1907","274743","272922","266239","62715","NA","NA","NA","NA","NA","273422","NA","NA","NA","272422","NA","272398","1916","275143","NA","NA","NA","273463","1907","1907","NA","274115","274139","272398","273422","273443","morph21_Oliver/Morris","46","38965","50","yes","1920","9"
"400","92.15686274509804","92.15686274509804","781.2352941176471","781.2352941176471","black","no","xpyriment","legacy","legacy","0","204","NA","uniform","NA","NA","NA","1","undefined","1","0","50","50","50","0","50","50","50","NA","0","50","NA","NA","0","50","NA","50","0","50","NA","NA","NA","50","0","0","NA","50","50","50","50","50","51","z","Tue Jun 13 18:44:05 2023","The main experiment item","yes","m21-ab-lexicalDecision.osexp","C:\Users\emoore8\Desktop\m21_vsl-main","no","mono","no","18","no","white","no","yes","1080","legacy","50","50","C:/Users/emoore8/Desktop/subject-203.csv","xpyriment","Lentiform Loewenfeld","3.3.11","0","z","NA","NA","NA","NA","space","z","878","NA","NA","NA","NA","60798","878","2","legacy","1024","2","48000","-16","AB_m21","203","odd","NW_L_COMP","COLDITY","1907","280202","276648","278695","62715","NA","NA","NA","NA","NA","277148","NA","NA","NA","276147","NA","276120","1916","280602","NA","NA","NA","277189","1907","1907","NA","278068","278091","276120","277148","277169","morph21_Oliver/Morris","47","39843","51","yes","1920","10"
"400","92.3076923076923","92.3076923076923","777.7884615384615","777.7884615384615","black","no","xpyriment","legacy","legacy","0","207","NA","uniform","NA","NA","NA","1","undefined","1","0","51","51","51","0","51","51","51","NA","0","51","NA","NA","0","51","NA","51","0","51","NA","NA","NA","51","0","0","NA","51","51","51","51","51","52","/","Tue Jun 13 18:44:05 2023","The main experiment item","yes","m21-ab-lexicalDecision.osexp","C:\Users\emoore8\Desktop\m21_vsl-main","no","mono","no","18","no","white","no","yes","1080","legacy","51","51","C:/Users/emoore8/Desktop/subject-203.csv","xpyriment","Lentiform Loewenfeld","3.3.11","0","/","NA","NA","NA","NA","space","/","602","NA","NA","NA","NA","60798","602","2","legacy","1024","2","48000","-16","AB_m21","203","odd","FILL_W","CRUNCH","1907","283879","282109","278695","62715","NA","NA","NA","NA","NA","282609","NA","NA","NA","281609","NA","281583","1916","284279","NA","NA","NA","282649","1907","1907","NA","283252","283276","281583","282609","282629","morph21_Oliver/Morris","48","40445","52","yes","1920","20"
"200","92.45283018867924","92.45283018867924","774.7924528301887","774.7924528301887","black","no","xpyriment","legacy","legacy","0","201","NA","uniform","NA","NA","NA","1","undefined","1","0","52","52","52","0","52","52","52","NA","0","52","NA","NA","0","52","NA","52","0","52","NA","NA","NA","52","0","0","NA","52","52","52","52","52","53","/","Tue Jun 13 18:44:05 2023","The main experiment item","yes","m21-ab-lexicalDecision.osexp","C:\Users\emoore8\Desktop\m21_vsl-main","no","mono","no","18","no","white","no","yes","1080","legacy","52","52","C:/Users/emoore8/Desktop/subject-203.csv","xpyriment","Lentiform Loewenfeld","3.3.11","0","/","NA","NA","NA","NA","space","/","619","NA","NA","NA","NA","60798","619","2","legacy","1024","2","48000","-16","AB_m21","203","odd","CW_S","AMUSEMENT","1907","287591","285803","278695","62715","NA","NA","NA","NA","NA","286303","NA","NA","NA","285301","NA","285273","1916","287792","NA","NA","NA","286344","1907","1907","NA","286964","286987","285273","286303","286324","morph21_Oliver/Morris","49","41064","53","yes","1920","38"
"350","92.5925925925926","92.5925925925926","771.5370370370371","771.5370370370371","black","no","xpyriment","legacy","legacy","0","201","NA","uniform","NA","NA","NA","1","undefined","1","0","53","53","53","0","53","53","53","NA","0","53","NA","NA","0","53","NA","53","0","53","NA","NA","NA","53","0","0","NA","53","53","53","53","53","54","/","Tue Jun 13 18:44:05 2023","The main experiment item","yes","m21-ab-lexicalDecision.osexp","C:\Users\emoore8\Desktop\m21_vsl-main","no","mono","no","18","no","white","no","yes","1080","legacy","53","53","C:/Users/emoore8/Desktop/subject-203.csv","xpyriment","Lentiform Loewenfeld","3.3.11","0","/","NA","NA","NA","NA","space","/","599","NA","NA","NA","NA","60798","599","2","legacy","1024","2","48000","-16","AB_m21","203","odd","CW_S","STRANGENESS","1907","292590","289319","291087","62715","NA","NA","NA","NA","NA","289820","NA","NA","NA","288818","NA","288786","1916","292940","NA","NA","NA","289860","1907","1907","NA","290460","290483","288786","289820","289840","morph21_Oliver/Morris","50","41663","54","yes","1920","46"
"400","92.72727272727273","92.72727272727273","770.9090909090909","770.9090909090909","black","no","xpyriment","legacy","legacy","0","204","NA","uniform","NA","NA","NA","1","undefined","1","0","54","54","54","0","54","54","54","NA","0","54","NA","NA","0","54","NA","54","0","54","NA","NA","NA","54","0","0","NA","54","54","54","54","54","55","z","Tue Jun 13 18:44:05 2023","The main experiment item","yes","m21-ab-lexicalDecision.osexp","C:\Users\emoore8\Desktop\m21_vsl-main","no","mono","no","18","no","white","no","yes","1080","legacy","54","54","C:/Users/emoore8/Desktop/subject-203.csv","xpyriment","Lentiform Loewenfeld","3.3.11","0","z","NA","NA","NA","NA","space","z","737","NA","NA","NA","NA","60798","737","2","legacy","1024","2","48000","-16","AB_m21","203","odd","NW_L_COMP","RIPENCE","1907","296358","294454","291087","62715","NA","NA","NA","NA","NA","294954","NA","NA","NA","293954","NA","293924","1916","296758","NA","NA","NA","294994","1907","1907","NA","295731","295755","293924","294954","294974","morph21_Oliver/Morris","51","42400","55","yes","1920","4"
"350","92.85714285714286","92.85714285714286","766.5178571428571","766.5178571428571","black","no","xpyriment","legacy","legacy","0","201","NA","uniform","NA","NA","NA","1","undefined","1","0","55","55","55","0","55","55","55","NA","0","55","NA","NA","0","55","NA","55","0","55","NA","NA","NA","55","0","0","NA","55","55","55","55","55","56","/","Tue Jun 13 18:44:05 2023","The main experiment item","yes","m21-ab-lexicalDecision.osexp","C:\Users\emoore8\Desktop\m21_vsl-main","no","mono","no","18","no","white","no","yes","1080","legacy","55","55","C:/Users/emoore8/Desktop/subject-203.csv","xpyriment","Lentiform Loewenfeld","3.3.11","0","/","NA","NA","NA","NA","space","/","525","NA","NA","NA","NA","60798","525","2","legacy","1024","2","48000","-16","AB_m21","203","odd","CW_S","CHILLY","1907","299950","298257","291087","62715","NA","NA","NA","NA","NA","298757","NA","NA","NA","297757","NA","297732","1916","300300","NA","NA","NA","298798","1907","1907","NA","299324","299347","297732","298757","298778","morph21_Oliver/Morris","52","42925","56","yes","1920","48"
"200","92.98245614035088","92.98245614035088","767.1578947368421","767.1578947368421","black","no","xpyriment","legacy","legacy","0","201","NA","uniform","NA","NA","NA","1","undefined","1","0","56","56","56","0","56","56","56","NA","0","56","NA","NA","0","56","NA","56","0","56","NA","NA","NA","56","0","0","NA","56","56","56","56","56","57","/","Tue Jun 13 18:44:05 2023","The main experiment item","yes","m21-ab-lexicalDecision.osexp","C:\Users\emoore8\Desktop\m21_vsl-main","no","mono","no","18","no","white","no","yes","1080","legacy","56","56","C:/Users/emoore8/Desktop/subject-203.csv","xpyriment","Lentiform Loewenfeld","3.3.11","0","/","NA","NA","NA","NA","space","/","803","NA","NA","NA","NA","60798","803","2","legacy","1024","2","48000","-16","AB_m21","203","odd","CW_S","LISTENER","1907","305297","301819","303791","62715","NA","NA","NA","NA","NA","302320","NA","NA","NA","301319","NA","301285","1916","305497","NA","NA","NA","302360","1907","1907","NA","303164","303187","301285","302320","302340","morph21_Oliver/Morris","53","43728","57","yes","1920","18"
"350","93.10344827586206","93.10344827586206","770.8448275862069","770.8448275862069","black","no","xpyriment","legacy","legacy","0","201","NA","uniform","NA","NA","NA","1","undefined","1","0","57","57","57","0","57","57","57","NA","0","57","NA","NA","0","57","NA","57","0","57","NA","NA","NA","57","0","0","NA","57","57","57","57","57","58","/","Tue Jun 13 18:44:05 2023","The main experiment item","yes","m21-ab-lexicalDecision.osexp","C:\Users\emoore8\Desktop\m21_vsl-main","no","mono","no","18","no","white","no","yes","1080","legacy","57","57","C:/Users/emoore8/Desktop/subject-203.csv","xpyriment","Lentiform Loewenfeld","3.3.11","0","/","NA","NA","NA","NA","space","/","981","NA","NA","NA","NA","60798","981","2","legacy","1024","2","48000","-16","AB_m21","203","odd","CW_S","DENSELY","1907","309168","307015","303791","62715","NA","NA","NA","NA","NA","307515","NA","NA","NA","306515","NA","306485","1916","309518","NA","NA","NA","307557","1907","1907","NA","308539","308564","306485","307515","307537","morph21_Oliver/Morris","54","44709","58","yes","1920","32"
"250","93.22033898305085","93.22033898305085","767.0338983050848","767.0338983050848","black","no","xpyriment","legacy","legacy","0","207","NA","uniform","NA","NA","NA","1","undefined","1","0","58","58","58","0","58","58","58","NA","0","58","NA","NA","0","58","NA","58","0","58","NA","NA","NA","58","0","0","NA","58","58","58","58","58","59","/","Tue Jun 13 18:44:05 2023","The main experiment item","yes","m21-ab-lexicalDecision.osexp","C:\Users\emoore8\Desktop\m21_vsl-main","no","mono","no","18","no","white","no","yes","1080","legacy","58","58","C:/Users/emoore8/Desktop/subject-203.csv","xpyriment","Lentiform Loewenfeld","3.3.11","0","/","NA","NA","NA","NA","space","/","546","NA","NA","NA","NA","60798","546","2","legacy","1024","2","48000","-16","AB_m21","203","odd","FILL_W","TREAT","1907","312735","311019","303791","62715","NA","NA","NA","NA","NA","311519","NA","NA","NA","310519","NA","310492","1916","312986","NA","NA","NA","311560","1907","1907","NA","312107","312132","310491","311519","311540","morph21_Oliver/Morris","55","45255","59","yes","1920","48"
"350","93.33333333333333","93.33333333333333","765.9333333333333","765.9333333333333","black","no","xpyriment","legacy","legacy","0","208","NA","uniform","NA","NA","NA","1","undefined","1","0","59","59","59","0","59","59","59","NA","0","59","NA","NA","0","59","NA","59","0","59","NA","NA","NA","59","0","0","NA","59","59","59","59","59","60","z","Tue Jun 13 18:44:05 2023","The main experiment item","yes","m21-ab-lexicalDecision.osexp","C:\Users\emoore8\Desktop\m21_vsl-main","no","mono","no","18","no","white","no","yes","1080","legacy","59","59","C:/Users/emoore8/Desktop/subject-203.csv","xpyriment","Lentiform Loewenfeld","3.3.11","0","z","NA","NA","NA","NA","space","z","701","NA","NA","NA","NA","60798","701","2","legacy","1024","2","48000","-16","AB_m21","203","odd","FILL_NW","DELP","1907","317877","314504","316374","62715","NA","NA","NA","NA","NA","315005","NA","NA","NA","314003","NA","313974","1916","318227","NA","NA","NA","315045","1907","1907","NA","315747","315771","313974","315005","315025","morph21_Oliver/Morris","56","45956","60","yes","1920","14"
"300","93.44262295081967","93.44262295081967","761.9508196721312","761.9508196721312","black","no","xpyriment","legacy","legacy","0","207","NA","uniform","NA","NA","NA","1","undefined","1","0","60","60","60","0","60","60","60","NA","0","60","NA","NA","0","60","NA","60","0","60","NA","NA","NA","60","0","0","NA","60","60","60","60","60","61","/","Tue Jun 13 18:44:05 2023","The main experiment item","yes","m21-ab-lexicalDecision.osexp","C:\Users\emoore8\Desktop\m21_vsl-main","no","mono","no","18","no","white","no","yes","1080","legacy","60","60","C:/Users/emoore8/Desktop/subject-203.csv","xpyriment","Lentiform Loewenfeld","3.3.11","0","/","NA","NA","NA","NA","space","/","523","NA","NA","NA","NA","60798","523","2","legacy","1024","2","48000","-16","AB_m21","203","odd","FILL_W","IRON","1907","321432","319737","316374","62715","NA","NA","NA","NA","NA","320237","NA","NA","NA","319237","NA","319211","1916","321732","NA","NA","NA","320280","1907","1907","NA","320803","320828","319211","320237","320258","morph21_Oliver/Morris","57","46479","61","yes","1920","33"
"350","93.54838709677419","93.54838709677419","760.6774193548387","760.6774193548387","black","no","xpyriment","legacy","legacy","0","208","NA","uniform","NA","NA","NA","1","undefined","1","0","61","61","61","0","61","61","61","NA","0","61","NA","NA","0","61","NA","61","0","61","NA","NA","NA","61","0","0","NA","61","61","61","61","61","62","z","Tue Jun 13 18:44:05 2023","The main experiment item","yes","m21-ab-lexicalDecision.osexp","C:\Users\emoore8\Desktop\m21_vsl-main","no","mono","no","18","no","white","no","yes","1080","legacy","61","61","C:/Users/emoore8/Desktop/subject-203.csv","xpyriment","Lentiform Loewenfeld","3.3.11","0","z","NA","NA","NA","NA","space","z","683","NA","NA","NA","NA","60798","683","2","legacy","1024","2","48000","-16","AB_m21","203","odd","FILL_NW","DASP","1907","325110","323258","316374","62715","NA","NA","NA","NA","NA","323759","NA","NA","NA","322757","NA","322729","1916","325461","NA","NA","NA","323800","1907","1907","NA","324483","324507","322729","323759","323780","morph21_Oliver/Morris","58","47162","62","yes","1920","13"
"300","93.65079365079364","93.65079365079364","762.5238095238095","762.5238095238095","black","no","xpyriment","legacy","legacy","0","203","NA","uniform","NA","NA","NA","1","undefined","1","0","62","62","62","0","62","62","62","NA","0","62","NA","NA","0","62","NA","62","0","62","NA","NA","NA","62","0","0","NA","62","62","62","62","62","63","z","Tue Jun 13 18:44:05 2023","The main experiment item","yes","m21-ab-lexicalDecision.osexp","C:\Users\emoore8\Desktop\m21_vsl-main","no","mono","no","18","no","white","no","yes","1080","legacy","62","62","C:/Users/emoore8/Desktop/subject-203.csv","xpyriment","Lentiform Loewenfeld","3.3.11","0","z","NA","NA","NA","NA","space","z","877","NA","NA","NA","NA","60798","877","2","legacy","1024","2","48000","-16","AB_m21","203","odd","NW_S_COMP","CURTITY","1907","330518","326968","329014","62715","NA","NA","NA","NA","NA","327469","NA","NA","NA","326467","NA","326442","1916","330818","NA","NA","NA","327510","1907","1907","NA","328387","328411","326442","327469","327490","morph21_Oliver/Morris","59","48039","63","yes","1920","11"
"350","93.75","93.75","759.953125","759.953125","black","no","xpyriment","legacy","legacy","0","207","NA","uniform","NA","NA","NA","1","undefined","1","0","63","63","63","0","63","63","63","NA","0","63","NA","NA","0","63","NA","63","0","63","NA","NA","NA","63","0","0","NA","63","63","63","63","63","64","/","Tue Jun 13 18:44:05 2023","The main experiment item","yes","m21-ab-lexicalDecision.osexp","C:\Users\emoore8\Desktop\m21_vsl-main","no","mono","no","18","no","white","no","yes","1080","legacy","63","63","C:/Users/emoore8/Desktop/subject-203.csv","xpyriment","Lentiform Loewenfeld","3.3.11","0","/","NA","NA","NA","NA","space","/","598","NA","NA","NA","NA","60798","598","2","legacy","1024","2","48000","-16","AB_m21","203","odd","FILL_W","FOLLOW","1907","334111","332345","329014","62715","NA","NA","NA","NA","NA","332845","NA","NA","NA","331844","NA","331816","1916","334461","NA","NA","NA","332885","1907","1907","NA","333484","333508","331816","332845","332865","morph21_Oliver/Morris","60","48637","64","yes","1920","17"
"400","93.84615384615384","93.84615384615384","760.2615384615384","760.2615384615384","black","no","xpyriment","legacy","legacy","0","207","NA","uniform","NA","NA","NA","1","undefined","1","0","64","64","64","0","64","64","64","NA","0","64","NA","NA","0","64","NA","64","0","64","NA","NA","NA","64","0","0","NA","64","64","64","64","64","65","/","Tue Jun 13 18:44:05 2023","The main experiment item","yes","m21-ab-lexicalDecision.osexp","C:\Users\emoore8\Desktop\m21_vsl-main","no","mono","no","18","no","white","no","yes","1080","legacy","64","64","C:/Users/emoore8/Desktop/subject-203.csv","xpyriment","Lentiform Loewenfeld","3.3.11","0","/","NA","NA","NA","NA","space","/","780","NA","NA","NA","NA","60798","780","2","legacy","1024","2","48000","-16","AB_m21","203","odd","FILL_W","EAT","1907","337918","335969","329014","62715","NA","NA","NA","NA","NA","336471","NA","NA","NA","335468","NA","335444","1916","338318","NA","NA","NA","336511","1907","1907","NA","337291","337315","335444","336471","336491","morph21_Oliver/Morris","61","49417","65","yes","1920","25"
"200","93.93939393939394","93.93939393939394","759.1363636363636","759.1363636363636","black","no","xpyriment","legacy","legacy","0","206","NA","uniform","NA","NA","NA","1","undefined","1","0","65","65","65","0","65","65","65","NA","0","65","NA","NA","0","65","NA","65","0","65","NA","NA","NA","65","0","0","NA","65","65","65","65","65","66","z","Tue Jun 13 18:44:05 2023","The main experiment item","yes","m21-ab-lexicalDecision.osexp","C:\Users\emoore8\Desktop\m21_vsl-main","no","mono","no","18","no","white","no","yes","1080","legacy","65","65","C:/Users/emoore8/Desktop/subject-203.csv","xpyriment","Lentiform Loewenfeld","3.3.11","0","z","NA","NA","NA","NA","space","z","686","NA","NA","NA","NA","60798","686","2","legacy","1024","2","48000","-16","AB_m21","203","odd","NW_L_SIMP","GROWILT","1907","343201","339840","341697","62715","NA","NA","NA","NA","NA","340340","NA","NA","NA","339339","NA","339311","1916","343401","NA","NA","NA","340381","1907","1907","NA","341068","341093","339311","340340","340361","morph21_Oliver/Morris","62","50103","66","yes","1920","20"
"400","94.02985074626865","94.02985074626865","761.9701492537314","761.9701492537314","black","no","xpyriment","legacy","legacy","0","202","NA","uniform","NA","NA","NA","1","undefined","1","0","66","66","66","0","66","66","66","NA","0","66","NA","NA","0","66","NA","66","0","66","NA","NA","NA","66","0","0","NA","66","66","66","66","66","67","/","Tue Jun 13 18:44:05 2023","The main experiment item","yes","m21-ab-lexicalDecision.osexp","C:\Users\emoore8\Desktop\m21_vsl-main","no","mono","no","18","no","white","no","yes","1080","legacy","66","66","C:/Users/emoore8/Desktop/subject-203.csv","xpyriment","Lentiform Loewenfeld","3.3.11","0","/","NA","NA","NA","NA","space","/","949","NA","NA","NA","NA","60798","949","2","legacy","1024","2","48000","-16","AB_m21","203","odd","CW_L","SPELLER","1907","347022","344905","341697","62715","NA","NA","NA","NA","NA","345405","NA","NA","NA","344405","NA","344379","1916","347422","NA","NA","NA","345446","1907","1907","NA","346396","346419","344379","345405","345425","morph21_Oliver/Morris","63","51052","67","yes","1920","3"
"300","94.11764705882354","94.11764705882354","761.5441176470588","761.5441176470588","black","no","xpyriment","legacy","legacy","0","204","NA","uniform","NA","NA","NA","1","undefined","1","0","67","67","67","0","67","67","67","NA","0","67","NA","NA","0","67","NA","67","0","67","NA","NA","NA","67","0","0","NA","67","67","67","67","67","68","z","Tue Jun 13 18:44:05 2023","The main experiment item","yes","m21-ab-lexicalDecision.osexp","C:\Users\emoore8\Desktop\m21_vsl-main","no","mono","no","18","no","white","no","yes","1080","legacy","67","67","C:/Users/emoore8/Desktop/subject-203.csv","xpyriment","Lentiform Loewenfeld","3.3.11","0","z","NA","NA","NA","NA","space","z","733","NA","NA","NA","NA","60798","733","2","legacy","1024","2","48000","-16","AB_m21","203","odd","NW_L_COMP","NORTHIZE","1907","350846","348945","341697","62715","NA","NA","NA","NA","NA","349445","NA","NA","NA","348443","NA","348411","1916","351146","NA","NA","NA","349486","1907","1907","NA","350220","350243","348411","349445","349466","morph21_Oliver/Morris","64","51785","68","yes","1920","20"
"250","94.20289855072464","94.20289855072464","758.6521739130435","758.6521739130435","black","no","xpyriment","legacy","legacy","0","208","NA","uniform","NA","NA","NA","1","undefined","1","0","68","68","68","0","68","68","68","NA","0","68","NA","NA","0","68","NA","68","0","68","NA","NA","NA","68","0","0","NA","68","68","68","68","68","69","z","Tue Jun 13 18:44:05 2023","The main experiment item","yes","m21-ab-lexicalDecision.osexp","C:\Users\emoore8\Desktop\m21_vsl-main","no","mono","no","18","no","white","no","yes","1080","legacy","68","68","C:/Users/emoore8/Desktop/subject-203.csv","xpyriment","Lentiform Loewenfeld","3.3.11","0","z","NA","NA","NA","NA","space","z","562","NA","NA","NA","NA","60798","562","2","legacy","1024","2","48000","-16","AB_m21","203","odd","FILL_NW","PLAODS","1907","355878","352644","354375","62715","NA","NA","NA","NA","NA","353144","NA","NA","NA","352144","NA","352118","1916","356128","NA","NA","NA","353185","1907","1907","NA","353748","353771","352118","353144","353165","morph21_Oliver/Morris","65","52347","69","yes","1920","37"
"400","94.28571428571429","94.28571428571429","757.1","757.1","black","no","xpyriment","legacy","legacy","0","206","NA","uniform","NA","NA","NA","1","undefined","1","0","69","69","69","0","69","69","69","NA","0","69","NA","NA","0","69","NA","69","0","69","NA","NA","NA","69","0","0","NA","69","69","69","69","69","70","z","Tue Jun 13 18:44:05 2023","The main experiment item","yes","m21-ab-lexicalDecision.osexp","C:\Users\emoore8\Desktop\m21_vsl-main","no","mono","no","18","no","white","no","yes","1080","legacy","69","69","C:/Users/emoore8/Desktop/subject-203.csv","xpyriment","Lentiform Loewenfeld","3.3.11","0","z","NA","NA","NA","NA","space","z","650","NA","NA","NA","NA","60798","650","2","legacy","1024","2","48000","-16","AB_m21","203","odd","NW_L_SIMP","BOGADY","1907","359438","357621","354375","62715","NA","NA","NA","NA","NA","358121","NA","NA","NA","357121","NA","357098","1916","359839","NA","NA","NA","358161","1907","1907","NA","358812","358835","357098","358121","358141","morph21_Oliver/Morris","66","52997","70","yes","1920","2"
"250","94.36619718309859","94.36619718309859","756.4366197183099","756.4366197183099","black","no","xpyriment","legacy","legacy","0","201","NA","uniform","NA","NA","NA","1","undefined","1","0","70","70","70","0","70","70","70","NA","0","70","NA","NA","0","70","NA","70","0","70","NA","NA","NA","70","0","0","NA","70","70","70","70","70","71","/","Tue Jun 13 18:44:05 2023","The main experiment item","yes","m21-ab-lexicalDecision.osexp","C:\Users\emoore8\Desktop\m21_vsl-main","no","mono","no","18","no","white","no","yes","1080","legacy","70","70","C:/Users/emoore8/Desktop/subject-203.csv","xpyriment","Lentiform Loewenfeld","3.3.11","0","/","NA","NA","NA","NA","space","/","710","NA","NA","NA","NA","60798","710","2","legacy","1024","2","48000","-16","AB_m21","203","odd","CW_S","TUTORING","1907","363223","361345","354375","62715","NA","NA","NA","NA","NA","361845","NA","NA","NA","360844","NA","360817","1916","363473","NA","NA","NA","361885","1907","1907","NA","362596","362620","360817","361845","361865","morph21_Oliver/Morris","67","53707","71","yes","1920","27"
"250","94.44444444444444","94.44444444444444","757.5833333333334","757.5833333333334","black","no","xpyriment","legacy","legacy","0","201","NA","uniform","NA","NA","NA","1","undefined","1","0","71","71","71","0","71","71","71","NA","0","71","NA","NA","0","71","NA","71","0","71","NA","NA","NA","71","0","0","NA","71","71","71","71","71","72","/","Tue Jun 13 18:44:05 2023","The main experiment item","yes","m21-ab-lexicalDecision.osexp","C:\Users\emoore8\Desktop\m21_vsl-main","no","mono","no","18","no","white","no","yes","1080","legacy","71","71","C:/Users/emoore8/Desktop/subject-203.csv","xpyriment","Lentiform Loewenfeld","3.3.11","0","/","NA","NA","NA","NA","space","/","839","NA","NA","NA","NA","60798","839","2","legacy","1024","2","48000","-16","AB_m21","203","odd","CW_S","HARMLESS","1907","368486","364975","366982","62715","NA","NA","NA","NA","NA","365476","NA","NA","NA","364475","NA","364450","1916","368736","NA","NA","NA","365516","1907","1907","NA","366356","366379","364450","365476","365496","morph21_Oliver/Morris","68","54546","72","yes","1920","29"
"350","94.52054794520548","94.52054794520548","755.068493150685","755.068493150685","black","no","xpyriment","legacy","legacy","0","201","NA","uniform","NA","NA","NA","1","undefined","1","0","72","72","72","0","72","72","72","NA","0","72","NA","NA","0","72","NA","72","0","72","NA","NA","NA","72","0","0","NA","72","72","72","72","72","73","/","Tue Jun 13 18:44:05 2023","The main experiment item","yes","m21-ab-lexicalDecision.osexp","C:\Users\emoore8\Desktop\m21_vsl-main","no","mono","no","18","no","white","no","yes","1080","legacy","72","72","C:/Users/emoore8/Desktop/subject-203.csv","xpyriment","Lentiform Loewenfeld","3.3.11","0","/","NA","NA","NA","NA","space","/","574","NA","NA","NA","NA","60798","574","2","legacy","1024","2","48000","-16","AB_m21","203","odd","CW_S","TEACHER","1907","372014","370271","366982","62715","NA","NA","NA","NA","NA","370772","NA","NA","NA","369771","NA","369740","1916","372364","NA","NA","NA","370813","1907","1907","NA","371387","371411","369740","370772","370793","morph21_Oliver/Morris","69","55120","73","yes","1920","23"
"300","94.5945945945946","94.5945945945946","753.7432432432432","753.7432432432432","black","no","xpyriment","legacy","legacy","0","207","NA","uniform","NA","NA","NA","1","undefined","1","0","73","73","73","0","73","73","73","NA","0","73","NA","NA","0","73","NA","73","0","73","NA","NA","NA","73","0","0","NA","73","73","73","73","73","74","/","Tue Jun 13 18:44:05 2023","The main experiment item","yes","m21-ab-lexicalDecision.osexp","C:\Users\emoore8\Desktop\m21_vsl-main","no","mono","no","18","no","white","no","yes","1080","legacy","73","73","C:/Users/emoore8/Desktop/subject-203.csv","xpyriment","Lentiform Loewenfeld","3.3.11","0","/","NA","NA","NA","NA","space","/","657","NA","NA","NA","NA","60798","657","2","legacy","1024","2","48000","-16","AB_m21","203","odd","FILL_W","SICK","1907","375696","373866","366982","62715","NA","NA","NA","NA","NA","374368","NA","NA","NA","373366","NA","373341","1916","375997","NA","NA","NA","374409","1907","1907","NA","375067","375092","373341","374368","374388","morph21_Oliver/Morris","70","55777","74","yes","1920","36"
"250","94.66666666666667","94.66666666666667","753","753","black","no","xpyriment","legacy","legacy","0","207","NA","uniform","NA","NA","NA","undefined","undefined","1","0","74","74","74","0","74","74","74","NA","0","74","NA","NA","0","74","NA","74","0","74","NA","NA","NA","74","0","0","NA","74","74","74","74","74","75","/","Tue Jun 13 18:44:05 2023","The main experiment item","yes","m21-ab-lexicalDecision.osexp","C:\Users\emoore8\Desktop\m21_vsl-main","no","mono","no","18","no","white","no","yes","1080","legacy","74","74","C:/Users/emoore8/Desktop/subject-203.csv","xpyriment","Lentiform Loewenfeld","3.3.11","0","space","space","NA","NA","NA","space","/","5021","5021","NA","NA","NA","60798","698","2","legacy","1024","2","48000","-16","AB_m21","203","odd","FILL_W","STARVE","1907","380886","377516","379383","62715","381142","NA","NA","NA","NA","378017","NA","NA","NA","377014","NA","376984","1916","386164","NA","NA","NA","378057","1907","1907","NA","378756","378780","376984","378017","378037","morph21_Oliver/Morris","71","56475","75","yes","1920","15"
"350","94.73684210526316","94.73684210526316","755.8026315789474","755.8026315789474","black","no","xpyriment","legacy","legacy","0","202","NA","uniform","NA","NA","NA","1","undefined","1","0","75","75","75","0","75","75","75","NA","0","75","NA","NA","0","75","NA","75","0","75","NA","NA","NA","75","0","0","NA","75","75","75","75","75","76","/","Tue Jun 13 18:44:05 2023","The main experiment item","yes","m21-ab-lexicalDecision.osexp","C:\Users\emoore8\Desktop\m21_vsl-main","no","mono","no","18","no","white","no","yes","1080","legacy","75","75","C:/Users/emoore8/Desktop/subject-203.csv","xpyriment","Lentiform Loewenfeld","3.3.11","0","/","space","NA","NA","NA","space","/","966","5021","NA","NA","NA","60798","966","2","legacy","1024","2","48000","-16","AB_m21","203","odd","CW_L","GUARDING","1907","389846","387712","379383","62715","381142","NA","NA","NA","NA","388212","NA","NA","NA","387212","NA","387179","1916","390196","NA","NA","NA","388253","1907","1907","NA","389220","389243","387179","388212","388233","morph21_Oliver/Morris","72","57441","76","yes","1920","26"
"350","94.8051948051948","94.8051948051948","754.9090909090909","754.9090909090909","black","no","xpyriment","legacy","legacy","0","206","NA","uniform","NA","NA","NA","1","undefined","1","0","76","76","76","0","76","76","76","NA","0","76","NA","NA","0","76","NA","76","0","76","NA","NA","NA","76","0","0","NA","76","76","76","76","76","77","z","Tue Jun 13 18:44:05 2023","The main experiment item","yes","m21-ab-lexicalDecision.osexp","C:\Users\emoore8\Desktop\m21_vsl-main","no","mono","no","18","no","white","no","yes","1080","legacy","76","76","C:/Users/emoore8/Desktop/subject-203.csv","xpyriment","Lentiform Loewenfeld","3.3.11","0","z","space","NA","NA","NA","space","z","687","5021","NA","NA","NA","60798","687","2","legacy","1024","2","48000","-16","AB_m21","203","odd","NW_L_SIMP","NUTLA","1907","393583","391725","379383","62715","381142","NA","NA","NA","NA","392227","NA","NA","NA","391224","NA","391198","1916","393933","NA","NA","NA","392268","1907","1907","NA","392955","392980","391198","392227","392247","morph21_Oliver/Morris","73","58128","77","yes","1920","14"
"300","94.87179487179488","94.87179487179488","752.474358974359","752.474358974359","black","no","xpyriment","legacy","legacy","0","208","NA","uniform","NA","NA","NA","1","undefined","1","0","77","77","77","0","77","77","77","NA","0","77","NA","NA","0","77","NA","77","0","77","NA","NA","NA","77","0","0","NA","77","77","77","77","77","78","z","Tue Jun 13 18:44:05 2023","The main experiment item","yes","m21-ab-lexicalDecision.osexp","C:\Users\emoore8\Desktop\m21_vsl-main","no","mono","no","18","no","white","no","yes","1080","legacy","77","77","C:/Users/emoore8/Desktop/subject-203.csv","xpyriment","Lentiform Loewenfeld","3.3.11","0","z","space","NA","NA","NA","space","z","565","5021","NA","NA","NA","60798","565","2","legacy","1024","2","48000","-16","AB_m21","203","odd","FILL_NW","VOGS","1907","398678","395442","397175","62715","381142","NA","NA","NA","NA","395942","NA","NA","NA","394940","NA","394911","1916","398978","NA","NA","NA","395982","1907","1907","NA","396548","396572","394911","395942","395962","morph21_Oliver/Morris","74","58693","78","yes","1920","47"
"200","94.9367088607595","94.9367088607595","750.7088607594936","750.7088607594936","black","no","xpyriment","legacy","legacy","0","205","NA","uniform","NA","NA","NA","1","undefined","1","0","78","78","78","0","78","78","78","NA","0","78","NA","NA","0","78","NA","78","0","78","NA","NA","NA","78","0","0","NA","78","78","78","78","78","79","z","Tue Jun 13 18:44:05 2023","The main experiment item","yes","m21-ab-lexicalDecision.osexp","C:\Users\emoore8\Desktop\m21_vsl-main","no","mono","no","18","no","white","no","yes","1080","legacy","78","78","C:/Users/emoore8/Desktop/subject-203.csv","xpyriment","Lentiform Loewenfeld","3.3.11","0","z","space","NA","NA","NA","space","z","613","5021","NA","NA","NA","60798","613","2","legacy","1024","2","48000","-16","AB_m21","203","odd","NW_S_SIMP","NULLITH","1907","402263","400481","397175","62715","381142","NA","NA","NA","NA","400981","NA","NA","NA","399981","NA","399948","1916","402463","NA","NA","NA","401022","1907","1907","NA","401636","401659","399948","400981","401002","morph21_Oliver/Morris","75","59306","79","yes","1920","23"
"350","95","95","749.5875","749.5875","black","no","xpyriment","legacy","legacy","0","202","NA","uniform","NA","NA","NA","1","undefined","1","0","79","79","79","0","79","79","79","NA","0","79","NA","NA","0","79","NA","79","0","79","NA","NA","NA","79","0","0","NA","79","79","79","79","79","80","/","Tue Jun 13 18:44:05 2023","The main experiment item","yes","m21-ab-lexicalDecision.osexp","C:\Users\emoore8\Desktop\m21_vsl-main","no","mono","no","18","no","white","no","yes","1080","legacy","79","79","C:/Users/emoore8/Desktop/subject-203.csv","xpyriment","Lentiform Loewenfeld","3.3.11","0","/","space","NA","NA","NA","space","/","661","5021","NA","NA","NA","60798","661","2","legacy","1024","2","48000","-16","AB_m21","203","odd","CW_L","PARKING","1907","405806","403977","397175","62715","381142","NA","NA","NA","NA","404478","NA","NA","NA","403477","NA","403449","1916","406156","NA","NA","NA","404518","1907","1907","NA","405180","405203","403449","404478","404498","morph21_Oliver/Morris","76","59967","80","yes","1920","25"
"250","95.06172839506173","95.06172839506173","749.3827160493827","749.3827160493827","black","no","xpyriment","legacy","legacy","0","207","NA","uniform","NA","NA","NA","1","undefined","1","0","80","80","80","0","80","80","80","NA","0","80","NA","NA","0","80","NA","80","0","80","NA","NA","NA","80","0","0","NA","80","80","80","80","80","81","/","Tue Jun 13 18:44:05 2023","The main experiment item","yes","m21-ab-lexicalDecision.osexp","C:\Users\emoore8\Desktop\m21_vsl-main","no","mono","no","18","no","white","no","yes","1080","legacy","80","80","C:/Users/emoore8/Desktop/subject-203.csv","xpyriment","Lentiform Loewenfeld","3.3.11","0","/","space","NA","NA","NA","space","/","733","5021","NA","NA","NA","60798","733","2","legacy","1024","2","48000","-16","AB_m21","203","odd","FILL_W","TASTE","1907","411072","407664","409569","62715","381142","NA","NA","NA","NA","408165","NA","NA","NA","407162","NA","407138","1916","411322","NA","NA","NA","408205","1907","1907","NA","408939","408965","407138","408165","408185","morph21_Oliver/Morris","77","60700","81","yes","1920","34"
"250","95.1219512195122","95.1219512195122","748.7073170731708","748.7073170731708","black","no","xpyriment","legacy","legacy","0","201","NA","uniform","NA","NA","NA","1","undefined","1","0","81","81","81","0","81","81","81","NA","0","81","NA","NA","0","81","NA","81","0","81","NA","NA","NA","81","0","0","NA","81","81","81","81","81","82","/","Tue Jun 13 18:44:05 2023","The main experiment item","yes","m21-ab-lexicalDecision.osexp","C:\Users\emoore8\Desktop\m21_vsl-main","no","mono","no","18","no","white","no","yes","1080","legacy","81","81","C:/Users/emoore8/Desktop/subject-203.csv","xpyriment","Lentiform Loewenfeld","3.3.11","0","/","space","NA","NA","NA","space","/","694","5021","NA","NA","NA","60798","694","2","legacy","1024","2","48000","-16","AB_m21","203","odd","CW_S","PEAKING","1907","414689","412824","409569","62715","381142","NA","NA","NA","NA","413325","NA","NA","NA","412323","NA","412300","1916","414939","NA","NA","NA","413365","1907","1907","NA","414060","414085","412300","413325","413345","morph21_Oliver/Morris","78","61394","82","yes","1920","28"
"200","95.18072289156626","95.18072289156626","746","746","black","no","xpyriment","legacy","legacy","0","207","NA","uniform","NA","NA","NA","1","undefined","1","0","82","82","82","0","82","82","82","NA","0","82","NA","NA","0","82","NA","82","0","82","NA","NA","NA","82","0","0","NA","82","82","82","82","82","83","/","Tue Jun 13 18:44:05 2023","The main experiment item","yes","m21-ab-lexicalDecision.osexp","C:\Users\emoore8\Desktop\m21_vsl-main","no","mono","no","18","no","white","no","yes","1080","legacy","82","82","C:/Users/emoore8/Desktop/subject-203.csv","xpyriment","Lentiform Loewenfeld","3.3.11","0","/","space","NA","NA","NA","space","/","524","5021","NA","NA","NA","60798","524","2","legacy","1024","2","48000","-16","AB_m21","203","odd","FILL_W","BRASS","1907","418136","416441","409569","62715","381142","NA","NA","NA","NA","416943","NA","NA","NA","415940","NA","415910","1916","418337","NA","NA","NA","416983","1907","1907","NA","417507","417533","415910","416943","416963","morph21_Oliver/Morris","79","61918","83","yes","1920","10"
"350","95.23809523809524","95.23809523809524","742.2619047619048","742.2619047619048","black","no","xpyriment","legacy","legacy","0","207","NA","uniform","NA","NA","NA","1","undefined","1","0","83","83","83","0","83","83","83","NA","0","83","NA","NA","0","83","NA","83","0","83","NA","NA","NA","83","0","0","NA","83","83","83","83","83","84","/","Tue Jun 13 18:44:05 2023","The main experiment item","yes","m21-ab-lexicalDecision.osexp","C:\Users\emoore8\Desktop\m21_vsl-main","no","mono","no","18","no","white","no","yes","1080","legacy","83","83","C:/Users/emoore8/Desktop/subject-203.csv","xpyriment","Lentiform Loewenfeld","3.3.11","0","/","space","NA","NA","NA","space","/","432","5021","NA","NA","NA","60798","432","2","legacy","1024","2","48000","-16","AB_m21","203","odd","FILL_W","LIFT","1907","422968","419861","421464","62715","381142","NA","NA","NA","NA","420362","NA","NA","NA","419360","NA","419327","1916","423318","NA","NA","NA","420403","1907","1907","NA","420836","420859","419327","420362","420383","morph21_Oliver/Morris","80","62350","84","yes","1920","39"
"200","95.29411764705883","95.29411764705883","738.8705882352941","738.8705882352941","black","no","xpyriment","legacy","legacy","0","207","NA","uniform","NA","NA","NA","1","undefined","1","0","84","84","84","0","84","84","84","NA","0","84","NA","NA","0","84","NA","84","0","84","NA","NA","NA","84","0","0","NA","84","84","84","84","84","85","/","Tue Jun 13 18:44:05 2023","The main experiment item","yes","m21-ab-lexicalDecision.osexp","C:\Users\emoore8\Desktop\m21_vsl-main","no","mono","no","18","no","white","no","yes","1080","legacy","84","84","C:/Users/emoore8/Desktop/subject-203.csv","xpyriment","Lentiform Loewenfeld","3.3.11","0","/","space","NA","NA","NA","space","/","454","5021","NA","NA","NA","60798","454","2","legacy","1024","2","48000","-16","AB_m21","203","odd","FILL_W","WRECK","1907","426438","424817","421464","62715","381142","NA","NA","NA","NA","425317","NA","NA","NA","424316","NA","424289","1916","426638","NA","NA","NA","425357","1907","1907","NA","425811","425835","424289","425317","425337","morph21_Oliver/Morris","81","62804","85","yes","1920","13"
"400","95.34883720930233","95.34883720930233","738.9418604651163","738.9418604651163","black","no","xpyriment","legacy","legacy","0","208","NA","uniform","NA","NA","NA","1","undefined","1","0","85","85","85","0","85","85","85","NA","0","85","NA","NA","0","85","NA","85","0","85","NA","NA","NA","85","0","0","NA","85","85","85","85","85","86","z","Tue Jun 13 18:44:05 2023","The main experiment item","yes","m21-ab-lexicalDecision.osexp","C:\Users\emoore8\Desktop\m21_vsl-main","no","mono","no","18","no","white","no","yes","1080","legacy","85","85","C:/Users/emoore8/Desktop/subject-203.csv","xpyriment","Lentiform Loewenfeld","3.3.11","0","z","space","NA","NA","NA","space","z","745","5021","NA","NA","NA","60798","745","2","legacy","1024","2","48000","-16","AB_m21","203","odd","FILL_NW","DROES","1907","430097","428182","421464","62715","381142","NA","NA","NA","NA","428682","NA","NA","NA","427681","NA","427648","1916","430497","NA","NA","NA","428722","1907","1907","NA","429468","429493","427648","428681","428702","morph21_Oliver/Morris","82","63549","86","yes","1920","17"
"300","95.40229885057471","95.40229885057471","740.0574712643678","740.0574712643678","black","no","xpyriment","legacy","legacy","0","205","NA","uniform","NA","NA","NA","1","undefined","1","0","86","86","86","0","86","86","86","NA","0","86","NA","NA","0","86","NA","86","0","86","NA","NA","NA","86","0","0","NA","86","86","86","86","86","87","z","Tue Jun 13 18:44:05 2023","The main experiment item","yes","m21-ab-lexicalDecision.osexp","C:\Users\emoore8\Desktop\m21_vsl-main","no","mono","no","18","no","white","no","yes","1080","legacy","86","86","C:/Users/emoore8/Desktop/subject-203.csv","xpyriment","Lentiform Loewenfeld","3.3.11","0","z","space","NA","NA","NA","space","z","836","5021","NA","NA","NA","60798","836","2","legacy","1024","2","48000","-16","AB_m21","203","odd","NW_S_SIMP","SOCKETEL","1907","435530","432018","434024","62715","381142","NA","NA","NA","NA","432519","NA","NA","NA","431518","NA","431488","1916","435830","NA","NA","NA","432559","1907","1907","NA","433396","433420","431488","432518","432539","morph21_Oliver/Morris","83","64385","87","yes","1920","1"
"300","95.45454545454545","95.45454545454545","741.0909090909091","741.0909090909091","black","no","xpyriment","legacy","legacy","0","201","NA","uniform","NA","NA","NA","1","undefined","1","0","87","87","87","0","87","87","87","NA","0","87","NA","NA","0","87","NA","87","0","87","NA","NA","NA","87","0","0","NA","87","87","87","87","87","88","/","Tue Jun 13 18:44:05 2023","The main experiment item","yes","m21-ab-lexicalDecision.osexp","C:\Users\emoore8\Desktop\m21_vsl-main","no","mono","no","18","no","white","no","yes","1080","legacy","87","87","C:/Users/emoore8/Desktop/subject-203.csv","xpyriment","Lentiform Loewenfeld","3.3.11","0","/","space","NA","NA","NA","space","/","831","5021","NA","NA","NA","60798","831","2","legacy","1024","2","48000","-16","AB_m21","203","odd","CW_S","INSISTENT","1907","439375","437376","434024","62715","381142","NA","NA","NA","NA","437876","NA","NA","NA","436876","NA","436844","1916","439675","NA","NA","NA","437916","1907","1907","NA","438748","438772","436844","437876","437896","morph21_Oliver/Morris","84","65216","88","yes","1920","9"
"200","95.50561797752809","95.50561797752809","739.9101123595506","739.9101123595506","black","no","xpyriment","legacy","legacy","0","207","NA","uniform","NA","NA","NA","1","undefined","1","0","88","88","88","0","88","88","88","NA","0","88","NA","NA","0","88","NA","88","0","88","NA","NA","NA","88","0","0","NA","88","88","88","88","88","89","/","Tue Jun 13 18:44:05 2023","The main experiment item","yes","m21-ab-lexicalDecision.osexp","C:\Users\emoore8\Desktop\m21_vsl-main","no","mono","no","18","no","white","no","yes","1080","legacy","88","88","C:/Users/emoore8/Desktop/subject-203.csv","xpyriment","Lentiform Loewenfeld","3.3.11","0","/","space","NA","NA","NA","space","/","636","5021","NA","NA","NA","60798","636","2","legacy","1024","2","48000","-16","AB_m21","203","odd","FILL_W","OLD","1907","443007","441201","434024","62715","381142","NA","NA","NA","NA","441702","NA","NA","NA","440699","NA","440674","1916","443207","NA","NA","NA","441743","1907","1907","NA","442380","442404","440674","441702","441723","morph21_Oliver/Morris","85","65852","89","yes","1920","44"
"350","95.55555555555556","95.55555555555556","739.7222222222222","739.7222222222222","black","no","xpyriment","legacy","legacy","0","208","NA","uniform","NA","NA","NA","1","undefined","1","0","89","89","89","0","89","89","89","NA","0","89","NA","NA","0","89","NA","89","0","89","NA","NA","NA","89","0","0","NA","89","89","89","89","89","90","z","Tue Jun 13 18:44:05 2023","The main experiment item","yes","m21-ab-lexicalDecision.osexp","C:\Users\emoore8\Desktop\m21_vsl-main","no","mono","no","18","no","white","no","yes","1080","legacy","89","89","C:/Users/emoore8/Desktop/subject-203.csv","xpyriment","Lentiform Loewenfeld","3.3.11","0","z","space","NA","NA","NA","space","z","723","5021","NA","NA","NA","60798","723","2","legacy","1024","2","48000","-16","AB_m21","203","odd","FILL_NW","HEAS","1907","448103","444706","446600","62715","381142","NA","NA","NA","NA","445207","NA","NA","NA","444205","NA","444180","1916","448453","NA","NA","NA","445248","1907","1907","NA","445972","445996","444180","445207","445228","morph21_Oliver/Morris","86","66575","90","yes","1920","26"
"350","95.6043956043956","95.6043956043956","738.9230769230769","738.9230769230769","black","no","xpyriment","legacy","legacy","0","208","NA","uniform","NA","NA","NA","1","undefined","1","0","90","90","90","0","90","90","90","NA","0","90","NA","NA","0","90","NA","90","0","90","NA","NA","NA","90","0","0","NA","90","90","90","90","90","91","z","Tue Jun 13 18:44:05 2023","The main experiment item","yes","m21-ab-lexicalDecision.osexp","C:\Users\emoore8\Desktop\m21_vsl-main","no","mono","no","18","no","white","no","yes","1080","legacy","90","90","C:/Users/emoore8/Desktop/subject-203.csv","xpyriment","Lentiform Loewenfeld","3.3.11","0","z","space","NA","NA","NA","space","z","667","5021","NA","NA","NA","60798","667","2","legacy","1024","2","48000","-16","AB_m21","203","odd","FILL_NW","JADS","1907","451816","449980","446600","62715","381142","NA","NA","NA","NA","450480","NA","NA","NA","449479","NA","449449","1916","452166","NA","NA","NA","450520","1907","1907","NA","451188","451213","449449","450480","450500","morph21_Oliver/Morris","87","67242","91","yes","1920","31"
