"ITI","acc","accuracy","average_response_time","avg_rt","background","bidi","canvas_backend","clock_backend","color_backend","compensation","cond_trig","condtrigtime","coordinates","coroutines_cycles","coroutines_duration","coroutines_mean_cycle_duration","correct","correct_instructions_1","correct_new_keyboard_response_1","count_AB_m21","count_ITI","count_blank_screen","count_blink_screen","count_block1","count_break1","count_break2","count_break3_1","count_canvas","count_correct_trigger","count_def_chain","count_end_screen","count_fixation_1","count_getting_started","count_inc_counter","count_incorrect_trigger","count_instructions_1","count_logger","count_logscript","count_new_coroutines","count_new_inline_script","count_new_keyboard_response_1","count_reset_counter_prep","count_reset_counter_run","count_responsescreen","count_sequence","count_start_trigger","count_target_present","count_word_trigger","counter","cresp","datetime","description","disable_garbage_collection","experiment_file","experiment_path","font_bold","font_family","font_italic","font_size","font_underline","foreground","form_clicks","fullscreen","height","keyboard_backend","live_row","live_row_block1","logfile","mouse_backend","opensesame_codename","opensesame_version","repeat_cycle","response","response_break1","response_break2","response_break3_1","response_end_screen","response_instructions_1","response_new_keyboard_response_1","response_time","response_time_break1","response_time_break2","response_time_break3_1","response_time_end_screen","response_time_instructions_1","response_time_new_keyboard_response_1","round_decimals","sampler_backend","sound_buf_size","sound_channels","sound_freq","sound_sample_size","start","subject_nr","subject_parity","targ_type","target","time_AB_m21","time_ITI","time_blank_screen","time_blink_screen","time_block1","time_break1","time_break2","time_break3_1","time_canvas","time_correct_trigger","time_def_chain","time_end_screen","time_fixation_1","time_getting_started","time_inc_counter","time_incorrect_trigger","time_instructions_1","time_logger","time_logscript","time_new_inline_script","time_new_keyboard_response_1","time_reset_counter_prep","time_reset_counter_run","time_responsescreen","time_sequence","time_start_trigger","time_target_present","time_word_trigger","title","total_correct","total_response_time","total_responses","uniform_coordinates","width","word_trig"
"250","0","0","990","990","black","no","xpyriment","legacy","legacy","0","202","NA","uniform","53578","1000","0.0186643771697","0","undefined","0","0","0","0","0","0","0","0","0","NA","0","0","0","0","NA","0","0","0","0","NA","0","NA","0","0","0","0","0","0","0","0","1","/","10/18/17 16:31:46","The main experiment item","yes","FIN__AB__M21__7%3A10%3A17.osexp","C:\Users\ERP Testing Room\Desktop\Joanna\morph21","no","mono","no","18","no","white","no","yes","1080","legacy","0","0","C:/Users/ERP Testing Room/Desktop/Joanna/morph21/subject-110.csv","xpyriment","Jazzy James","3.1.4","0","None","NA","NA","NA","NA","space","None","990","NA","NA","NA","NA","253756","990","2","legacy","1024","2","48000","-16","AB_m21","110","even","CW_L","CREAMY","1362","258032","256441","NA","255128","NA","NA","NA","NA","NA","256938","NA","255939","NA","255869","258022","1371","258282","NA","NA","257032","1362","1362","257424","255869","1362","257032","258282","morph21_Oliver/Morris","0","990","1","yes","1280","49"
"300","50","50","885","885","black","no","xpyriment","legacy","legacy","0","206","NA","uniform","60619","1000","0.0164964780019","1","undefined","1","0","1","1","1","0","1","1","1","NA","1","1","0","1","NA","1","1","0","1","NA","1","NA","1","0","0","1","1","0","1","1","2","z","10/18/17 16:31:46","The main experiment item","yes","FIN__AB__M21__7%3A10%3A17.osexp","C:\Users\ERP Testing Room\Desktop\Joanna\morph21","no","mono","no","18","no","white","no","yes","1080","legacy","1","1","C:/Users/ERP Testing Room/Desktop/Joanna/morph21/subject-110.csv","xpyriment","Jazzy James","3.1.4","0","z","NA","NA","NA","NA","space","z","780","NA","NA","NA","NA","253756","780","2","legacy","1024","2","48000","-16","AB_m21","110","even","NW_L_SIMP","ELBOWILM","1362","261107","259507","NA","255128","NA","NA","NA","NA","261103","260004","NA","259007","NA","258998","261103","1371","261407","NA","NA","260107","1362","1362","260507","258998","1362","260107","261407","morph21_Oliver/Morris","1","1770","2","yes","1280","10"
"350","66.6666666667","66.6666666667","909.333333333","909.333333333","black","no","xpyriment","legacy","legacy","0","204","NA","uniform","54135","1000","0.0184723376743","1","undefined","1","0","2","2","2","0","2","2","2","NA","2","2","0","2","NA","2","2","0","2","NA","2","NA","2","0","0","2","2","0","2","2","3","z","10/18/17 16:31:46","The main experiment item","yes","FIN__AB__M21__7%3A10%3A17.osexp","C:\Users\ERP Testing Room\Desktop\Joanna\morph21","no","mono","no","18","no","white","no","yes","1080","legacy","2","2","C:/Users/ERP Testing Room/Desktop/Joanna/morph21/subject-110.csv","xpyriment","Jazzy James","3.1.4","0","z","NA","NA","NA","NA","space","z","958","NA","NA","NA","NA","253756","958","2","legacy","1024","2","48000","-16","AB_m21","110","even","NW_L_COMP","MOUTHIZE","1362","265724","262591","264216","255128","NA","NA","NA","NA","264206","263088","NA","262091","NA","262084","264206","1371","266074","NA","NA","263216","1362","1362","263607","262084","1362","263216","266074","morph21_Oliver/Morris","2","2728","3","yes","1280","11"
"250","50","50","930.75","930.75","black","no","xpyriment","legacy","legacy","0","207","NA","uniform","58737","1000","0.0170250438395","0","undefined","0","0","3","3","3","0","3","3","3","NA","3","3","0","3","NA","3","3","0","3","NA","3","NA","3","0","0","3","3","0","3","3","4","/","10/18/17 16:31:46","The main experiment item","yes","FIN__AB__M21__7%3A10%3A17.osexp","C:\Users\ERP Testing Room\Desktop\Joanna\morph21","no","mono","no","18","no","white","no","yes","1080","legacy","3","3","C:/Users/ERP Testing Room/Desktop/Joanna/morph21/subject-110.csv","xpyriment","Jazzy James","3.1.4","0","None","NA","NA","NA","NA","space","None","995","NA","NA","NA","NA","253756","995","2","legacy","1024","2","48000","-16","AB_m21","110","even","FILL_W","SPLICE","1362","268959","267342","264216","255128","NA","NA","NA","NA","264206","267839","NA","266842","NA","266837","268954","1371","269209","NA","NA","267959","1362","1362","268359","266837","1362","267959","269209","morph21_Oliver/Morris","2","3723","4","yes","1280","22"
"300","40","40","877.2","877.2","black","no","xpyriment","legacy","legacy","0","208","NA","uniform","66615","1000","0.0150116340164","0","undefined","0","0","4","4","4","0","4","4","4","NA","4","4","0","4","NA","4","4","0","4","NA","4","NA","4","0","0","4","4","0","4","4","5","z","10/18/17 16:31:46","The main experiment item","yes","FIN__AB__M21__7%3A10%3A17.osexp","C:\Users\ERP Testing Room\Desktop\Joanna\morph21","no","mono","no","18","no","white","no","yes","1080","legacy","4","4","C:/Users/ERP Testing Room/Desktop/Joanna/morph21/subject-110.csv","xpyriment","Jazzy James","3.1.4","0","/","NA","NA","NA","NA","space","/","663","NA","NA","NA","NA","253756","663","2","legacy","1024","2","48000","-16","AB_m21","110","even","FILL_NW","TREMP","1362","271992","270409","264216","255128","NA","NA","NA","NA","264206","270906","NA","269909","NA","269903","271986","1371","272292","NA","NA","270992","1362","1362","271384","269903","1362","270992","272292","morph21_Oliver/Morris","2","4386","5","yes","1280","20"
"250","50","50","850.166666667","850.166666667","black","no","xpyriment","legacy","legacy","0","201","NA","uniform","64274","1000","0.0155583906401","1","undefined","1","0","5","5","5","0","5","5","5","NA","5","5","0","5","NA","5","5","0","5","NA","5","NA","5","0","0","5","5","0","5","5","6","/","10/18/17 16:31:46","The main experiment item","yes","FIN__AB__M21__7%3A10%3A17.osexp","C:\Users\ERP Testing Room\Desktop\Joanna\morph21","no","mono","no","18","no","white","no","yes","1080","legacy","5","5","C:/Users/ERP Testing Room/Desktop/Joanna/morph21/subject-110.csv","xpyriment","Jazzy James","3.1.4","0","/","NA","NA","NA","NA","space","/","715","NA","NA","NA","NA","253756","715","2","legacy","1024","2","48000","-16","AB_m21","110","even","CW_S","MOSSY","1362","276592","273484","275084","255128","NA","NA","NA","NA","275078","273981","NA","272984","NA","272980","275078","1371","276843","NA","NA","274084","1362","1362","274476","272980","1362","274084","276843","morph21_Oliver/Morris","3","5101","6","yes","1280","47"
"400","57.1428571429","57.1428571429","829.571428571","829.571428571","black","no","xpyriment","legacy","legacy","0","202","NA","uniform","62425","1000","0.0160192230677","1","undefined","1","0","6","6","6","0","6","6","6","NA","6","6","0","6","NA","6","6","0","6","NA","6","NA","6","0","0","6","6","0","6","6","7","/","10/18/17 16:31:46","The main experiment item","yes","FIN__AB__M21__7%3A10%3A17.osexp","C:\Users\ERP Testing Room\Desktop\Joanna\morph21","no","mono","no","18","no","white","no","yes","1080","legacy","6","6","C:/Users/ERP Testing Room/Desktop/Joanna/morph21/subject-110.csv","xpyriment","Jazzy James","3.1.4","0","/","NA","NA","NA","NA","space","/","706","NA","NA","NA","NA","253756","706","2","legacy","1024","2","48000","-16","AB_m21","110","even","CW_L","COOLING","1362","279684","278092","275084","255128","NA","NA","NA","NA","279678","278590","NA","277593","NA","277583","279678","1371","280084","NA","NA","278684","1362","1362","279076","277583","1362","278684","280084","morph21_Oliver/Morris","4","5807","7","yes","1280","24"
"350","62.5","62.5","812.125","812.125","black","no","xpyriment","legacy","legacy","0","201","NA","uniform","62143","1000","0.0160919170301","1","undefined","1","0","7","7","7","0","7","7","7","NA","7","7","0","7","NA","7","7","0","7","NA","7","NA","7","0","0","7","7","0","7","7","8","/","10/18/17 16:31:46","The main experiment item","yes","FIN__AB__M21__7%3A10%3A17.osexp","C:\Users\ERP Testing Room\Desktop\Joanna\morph21","no","mono","no","18","no","white","no","yes","1080","legacy","7","7","C:/Users/ERP Testing Room/Desktop/Joanna/morph21/subject-110.csv","xpyriment","Jazzy James","3.1.4","0","/","NA","NA","NA","NA","space","/","690","NA","NA","NA","NA","253756","690","2","legacy","1024","2","48000","-16","AB_m21","110","even","CW_S","BEARDED","1362","282868","281276","275084","255128","NA","NA","NA","NA","282859","281773","NA","280776","NA","280773","282859","1371","283218","NA","NA","281868","1362","1362","282259","280773","1362","281868","283218","morph21_Oliver/Morris","5","6497","8","yes","1280","8"
"300","66.6666666667","66.6666666667","810.888888889","810.888888889","black","no","xpyriment","legacy","legacy","0","204","NA","uniform","63142","1000","0.0158373190586","1","undefined","1","0","8","8","8","0","8","8","8","NA","8","8","0","8","NA","8","8","0","8","NA","8","NA","8","0","0","8","8","0","8","8","9","z","10/18/17 16:31:46","The main experiment item","yes","FIN__AB__M21__7%3A10%3A17.osexp","C:\Users\ERP Testing Room\Desktop\Joanna\morph21","no","mono","no","18","no","white","no","yes","1080","legacy","8","8","C:/Users/ERP Testing Room/Desktop/Joanna/morph21/subject-110.csv","xpyriment","Jazzy James","3.1.4","0","z","NA","NA","NA","NA","space","z","801","NA","NA","NA","NA","253756","801","2","legacy","1024","2","48000","-16","AB_m21","110","even","NW_L_COMP","NORTHIZE","1362","287602","284494","286094","255128","NA","NA","NA","NA","286085","284991","NA","283994","NA","283987","286085","1371","287902","NA","NA","285094","1362","1362","285485","283987","1362","285094","287902","morph21_Oliver/Morris","6","7298","9","yes","1280","20"
"400","60","60","829.1","829.1","black","no","xpyriment","legacy","legacy","0","204","NA","uniform","49503","1000","0.0202007959114","0","undefined","0","0","9","9","9","0","9","9","9","NA","9","9","0","9","NA","9","9","0","9","NA","9","NA","9","0","0","9","9","0","9","9","10","z","10/18/17 16:31:46","The main experiment item","yes","FIN__AB__M21__7%3A10%3A17.osexp","C:\Users\ERP Testing Room\Desktop\Joanna\morph21","no","mono","no","18","no","white","no","yes","1080","legacy","9","9","C:/Users/ERP Testing Room/Desktop/Joanna/morph21/subject-110.csv","xpyriment","Jazzy James","3.1.4","0","None","NA","NA","NA","NA","space","None","993","NA","NA","NA","NA","253756","993","2","legacy","1024","2","48000","-16","AB_m21","110","even","NW_L_COMP","COLDITY","1362","290844","289252","286094","255128","NA","NA","NA","NA","286085","289749","NA","288752","NA","288745","290837","1371","291244","NA","NA","289844","1362","1362","290236","288745","1362","289844","291244","morph21_Oliver/Morris","6","8291","10","yes","1280","10"
"200","63.6363636364","63.6363636364","808.454545455","808.454545455","black","no","xpyriment","legacy","legacy","0","208","NA","uniform","63636","1000","0.0157143755107","1","undefined","1","0","10","10","10","0","10","10","10","NA","10","10","0","10","NA","10","10","0","10","NA","10","NA","10","0","0","10","10","0","10","10","11","z","10/18/17 16:31:46","The main experiment item","yes","FIN__AB__M21__7%3A10%3A17.osexp","C:\Users\ERP Testing Room\Desktop\Joanna\morph21","no","mono","no","18","no","white","no","yes","1080","legacy","10","10","C:/Users/ERP Testing Room/Desktop/Joanna/morph21/subject-110.csv","xpyriment","Jazzy James","3.1.4","0","z","NA","NA","NA","NA","space","z","602","NA","NA","NA","NA","253756","602","2","legacy","1024","2","48000","-16","AB_m21","110","even","FILL_NW","TUEER","1362","294053","292452","286094","255128","NA","NA","NA","NA","294047","292950","NA","291953","NA","291947","294047","1371","294253","NA","NA","293053","1362","1362","293444","291946","1362","293052","294253","morph21_Oliver/Morris","7","8893","11","yes","1280","44"
"350","66.6666666667","66.6666666667","805.166666667","805.166666667","black","no","xpyriment","legacy","legacy","0","201","NA","uniform","60352","1000","0.0165694591729","1","undefined","1","0","11","11","11","0","11","11","11","NA","11","11","0","11","NA","11","11","0","11","NA","11","NA","11","0","0","11","11","0","11","11","12","/","10/18/17 16:31:46","The main experiment item","yes","FIN__AB__M21__7%3A10%3A17.osexp","C:\Users\ERP Testing Room\Desktop\Joanna\morph21","no","mono","no","18","no","white","no","yes","1080","legacy","11","11","C:/Users/ERP Testing Room/Desktop/Joanna/morph21/subject-110.csv","xpyriment","Jazzy James","3.1.4","0","/","NA","NA","NA","NA","space","/","769","NA","NA","NA","NA","253756","769","2","legacy","1024","2","48000","-16","AB_m21","110","even","CW_S","DULLNESS","1362","298603","295511","297094","255128","NA","NA","NA","NA","297085","296008","NA","295011","NA","295005","297085","1371","298953","NA","NA","296094","1362","1362","296486","295005","1362","296094","298953","morph21_Oliver/Morris","8","9662","12","yes","1280","43"
"200","69.2307692308","69.2307692308","804.615384615","804.615384615","black","no","xpyriment","legacy","legacy","0","207","NA","uniform","65176","1000","0.0153430710691","1","undefined","1","0","12","12","12","0","12","12","12","NA","12","12","0","12","NA","12","12","0","12","NA","12","NA","12","0","0","12","12","0","12","12","13","/","10/18/17 16:31:46","The main experiment item","yes","FIN__AB__M21__7%3A10%3A17.osexp","C:\Users\ERP Testing Room\Desktop\Joanna\morph21","no","mono","no","18","no","white","no","yes","1080","legacy","12","12","C:/Users/ERP Testing Room/Desktop/Joanna/morph21/subject-110.csv","xpyriment","Jazzy James","3.1.4","0","/","NA","NA","NA","NA","space","/","798","NA","NA","NA","NA","253756","798","2","legacy","1024","2","48000","-16","AB_m21","110","even","FILL_W","SAVE","1362","301920","300336","297094","255128","NA","NA","NA","NA","301913","300833","NA","299836","NA","299825","301913","1371","302121","NA","NA","300921","1362","1362","301312","299825","1362","300921","302121","morph21_Oliver/Morris","9","10460","13","yes","1280","46"
"300","71.4285714286","71.4285714286","794.5","794.5","black","no","xpyriment","legacy","legacy","0","205","NA","uniform","68971","1000","0.0144988473416","1","undefined","1","0","13","13","13","0","13","13","13","NA","13","13","0","13","NA","13","13","0","13","NA","13","NA","13","0","0","13","13","0","13","13","14","z","10/18/17 16:31:46","The main experiment item","yes","FIN__AB__M21__7%3A10%3A17.osexp","C:\Users\ERP Testing Room\Desktop\Joanna\morph21","no","mono","no","18","no","white","no","yes","1080","legacy","13","13","C:/Users/ERP Testing Room/Desktop/Joanna/morph21/subject-110.csv","xpyriment","Jazzy James","3.1.4","0","z","NA","NA","NA","NA","space","z","663","NA","NA","NA","NA","253756","663","2","legacy","1024","2","48000","-16","AB_m21","110","even","NW_S_SIMP","NEXTNELS","1362","304896","303312","297094","255128","NA","NA","NA","NA","304888","303809","NA","302812","NA","302808","304888","1371","305196","NA","NA","303896","1362","1362","304287","302808","1362","303896","305196","morph21_Oliver/Morris","10","11123","14","yes","1280","9"
"300","73.3333333333","73.3333333333","786","786","black","no","xpyriment","legacy","legacy","0","206","NA","uniform","68441","1000","0.0146111249105","1","undefined","1","0","14","14","14","0","14","14","14","NA","14","14","0","14","NA","14","14","0","14","NA","14","NA","14","0","0","14","14","0","14","14","15","z","10/18/17 16:31:46","The main experiment item","yes","FIN__AB__M21__7%3A10%3A17.osexp","C:\Users\ERP Testing Room\Desktop\Joanna\morph21","no","mono","no","18","no","white","no","yes","1080","legacy","14","14","C:/Users/ERP Testing Room/Desktop/Joanna/morph21/subject-110.csv","xpyriment","Jazzy James","3.1.4","0","z","NA","NA","NA","NA","space","z","667","NA","NA","NA","NA","253756","667","2","legacy","1024","2","48000","-16","AB_m21","110","even","NW_L_SIMP","BANDADY","1362","309513","306421","308004","255128","NA","NA","NA","NA","307996","306918","NA","305921","NA","305909","307996","1371","309813","NA","NA","307004","1362","1362","307396","305909","1362","307004","309813","morph21_Oliver/Morris","11","11790","15","yes","1280","3"
"400","68.75","68.75","798.75","798.75","black","no","xpyriment","legacy","legacy","0","208","NA","uniform","45242","1000","0.0221033552893","0","undefined","0","0","15","15","15","0","15","15","15","NA","15","15","0","15","NA","15","15","0","15","NA","15","NA","15","0","0","15","15","0","15","15","16","z","10/18/17 16:31:46","The main experiment item","yes","FIN__AB__M21__7%3A10%3A17.osexp","C:\Users\ERP Testing Room\Desktop\Joanna\morph21","no","mono","no","18","no","white","no","yes","1080","legacy","15","15","C:/Users/ERP Testing Room/Desktop/Joanna/morph21/subject-110.csv","xpyriment","Jazzy James","3.1.4","0","None","NA","NA","NA","NA","space","None","990","NA","NA","NA","NA","253756","990","2","legacy","1024","2","48000","-16","AB_m21","110","even","FILL_NW","BUTE","1362","312646","311071","308004","255128","NA","NA","NA","NA","307996","311568","NA","310571","NA","310567","312636","1371","313046","NA","NA","311646","1362","1362","312038","310567","1362","311646","313046","morph21_Oliver/Morris","11","12780","16","yes","1280","5"
"300","70.5882352941","70.5882352941","789.705882353","789.705882353","black","no","xpyriment","legacy","legacy","0","206","NA","uniform","72499","1000","0.0137932937006","1","undefined","1","0","16","16","16","0","16","16","16","NA","16","16","0","16","NA","16","16","0","16","NA","16","NA","16","0","0","16","16","0","16","16","17","z","10/18/17 16:31:46","The main experiment item","yes","FIN__AB__M21__7%3A10%3A17.osexp","C:\Users\ERP Testing Room\Desktop\Joanna\morph21","no","mono","no","18","no","white","no","yes","1080","legacy","16","16","C:/Users/ERP Testing Room/Desktop/Joanna/morph21/subject-110.csv","xpyriment","Jazzy James","3.1.4","0","z","NA","NA","NA","NA","space","z","645","NA","NA","NA","NA","253756","645","2","legacy","1024","2","48000","-16","AB_m21","110","even","NW_L_SIMP","TAXFIL","1362","315913","314329","308004","255128","NA","NA","NA","NA","315909","314827","NA","313829","NA","313820","315909","1371","316213","NA","NA","314913","1362","1362","315313","313820","1362","314913","316213","morph21_Oliver/Morris","12","13425","17","yes","1280","6"
"300","72.2222222222","72.2222222222","790.666666667","790.666666667","black","no","xpyriment","legacy","legacy","0","202","NA","uniform","62019","1000","0.0161240910044","1","undefined","1","0","17","17","17","0","17","17","17","NA","17","17","0","17","NA","17","17","0","17","NA","17","NA","17","0","0","17","17","0","17","17","18","/","10/18/17 16:31:46","The main experiment item","yes","FIN__AB__M21__7%3A10%3A17.osexp","C:\Users\ERP Testing Room\Desktop\Joanna\morph21","no","mono","no","18","no","white","no","yes","1080","legacy","17","17","C:/Users/ERP Testing Room/Desktop/Joanna/morph21/subject-110.csv","xpyriment","Jazzy James","3.1.4","0","/","NA","NA","NA","NA","space","/","807","NA","NA","NA","NA","253756","807","2","legacy","1024","2","48000","-16","AB_m21","110","even","CW_L","PROFESSOR","1362","320581","317463","319072","255128","NA","NA","NA","NA","319069","317960","NA","316963","NA","316958","319069","1371","320881","NA","NA","318080","1362","1362","318472","316958","1362","318080","320881","morph21_Oliver/Morris","13","14232","18","yes","1280","47"
"200","73.6842105263","73.6842105263","778.631578947","778.631578947","black","no","xpyriment","legacy","legacy","0","203","NA","uniform","61044","1000","0.0163816263679","1","undefined","1","0","18","18","18","0","18","18","18","NA","18","18","0","18","NA","18","18","0","18","NA","18","NA","18","0","0","18","18","0","18","18","19","z","10/18/17 16:31:46","The main experiment item","yes","FIN__AB__M21__7%3A10%3A17.osexp","C:\Users\ERP Testing Room\Desktop\Joanna\morph21","no","mono","no","18","no","white","no","yes","1080","legacy","18","18","C:/Users/ERP Testing Room/Desktop/Joanna/morph21/subject-110.csv","xpyriment","Jazzy James","3.1.4","0","z","NA","NA","NA","NA","space","z","562","NA","NA","NA","NA","253756","562","2","legacy","1024","2","48000","-16","AB_m21","110","even","NW_S_COMP","YANKORY","1362","323773","322156","319072","255128","NA","NA","NA","NA","323762","322653","NA","321647","NA","321640","323762","1371","323973","NA","NA","322773","1362","1362","323164","321640","1362","322773","323973","morph21_Oliver/Morris","14","14794","19","yes","1280","23"
"350","75","75","780.2","780.2","black","no","xpyriment","legacy","legacy","0","204","NA","uniform","55779","1000","0.0179278940103","1","undefined","1","0","19","19","19","0","19","19","19","NA","19","19","0","19","NA","19","19","0","19","NA","19","NA","19","0","0","19","19","0","19","19","20","z","10/18/17 16:31:46","The main experiment item","yes","FIN__AB__M21__7%3A10%3A17.osexp","C:\Users\ERP Testing Room\Desktop\Joanna\morph21","no","mono","no","18","no","white","no","yes","1080","legacy","19","19","C:/Users/ERP Testing Room/Desktop/Joanna/morph21/subject-110.csv","xpyriment","Jazzy James","3.1.4","0","z","NA","NA","NA","NA","space","z","810","NA","NA","NA","NA","253756","810","2","legacy","1024","2","48000","-16","AB_m21","110","even","NW_L_COMP","INKISM","1362","326789","325198","319072","255128","NA","NA","NA","NA","326779","325695","NA","324698","NA","324693","326779","1371","327139","NA","NA","325789","1362","1362","326181","324693","1362","325789","327139","morph21_Oliver/Morris","15","15604","20","yes","1280","8"
"200","76.1904761905","76.1904761905","777.142857143","777.142857143","black","no","xpyriment","legacy","legacy","0","207","NA","uniform","64720","1000","0.0154511742892","1","undefined","1","0","20","20","20","0","20","20","20","NA","20","20","0","20","NA","20","20","0","20","NA","20","NA","20","0","0","20","20","0","20","20","21","/","10/18/17 16:31:46","The main experiment item","yes","FIN__AB__M21__7%3A10%3A17.osexp","C:\Users\ERP Testing Room\Desktop\Joanna\morph21","no","mono","no","18","no","white","no","yes","1080","legacy","20","20","C:/Users/ERP Testing Room/Desktop/Joanna/morph21/subject-110.csv","xpyriment","Jazzy James","3.1.4","0","/","NA","NA","NA","NA","space","/","716","NA","NA","NA","NA","253756","716","2","legacy","1024","2","48000","-16","AB_m21","110","even","FILL_W","LEGAL","1362","331431","328339","329923","255128","NA","NA","NA","NA","329919","328837","NA","327839","NA","327831","329919","1371","331631","NA","NA","328931","1362","1362","329323","327830","1362","328931","331631","morph21_Oliver/Morris","16","16320","21","yes","1280","35"
"400","72.7272727273","72.7272727273","770.818181818","770.818181818","black","no","xpyriment","legacy","legacy","0","203","NA","uniform","62627","1000","0.0159675539304","0","undefined","0","0","21","21","21","0","21","21","21","NA","21","21","0","21","NA","21","21","0","21","NA","21","NA","21","0","0","21","21","0","21","21","22","z","10/18/17 16:31:46","The main experiment item","yes","FIN__AB__M21__7%3A10%3A17.osexp","C:\Users\ERP Testing Room\Desktop\Joanna\morph21","no","mono","no","18","no","white","no","yes","1080","legacy","21","21","C:/Users/ERP Testing Room/Desktop/Joanna/morph21/subject-110.csv","xpyriment","Jazzy James","3.1.4","0","/","NA","NA","NA","NA","space","/","638","NA","NA","NA","NA","253756","638","2","legacy","1024","2","48000","-16","AB_m21","110","even","NW_S_COMP","TRUENESS","1362","334456","332865","329923","255128","NA","NA","NA","NA","329919","333362","NA","332365","NA","332357","334447","1371","334856","NA","NA","333456","1362","1362","333848","332357","1362","333456","334856","morph21_Oliver/Morris","16","16958","22","yes","1280","15"
"300","69.5652173913","69.5652173913","771.304347826","771.304347826","black","no","xpyriment","legacy","legacy","0","208","NA","uniform","62338","1000","0.0160415797748","0","undefined","0","0","22","22","22","0","22","22","22","NA","22","22","0","22","NA","22","22","0","22","NA","22","NA","22","0","0","22","22","0","22","22","23","z","10/18/17 16:31:46","The main experiment item","yes","FIN__AB__M21__7%3A10%3A17.osexp","C:\Users\ERP Testing Room\Desktop\Joanna\morph21","no","mono","no","18","no","white","no","yes","1080","legacy","22","22","C:/Users/ERP Testing Room/Desktop/Joanna/morph21/subject-110.csv","xpyriment","Jazzy James","3.1.4","0","/","NA","NA","NA","NA","space","/","782","NA","NA","NA","NA","253756","782","2","legacy","1024","2","48000","-16","AB_m21","110","even","FILL_NW","SCURE","1362","337649","336066","329923","255128","NA","NA","NA","NA","329919","336563","NA","335565","NA","335558","337642","1371","337949","NA","NA","336649","1362","1362","337041","335558","1362","336649","337949","morph21_Oliver/Morris","16","17740","23","yes","1280","41"
"400","70.8333333333","70.8333333333","766.5","766.5","black","no","xpyriment","legacy","legacy","0","208","NA","uniform","65584","1000","0.0152476213711","1","undefined","1","0","23","23","23","0","23","23","23","NA","23","23","0","23","NA","23","23","0","23","NA","23","NA","23","0","0","23","23","0","23","23","24","z","10/18/17 16:31:46","The main experiment item","yes","FIN__AB__M21__7%3A10%3A17.osexp","C:\Users\ERP Testing Room\Desktop\Joanna\morph21","no","mono","no","18","no","white","no","yes","1080","legacy","23","23","C:/Users/ERP Testing Room/Desktop/Joanna/morph21/subject-110.csv","xpyriment","Jazzy James","3.1.4","0","z","NA","NA","NA","NA","space","z","656","NA","NA","NA","NA","253756","656","2","legacy","1024","2","48000","-16","AB_m21","110","even","FILL_NW","GIKE","1362","342291","339199","340783","255128","NA","NA","NA","NA","340776","339696","NA","338699","NA","338690","340776","1371","342691","NA","NA","339783","1362","1362","340174","338690","1362","339783","342691","morph21_Oliver/Morris","17","18396","24","yes","1280","24"
"400","72","72","766.28","766.28","black","no","xpyriment","legacy","legacy","0","208","NA","uniform","65788","1000","0.0152003404876","1","undefined","1","0","24","24","24","0","24","24","24","NA","24","24","0","24","NA","24","24","0","24","NA","24","NA","24","0","0","24","24","0","24","24","25","z","10/18/17 16:31:46","The main experiment item","yes","FIN__AB__M21__7%3A10%3A17.osexp","C:\Users\ERP Testing Room\Desktop\Joanna\morph21","no","mono","no","18","no","white","no","yes","1080","legacy","24","24","C:/Users/ERP Testing Room/Desktop/Joanna/morph21/subject-110.csv","xpyriment","Jazzy James","3.1.4","0","z","NA","NA","NA","NA","space","z","761","NA","NA","NA","NA","253756","761","2","legacy","1024","2","48000","-16","AB_m21","110","even","FILL_NW","ULNS","1362","345550","343924","340783","255128","NA","NA","NA","NA","345544","344422","NA","343424","NA","343416","345544","1371","345950","NA","NA","344550","1362","1362","344941","343416","1362","344549","345950","morph21_Oliver/Morris","18","19157","25","yes","1280","45"
"350","73.0769230769","73.0769230769","764.038461538","764.038461538","black","no","xpyriment","legacy","legacy","0","202","NA","uniform","64763","1000","0.0154409153375","1","undefined","1","0","25","25","25","0","25","25","25","NA","25","25","0","25","NA","25","25","0","25","NA","25","NA","25","0","0","25","25","0","25","25","26","/","10/18/17 16:31:46","The main experiment item","yes","FIN__AB__M21__7%3A10%3A17.osexp","C:\Users\ERP Testing Room\Desktop\Joanna\morph21","no","mono","no","18","no","white","no","yes","1080","legacy","25","25","C:/Users/ERP Testing Room/Desktop/Joanna/morph21/subject-110.csv","xpyriment","Jazzy James","3.1.4","0","/","NA","NA","NA","NA","space","/","708","NA","NA","NA","NA","253756","708","2","legacy","1024","2","48000","-16","AB_m21","110","even","CW_L","FEEDER","1362","348866","347283","340783","255128","NA","NA","NA","NA","348863","347780","NA","346783","NA","346779","348863","1371","349216","NA","NA","347875","1362","1362","348266","346779","1362","347875","349216","morph21_Oliver/Morris","19","19865","26","yes","1280","14"
"200","74.0740740741","74.0740740741","762.777777778","762.777777778","black","no","xpyriment","legacy","legacy","0","203","NA","uniform","57089","1000","0.01751650931","1","undefined","1","0","26","26","26","0","26","26","26","NA","26","26","0","26","NA","26","26","0","26","NA","26","NA","26","0","0","26","26","0","26","26","27","z","10/18/17 16:31:46","The main experiment item","yes","FIN__AB__M21__7%3A10%3A17.osexp","C:\Users\ERP Testing Room\Desktop\Joanna\morph21","no","mono","no","18","no","white","no","yes","1080","legacy","26","26","C:/Users/ERP Testing Room/Desktop/Joanna/morph21/subject-110.csv","xpyriment","Jazzy James","3.1.4","0","z","NA","NA","NA","NA","space","z","730","NA","NA","NA","NA","253756","730","2","legacy","1024","2","48000","-16","AB_m21","110","even","NW_S_COMP","HAPPENANCE","1362","353626","350533","352116","255128","NA","NA","NA","NA","352109","351030","NA","350033","NA","350026","352109","1371","353826","NA","NA","351116","1362","1362","351508","350026","1362","351116","353826","morph21_Oliver/Morris","20","20595","27","yes","1280","2"
"200","75","75","762.571428571","762.571428571","black","no","xpyriment","legacy","legacy","0","208","NA","uniform","66934","1000","0.0149400902381","1","undefined","1","0","27","27","27","0","27","27","27","NA","27","27","0","27","NA","27","27","0","27","NA","27","NA","27","0","0","27","27","0","27","27","28","z","10/18/17 16:31:46","The main experiment item","yes","FIN__AB__M21__7%3A10%3A17.osexp","C:\Users\ERP Testing Room\Desktop\Joanna\morph21","no","mono","no","18","no","white","no","yes","1080","legacy","27","27","C:/Users/ERP Testing Room/Desktop/Joanna/morph21/subject-110.csv","xpyriment","Jazzy James","3.1.4","0","z","NA","NA","NA","NA","space","z","757","NA","NA","NA","NA","253756","757","2","legacy","1024","2","48000","-16","AB_m21","110","even","FILL_NW","PORDS","1362","356634","355043","352116","255128","NA","NA","NA","NA","356627","355540","NA","354543","NA","354533","356627","1371","356834","NA","NA","355634","1362","1362","356026","354533","1362","355634","356834","morph21_Oliver/Morris","21","21352","28","yes","1280","39"
"350","75.8620689655","75.8620689655","760.137931034","760.137931034","black","no","xpyriment","legacy","legacy","0","202","NA","uniform","68573","1000","0.0145829991396","1","undefined","1","0","28","28","28","0","28","28","28","NA","28","28","0","28","NA","28","28","0","28","NA","28","NA","28","0","0","28","28","0","28","28","29","/","10/18/17 16:31:46","The main experiment item","yes","FIN__AB__M21__7%3A10%3A17.osexp","C:\Users\ERP Testing Room\Desktop\Joanna\morph21","no","mono","no","18","no","white","no","yes","1080","legacy","28","28","C:/Users/ERP Testing Room/Desktop/Joanna/morph21/subject-110.csv","xpyriment","Jazzy James","3.1.4","0","/","NA","NA","NA","NA","space","/","692","NA","NA","NA","NA","253756","692","2","legacy","1024","2","48000","-16","AB_m21","110","even","CW_L","BARKER","1362","359643","358059","352116","255128","NA","NA","NA","NA","359636","358557","NA","357559","NA","357556","359636","1371","359993","NA","NA","358643","1362","1362","359034","357555","1362","358643","359993","morph21_Oliver/Morris","22","22044","29","yes","1280","2"
"400","76.6666666667","76.6666666667","757.8","757.8","black","no","xpyriment","legacy","legacy","0","205","NA","uniform","60519","1000","0.0165237363473","1","undefined","1","0","29","29","29","0","29","29","29","NA","29","29","0","29","NA","29","29","0","29","NA","29","NA","29","0","0","29","29","0","29","29","30","z","10/18/17 16:31:46","The main experiment item","yes","FIN__AB__M21__7%3A10%3A17.osexp","C:\Users\ERP Testing Room\Desktop\Joanna\morph21","no","mono","no","18","no","white","no","yes","1080","legacy","29","29","C:/Users/ERP Testing Room/Desktop/Joanna/morph21/subject-110.csv","xpyriment","Jazzy James","3.1.4","0","z","NA","NA","NA","NA","space","z","690","NA","NA","NA","NA","253756","690","2","legacy","1024","2","48000","-16","AB_m21","110","even","NW_S_SIMP","AIDIG","1362","364393","361251","362885","255128","NA","NA","NA","NA","362880","361748","NA","360751","NA","360742","362880","1371","364793","NA","NA","361885","1362","1362","362285","360742","1362","361885","364793","morph21_Oliver/Morris","23","22734","30","yes","1280","4"
"350","77.4193548387","77.4193548387","761.225806452","761.225806452","black","no","xpyriment","legacy","legacy","0","208","NA","uniform","62901","1000","0.015897998442","1","undefined","1","0","30","30","30","0","30","30","30","NA","30","30","0","30","NA","30","30","0","30","NA","30","NA","30","0","0","30","30","0","30","30","31","z","10/18/17 16:31:46","The main experiment item","yes","FIN__AB__M21__7%3A10%3A17.osexp","C:\Users\ERP Testing Room\Desktop\Joanna\morph21","no","mono","no","18","no","white","no","yes","1080","legacy","30","30","C:/Users/ERP Testing Room/Desktop/Joanna/morph21/subject-110.csv","xpyriment","Jazzy James","3.1.4","0","z","NA","NA","NA","NA","space","z","864","NA","NA","NA","NA","253756","864","2","legacy","1024","2","48000","-16","AB_m21","110","even","FILL_NW","DASP","1362","367710","366118","362885","255128","NA","NA","NA","NA","367700","366615","NA","365618","NA","365610","367700","1371","368060","NA","NA","366710","1362","1362","367101","365610","1362","366710","368060","morph21_Oliver/Morris","24","23598","31","yes","1280","13"
"250","78.125","78.125","758.21875","758.21875","black","no","xpyriment","legacy","legacy","0","207","NA","uniform","71019","1000","0.0140807389572","1","undefined","1","0","31","31","31","0","31","31","31","NA","31","31","0","31","NA","31","31","0","31","NA","31","NA","31","0","0","31","31","0","31","31","32","/","10/18/17 16:31:46","The main experiment item","yes","FIN__AB__M21__7%3A10%3A17.osexp","C:\Users\ERP Testing Room\Desktop\Joanna\morph21","no","mono","no","18","no","white","no","yes","1080","legacy","31","31","C:/Users/ERP Testing Room/Desktop/Joanna/morph21/subject-110.csv","xpyriment","Jazzy James","3.1.4","0","/","NA","NA","NA","NA","space","/","665","NA","NA","NA","NA","253756","665","2","legacy","1024","2","48000","-16","AB_m21","110","even","FILL_W","SOFT","1362","370878","369277","362885","255128","NA","NA","NA","NA","370873","369774","NA","368777","NA","368770","370873","1371","371128","NA","NA","369877","1362","1362","370277","368770","1362","369877","371128","morph21_Oliver/Morris","25","24263","32","yes","1280","43"
"300","75.7575757576","75.7575757576","755.393939394","755.393939394","black","no","xpyriment","legacy","legacy","0","208","NA","uniform","69427","1000","0.0144036181889","0","undefined","0","0","32","32","32","0","32","32","32","NA","32","32","0","32","NA","32","32","0","32","NA","32","NA","32","0","0","32","32","0","32","32","33","z","10/18/17 16:31:46","The main experiment item","yes","FIN__AB__M21__7%3A10%3A17.osexp","C:\Users\ERP Testing Room\Desktop\Joanna\morph21","no","mono","no","18","no","white","no","yes","1080","legacy","32","32","C:/Users/ERP Testing Room/Desktop/Joanna/morph21/subject-110.csv","xpyriment","Jazzy James","3.1.4","0","/","NA","NA","NA","NA","space","/","665","NA","NA","NA","NA","253756","665","2","legacy","1024","2","48000","-16","AB_m21","110","even","FILL_NW","DASK","1362","375403","372311","373894","255128","NA","NA","NA","NA","370873","372808","NA","371811","NA","371799","373887","1371","375703","NA","NA","372894","1362","1362","373286","371799","1362","372894","375703","morph21_Oliver/Morris","25","24928","33","yes","1280","12"
"200","73.5294117647","73.5294117647","757.323529412","757.323529412","black","no","xpyriment","legacy","legacy","0","203","NA","uniform","58468","1000","0.0171033727851","0","undefined","0","0","33","33","33","0","33","33","33","NA","33","33","0","33","NA","33","33","0","33","NA","33","NA","33","0","0","33","33","0","33","33","34","z","10/18/17 16:31:46","The main experiment item","yes","FIN__AB__M21__7%3A10%3A17.osexp","C:\Users\ERP Testing Room\Desktop\Joanna\morph21","no","mono","no","18","no","white","no","yes","1080","legacy","33","33","C:/Users/ERP Testing Room/Desktop/Joanna/morph21/subject-110.csv","xpyriment","Jazzy James","3.1.4","0","/","NA","NA","NA","NA","space","/","821","NA","NA","NA","NA","253756","821","2","legacy","1024","2","48000","-16","AB_m21","110","even","NW_S_COMP","FANFUL","1362","378570","376961","373894","255128","NA","NA","NA","NA","370873","377458","NA","376461","NA","376454","378566","1371","378770","NA","NA","377578","1362","1362","377970","376454","1362","377578","378770","morph21_Oliver/Morris","25","25749","34","yes","1280","6"
"200","74.2857142857","74.2857142857","757.228571429","757.228571429","black","no","xpyriment","legacy","legacy","0","208","NA","uniform","69520","1000","0.0143843498274","1","undefined","1","0","34","34","34","0","34","34","34","NA","34","34","0","34","NA","34","34","0","34","NA","34","NA","34","0","0","34","34","0","34","34","35","z","10/18/17 16:31:46","The main experiment item","yes","FIN__AB__M21__7%3A10%3A17.osexp","C:\Users\ERP Testing Room\Desktop\Joanna\morph21","no","mono","no","18","no","white","no","yes","1080","legacy","34","34","C:/Users/ERP Testing Room/Desktop/Joanna/morph21/subject-110.csv","xpyriment","Jazzy James","3.1.4","0","z","NA","NA","NA","NA","space","z","754","NA","NA","NA","NA","253756","754","2","legacy","1024","2","48000","-16","AB_m21","110","even","FILL_NW","PUCTS","1362","381653","380045","373894","255128","NA","NA","NA","NA","381646","380542","NA","379545","NA","379539","381646","1371","381853","NA","NA","380653","1362","1362","381045","379539","1362","380653","381853","morph21_Oliver/Morris","26","26503","35","yes","1280","40"
"300","75","75","756.388888889","756.388888889","black","no","xpyriment","legacy","legacy","0","205","NA","uniform","58428","1000","0.0171150818101","1","undefined","1","0","35","35","35","0","35","35","35","NA","35","35","0","35","NA","35","35","0","35","NA","35","NA","35","0","0","35","35","0","35","35","36","z","10/18/17 16:31:46","The main experiment item","yes","FIN__AB__M21__7%3A10%3A17.osexp","C:\Users\ERP Testing Room\Desktop\Joanna\morph21","no","mono","no","18","no","white","no","yes","1080","legacy","35","35","C:/Users/ERP Testing Room/Desktop/Joanna/morph21/subject-110.csv","xpyriment","Jazzy James","3.1.4","0","z","NA","NA","NA","NA","space","z","727","NA","NA","NA","NA","253756","727","2","legacy","1024","2","48000","-16","AB_m21","110","even","NW_S_SIMP","SOCKETEL","1362","386220","383120","384712","255128","NA","NA","NA","NA","384707","383617","NA","382620","NA","382614","384707","1371","386520","NA","NA","383712","1362","1362","384112","382614","1362","383711","386520","morph21_Oliver/Morris","27","27230","36","yes","1280","1"
"200","75.6756756757","75.6756756757","755.540540541","755.540540541","black","no","xpyriment","legacy","legacy","0","207","NA","uniform","60863","1000","0.0164303435585","1","undefined","1","0","36","36","36","0","36","36","36","NA","36","36","0","36","NA","36","36","0","36","NA","36","NA","36","0","0","36","36","0","36","36","37","/","10/18/17 16:31:46","The main experiment item","yes","FIN__AB__M21__7%3A10%3A17.osexp","C:\Users\ERP Testing Room\Desktop\Joanna\morph21","no","mono","no","18","no","white","no","yes","1080","legacy","36","36","C:/Users/ERP Testing Room/Desktop/Joanna/morph21/subject-110.csv","xpyriment","Jazzy James","3.1.4","0","/","NA","NA","NA","NA","space","/","725","NA","NA","NA","NA","253756","725","2","legacy","1024","2","48000","-16","AB_m21","110","even","FILL_W","GOLF","1362","389346","387753","384712","255128","NA","NA","NA","NA","389341","388251","NA","387253","NA","387251","389341","1371","389546","NA","NA","388346","1362","1362","388746","387251","1362","388346","389546","morph21_Oliver/Morris","28","27955","37","yes","1280","28"
"400","76.3157894737","76.3157894737","752.868421053","752.868421053","black","no","xpyriment","legacy","legacy","0","206","NA","uniform","68299","1000","0.0146415028038","1","undefined","1","0","37","37","37","0","37","37","37","NA","37","37","0","37","NA","37","37","0","37","NA","37","NA","37","0","0","37","37","0","37","37","38","z","10/18/17 16:31:46","The main experiment item","yes","FIN__AB__M21__7%3A10%3A17.osexp","C:\Users\ERP Testing Room\Desktop\Joanna\morph21","no","mono","no","18","no","white","no","yes","1080","legacy","37","37","C:/Users/ERP Testing Room/Desktop/Joanna/morph21/subject-110.csv","xpyriment","Jazzy James","3.1.4","0","z","NA","NA","NA","NA","space","z","654","NA","NA","NA","NA","253756","654","2","legacy","1024","2","48000","-16","AB_m21","110","even","NW_L_SIMP","POORIDY","1362","392321","390738","384712","255128","NA","NA","NA","NA","392316","391235","NA","390238","NA","390234","392316","1371","392721","NA","NA","391321","1362","1362","391721","390234","1362","391321","392721","morph21_Oliver/Morris","29","28609","38","yes","1280","13"
"300","76.9230769231","76.9230769231","749.333333333","749.333333333","black","no","xpyriment","legacy","legacy","0","202","NA","uniform","66735","1000","0.0149846407432","1","undefined","1","0","38","38","38","0","38","38","38","NA","38","38","0","38","NA","38","38","0","38","NA","38","NA","38","0","0","38","38","0","38","38","39","/","10/18/17 16:31:46","The main experiment item","yes","FIN__AB__M21__7%3A10%3A17.osexp","C:\Users\ERP Testing Room\Desktop\Joanna\morph21","no","mono","no","18","no","white","no","yes","1080","legacy","38","38","C:/Users/ERP Testing Room/Desktop/Joanna/morph21/subject-110.csv","xpyriment","Jazzy James","3.1.4","0","/","NA","NA","NA","NA","space","/","615","NA","NA","NA","NA","253756","615","2","legacy","1024","2","48000","-16","AB_m21","110","even","CW_L","DOUBTFUL","1362","396997","393905","395488","255128","NA","NA","NA","NA","395483","394402","NA","393405","NA","393398","395483","1371","397297","NA","NA","394488","1362","1362","394888","393398","1362","394488","397297","morph21_Oliver/Morris","30","29224","39","yes","1280","21"
"350","77.5","77.5","748.55","748.55","black","no","xpyriment","legacy","legacy","0","203","NA","uniform","62500","1000","0.016","1","undefined","1","0","39","39","39","0","39","39","39","NA","39","39","0","39","NA","39","39","0","39","NA","39","NA","39","0","0","39","39","0","39","39","40","z","10/18/17 16:31:46","The main experiment item","yes","FIN__AB__M21__7%3A10%3A17.osexp","C:\Users\ERP Testing Room\Desktop\Joanna\morph21","no","mono","no","18","no","white","no","yes","1080","legacy","39","39","C:/Users/ERP Testing Room/Desktop/Joanna/morph21/subject-110.csv","xpyriment","Jazzy James","3.1.4","0","z","NA","NA","NA","NA","space","z","718","NA","NA","NA","NA","253756","718","2","legacy","1024","2","48000","-16","AB_m21","110","even","NW_S_COMP","HEIGHTENCE","1362","400105","398513","395488","255128","NA","NA","NA","NA","400099","399010","NA","398013","NA","398006","400099","1371","400455","NA","NA","399105","1362","1362","399497","398006","1362","399105","400455","morph21_Oliver/Morris","31","29942","40","yes","1280","18"
"200","78.0487804878","78.0487804878","750.365853659","750.365853659","black","no","xpyriment","legacy","legacy","0","208","NA","uniform","60842","1000","0.0164360145952","1","undefined","1","0","40","40","40","0","40","40","40","NA","40","40","0","40","NA","40","40","0","40","NA","40","NA","40","0","0","40","40","0","40","40","41","z","10/18/17 16:31:46","The main experiment item","yes","FIN__AB__M21__7%3A10%3A17.osexp","C:\Users\ERP Testing Room\Desktop\Joanna\morph21","no","mono","no","18","no","white","no","yes","1080","legacy","40","40","C:/Users/ERP Testing Room/Desktop/Joanna/morph21/subject-110.csv","xpyriment","Jazzy James","3.1.4","0","z","NA","NA","NA","NA","space","z","823","NA","NA","NA","NA","253756","823","2","legacy","1024","2","48000","-16","AB_m21","110","even","FILL_NW","DARM","1362","403280","401688","395488","255128","NA","NA","NA","NA","403275","402186","NA","401188","NA","401185","403275","1371","403480","NA","NA","402280","1362","1362","402680","401184","1362","402280","403480","morph21_Oliver/Morris","32","30765","41","yes","1280","11"
"200","78.5714285714","78.5714285714","748.452380952","748.452380952","black","no","xpyriment","legacy","legacy","0","205","NA","uniform","67954","1000","0.014715837184","1","undefined","1","0","41","41","41","0","41","41","41","NA","41","41","0","41","NA","41","41","0","41","NA","41","NA","41","0","0","41","41","0","41","41","42","z","10/18/17 16:31:46","The main experiment item","yes","FIN__AB__M21__7%3A10%3A17.osexp","C:\Users\ERP Testing Room\Desktop\Joanna\morph21","no","mono","no","18","no","white","no","yes","1080","legacy","41","41","C:/Users/ERP Testing Room/Desktop/Joanna/morph21/subject-110.csv","xpyriment","Jazzy James","3.1.4","0","z","NA","NA","NA","NA","space","z","670","NA","NA","NA","NA","253756","670","2","legacy","1024","2","48000","-16","AB_m21","110","even","NW_S_SIMP","THRILLANGE","1362","407806","404688","406298","255128","NA","NA","NA","NA","406290","405186","NA","404189","NA","404184","406290","1371","408006","NA","NA","405297","1362","1362","405690","404184","1362","405297","408006","morph21_Oliver/Morris","33","31435","42","yes","1280","22"
"400","79.0697674419","79.0697674419","744.23255814","744.23255814","black","no","xpyriment","legacy","legacy","0","207","NA","uniform","68165","1000","0.014670285337","1","undefined","1","0","42","42","42","0","42","42","42","NA","42","42","0","42","NA","42","42","0","42","NA","42","NA","42","0","0","42","42","0","42","42","43","/","10/18/17 16:31:46","The main experiment item","yes","FIN__AB__M21__7%3A10%3A17.osexp","C:\Users\ERP Testing Room\Desktop\Joanna\morph21","no","mono","no","18","no","white","no","yes","1080","legacy","42","42","C:/Users/ERP Testing Room/Desktop/Joanna/morph21/subject-110.csv","xpyriment","Jazzy James","3.1.4","0","/","NA","NA","NA","NA","space","/","567","NA","NA","NA","NA","253756","567","2","legacy","1024","2","48000","-16","AB_m21","110","even","FILL_W","CEASE","1362","410848","409248","406298","255128","NA","NA","NA","NA","410842","409745","NA","408748","NA","408740","410842","1371","411248","NA","NA","409848","1362","1362","410240","408740","1362","409848","411248","morph21_Oliver/Morris","34","32002","43","yes","1280","18"
"400","77.2727272727","77.2727272727","749.954545455","749.954545455","black","no","xpyriment","legacy","legacy","0","205","NA","uniform","53458","1000","0.0187062740843","0","undefined","0","0","43","43","43","0","43","43","43","NA","43","43","0","43","NA","43","43","0","43","NA","43","NA","43","0","0","43","43","0","43","43","44","z","10/18/17 16:31:46","The main experiment item","yes","FIN__AB__M21__7%3A10%3A17.osexp","C:\Users\ERP Testing Room\Desktop\Joanna\morph21","no","mono","no","18","no","white","no","yes","1080","legacy","43","43","C:/Users/ERP Testing Room/Desktop/Joanna/morph21/subject-110.csv","xpyriment","Jazzy James","3.1.4","0","None","NA","NA","NA","NA","space","None","996","NA","NA","NA","NA","253756","996","2","legacy","1024","2","48000","-16","AB_m21","110","even","NW_S_SIMP","URNILT","1362","414140","412548","406298","255128","NA","NA","NA","NA","410842","413045","NA","412048","NA","412038","414136","1371","414540","NA","NA","413140","1362","1362","413540","412038","1362","413140","414540","morph21_Oliver/Morris","34","32998","44","yes","1280","5"
"250","77.7777777778","77.7777777778","749.288888889","749.288888889","black","no","xpyriment","legacy","legacy","0","202","NA","uniform","57898","1000","0.0172717537739","1","undefined","1","0","44","44","44","0","44","44","44","NA","44","44","0","44","NA","44","44","0","44","NA","44","NA","44","0","0","44","44","0","44","44","45","/","10/18/17 16:31:46","The main experiment item","yes","FIN__AB__M21__7%3A10%3A17.osexp","C:\Users\ERP Testing Room\Desktop\Joanna\morph21","no","mono","no","18","no","white","no","yes","1080","legacy","44","44","C:/Users/ERP Testing Room/Desktop/Joanna/morph21/subject-110.csv","xpyriment","Jazzy James","3.1.4","0","/","NA","NA","NA","NA","space","/","720","NA","NA","NA","NA","253756","720","2","legacy","1024","2","48000","-16","AB_m21","110","even","CW_L","PUSHER","1362","418924","415848","417415","255128","NA","NA","NA","NA","417410","416346","NA","415348","NA","415338","417410","1371","419174","NA","NA","416415","1362","1362","416815","415338","1362","416415","419174","morph21_Oliver/Morris","35","33718","45","yes","1280","13"
"350","78.2608695652","78.2608695652","746.152173913","746.152173913","black","no","xpyriment","legacy","legacy","0","203","NA","uniform","64425","1000","0.0155219247187","1","undefined","1","0","45","45","45","0","45","45","45","NA","45","45","0","45","NA","45","45","0","45","NA","45","NA","45","0","0","45","45","0","45","45","46","z","10/18/17 16:31:46","The main experiment item","yes","FIN__AB__M21__7%3A10%3A17.osexp","C:\Users\ERP Testing Room\Desktop\Joanna\morph21","no","mono","no","18","no","white","no","yes","1080","legacy","45","45","C:/Users/ERP Testing Room/Desktop/Joanna/morph21/subject-110.csv","xpyriment","Jazzy James","3.1.4","0","z","NA","NA","NA","NA","space","z","605","NA","NA","NA","NA","253756","605","2","legacy","1024","2","48000","-16","AB_m21","110","even","NW_S_COMP","DEBTISH","1362","422065","420474","417415","255128","NA","NA","NA","NA","422062","420971","NA","419974","NA","419965","422062","1371","422415","NA","NA","421065","1362","1362","421465","419965","1362","421065","422415","morph21_Oliver/Morris","36","34323","46","yes","1280","22"
"400","78.7234042553","78.7234042553","744.021276596","744.021276596","black","no","xpyriment","legacy","legacy","0","207","NA","uniform","61276","1000","0.0163196031073","1","undefined","1","0","46","46","46","0","46","46","46","NA","46","46","0","46","NA","46","46","0","46","NA","46","NA","46","0","0","46","46","0","46","46","47","/","10/18/17 16:31:46","The main experiment item","yes","FIN__AB__M21__7%3A10%3A17.osexp","C:\Users\ERP Testing Room\Desktop\Joanna\morph21","no","mono","no","18","no","white","no","yes","1080","legacy","46","46","C:/Users/ERP Testing Room/Desktop/Joanna/morph21/subject-110.csv","xpyriment","Jazzy James","3.1.4","0","/","NA","NA","NA","NA","space","/","646","NA","NA","NA","NA","253756","646","2","legacy","1024","2","48000","-16","AB_m21","110","even","FILL_W","CRUNCH","1362","425233","423633","417415","255128","NA","NA","NA","NA","425225","424130","NA","423133","NA","423127","425225","1371","425633","NA","NA","424233","1362","1362","424625","423127","1362","424233","425633","morph21_Oliver/Morris","37","34969","47","yes","1280","20"
"400","79.1666666667","79.1666666667","743.333333333","743.333333333","black","no","xpyriment","legacy","legacy","0","202","NA","uniform","58918","1000","0.0169727417767","1","undefined","1","0","47","47","47","0","47","47","47","NA","47","47","0","47","NA","47","47","0","47","NA","47","NA","47","0","0","47","47","0","47","47","48","/","10/18/17 16:31:46","The main experiment item","yes","FIN__AB__M21__7%3A10%3A17.osexp","C:\Users\ERP Testing Room\Desktop\Joanna\morph21","no","mono","no","18","no","white","no","yes","1080","legacy","47","47","C:/Users/ERP Testing Room/Desktop/Joanna/morph21/subject-110.csv","xpyriment","Jazzy James","3.1.4","0","/","NA","NA","NA","NA","space","/","711","NA","NA","NA","NA","253756","711","2","legacy","1024","2","48000","-16","AB_m21","110","even","CW_L","DRYNESS","1362","429908","426816","428400","255128","NA","NA","NA","NA","428393","427314","NA","426316","NA","426309","428393","1371","430308","NA","NA","427400","1362","1362","427792","426309","1362","427400","430308","morph21_Oliver/Morris","38","35680","48","yes","1280","42"
"250","79.5918367347","79.5918367347","742.693877551","742.693877551","black","no","xpyriment","legacy","legacy","0","205","NA","uniform","56852","1000","0.0175895307113","1","undefined","1","0","48","48","48","0","48","48","48","NA","48","48","0","48","NA","48","48","0","48","NA","48","NA","48","0","0","48","48","0","48","48","49","z","10/18/17 16:31:46","The main experiment item","yes","FIN__AB__M21__7%3A10%3A17.osexp","C:\Users\ERP Testing Room\Desktop\Joanna\morph21","no","mono","no","18","no","white","no","yes","1080","legacy","48","48","C:/Users/ERP Testing Room/Desktop/Joanna/morph21/subject-110.csv","xpyriment","Jazzy James","3.1.4","0","z","NA","NA","NA","NA","space","z","712","NA","NA","NA","NA","253756","712","2","legacy","1024","2","48000","-16","AB_m21","110","even","NW_S_SIMP","DIGODY","1362","433167","431583","428400","255128","NA","NA","NA","NA","433163","432081","NA","431083","NA","431074","433163","1371","433417","NA","NA","432167","1362","1362","432567","431074","1362","432167","433417","morph21_Oliver/Morris","39","36392","49","yes","1280","11"
"400","80","80","740.5","740.5","black","no","xpyriment","legacy","legacy","0","201","NA","uniform","64135","1000","0.0155921103921","1","undefined","1","0","49","49","49","0","49","49","49","NA","49","49","0","49","NA","49","49","0","49","NA","49","NA","49","0","0","49","49","0","49","49","50","/","10/18/17 16:31:46","The main experiment item","yes","FIN__AB__M21__7%3A10%3A17.osexp","C:\Users\ERP Testing Room\Desktop\Joanna\morph21","no","mono","no","18","no","white","no","yes","1080","legacy","49","49","C:/Users/ERP Testing Room/Desktop/Joanna/morph21/subject-110.csv","xpyriment","Jazzy James","3.1.4","0","/","NA","NA","NA","NA","space","/","633","NA","NA","NA","NA","253756","633","2","legacy","1024","2","48000","-16","AB_m21","110","even","CW_S","ALLOWANCE","1362","436334","434725","428400","255128","NA","NA","NA","NA","436327","435222","NA","434225","NA","434217","436327","1371","436734","NA","NA","435334","1362","1362","435725","434217","1362","435334","436734","morph21_Oliver/Morris","40","37025","50","yes","1280","5"
"250","80.3921568627","80.3921568627","739.254901961","739.254901961","black","no","xpyriment","legacy","legacy","0","202","NA","uniform","62560","1000","0.0159846547315","1","undefined","1","0","50","50","50","0","50","50","50","NA","50","50","0","50","NA","50","50","0","50","NA","50","NA","50","0","0","50","50","0","50","50","51","/","10/18/17 16:31:46","The main experiment item","yes","FIN__AB__M21__7%3A10%3A17.osexp","C:\Users\ERP Testing Room\Desktop\Joanna\morph21","no","mono","no","18","no","white","no","yes","1080","legacy","50","50","C:/Users/ERP Testing Room/Desktop/Joanna/morph21/subject-110.csv","xpyriment","Jazzy James","3.1.4","0","/","NA","NA","NA","NA","space","/","677","NA","NA","NA","NA","253756","677","2","legacy","1024","2","48000","-16","AB_m21","110","even","CW_L","LAUGHING","1362","441127","438034","439617","255128","NA","NA","NA","NA","439612","438531","NA","437534","NA","437527","439612","1371","441377","NA","NA","438617","1362","1362","439017","437527","1362","438617","441377","morph21_Oliver/Morris","41","37702","51","yes","1280","27"
"400","80.7692307692","80.7692307692","738.076923077","738.076923077","black","no","xpyriment","legacy","legacy","0","202","NA","uniform","67881","1000","0.0147316627628","1","undefined","1","0","51","51","51","0","51","51","51","NA","51","51","0","51","NA","51","51","0","51","NA","51","NA","51","0","0","51","51","0","51","51","52","/","10/18/17 16:31:46","The main experiment item","yes","FIN__AB__M21__7%3A10%3A17.osexp","C:\Users\ERP Testing Room\Desktop\Joanna\morph21","no","mono","no","18","no","white","no","yes","1080","legacy","51","51","C:/Users/ERP Testing Room/Desktop/Joanna/morph21/subject-110.csv","xpyriment","Jazzy James","3.1.4","0","/","NA","NA","NA","NA","space","/","678","NA","NA","NA","NA","253756","678","2","legacy","1024","2","48000","-16","AB_m21","110","even","CW_L","CONDUCTOR","1362","444177","442593","439617","255128","NA","NA","NA","NA","444172","443090","NA","442093","NA","442086","444172","1371","444577","NA","NA","443177","1362","1362","443577","442086","1362","443176","444577","morph21_Oliver/Morris","42","38380","52","yes","1280","44"
"300","79.2452830189","79.2452830189","737.41509434","737.41509434","black","no","xpyriment","legacy","legacy","0","202","NA","uniform","56076","1000","0.0178329410086","0","undefined","0","0","52","52","52","0","52","52","52","NA","52","52","0","52","NA","52","52","0","52","NA","52","NA","52","0","0","52","52","0","52","52","53","/","10/18/17 16:31:46","The main experiment item","yes","FIN__AB__M21__7%3A10%3A17.osexp","C:\Users\ERP Testing Room\Desktop\Joanna\morph21","no","mono","no","18","no","white","no","yes","1080","legacy","52","52","C:/Users/ERP Testing Room/Desktop/Joanna/morph21/subject-110.csv","xpyriment","Jazzy James","3.1.4","0","z","NA","NA","NA","NA","space","z","703","NA","NA","NA","NA","253756","703","2","legacy","1024","2","48000","-16","AB_m21","110","even","CW_L","DAMPISH","1362","447360","445768","439617","255128","NA","NA","NA","NA","444172","446265","NA","445268","NA","445265","447350","1371","447660","NA","NA","446360","1362","1362","446752","445265","1362","446360","447660","morph21_Oliver/Morris","42","39083","53","yes","1280","28"
"200","79.6296296296","79.6296296296","735.648148148","735.648148148","black","no","xpyriment","legacy","legacy","0","207","NA","uniform","66390","1000","0.0150625094141","1","undefined","1","0","53","53","53","0","53","53","53","NA","53","53","0","53","NA","53","53","0","53","NA","53","NA","53","0","0","53","53","0","53","53","54","/","10/18/17 16:31:46","The main experiment item","yes","FIN__AB__M21__7%3A10%3A17.osexp","C:\Users\ERP Testing Room\Desktop\Joanna\morph21","no","mono","no","18","no","white","no","yes","1080","legacy","53","53","C:/Users/ERP Testing Room/Desktop/Joanna/morph21/subject-110.csv","xpyriment","Jazzy James","3.1.4","0","/","NA","NA","NA","NA","space","/","642","NA","NA","NA","NA","253756","642","2","legacy","1024","2","48000","-16","AB_m21","110","even","FILL_W","TAX","1362","451994","448885","450485","255128","NA","NA","NA","NA","450479","449382","NA","448385","NA","448379","450479","1371","452194","NA","NA","449485","1362","1362","449877","448379","1362","449485","452194","morph21_Oliver/Morris","43","39725","54","yes","1280","45"
"250","80","80","735.727272727","735.727272727","black","no","xpyriment","legacy","legacy","0","208","NA","uniform","58686","1000","0.0170398391439","1","undefined","1","0","54","54","54","0","54","54","54","NA","54","54","0","54","NA","54","54","0","54","NA","54","NA","54","0","0","54","54","0","54","54","55","z","10/18/17 16:31:46","The main experiment item","yes","FIN__AB__M21__7%3A10%3A17.osexp","C:\Users\ERP Testing Room\Desktop\Joanna\morph21","no","mono","no","18","no","white","no","yes","1080","legacy","54","54","C:/Users/ERP Testing Room/Desktop/Joanna/morph21/subject-110.csv","xpyriment","Jazzy James","3.1.4","0","z","NA","NA","NA","NA","space","z","740","NA","NA","NA","NA","253756","740","2","legacy","1024","2","48000","-16","AB_m21","110","even","FILL_NW","POLT","1362","455035","453435","450485","255128","NA","NA","NA","NA","455026","453932","NA","452935","NA","452930","455026","1371","455285","NA","NA","454035","1362","1362","454427","452930","1362","454035","455285","morph21_Oliver/Morris","44","40465","55","yes","1280","38"
"400","80.3571428571","80.3571428571","735.142857143","735.142857143","black","no","xpyriment","legacy","legacy","0","201","NA","uniform","65000","1000","0.0153846153846","1","undefined","1","0","55","55","55","0","55","55","55","NA","55","55","0","55","NA","55","55","0","55","NA","55","NA","55","0","0","55","55","0","55","55","56","/","10/18/17 16:31:46","The main experiment item","yes","FIN__AB__M21__7%3A10%3A17.osexp","C:\Users\ERP Testing Room\Desktop\Joanna\morph21","no","mono","no","18","no","white","no","yes","1080","legacy","55","55","C:/Users/ERP Testing Room/Desktop/Joanna/morph21/subject-110.csv","xpyriment","Jazzy James","3.1.4","0","/","NA","NA","NA","NA","space","/","703","NA","NA","NA","NA","253756","703","2","legacy","1024","2","48000","-16","AB_m21","110","even","CW_S","EFFORTLESS","1362","458120","456535","450485","255128","NA","NA","NA","NA","458112","457033","NA","456036","NA","456031","458112","1371","458520","NA","NA","457119","1362","1362","457511","456031","1362","457119","458520","morph21_Oliver/Morris","45","41168","56","yes","1280","30"
"200","80.701754386","80.701754386","731.894736842","731.894736842","black","no","xpyriment","legacy","legacy","0","202","NA","uniform","72603","1000","0.0137735355288","1","undefined","1","0","56","56","56","0","56","56","56","NA","56","56","0","56","NA","56","56","0","56","NA","56","NA","56","0","0","56","56","0","56","56","57","/","10/18/17 16:31:46","The main experiment item","yes","FIN__AB__M21__7%3A10%3A17.osexp","C:\Users\ERP Testing Room\Desktop\Joanna\morph21","no","mono","no","18","no","white","no","yes","1080","legacy","56","56","C:/Users/ERP Testing Room/Desktop/Joanna/morph21/subject-110.csv","xpyriment","Jazzy James","3.1.4","0","/","NA","NA","NA","NA","space","/","550","NA","NA","NA","NA","253756","550","2","legacy","1024","2","48000","-16","AB_m21","110","even","CW_L","BOOTLESS","1362","462845","459753","461337","255128","NA","NA","NA","NA","461331","460250","NA","459253","NA","459243","461331","1371","463045","NA","NA","460337","1362","1362","460728","459243","1362","460337","463045","morph21_Oliver/Morris","46","41718","57","yes","1280","32"
"350","81.0344827586","81.0344827586","730.327586207","730.327586207","black","no","xpyriment","legacy","legacy","0","202","NA","uniform","67131","1000","0.0148962476352","1","undefined","1","0","57","57","57","0","57","57","57","NA","57","57","0","57","NA","57","57","0","57","NA","57","NA","57","0","0","57","57","0","57","57","58","/","10/18/17 16:31:46","The main experiment item","yes","FIN__AB__M21__7%3A10%3A17.osexp","C:\Users\ERP Testing Room\Desktop\Joanna\morph21","no","mono","no","18","no","white","no","yes","1080","legacy","57","57","C:/Users/ERP Testing Room/Desktop/Joanna/morph21/subject-110.csv","xpyriment","Jazzy James","3.1.4","0","/","NA","NA","NA","NA","space","/","641","NA","NA","NA","NA","253756","641","2","legacy","1024","2","48000","-16","AB_m21","110","even","CW_L","PAINTER","1362","465854","464270","461337","255128","NA","NA","NA","NA","465848","464767","NA","463770","NA","463761","465848","1371","466204","NA","NA","464854","1362","1362","465245","463761","1362","464853","466204","morph21_Oliver/Morris","47","42359","58","yes","1280","18"
"300","81.3559322034","81.3559322034","729.101694915","729.101694915","black","no","xpyriment","legacy","legacy","0","204","NA","uniform","60966","1000","0.0164025850474","1","undefined","1","0","58","58","58","0","58","58","58","NA","58","58","0","58","NA","58","58","0","58","NA","58","NA","58","0","0","58","58","0","58","58","59","z","10/18/17 16:31:46","The main experiment item","yes","FIN__AB__M21__7%3A10%3A17.osexp","C:\Users\ERP Testing Room\Desktop\Joanna\morph21","no","mono","no","18","no","white","no","yes","1080","legacy","58","58","C:/Users/ERP Testing Room/Desktop/Joanna/morph21/subject-110.csv","xpyriment","Jazzy James","3.1.4","0","z","NA","NA","NA","NA","space","z","658","NA","NA","NA","NA","253756","658","2","legacy","1024","2","48000","-16","AB_m21","110","even","NW_L_COMP","KINGISM","1362","469020","467420","461337","255128","NA","NA","NA","NA","469017","467917","NA","466920","NA","466910","469017","1371","469320","NA","NA","468029","1362","1362","468420","466910","1362","468029","469320","morph21_Oliver/Morris","48","43017","59","yes","1280","19"
"350","81.6666666667","81.6666666667","728.4","728.4","black","no","xpyriment","legacy","legacy","0","201","NA","uniform","61638","1000","0.0162237580713","1","undefined","1","0","59","59","59","0","59","59","59","NA","59","59","0","59","NA","59","59","0","59","NA","59","NA","59","0","0","59","59","0","59","59","60","/","10/18/17 16:31:46","The main experiment item","yes","FIN__AB__M21__7%3A10%3A17.osexp","C:\Users\ERP Testing Room\Desktop\Joanna\morph21","no","mono","no","18","no","white","no","yes","1080","legacy","59","59","C:/Users/ERP Testing Room/Desktop/Joanna/morph21/subject-110.csv","xpyriment","Jazzy James","3.1.4","0","/","NA","NA","NA","NA","space","/","687","NA","NA","NA","NA","253756","687","2","legacy","1024","2","48000","-16","AB_m21","110","even","CW_S","LENDER","1362","473829","470737","472321","255128","NA","NA","NA","NA","472313","471234","NA","470237","NA","470229","472313","1371","474179","NA","NA","471320","1362","1362","471712","470229","1362","471320","474179","morph21_Oliver/Morris","49","43704","60","yes","1280","11"
"200","81.9672131148","81.9672131148","729.213114754","729.213114754","black","no","xpyriment","legacy","legacy","0","201","NA","uniform","63102","1000","0.0158473582454","1","undefined","1","0","60","60","60","0","60","60","60","NA","60","60","0","60","NA","60","60","0","60","NA","60","NA","60","0","0","60","60","0","60","60","61","/","10/18/17 16:31:46","The main experiment item","yes","FIN__AB__M21__7%3A10%3A17.osexp","C:\Users\ERP Testing Room\Desktop\Joanna\morph21","no","mono","no","18","no","white","no","yes","1080","legacy","60","60","C:/Users/ERP Testing Room/Desktop/Joanna/morph21/subject-110.csv","xpyriment","Jazzy James","3.1.4","0","/","NA","NA","NA","NA","space","/","778","NA","NA","NA","NA","253756","778","2","legacy","1024","2","48000","-16","AB_m21","110","even","CW_S","THRUSTER","1362","476997","475404","472321","255128","NA","NA","NA","NA","476989","475901","NA","474904","NA","474899","476989","1371","477197","NA","NA","475997","1362","1362","476388","474899","1362","475997","477197","morph21_Oliver/Morris","50","44482","61","yes","1280","24"
"350","82.2580645161","82.2580645161","727.532258065","727.532258065","black","no","xpyriment","legacy","legacy","0","207","NA","uniform","69901","1000","0.0143059469822","1","undefined","1","0","61","61","61","0","61","61","61","NA","61","61","0","61","NA","61","61","0","61","NA","61","NA","61","0","0","61","61","0","61","61","62","/","10/18/17 16:31:46","The main experiment item","yes","FIN__AB__M21__7%3A10%3A17.osexp","C:\Users\ERP Testing Room\Desktop\Joanna\morph21","no","mono","no","18","no","white","no","yes","1080","legacy","61","61","C:/Users/ERP Testing Room/Desktop/Joanna/morph21/subject-110.csv","xpyriment","Jazzy James","3.1.4","0","/","NA","NA","NA","NA","space","/","625","NA","NA","NA","NA","253756","625","2","legacy","1024","2","48000","-16","AB_m21","110","even","FILL_W","LIFT","1362","480039","478455","472321","255128","NA","NA","NA","NA","480031","478952","NA","477955","NA","477945","480031","1371","480389","NA","NA","479038","1362","1362","479430","477945","1362","479038","480389","morph21_Oliver/Morris","51","45107","62","yes","1280","39"
"250","82.5396825397","82.5396825397","727.698412698","727.698412698","black","no","xpyriment","legacy","legacy","0","201","NA","uniform","66960","1000","0.0149342891278","1","undefined","1","0","62","62","62","0","62","62","62","NA","62","62","0","62","NA","62","62","0","62","NA","62","NA","62","0","0","62","62","0","62","62","63","/","10/18/17 16:31:46","The main experiment item","yes","FIN__AB__M21__7%3A10%3A17.osexp","C:\Users\ERP Testing Room\Desktop\Joanna\morph21","no","mono","no","18","no","white","no","yes","1080","legacy","62","62","C:/Users/ERP Testing Room/Desktop/Joanna/morph21/subject-110.csv","xpyriment","Jazzy James","3.1.4","0","/","NA","NA","NA","NA","space","/","738","NA","NA","NA","NA","253756","738","2","legacy","1024","2","48000","-16","AB_m21","110","even","CW_S","HARMLESS","1362","484714","481597","483205","255128","NA","NA","NA","NA","483201","482094","NA","481097","NA","481088","483201","1371","484964","NA","NA","482205","1362","1362","482605","481088","1362","482205","484964","morph21_Oliver/Morris","52","45845","63","yes","1280","29"
"250","82.8125","82.8125","726.578125","726.578125","black","no","xpyriment","legacy","legacy","0","201","NA","uniform","67300","1000","0.0148588410104","1","undefined","1","0","63","63","63","0","63","63","63","NA","63","63","0","63","NA","63","63","0","63","NA","63","NA","63","0","0","63","63","0","63","63","64","/","10/18/17 16:31:46","The main experiment item","yes","FIN__AB__M21__7%3A10%3A17.osexp","C:\Users\ERP Testing Room\Desktop\Joanna\morph21","no","mono","no","18","no","white","no","yes","1080","legacy","63","63","C:/Users/ERP Testing Room/Desktop/Joanna/morph21/subject-110.csv","xpyriment","Jazzy James","3.1.4","0","/","NA","NA","NA","NA","space","/","656","NA","NA","NA","NA","253756","656","2","legacy","1024","2","48000","-16","AB_m21","110","even","CW_S","JAILER","1362","487847","486230","483205","255128","NA","NA","NA","NA","487837","486728","NA","485730","NA","485720","487837","1371","488097","NA","NA","486847","1362","1362","487239","485720","1362","486847","488097","morph21_Oliver/Morris","53","46501","64","yes","1280","13"
"300","83.0769230769","83.0769230769","726.646153846","726.646153846","black","no","xpyriment","legacy","legacy","0","205","NA","uniform","58175","1000","0.0171895143962","1","undefined","1","0","64","64","64","0","64","64","64","NA","64","64","0","64","NA","64","64","0","64","NA","64","NA","64","0","0","64","64","0","64","64","65","z","10/18/17 16:31:46","The main experiment item","yes","FIN__AB__M21__7%3A10%3A17.osexp","C:\Users\ERP Testing Room\Desktop\Joanna\morph21","no","mono","no","18","no","white","no","yes","1080","legacy","64","64","C:/Users/ERP Testing Room/Desktop/Joanna/morph21/subject-110.csv","xpyriment","Jazzy James","3.1.4","0","z","NA","NA","NA","NA","space","z","731","NA","NA","NA","NA","253756","731","2","legacy","1024","2","48000","-16","AB_m21","110","even","NW_S_SIMP","FEVERIME","1362","490956","489347","483205","255128","NA","NA","NA","NA","490945","489844","NA","488847","NA","488843","490945","1371","491256","NA","NA","489956","1362","1362","490347","488843","1362","489956","491256","morph21_Oliver/Morris","54","47232","65","yes","1280","24"
"400","83.3333333333","83.3333333333","725.772727273","725.772727273","black","no","xpyriment","legacy","legacy","0","203","NA","uniform","67489","1000","0.0148172294744","1","undefined","1","0","65","65","65","0","65","65","65","NA","65","65","0","65","NA","65","65","0","65","NA","65","NA","65","0","0","65","65","0","65","65","66","z","10/18/17 16:31:46","The main experiment item","yes","FIN__AB__M21__7%3A10%3A17.osexp","C:\Users\ERP Testing Room\Desktop\Joanna\morph21","no","mono","no","18","no","white","no","yes","1080","legacy","65","65","C:/Users/ERP Testing Room/Desktop/Joanna/morph21/subject-110.csv","xpyriment","Jazzy James","3.1.4","0","z","NA","NA","NA","NA","space","z","669","NA","NA","NA","NA","253756","669","2","legacy","1024","2","48000","-16","AB_m21","110","even","NW_S_COMP","ARIDISM","1362","495607","492506","494099","255128","NA","NA","NA","NA","494089","493003","NA","492006","NA","492002","494089","1371","496007","NA","NA","493098","1362","1362","493490","492002","1362","493098","496007","morph21_Oliver/Morris","55","47901","66","yes","1280","9"
"400","83.5820895522","83.5820895522","722.089552239","722.089552239","black","no","xpyriment","legacy","legacy","0","207","NA","uniform","75314","1000","0.0132777438458","1","undefined","1","0","66","66","66","0","66","66","66","NA","66","66","0","66","NA","66","66","0","66","NA","66","NA","66","0","0","66","66","0","66","66","67","/","10/18/17 16:31:46","The main experiment item","yes","FIN__AB__M21__7%3A10%3A17.osexp","C:\Users\ERP Testing Room\Desktop\Joanna\morph21","no","mono","no","18","no","white","no","yes","1080","legacy","66","66","C:/Users/ERP Testing Room/Desktop/Joanna/morph21/subject-110.csv","xpyriment","Jazzy James","3.1.4","0","/","NA","NA","NA","NA","space","/","479","NA","NA","NA","NA","253756","479","2","legacy","1024","2","48000","-16","AB_m21","110","even","FILL_W","QUIT","1362","498840","497249","494099","255128","NA","NA","NA","NA","498831","497746","NA","496749","NA","496744","498831","1371","499240","NA","NA","497840","1362","1362","498232","496744","1362","497840","499240","morph21_Oliver/Morris","56","48380","67","yes","1280","21"
"250","82.3529411765","82.3529411765","723.323529412","723.323529412","black","no","xpyriment","legacy","legacy","0","204","NA","uniform","60685","1000","0.0164785367059","0","undefined","0","0","67","67","67","0","67","67","67","NA","67","67","0","67","NA","67","67","0","67","NA","67","NA","67","0","0","67","67","0","67","67","68","z","10/18/17 16:31:46","The main experiment item","yes","FIN__AB__M21__7%3A10%3A17.osexp","C:\Users\ERP Testing Room\Desktop\Joanna\morph21","no","mono","no","18","no","white","no","yes","1080","legacy","67","67","C:/Users/ERP Testing Room/Desktop/Joanna/morph21/subject-110.csv","xpyriment","Jazzy James","3.1.4","0","/","NA","NA","NA","NA","space","/","806","NA","NA","NA","NA","253756","806","2","legacy","1024","2","48000","-16","AB_m21","110","even","NW_L_COMP","MUDLY","1362","502057","500474","494099","255128","NA","NA","NA","NA","498831","500971","NA","499974","NA","499963","502050","1371","502307","NA","NA","501057","1362","1362","501449","499963","1362","501057","502307","morph21_Oliver/Morris","56","49186","68","yes","1280","12"
"400","82.6086956522","82.6086956522","722.623188406","722.623188406","black","no","xpyriment","legacy","legacy","0","207","NA","uniform","58232","1000","0.0171726885561","1","undefined","1","0","68","68","68","0","68","68","68","NA","68","68","0","68","NA","68","68","0","68","NA","68","NA","68","0","0","68","68","0","68","68","69","/","10/18/17 16:31:46","The main experiment item","yes","FIN__AB__M21__7%3A10%3A17.osexp","C:\Users\ERP Testing Room\Desktop\Joanna\morph21","no","mono","no","18","no","white","no","yes","1080","legacy","68","68","C:/Users/ERP Testing Room/Desktop/Joanna/morph21/subject-110.csv","xpyriment","Jazzy James","3.1.4","0","/","NA","NA","NA","NA","space","/","675","NA","NA","NA","NA","253756","675","2","legacy","1024","2","48000","-16","AB_m21","110","even","FILL_W","STEEP","1362","506624","503532","505116","255128","NA","NA","NA","NA","505108","504029","NA","503032","NA","503026","505108","1371","507024","NA","NA","504116","1362","1362","504507","503026","1362","504116","507024","morph21_Oliver/Morris","57","49861","69","yes","1280","16"
"350","82.8571428571","82.8571428571","722.785714286","722.785714286","black","no","xpyriment","legacy","legacy","0","201","NA","uniform","69072","1000","0.0144776465138","1","undefined","1","0","69","69","69","0","69","69","69","NA","69","69","0","69","NA","69","69","0","69","NA","69","NA","69","0","0","69","69","0","69","69","70","/","10/18/17 16:31:46","The main experiment item","yes","FIN__AB__M21__7%3A10%3A17.osexp","C:\Users\ERP Testing Room\Desktop\Joanna\morph21","no","mono","no","18","no","white","no","yes","1080","legacy","69","69","C:/Users/ERP Testing Room/Desktop/Joanna/morph21/subject-110.csv","xpyriment","Jazzy James","3.1.4","0","/","NA","NA","NA","NA","space","/","734","NA","NA","NA","NA","253756","734","2","legacy","1024","2","48000","-16","AB_m21","110","even","CW_S","DENSELY","1362","509833","508249","505116","255128","NA","NA","NA","NA","509828","508746","NA","507749","NA","507743","509828","1371","510183","NA","NA","508832","1362","1362","509232","507743","1362","508832","510183","morph21_Oliver/Morris","58","50595","70","yes","1280","32"
"300","83.0985915493","83.0985915493","721.605633803","721.605633803","black","no","xpyriment","legacy","legacy","0","208","NA","uniform","69107","1000","0.0144703141505","1","undefined","1","0","70","70","70","0","70","70","70","NA","70","70","0","70","NA","70","70","0","70","NA","70","NA","70","0","0","70","70","0","70","70","71","z","10/18/17 16:31:46","The main experiment item","yes","FIN__AB__M21__7%3A10%3A17.osexp","C:\Users\ERP Testing Room\Desktop\Joanna\morph21","no","mono","no","18","no","white","no","yes","1080","legacy","70","70","C:/Users/ERP Testing Room/Desktop/Joanna/morph21/subject-110.csv","xpyriment","Jazzy James","3.1.4","0","z","NA","NA","NA","NA","space","z","639","NA","NA","NA","NA","253756","639","2","legacy","1024","2","48000","-16","AB_m21","110","even","FILL_NW","VOOFS","1362","512992","511392","505116","255128","NA","NA","NA","NA","512983","511889","NA","510892","NA","510887","512983","1371","513292","NA","NA","511992","1362","1362","512384","510887","1362","511992","513292","morph21_Oliver/Morris","59","51234","71","yes","1280","48"
"250","83.3333333333","83.3333333333","718.888888889","718.888888889","black","no","xpyriment","legacy","legacy","0","207","NA","uniform","69982","1000","0.0142893887","1","undefined","1","0","71","71","71","0","71","71","71","NA","71","71","0","71","NA","71","71","0","71","NA","71","NA","71","0","0","71","71","0","71","71","72","/","10/18/17 16:31:46","The main experiment item","yes","FIN__AB__M21__7%3A10%3A17.osexp","C:\Users\ERP Testing Room\Desktop\Joanna\morph21","no","mono","no","18","no","white","no","yes","1080","legacy","71","71","C:/Users/ERP Testing Room/Desktop/Joanna/morph21/subject-110.csv","xpyriment","Jazzy James","3.1.4","0","/","NA","NA","NA","NA","space","/","526","NA","NA","NA","NA","253756","526","2","legacy","1024","2","48000","-16","AB_m21","110","even","FILL_W","FIERCE","1362","517717","514584","516209","255128","NA","NA","NA","NA","516199","515081","NA","514084","NA","514076","516199","1371","517967","NA","NA","515209","1362","1362","515600","514076","1362","515209","517967","morph21_Oliver/Morris","60","51760","72","yes","1280","24"
"300","83.5616438356","83.5616438356","720.150684932","720.150684932","black","no","xpyriment","legacy","legacy","0","205","NA","uniform","62643","1000","0.0159634755679","1","undefined","1","0","72","72","72","0","72","72","72","NA","72","72","0","72","NA","72","72","0","72","NA","72","NA","72","0","0","72","72","0","72","72","73","z","10/18/17 16:31:46","The main experiment item","yes","FIN__AB__M21__7%3A10%3A17.osexp","C:\Users\ERP Testing Room\Desktop\Joanna\morph21","no","mono","no","18","no","white","no","yes","1080","legacy","72","72","C:/Users/ERP Testing Room/Desktop/Joanna/morph21/subject-110.csv","xpyriment","Jazzy James","3.1.4","0","z","NA","NA","NA","NA","space","z","811","NA","NA","NA","NA","253756","811","2","legacy","1024","2","48000","-16","AB_m21","110","even","NW_S_SIMP","HELMETOES","1362","520867","519284","516209","255128","NA","NA","NA","NA","520864","519781","NA","518784","NA","518776","520864","1371","521167","NA","NA","519876","1362","1362","520267","518776","1362","519876","521167","morph21_Oliver/Morris","61","52571","73","yes","1280","14"
"400","83.7837837838","83.7837837838","719.364864865","719.364864865","black","no","xpyriment","legacy","legacy","0","202","NA","uniform","62125","1000","0.0160965794769","1","undefined","1","0","73","73","73","0","73","73","73","NA","73","73","0","73","NA","73","73","0","73","NA","73","NA","73","0","0","73","73","0","73","73","74","/","10/18/17 16:31:46","The main experiment item","yes","FIN__AB__M21__7%3A10%3A17.osexp","C:\Users\ERP Testing Room\Desktop\Joanna\morph21","no","mono","no","18","no","white","no","yes","1080","legacy","73","73","C:/Users/ERP Testing Room/Desktop/Joanna/morph21/subject-110.csv","xpyriment","Jazzy James","3.1.4","0","/","NA","NA","NA","NA","space","/","662","NA","NA","NA","NA","253756","662","2","legacy","1024","2","48000","-16","AB_m21","110","even","CW_L","CLOUDLESS","1362","524009","522426","516209","255128","NA","NA","NA","NA","524001","522923","NA","521926","NA","521915","524001","1371","524409","NA","NA","523009","1362","1362","523401","521915","1362","523009","524409","morph21_Oliver/Morris","62","53233","74","yes","1280","33"
"300","84","84","719.613333333","719.613333333","black","no","xpyriment","legacy","legacy","0","207","NA","uniform","62046","1000","0.0161170744286","undefined","undefined","1","0","74","74","74","0","74","74","74","NA","74","74","0","74","NA","74","74","0","74","NA","74","NA","74","0","0","74","74","0","74","74","75","/","10/18/17 16:31:46","The main experiment item","yes","FIN__AB__M21__7%3A10%3A17.osexp","C:\Users\ERP Testing Room\Desktop\Joanna\morph21","no","mono","no","18","no","white","no","yes","1080","legacy","74","74","C:/Users/ERP Testing Room/Desktop/Joanna/morph21/subject-110.csv","xpyriment","Jazzy James","3.1.4","0","space","space","NA","NA","NA","space","/","7377","7377","NA","NA","NA","253756","738","2","legacy","1024","2","48000","-16","AB_m21","110","even","FILL_W","BALD","1362","528802","525693","527293","255128","529110","NA","NA","NA","527285","526190","NA","525193","NA","525185","527285","1371","536488","NA","NA","526293","1362","1362","526684","525185","1362","526293","529102","morph21_Oliver/Morris","63","53971","75","yes","1280","3"
"400","84.2105263158","84.2105263158","719.25","719.25","black","no","xpyriment","legacy","legacy","0","203","NA","uniform","67439","1000","0.0148282151277","1","undefined","1","0","75","75","75","0","75","75","75","NA","75","75","0","75","NA","75","75","0","75","NA","75","NA","75","0","0","75","75","0","75","75","76","z","10/18/17 16:31:46","The main experiment item","yes","FIN__AB__M21__7%3A10%3A17.osexp","C:\Users\ERP Testing Room\Desktop\Joanna\morph21","no","mono","no","18","no","white","no","yes","1080","legacy","75","75","C:/Users/ERP Testing Room/Desktop/Joanna/morph21/subject-110.csv","xpyriment","Jazzy James","3.1.4","0","z","space","NA","NA","NA","space","z","692","7377","NA","NA","NA","253756","692","2","legacy","1024","2","48000","-16","AB_m21","110","even","NW_S_COMP","ALTARIC","1362","539419","537811","527293","255128","529110","NA","NA","NA","539412","538308","NA","537311","NA","537305","539412","1371","539819","NA","NA","538419","1362","1362","538811","537304","1362","538419","539819","morph21_Oliver/Morris","64","54663","76","yes","1280","7"
"400","84.4155844156","84.4155844156","716.727272727","716.727272727","black","no","xpyriment","legacy","legacy","0","202","NA","uniform","72289","1000","0.0138333633056","1","undefined","1","0","76","76","76","0","76","76","76","NA","76","76","0","76","NA","76","76","0","76","NA","76","NA","76","0","0","76","76","0","76","76","77","/","10/18/17 16:31:46","The main experiment item","yes","FIN__AB__M21__7%3A10%3A17.osexp","C:\Users\ERP Testing Room\Desktop\Joanna\morph21","no","mono","no","18","no","white","no","yes","1080","legacy","76","76","C:/Users/ERP Testing Room/Desktop/Joanna/morph21/subject-110.csv","xpyriment","Jazzy James","3.1.4","0","/","space","NA","NA","NA","space","/","525","7377","NA","NA","NA","253756","525","2","legacy","1024","2","48000","-16","AB_m21","110","even","CW_L","SHAPELY","1362","542578","540994","527293","255128","529110","NA","NA","NA","542572","541491","NA","540494","NA","540488","542572","1371","542978","NA","NA","541578","1362","1362","541969","540488","1362","541578","542978","morph21_Oliver/Morris","65","55188","77","yes","1280","35"
"400","83.3333333333","83.3333333333","712.884615385","712.884615385","black","no","xpyriment","legacy","legacy","0","208","NA","uniform","66473","1000","0.0150437019542","0","undefined","0","0","77","77","77","0","77","77","77","NA","77","77","0","77","NA","77","77","0","77","NA","77","NA","77","0","0","77","77","0","77","77","78","z","10/18/17 16:31:46","The main experiment item","yes","FIN__AB__M21__7%3A10%3A17.osexp","C:\Users\ERP Testing Room\Desktop\Joanna\morph21","no","mono","no","18","no","white","no","yes","1080","legacy","77","77","C:/Users/ERP Testing Room/Desktop/Joanna/morph21/subject-110.csv","xpyriment","Jazzy James","3.1.4","0","/","space","NA","NA","NA","space","/","417","7377","NA","NA","NA","253756","417","2","legacy","1024","2","48000","-16","AB_m21","110","even","FILL_NW","BORMS","1362","547387","544294","545879","255128","529110","NA","NA","NA","542572","544791","NA","543794","NA","543787","545871","1371","547787","NA","NA","544878","1362","1362","545269","543787","1362","544878","547787","morph21_Oliver/Morris","65","55605","78","yes","1280","50"
"250","83.5443037975","83.5443037975","713.506329114","713.506329114","black","no","xpyriment","legacy","legacy","0","206","NA","uniform","60135","1000","0.0166292508522","1","undefined","1","0","78","78","78","0","78","78","78","NA","78","78","0","78","NA","78","78","0","78","NA","78","NA","78","0","0","78","78","0","78","78","79","z","10/18/17 16:31:46","The main experiment item","yes","FIN__AB__M21__7%3A10%3A17.osexp","C:\Users\ERP Testing Room\Desktop\Joanna\morph21","no","mono","no","18","no","white","no","yes","1080","legacy","78","78","C:/Users/ERP Testing Room/Desktop/Joanna/morph21/subject-110.csv","xpyriment","Jazzy James","3.1.4","0","z","space","NA","NA","NA","space","z","762","7377","NA","NA","NA","253756","762","2","legacy","1024","2","48000","-16","AB_m21","110","even","NW_L_SIMP","SMOOTHFIL","1362","550629","549046","545879","255128","529110","NA","NA","NA","550623","549543","NA","548546","NA","548536","550623","1371","550879","NA","NA","549629","1362","1362","550021","548536","1362","549629","550879","morph21_Oliver/Morris","66","56367","79","yes","1280","19"
"200","82.5","82.5","717.0125","717.0125","black","no","xpyriment","legacy","legacy","0","203","NA","uniform","53925","1000","0.0185442744553","0","undefined","0","0","79","79","79","0","79","79","79","NA","79","79","0","79","NA","79","79","0","79","NA","79","NA","79","0","0","79","79","0","79","79","80","z","10/18/17 16:31:46","The main experiment item","yes","FIN__AB__M21__7%3A10%3A17.osexp","C:\Users\ERP Testing Room\Desktop\Joanna\morph21","no","mono","no","18","no","white","no","yes","1080","legacy","79","79","C:/Users/ERP Testing Room/Desktop/Joanna/morph21/subject-110.csv","xpyriment","Jazzy James","3.1.4","0","None","space","NA","NA","NA","space","None","994","7377","NA","NA","NA","253756","994","2","legacy","1024","2","48000","-16","AB_m21","110","even","NW_S_COMP","ELMIST","1362","553679","552096","545879","255128","529110","NA","NA","NA","550623","552593","NA","551596","NA","551591","553673","1371","553879","NA","NA","552679","1362","1362","553071","551591","1362","552679","553879","morph21_Oliver/Morris","66","57361","80","yes","1280","10"
"350","82.7160493827","82.7160493827","716.444444444","716.444444444","black","no","xpyriment","legacy","legacy","0","207","NA","uniform","69413","1000","0.0144065232737","1","undefined","1","0","80","80","80","0","80","80","80","NA","80","80","0","80","NA","80","80","0","80","NA","80","NA","80","0","0","80","80","0","80","80","81","/","10/18/17 16:31:46","The main experiment item","yes","FIN__AB__M21__7%3A10%3A17.osexp","C:\Users\ERP Testing Room\Desktop\Joanna\morph21","no","mono","no","18","no","white","no","yes","1080","legacy","80","80","C:/Users/ERP Testing Room/Desktop/Joanna/morph21/subject-110.csv","xpyriment","Jazzy James","3.1.4","0","/","space","NA","NA","NA","space","/","671","7377","NA","NA","NA","253756","671","2","legacy","1024","2","48000","-16","AB_m21","110","even","FILL_W","GLOOM","1362","558196","555087","556688","255128","529110","NA","NA","NA","556677","555585","NA","554588","NA","554578","556677","1371","558546","NA","NA","555688","1362","1362","556079","554578","1362","555688","558546","morph21_Oliver/Morris","67","58032","81","yes","1280","14"
"300","82.9268292683","82.9268292683","713.487804878","713.487804878","black","no","xpyriment","legacy","legacy","0","207","NA","uniform","74520","1000","0.0134192163178","1","undefined","1","0","81","81","81","0","81","81","81","NA","81","81","0","81","NA","81","81","0","81","NA","81","NA","81","0","0","81","81","0","81","81","82","/","10/18/17 16:31:46","The main experiment item","yes","FIN__AB__M21__7%3A10%3A17.osexp","C:\Users\ERP Testing Room\Desktop\Joanna\morph21","no","mono","no","18","no","white","no","yes","1080","legacy","81","81","C:/Users/ERP Testing Room/Desktop/Joanna/morph21/subject-110.csv","xpyriment","Jazzy James","3.1.4","0","/","space","NA","NA","NA","space","/","474","7377","NA","NA","NA","253756","474","2","legacy","1024","2","48000","-16","AB_m21","110","even","FILL_W","SICK","1362","561429","559846","556688","255128","529110","NA","NA","NA","561424","560343","NA","559346","NA","559342","561424","1371","561729","NA","NA","560429","1362","1362","560821","559342","1362","560429","561729","morph21_Oliver/Morris","68","58506","82","yes","1280","36"
"350","83.1325301205","83.1325301205","712.168674699","712.168674699","black","no","xpyriment","legacy","legacy","0","201","NA","uniform","69186","1000","0.0144537912294","1","undefined","1","0","82","82","82","0","82","82","82","NA","82","82","0","82","NA","82","82","0","82","NA","82","NA","82","0","0","82","82","0","82","82","83","/","10/18/17 16:31:46","The main experiment item","yes","FIN__AB__M21__7%3A10%3A17.osexp","C:\Users\ERP Testing Room\Desktop\Joanna\morph21","no","mono","no","18","no","white","no","yes","1080","legacy","82","82","C:/Users/ERP Testing Room/Desktop/Joanna/morph21/subject-110.csv","xpyriment","Jazzy James","3.1.4","0","/","space","NA","NA","NA","space","/","604","7377","NA","NA","NA","253756","604","2","legacy","1024","2","48000","-16","AB_m21","110","even","CW_S","TEACHER","1362","564539","562930","556688","255128","529110","NA","NA","NA","564532","563427","NA","562430","NA","562418","564532","1371","564889","NA","NA","563539","1362","1362","563931","562418","1362","563539","564889","morph21_Oliver/Morris","69","59110","83","yes","1280","23"
"400","83.3333333333","83.3333333333","710.119047619","710.119047619","black","no","xpyriment","legacy","legacy","0","207","NA","uniform","70391","1000","0.0142063616087","1","undefined","1","0","83","83","83","0","83","83","83","NA","83","83","0","83","NA","83","83","0","83","NA","83","NA","83","0","0","83","83","0","83","83","84","/","10/18/17 16:31:46","The main experiment item","yes","FIN__AB__M21__7%3A10%3A17.osexp","C:\Users\ERP Testing Room\Desktop\Joanna\morph21","no","mono","no","18","no","white","no","yes","1080","legacy","83","83","C:/Users/ERP Testing Room/Desktop/Joanna/morph21/subject-110.csv","xpyriment","Jazzy James","3.1.4","0","/","space","NA","NA","NA","space","/","540","7377","NA","NA","NA","253756","540","2","legacy","1024","2","48000","-16","AB_m21","110","even","FILL_W","DRUNK","1362","569256","566164","567747","255128","529110","NA","NA","NA","567743","566661","NA","565664","NA","565658","567743","1371","569656","NA","NA","566747","1362","1362","567147","565658","1362","566747","569656","morph21_Oliver/Morris","70","59650","84","yes","1280","19"
"350","83.5294117647","83.5294117647","709.388235294","709.388235294","black","no","xpyriment","legacy","legacy","0","208","NA","uniform","65268","1000","0.0153214438929","1","undefined","1","0","84","84","84","0","84","84","84","NA","84","84","0","84","NA","84","84","0","84","NA","84","NA","84","0","0","84","84","0","84","84","85","z","10/18/17 16:31:46","The main experiment item","yes","FIN__AB__M21__7%3A10%3A17.osexp","C:\Users\ERP Testing Room\Desktop\Joanna\morph21","no","mono","no","18","no","white","no","yes","1080","legacy","84","84","C:/Users/ERP Testing Room/Desktop/Joanna/morph21/subject-110.csv","xpyriment","Jazzy James","3.1.4","0","z","space","NA","NA","NA","space","z","648","7377","NA","NA","NA","253756","648","2","legacy","1024","2","48000","-16","AB_m21","110","even","FILL_NW","JADS","1362","572631","571031","567747","255128","529110","NA","NA","NA","572625","571528","NA","570531","NA","570525","572625","1371","572981","NA","NA","571631","1362","1362","572023","570525","1362","571631","572981","morph21_Oliver/Morris","71","60298","85","yes","1280","31"
"350","83.7209302326","83.7209302326","709.255813953","709.255813953","black","no","xpyriment","legacy","legacy","0","206","NA","uniform","64168","1000","0.0155840917591","1","undefined","1","0","85","85","85","0","85","85","85","NA","85","85","0","85","NA","85","85","0","85","NA","85","NA","85","0","0","85","85","0","85","85","86","z","10/18/17 16:31:46","The main experiment item","yes","FIN__AB__M21__7%3A10%3A17.osexp","C:\Users\ERP Testing Room\Desktop\Joanna\morph21","no","mono","no","18","no","white","no","yes","1080","legacy","85","85","C:/Users/ERP Testing Room/Desktop/Joanna/morph21/subject-110.csv","xpyriment","Jazzy James","3.1.4","0","z","space","NA","NA","NA","space","z","698","7377","NA","NA","NA","253756","698","2","legacy","1024","2","48000","-16","AB_m21","110","even","NW_L_SIMP","WITCHITH","1362","575789","574206","567747","255128","529110","NA","NA","NA","575782","574703","NA","573706","NA","573695","575782","1371","576139","NA","NA","574789","1362","1362","575181","573695","1362","574789","576139","morph21_Oliver/Morris","72","60996","86","yes","1280","11"
"350","83.908045977","83.908045977","708.816091954","708.816091954","black","no","xpyriment","legacy","legacy","0","206","NA","uniform","64384","1000","0.0155318091451","1","undefined","1","0","86","86","86","0","86","86","86","NA","86","86","0","86","NA","86","86","0","86","NA","86","NA","86","0","0","86","86","0","86","86","87","z","10/18/17 16:31:46","The main experiment item","yes","FIN__AB__M21__7%3A10%3A17.osexp","C:\Users\ERP Testing Room\Desktop\Joanna\morph21","no","mono","no","18","no","white","no","yes","1080","legacy","86","86","C:/Users/ERP Testing Room/Desktop/Joanna/morph21/subject-110.csv","xpyriment","Jazzy James","3.1.4","0","z","space","NA","NA","NA","space","z","671","7377","NA","NA","NA","253756","671","2","legacy","1024","2","48000","-16","AB_m21","110","even","NW_L_SIMP","HABITIG","1362","580549","577431","579040","255128","529110","NA","NA","NA","579035","577928","NA","576931","NA","576922","579035","1371","580899","NA","NA","578040","1362","1362","578440","576922","1362","578040","580899","morph21_Oliver/Morris","73","61667","87","yes","1280","7"
"250","84.0909090909","84.0909090909","708.556818182","708.556818182","black","no","xpyriment","legacy","legacy","0","204","NA","uniform","59603","1000","0.0167776789759","1","undefined","1","0","87","87","87","0","87","87","87","NA","87","87","0","87","NA","87","87","0","87","NA","87","NA","87","0","0","87","87","0","87","87","88","z","10/18/17 16:31:46","The main experiment item","yes","FIN__AB__M21__7%3A10%3A17.osexp","C:\Users\ERP Testing Room\Desktop\Joanna\morph21","no","mono","no","18","no","white","no","yes","1080","legacy","87","87","C:/Users/ERP Testing Room/Desktop/Joanna/morph21/subject-110.csv","xpyriment","Jazzy James","3.1.4","0","z","space","NA","NA","NA","space","z","686","7377","NA","NA","NA","253756","686","2","legacy","1024","2","48000","-16","AB_m21","110","even","NW_L_COMP","BREAKITY","1362","583832","582216","579040","255128","529110","NA","NA","NA","583829","582713","NA","581716","NA","581707","583829","1371","584082","NA","NA","582833","1362","1362","583232","581707","1362","582832","584082","morph21_Oliver/Morris","74","62353","88","yes","1280","23"
"350","84.2696629213","84.2696629213","708.292134831","708.292134831","black","no","xpyriment","legacy","legacy","0","203","NA","uniform","69779","1000","0.0143309591711","1","undefined","1","0","88","88","88","0","88","88","88","NA","88","88","0","88","NA","88","88","0","88","NA","88","NA","88","0","0","88","88","0","88","88","89","z","10/18/17 16:31:46","The main experiment item","yes","FIN__AB__M21__7%3A10%3A17.osexp","C:\Users\ERP Testing Room\Desktop\Joanna\morph21","no","mono","no","18","no","white","no","yes","1080","legacy","88","88","C:/Users/ERP Testing Room/Desktop/Joanna/morph21/subject-110.csv","xpyriment","Jazzy James","3.1.4","0","z","space","NA","NA","NA","space","z","685","7377","NA","NA","NA","253756","685","2","legacy","1024","2","48000","-16","AB_m21","110","even","NW_S_COMP","FIENDISM","1362","586866","585283","579040","255128","529110","NA","NA","NA","586860","585780","NA","584783","NA","584776","586860","1371","587216","NA","NA","585866","1362","1362","586258","584776","1362","585866","587216","morph21_Oliver/Morris","75","63038","89","yes","1280","24"
"400","83.3333333333","83.3333333333","708.388888889","708.388888889","black","no","xpyriment","legacy","legacy","0","204","NA","uniform","65881","1000","0.0151788831378","0","undefined","0","0","89","89","89","0","89","89","89","NA","89","89","0","89","NA","89","89","0","89","NA","89","NA","89","0","0","89","89","0","89","89","90","z","10/18/17 16:31:46","The main experiment item","yes","FIN__AB__M21__7%3A10%3A17.osexp","C:\Users\ERP Testing Room\Desktop\Joanna\morph21","no","mono","no","18","no","white","no","yes","1080","legacy","89","89","C:/Users/ERP Testing Room/Desktop/Joanna/morph21/subject-110.csv","xpyriment","Jazzy James","3.1.4","0","/","space","NA","NA","NA","space","/","717","7377","NA","NA","NA","253756","717","2","legacy","1024","2","48000","-16","AB_m21","110","even","NW_L_COMP","ANGELISH","1362","591575","588483","590066","255128","529110","NA","NA","NA","586860","588980","NA","587983","NA","587977","590062","1371","591975","NA","NA","589074","1362","1362","589466","587977","1362","589074","591975","morph21_Oliver/Morris","75","63755","90","yes","1280","7"
"250","83.5164835165","83.5164835165","705.923076923","705.923076923","black","no","xpyriment","legacy","legacy","0","207","NA","uniform","73030","1000","0.0136930028755","1","undefined","1","0","90","90","90","0","90","90","90","NA","90","90","0","90","NA","90","90","0","90","NA","90","NA","90","0","0","90","90","0","90","90","91","/","10/18/17 16:31:46","The main experiment item","yes","FIN__AB__M21__7%3A10%3A17.osexp","C:\Users\ERP Testing Room\Desktop\Joanna\morph21","no","mono","no","18","no","white","no","yes","1080","legacy","90","90","C:/Users/ERP Testing Room/Desktop/Joanna/morph21/subject-110.csv","xpyriment","Jazzy James","3.1.4","0","/","space","NA","NA","NA","space","/","484","7377","NA","NA","NA","253756","484","2","legacy","1024","2","48000","-16","AB_m21","110","even","FILL_W","COOK","1362","594875","593250","590066","255128","529110","NA","NA","NA","594868","593747","NA","592750","NA","592746","594868","1371","595125","NA","NA","593875","1362","1362","594266","592746","1362","593875","595125","morph21_Oliver/Morris","76","64239","91","yes","1280","38"
