"ITI","acc","accuracy","average_response_time","avg_rt","background","bidi","canvas_backend","clock_backend","color_backend","compensation","cond_trig","condtrigtime","coordinates","coroutines_cycles","coroutines_duration","coroutines_mean_cycle_duration","correct","correct_instructions_1","correct_new_keyboard_response_1","count_AB_m21","count_ITI","count_blank_screen","count_blink_screen","count_block1","count_break1","count_break2","count_break3_1","count_canvas","count_correct_trigger","count_def_chain","count_end_screen","count_fixation_1","count_getting_started","count_inc_counter","count_incorrect_trigger","count_instructions_1","count_logger","count_logscript","count_new_coroutines","count_new_inline_script","count_new_keyboard_response_1","count_reset_counter_prep","count_reset_counter_run","count_responsescreen","count_sequence","count_start_trigger","count_target_present","count_word_trigger","counter","cresp","datetime","description","disable_garbage_collection","experiment_file","experiment_path","font_bold","font_family","font_italic","font_size","font_underline","foreground","form_clicks","fullscreen","height","keyboard_backend","live_row","live_row_block1","logfile","mouse_backend","opensesame_codename","opensesame_version","repeat_cycle","response","response_break1","response_break2","response_break3_1","response_end_screen","response_instructions_1","response_new_keyboard_response_1","response_time","response_time_break1","response_time_break2","response_time_break3_1","response_time_end_screen","response_time_instructions_1","response_time_new_keyboard_response_1","round_decimals","sampler_backend","sound_buf_size","sound_channels","sound_freq","sound_sample_size","start","subject_nr","subject_parity","targ_type","target","time_AB_m21","time_ITI","time_blank_screen","time_blink_screen","time_block1","time_break1","time_break2","time_break3_1","time_canvas","time_correct_trigger","time_def_chain","time_end_screen","time_fixation_1","time_getting_started","time_inc_counter","time_incorrect_trigger","time_instructions_1","time_logger","time_logscript","time_new_inline_script","time_new_keyboard_response_1","time_reset_counter_prep","time_reset_counter_run","time_responsescreen","time_sequence","time_start_trigger","time_target_present","time_word_trigger","title","total_correct","total_response_time","total_responses","uniform_coordinates","width","word_trig"
"250","100","100","820","820","black","no","xpyriment","legacy","legacy","0","207","NA","uniform","65644","1000","0.0152336847237","1","undefined","1","0","0","0","0","0","0","0","0","NA","0","0","0","0","NA","0","0","0","0","NA","0","NA","0","0","0","0","0","0","0","0","1","/","02/02/18 15:27:21","The main experiment item","yes","FIN__AB__M21__7%3A10%3A17.osexp","C:\Users\ERP Testing Room\Desktop\Joanna\morph21","no","mono","no","18","no","white","no","yes","1080","legacy","0","0","C:/Users/ERP Testing Room/Desktop/Joanna/morph21/subject-124.csv","xpyriment","Jazzy James","3.1.4","0","/","NA","NA","NA","NA","space","/","820","NA","NA","NA","NA","211099","820","2","legacy","1024","2","48000","-16","AB_m21","124","even","FILL_W","TASTE","1360","215384","213792","NA","212468","NA","NA","NA","NA","215374","214289","NA","213290","NA","213222","215374","1369","215634","NA","NA","214384","1360","1360","214776","213222","1360","214384","215634","morph21_Oliver/Morris","1","820","1","yes","1280","34"
"300","50","50","593","593","black","no","xpyriment","legacy","legacy","0","204","NA","uniform","85408","1000","0.0117085050581","0","undefined","0","0","1","1","1","0","1","1","1","NA","1","1","0","1","NA","1","1","0","1","NA","1","NA","1","0","0","1","1","0","1","1","2","z","02/02/18 15:27:21","The main experiment item","yes","FIN__AB__M21__7%3A10%3A17.osexp","C:\Users\ERP Testing Room\Desktop\Joanna\morph21","no","mono","no","18","no","white","no","yes","1080","legacy","1","1","C:/Users/ERP Testing Room/Desktop/Joanna/morph21/subject-124.csv","xpyriment","Jazzy James","3.1.4","0","/","NA","NA","NA","NA","space","/","366","NA","NA","NA","NA","211099","366","2","legacy","1024","2","48000","-16","AB_m21","124","even","NW_L_COMP","KINGISM","1360","218526","216901","NA","212468","NA","NA","NA","NA","215374","217398","NA","216401","NA","216393","218523","1369","218826","NA","NA","217534","1360","1360","217926","216393","1360","217534","218826","morph21_Oliver/Morris","1","1186","2","yes","1280","19"
"250","33.3333333333","33.3333333333","570.666666667","570.666666667","black","no","xpyriment","legacy","legacy","0","207","NA","uniform","71610","1000","0.0139645300936","0","undefined","0","0","2","2","2","0","2","2","2","NA","2","2","0","2","NA","2","2","0","2","NA","2","NA","2","0","0","2","2","0","2","2","3","/","02/02/18 15:27:21","The main experiment item","yes","FIN__AB__M21__7%3A10%3A17.osexp","C:\Users\ERP Testing Room\Desktop\Joanna\morph21","no","mono","no","18","no","white","no","yes","1080","legacy","2","2","C:/Users/ERP Testing Room/Desktop/Joanna/morph21/subject-124.csv","xpyriment","Jazzy James","3.1.4","0","z","NA","NA","NA","NA","space","z","526","NA","NA","NA","NA","211099","526","2","legacy","1024","2","48000","-16","AB_m21","124","even","FILL_W","SLIM","1360","223219","220126","221710","212468","NA","NA","NA","NA","215374","220623","NA","219626","NA","219622","221703","1369","223469","NA","NA","220710","1360","1360","221102","219622","1360","220710","223469","morph21_Oliver/Morris","1","1712","3","yes","1280","6"
"250","50","50","583.25","583.25","black","no","xpyriment","legacy","legacy","0","202","NA","uniform","73116","1000","0.0136768969856","1","undefined","1","0","3","3","3","0","3","3","3","NA","3","3","0","3","NA","3","3","0","3","NA","3","NA","3","0","0","3","3","0","3","3","4","/","02/02/18 15:27:21","The main experiment item","yes","FIN__AB__M21__7%3A10%3A17.osexp","C:\Users\ERP Testing Room\Desktop\Joanna\morph21","no","mono","no","18","no","white","no","yes","1080","legacy","3","3","C:/Users/ERP Testing Room/Desktop/Joanna/morph21/subject-124.csv","xpyriment","Jazzy James","3.1.4","0","/","NA","NA","NA","NA","space","/","621","NA","NA","NA","NA","211099","621","2","legacy","1024","2","48000","-16","AB_m21","124","even","CW_L","DEAFNESS","1360","226327","224744","221710","212468","NA","NA","NA","NA","226323","225241","NA","224244","NA","224237","226323","1369","226577","NA","NA","225327","1360","1360","225727","224237","1360","225327","226577","morph21_Oliver/Morris","2","2333","4","yes","1280","39"
"400","40","40","603.8","603.8","black","no","xpyriment","legacy","legacy","0","203","NA","uniform","68536","1000","0.0145908719505","0","undefined","0","0","4","4","4","0","4","4","4","NA","4","4","0","4","NA","4","4","0","4","NA","4","NA","4","0","0","4","4","0","4","4","5","z","02/02/18 15:27:21","The main experiment item","yes","FIN__AB__M21__7%3A10%3A17.osexp","C:\Users\ERP Testing Room\Desktop\Joanna\morph21","no","mono","no","18","no","white","no","yes","1080","legacy","4","4","C:/Users/ERP Testing Room/Desktop/Joanna/morph21/subject-124.csv","xpyriment","Jazzy James","3.1.4","0","/","NA","NA","NA","NA","space","/","686","NA","NA","NA","NA","211099","686","2","legacy","1024","2","48000","-16","AB_m21","124","even","NW_S_COMP","ALTARIC","1360","229502","227902","221710","212468","NA","NA","NA","NA","226323","228399","NA","227402","NA","227396","229497","1369","229902","NA","NA","228502","1360","1360","228902","227396","1360","228502","229902","morph21_Oliver/Morris","2","3019","5","yes","1280","7"
"200","50","50","636.833333333","636.833333333","black","no","xpyriment","legacy","legacy","0","208","NA","uniform","65740","1000","0.0152114390021","1","undefined","1","0","5","5","5","0","5","5","5","NA","5","5","0","5","NA","5","5","0","5","NA","5","NA","5","0","0","5","5","0","5","5","6","z","02/02/18 15:27:21","The main experiment item","yes","FIN__AB__M21__7%3A10%3A17.osexp","C:\Users\ERP Testing Room\Desktop\Joanna\morph21","no","mono","no","18","no","white","no","yes","1080","legacy","5","5","C:/Users/ERP Testing Room/Desktop/Joanna/morph21/subject-124.csv","xpyriment","Jazzy James","3.1.4","0","z","NA","NA","NA","NA","space","z","802","NA","NA","NA","NA","211099","802","2","legacy","1024","2","48000","-16","AB_m21","124","even","FILL_NW","BLAYS","1360","234311","231194","232802","212468","NA","NA","NA","NA","232798","231691","NA","230694","NA","230686","232798","1369","234511","NA","NA","231802","1360","1360","232202","230686","1360","231802","234511","morph21_Oliver/Morris","3","3821","6","yes","1280","8"
"250","57.1428571429","57.1428571429","618","618","black","no","xpyriment","legacy","legacy","0","201","NA","uniform","72912","1000","0.0137151634847","1","undefined","1","0","6","6","6","0","6","6","6","NA","6","6","0","6","NA","6","6","0","6","NA","6","NA","6","0","0","6","6","0","6","6","7","/","02/02/18 15:27:21","The main experiment item","yes","FIN__AB__M21__7%3A10%3A17.osexp","C:\Users\ERP Testing Room\Desktop\Joanna\morph21","no","mono","no","18","no","white","no","yes","1080","legacy","6","6","C:/Users/ERP Testing Room/Desktop/Joanna/morph21/subject-124.csv","xpyriment","Jazzy James","3.1.4","0","/","NA","NA","NA","NA","space","/","505","NA","NA","NA","NA","211099","505","2","legacy","1024","2","48000","-16","AB_m21","124","even","CW_S","HARMLESS","1360","237378","235769","232802","212468","NA","NA","NA","NA","237369","236266","NA","235269","NA","235262","237369","1369","237628","NA","NA","236378","1360","1360","236769","235262","1360","236378","237628","morph21_Oliver/Morris","4","4326","7","yes","1280","29"
"250","50","50","587.25","587.25","black","no","xpyriment","legacy","legacy","0","202","NA","uniform","85720","1000","0.0116658889407","0","undefined","0","0","7","7","7","0","7","7","7","NA","7","7","0","7","NA","7","7","0","7","NA","7","NA","7","0","0","7","7","0","7","7","8","/","02/02/18 15:27:21","The main experiment item","yes","FIN__AB__M21__7%3A10%3A17.osexp","C:\Users\ERP Testing Room\Desktop\Joanna\morph21","no","mono","no","18","no","white","no","yes","1080","legacy","7","7","C:/Users/ERP Testing Room/Desktop/Joanna/morph21/subject-124.csv","xpyriment","Jazzy James","3.1.4","0","z","NA","NA","NA","NA","space","z","372","NA","NA","NA","NA","211099","372","2","legacy","1024","2","48000","-16","AB_m21","124","even","CW_L","CREAMY","1360","240504","238929","232802","212468","NA","NA","NA","NA","237369","239426","NA","238429","NA","238419","240500","1369","240754","NA","NA","239504","1360","1360","239904","238419","1360","239504","240754","morph21_Oliver/Morris","4","4698","8","yes","1280","49"
"350","55.5555555556","55.5555555556","617.666666667","617.666666667","black","no","xpyriment","legacy","legacy","0","202","NA","uniform","55406","1000","0.0180485867957","1","undefined","1","0","8","8","8","0","8","8","8","NA","8","8","0","8","NA","8","8","0","8","NA","8","NA","8","0","0","8","8","0","8","8","9","/","02/02/18 15:27:21","The main experiment item","yes","FIN__AB__M21__7%3A10%3A17.osexp","C:\Users\ERP Testing Room\Desktop\Joanna\morph21","no","mono","no","18","no","white","no","yes","1080","legacy","8","8","C:/Users/ERP Testing Room/Desktop/Joanna/morph21/subject-124.csv","xpyriment","Jazzy James","3.1.4","0","/","NA","NA","NA","NA","space","/","861","NA","NA","NA","NA","211099","861","2","legacy","1024","2","48000","-16","AB_m21","124","even","CW_L","SWIMMER","1360","245187","242079","243679","212468","NA","NA","NA","NA","243675","242576","NA","241579","NA","241570","243675","1369","245538","NA","NA","242679","1360","1360","243079","241570","1360","242679","245538","morph21_Oliver/Morris","5","5559","9","yes","1280","5"
"300","60","60","614","614","black","no","xpyriment","legacy","legacy","0","205","NA","uniform","70359","1000","0.0142128228087","1","undefined","1","0","9","9","9","0","9","9","9","NA","9","9","0","9","NA","9","9","0","9","NA","9","NA","9","0","0","9","9","0","9","9","10","z","02/02/18 15:27:21","The main experiment item","yes","FIN__AB__M21__7%3A10%3A17.osexp","C:\Users\ERP Testing Room\Desktop\Joanna\morph21","no","mono","no","18","no","white","no","yes","1080","legacy","9","9","C:/Users/ERP Testing Room/Desktop/Joanna/morph21/subject-124.csv","xpyriment","Jazzy James","3.1.4","0","z","NA","NA","NA","NA","space","z","581","NA","NA","NA","NA","211099","581","2","legacy","1024","2","48000","-16","AB_m21","124","even","NW_S_SIMP","HEIRIG","1360","248479","246879","243679","212468","NA","NA","NA","NA","248474","247376","NA","246379","NA","246369","248474","1369","248779","NA","NA","247479","1360","1360","247879","246369","1360","247479","248779","morph21_Oliver/Morris","6","6140","10","yes","1280","3"
"200","63.6363636364","63.6363636364","611.636363636","611.636363636","black","no","xpyriment","legacy","legacy","0","206","NA","uniform","73622","1000","0.0135828964168","1","undefined","1","0","10","10","10","0","10","10","10","NA","10","10","0","10","NA","10","10","0","10","NA","10","NA","10","0","0","10","10","0","10","10","11","z","02/02/18 15:27:21","The main experiment item","yes","FIN__AB__M21__7%3A10%3A17.osexp","C:\Users\ERP Testing Room\Desktop\Joanna\morph21","no","mono","no","18","no","white","no","yes","1080","legacy","10","10","C:/Users/ERP Testing Room/Desktop/Joanna/morph21/subject-124.csv","xpyriment","Jazzy James","3.1.4","0","z","NA","NA","NA","NA","space","z","588","NA","NA","NA","NA","211099","588","2","legacy","1024","2","48000","-16","AB_m21","124","even","NW_L_SIMP","TOWERLA","1360","251696","250088","243679","212468","NA","NA","NA","NA","251688","250585","NA","249588","NA","249579","251688","1369","251896","NA","NA","250696","1360","1360","251088","249579","1360","250696","251896","morph21_Oliver/Morris","7","6728","11","yes","1280","15"
"250","58.3333333333","58.3333333333","601.333333333","601.333333333","black","no","xpyriment","legacy","legacy","0","202","NA","uniform","71775","1000","0.0139324277255","0","undefined","0","0","11","11","11","0","11","11","11","NA","11","11","0","11","NA","11","11","0","11","NA","11","NA","11","0","0","11","11","0","11","11","12","/","02/02/18 15:27:21","The main experiment item","yes","FIN__AB__M21__7%3A10%3A17.osexp","C:\Users\ERP Testing Room\Desktop\Joanna\morph21","no","mono","no","18","no","white","no","yes","1080","legacy","11","11","C:/Users/ERP Testing Room/Desktop/Joanna/morph21/subject-124.csv","xpyriment","Jazzy James","3.1.4","0","z","NA","NA","NA","NA","space","z","488","NA","NA","NA","NA","211099","488","2","legacy","1024","2","48000","-16","AB_m21","124","even","CW_L","DANCER","1360","256280","253188","254771","212468","NA","NA","NA","NA","251688","253685","NA","252688","NA","252676","254765","1369","256531","NA","NA","253771","1360","1360","254163","252676","1360","253771","256531","morph21_Oliver/Morris","7","7216","12","yes","1280","11"
"200","61.5384615385","61.5384615385","597.846153846","597.846153846","black","no","xpyriment","legacy","legacy","0","208","NA","uniform","70412","1000","0.0142021246378","1","undefined","1","0","12","12","12","0","12","12","12","NA","12","12","0","12","NA","12","12","0","12","NA","12","NA","12","0","0","12","12","0","12","12","13","z","02/02/18 15:27:21","The main experiment item","yes","FIN__AB__M21__7%3A10%3A17.osexp","C:\Users\ERP Testing Room\Desktop\Joanna\morph21","no","mono","no","18","no","white","no","yes","1080","legacy","12","12","C:/Users/ERP Testing Room/Desktop/Joanna/morph21/subject-124.csv","xpyriment","Jazzy James","3.1.4","0","z","NA","NA","NA","NA","space","z","556","NA","NA","NA","NA","211099","556","2","legacy","1024","2","48000","-16","AB_m21","124","even","FILL_NW","FROT","1360","259464","257839","254771","212468","NA","NA","NA","NA","259454","258336","NA","257339","NA","257336","259454","1369","259664","NA","NA","258464","1360","1360","258856","257336","1360","258464","259664","morph21_Oliver/Morris","8","7772","13","yes","1280","22"
"250","64.2857142857","64.2857142857","591.857142857","591.857142857","black","no","xpyriment","legacy","legacy","0","202","NA","uniform","68623","1000","0.014572373694","1","undefined","1","0","13","13","13","0","13","13","13","NA","13","13","0","13","NA","13","13","0","13","NA","13","NA","13","0","0","13","13","0","13","13","14","/","02/02/18 15:27:21","The main experiment item","yes","FIN__AB__M21__7%3A10%3A17.osexp","C:\Users\ERP Testing Room\Desktop\Joanna\morph21","no","mono","no","18","no","white","no","yes","1080","legacy","13","13","C:/Users/ERP Testing Room/Desktop/Joanna/morph21/subject-124.csv","xpyriment","Jazzy James","3.1.4","0","/","NA","NA","NA","NA","space","/","514","NA","NA","NA","NA","211099","514","2","legacy","1024","2","48000","-16","AB_m21","124","even","CW_L","STRIKER","1360","262506","260914","254771","212468","NA","NA","NA","NA","262499","261411","NA","260414","NA","260403","262499","1369","262756","NA","NA","261506","1360","1360","261897","260403","1360","261506","262756","morph21_Oliver/Morris","9","8286","14","yes","1280","17"
"200","66.6666666667","66.6666666667","582.4","582.4","black","no","xpyriment","legacy","legacy","0","205","NA","uniform","79862","1000","0.0125215997596","1","undefined","1","0","14","14","14","0","14","14","14","NA","14","14","0","14","NA","14","14","0","14","NA","14","NA","14","0","0","14","14","0","14","14","15","z","02/02/18 15:27:21","The main experiment item","yes","FIN__AB__M21__7%3A10%3A17.osexp","C:\Users\ERP Testing Room\Desktop\Joanna\morph21","no","mono","no","18","no","white","no","yes","1080","legacy","14","14","C:/Users/ERP Testing Room/Desktop/Joanna/morph21/subject-124.csv","xpyriment","Jazzy James","3.1.4","0","z","NA","NA","NA","NA","space","z","450","NA","NA","NA","NA","211099","450","2","legacy","1024","2","48000","-16","AB_m21","124","even","NW_S_SIMP","JAWLA","1360","267198","264089","265689","212468","NA","NA","NA","NA","265686","264586","NA","263589","NA","263582","265686","1369","267398","NA","NA","264698","1360","1360","265089","263582","1360","264698","267398","morph21_Oliver/Morris","10","8736","15","yes","1280","7"
"400","68.75","68.75","580","580","black","no","xpyriment","legacy","legacy","0","208","NA","uniform","74374","1000","0.0134455589319","1","undefined","1","0","15","15","15","0","15","15","15","NA","15","15","0","15","NA","15","15","0","15","NA","15","NA","15","0","0","15","15","0","15","15","16","z","02/02/18 15:27:21","The main experiment item","yes","FIN__AB__M21__7%3A10%3A17.osexp","C:\Users\ERP Testing Room\Desktop\Joanna\morph21","no","mono","no","18","no","white","no","yes","1080","legacy","15","15","C:/Users/ERP Testing Room/Desktop/Joanna/morph21/subject-124.csv","xpyriment","Jazzy James","3.1.4","0","z","NA","NA","NA","NA","space","z","544","NA","NA","NA","NA","211099","544","2","legacy","1024","2","48000","-16","AB_m21","124","even","FILL_NW","HEND","1360","270348","268714","265689","212468","NA","NA","NA","NA","270338","269212","NA","268214","NA","268211","270338","1369","270748","NA","NA","269348","1360","1360","269739","268211","1360","269348","270748","morph21_Oliver/Morris","11","9280","16","yes","1280","28"
"400","70.5882352941","70.5882352941","574.176470588","574.176470588","black","no","xpyriment","legacy","legacy","0","202","NA","uniform","71075","1000","0.0140696447415","1","undefined","1","0","16","16","16","0","16","16","16","NA","16","16","0","16","NA","16","16","0","16","NA","16","NA","16","0","0","16","16","0","16","16","17","/","02/02/18 15:27:21","The main experiment item","yes","FIN__AB__M21__7%3A10%3A17.osexp","C:\Users\ERP Testing Room\Desktop\Joanna\morph21","no","mono","no","18","no","white","no","yes","1080","legacy","16","16","C:/Users/ERP Testing Room/Desktop/Joanna/morph21/subject-124.csv","xpyriment","Jazzy James","3.1.4","0","/","NA","NA","NA","NA","space","/","481","NA","NA","NA","NA","211099","481","2","legacy","1024","2","48000","-16","AB_m21","124","even","CW_L","QUIETLY","1360","273732","272148","265689","212468","NA","NA","NA","NA","273724","272645","NA","271648","NA","271639","273724","1369","274132","NA","NA","272731","1360","1360","273124","271639","1360","272731","274132","morph21_Oliver/Morris","12","9761","17","yes","1280","36"
"350","72.2222222222","72.2222222222","580.222222222","580.222222222","black","no","xpyriment","legacy","legacy","0","203","NA","uniform","62809","1000","0.0159212851661","1","undefined","1","0","17","17","17","0","17","17","17","NA","17","17","0","17","NA","17","17","0","17","NA","17","NA","17","0","0","17","17","0","17","17","18","z","02/02/18 15:27:21","The main experiment item","yes","FIN__AB__M21__7%3A10%3A17.osexp","C:\Users\ERP Testing Room\Desktop\Joanna\morph21","no","mono","no","18","no","white","no","yes","1080","legacy","17","17","C:/Users/ERP Testing Room/Desktop/Joanna/morph21/subject-124.csv","xpyriment","Jazzy James","3.1.4","0","z","NA","NA","NA","NA","space","z","683","NA","NA","NA","NA","211099","683","2","legacy","1024","2","48000","-16","AB_m21","124","even","NW_S_COMP","HUMIDOUS","1360","278557","275449","277049","212468","NA","NA","NA","NA","277045","275946","NA","274949","NA","274944","277045","1369","278908","NA","NA","276049","1360","1360","276449","274944","1360","276049","278908","morph21_Oliver/Morris","13","10444","18","yes","1280","25"
"300","68.4210526316","68.4210526316","583.526315789","583.526315789","black","no","xpyriment","legacy","legacy","0","206","NA","uniform","70091","1000","0.0142671669687","0","undefined","0","0","18","18","18","0","18","18","18","NA","18","18","0","18","NA","18","18","0","18","NA","18","NA","18","0","0","18","18","0","18","18","19","z","02/02/18 15:27:21","The main experiment item","yes","FIN__AB__M21__7%3A10%3A17.osexp","C:\Users\ERP Testing Room\Desktop\Joanna\morph21","no","mono","no","18","no","white","no","yes","1080","legacy","18","18","C:/Users/ERP Testing Room/Desktop/Joanna/morph21/subject-124.csv","xpyriment","Jazzy James","3.1.4","0","/","NA","NA","NA","NA","space","/","643","NA","NA","NA","NA","211099","643","2","legacy","1024","2","48000","-16","AB_m21","124","even","NW_L_SIMP","ELBOWILM","1360","281841","280249","277049","212468","NA","NA","NA","NA","277045","280746","NA","279749","NA","279741","281832","1369","282141","NA","NA","280841","1360","1360","281233","279741","1360","280841","282141","morph21_Oliver/Morris","13","11087","19","yes","1280","10"
"250","70","70","579.35","579.35","black","no","xpyriment","legacy","legacy","0","201","NA","uniform","79811","1000","0.0125296011828","1","undefined","1","0","19","19","19","0","19","19","19","NA","19","19","0","19","NA","19","19","0","19","NA","19","NA","19","0","0","19","19","0","19","19","20","/","02/02/18 15:27:21","The main experiment item","yes","FIN__AB__M21__7%3A10%3A17.osexp","C:\Users\ERP Testing Room\Desktop\Joanna\morph21","no","mono","no","18","no","white","no","yes","1080","legacy","19","19","C:/Users/ERP Testing Room/Desktop/Joanna/morph21/subject-124.csv","xpyriment","Jazzy James","3.1.4","0","/","NA","NA","NA","NA","space","/","500","NA","NA","NA","NA","211099","500","2","legacy","1024","2","48000","-16","AB_m21","124","even","CW_S","PLANNER","1360","285008","283416","277049","212468","NA","NA","NA","NA","285000","283913","NA","282916","NA","282911","285000","1369","285258","NA","NA","284008","1360","1360","284399","282911","1360","284008","285258","morph21_Oliver/Morris","14","11587","20","yes","1280","22"
"350","71.4285714286","71.4285714286","580.666666667","580.666666667","black","no","xpyriment","legacy","legacy","0","204","NA","uniform","70631","1000","0.0141580892243","1","undefined","1","0","20","20","20","0","20","20","20","NA","20","20","0","20","NA","20","20","0","20","NA","20","NA","20","0","0","20","20","0","20","20","21","z","02/02/18 15:27:21","The main experiment item","yes","FIN__AB__M21__7%3A10%3A17.osexp","C:\Users\ERP Testing Room\Desktop\Joanna\morph21","no","mono","no","18","no","white","no","yes","1080","legacy","20","20","C:/Users/ERP Testing Room/Desktop/Joanna/morph21/subject-124.csv","xpyriment","Jazzy James","3.1.4","0","z","NA","NA","NA","NA","space","z","607","NA","NA","NA","NA","211099","607","2","legacy","1024","2","48000","-16","AB_m21","124","even","NW_L_COMP","AGREELY","1360","289625","286508","288116","212468","NA","NA","NA","NA","288113","287005","NA","286008","NA","286001","288113","1369","289975","NA","NA","287125","1360","1360","287516","286001","1360","287125","289975","morph21_Oliver/Morris","15","12194","21","yes","1280","24"
"200","72.7272727273","72.7272727273","585.227272727","585.227272727","black","no","xpyriment","legacy","legacy","0","208","NA","uniform","68951","1000","0.0145030528926","1","undefined","1","0","21","21","21","0","21","21","21","NA","21","21","0","21","NA","21","21","0","21","NA","21","NA","21","0","0","21","21","0","21","21","22","z","02/02/18 15:27:21","The main experiment item","yes","FIN__AB__M21__7%3A10%3A17.osexp","C:\Users\ERP Testing Room\Desktop\Joanna\morph21","no","mono","no","18","no","white","no","yes","1080","legacy","21","21","C:/Users/ERP Testing Room/Desktop/Joanna/morph21/subject-124.csv","xpyriment","Jazzy James","3.1.4","0","z","NA","NA","NA","NA","space","z","681","NA","NA","NA","NA","211099","681","2","legacy","1024","2","48000","-16","AB_m21","124","even","FILL_NW","DARM","1360","292851","291259","288116","212468","NA","NA","NA","NA","292842","291756","NA","290759","NA","290753","292842","1369","293051","NA","NA","291851","1360","1360","292242","290753","1360","291851","293051","morph21_Oliver/Morris","16","12875","22","yes","1280","11"
"400","73.9130434783","73.9130434783","591.695652174","591.695652174","black","no","xpyriment","legacy","legacy","0","207","NA","uniform","67098","1000","0.014903573877","1","undefined","1","0","22","22","22","0","22","22","22","NA","22","22","0","22","NA","22","22","0","22","NA","22","NA","22","0","0","22","22","0","22","22","23","/","02/02/18 15:27:21","The main experiment item","yes","FIN__AB__M21__7%3A10%3A17.osexp","C:\Users\ERP Testing Room\Desktop\Joanna\morph21","no","mono","no","18","no","white","no","yes","1080","legacy","22","22","C:/Users/ERP Testing Room/Desktop/Joanna/morph21/subject-124.csv","xpyriment","Jazzy James","3.1.4","0","/","NA","NA","NA","NA","space","/","734","NA","NA","NA","NA","211099","734","2","legacy","1024","2","48000","-16","AB_m21","124","even","FILL_W","DRUNK","1360","295926","294343","288116","212468","NA","NA","NA","NA","295921","294840","NA","293843","NA","293834","295921","1369","296326","NA","NA","294926","1360","1360","295326","293834","1360","294926","296326","morph21_Oliver/Morris","17","13609","23","yes","1280","19"
"200","75","75","592.541666667","592.541666667","black","no","xpyriment","legacy","legacy","0","208","NA","uniform","64659","1000","0.0154657510942","1","undefined","1","0","23","23","23","0","23","23","23","NA","23","23","0","23","NA","23","23","0","23","NA","23","NA","23","0","0","23","23","0","23","23","24","z","02/02/18 15:27:21","The main experiment item","yes","FIN__AB__M21__7%3A10%3A17.osexp","C:\Users\ERP Testing Room\Desktop\Joanna\morph21","no","mono","no","18","no","white","no","yes","1080","legacy","23","23","C:/Users/ERP Testing Room/Desktop/Joanna/morph21/subject-124.csv","xpyriment","Jazzy James","3.1.4","0","z","NA","NA","NA","NA","space","z","612","NA","NA","NA","NA","211099","612","2","legacy","1024","2","48000","-16","AB_m21","124","even","FILL_NW","HESK","1360","300676","297576","299168","212468","NA","NA","NA","NA","299160","298073","NA","297076","NA","297073","299160","1369","300876","NA","NA","298168","1360","1360","298559","297073","1360","298168","300876","morph21_Oliver/Morris","18","14221","24","yes","1280","29"
"200","76","76","600.36","600.36","black","no","xpyriment","legacy","legacy","0","207","NA","uniform","66699","1000","0.0149927285267","1","undefined","1","0","24","24","24","0","24","24","24","NA","24","24","0","24","NA","24","24","0","24","NA","24","NA","24","0","0","24","24","0","24","24","25","/","02/02/18 15:27:21","The main experiment item","yes","FIN__AB__M21__7%3A10%3A17.osexp","C:\Users\ERP Testing Room\Desktop\Joanna\morph21","no","mono","no","18","no","white","no","yes","1080","legacy","24","24","C:/Users/ERP Testing Room/Desktop/Joanna/morph21/subject-124.csv","xpyriment","Jazzy James","3.1.4","0","/","NA","NA","NA","NA","space","/","788","NA","NA","NA","NA","211099","788","2","legacy","1024","2","48000","-16","AB_m21","124","even","FILL_W","WRECK","1360","303776","302160","299168","212468","NA","NA","NA","NA","303771","302657","NA","301660","NA","301652","303771","1369","303976","NA","NA","302776","1360","1360","303176","301652","1360","302776","303976","morph21_Oliver/Morris","19","15009","25","yes","1280","13"
"300","76.9230769231","76.9230769231","612.576923077","612.576923077","black","no","xpyriment","legacy","legacy","0","205","NA","uniform","59835","1000","0.0167126263892","1","undefined","1","0","25","25","25","0","25","25","25","NA","25","25","0","25","NA","25","25","0","25","NA","25","NA","25","0","0","25","25","0","25","25","26","z","02/02/18 15:27:21","The main experiment item","yes","FIN__AB__M21__7%3A10%3A17.osexp","C:\Users\ERP Testing Room\Desktop\Joanna\morph21","no","mono","no","18","no","white","no","yes","1080","legacy","25","25","C:/Users/ERP Testing Room/Desktop/Joanna/morph21/subject-124.csv","xpyriment","Jazzy James","3.1.4","0","z","NA","NA","NA","NA","space","z","918","NA","NA","NA","NA","211099","918","2","legacy","1024","2","48000","-16","AB_m21","124","even","NW_S_SIMP","HELMETOES","1360","306876","305276","299168","212468","NA","NA","NA","NA","306873","305773","NA","304776","NA","304766","306873","1369","307176","NA","NA","305885","1360","1360","306276","304766","1360","305885","307176","morph21_Oliver/Morris","20","15927","26","yes","1280","14"
"200","77.7777777778","77.7777777778","618.37037037","618.37037037","black","no","xpyriment","legacy","legacy","0","207","NA","uniform","66628","1000","0.0150087050489","1","undefined","1","0","26","26","26","0","26","26","26","NA","26","26","0","26","NA","26","26","0","26","NA","26","NA","26","0","0","26","26","0","26","26","27","/","02/02/18 15:27:21","The main experiment item","yes","FIN__AB__M21__7%3A10%3A17.osexp","C:\Users\ERP Testing Room\Desktop\Joanna\morph21","no","mono","no","18","no","white","no","yes","1080","legacy","26","26","C:/Users/ERP Testing Room/Desktop/Joanna/morph21/subject-124.csv","xpyriment","Jazzy James","3.1.4","0","/","NA","NA","NA","NA","space","/","769","NA","NA","NA","NA","211099","769","2","legacy","1024","2","48000","-16","AB_m21","124","even","FILL_W","BRASS","1360","311536","308436","310027","212468","NA","NA","NA","NA","310021","308933","NA","307936","NA","307933","310021","1369","311736","NA","NA","309027","1360","1360","309419","307933","1360","309027","311736","morph21_Oliver/Morris","21","16696","27","yes","1280","10"
"200","75","75","631.785714286","631.785714286","black","no","xpyriment","legacy","legacy","0","202","NA","uniform","57808","1000","0.0172986437863","0","undefined","0","0","27","27","27","0","27","27","27","NA","27","27","0","27","NA","27","27","0","27","NA","27","NA","27","0","0","27","27","0","27","27","28","/","02/02/18 15:27:21","The main experiment item","yes","FIN__AB__M21__7%3A10%3A17.osexp","C:\Users\ERP Testing Room\Desktop\Joanna\morph21","no","mono","no","18","no","white","no","yes","1080","legacy","27","27","C:/Users/ERP Testing Room/Desktop/Joanna/morph21/subject-124.csv","xpyriment","Jazzy James","3.1.4","0","None","NA","NA","NA","NA","space","None","994","NA","NA","NA","NA","211099","994","2","legacy","1024","2","48000","-16","AB_m21","124","even","CW_L","VERBAL","1360","314669","313069","310027","212468","NA","NA","NA","NA","310021","313566","NA","312569","NA","312565","314663","1369","314870","NA","NA","313669","1360","1360","314061","312565","1360","313669","314870","morph21_Oliver/Morris","21","17690","28","yes","1280","50"
"300","72.4137931034","72.4137931034","644.310344828","644.310344828","black","no","xpyriment","legacy","legacy","0","204","NA","uniform","62549","1000","0.0159874658268","0","undefined","0","0","28","28","28","0","28","28","28","NA","28","28","0","28","NA","28","28","0","28","NA","28","NA","28","0","0","28","28","0","28","28","29","z","02/02/18 15:27:21","The main experiment item","yes","FIN__AB__M21__7%3A10%3A17.osexp","C:\Users\ERP Testing Room\Desktop\Joanna\morph21","no","mono","no","18","no","white","no","yes","1080","legacy","28","28","C:/Users/ERP Testing Room/Desktop/Joanna/morph21/subject-124.csv","xpyriment","Jazzy James","3.1.4","0","None","NA","NA","NA","NA","space","None","995","NA","NA","NA","NA","211099","995","2","legacy","1024","2","48000","-16","AB_m21","124","even","NW_L_COMP","EMPLOYNESS","1360","317761","316153","310027","212468","NA","NA","NA","NA","310021","316650","NA","315653","NA","315642","317756","1369","318061","NA","NA","316761","1360","1360","317161","315642","1360","316761","318061","morph21_Oliver/Morris","21","18685","29","yes","1280","21"
"250","73.3333333333","73.3333333333","653.633333333","653.633333333","black","no","xpyriment","legacy","legacy","0","208","NA","uniform","59938","1000","0.0166839067036","1","undefined","1","0","29","29","29","0","29","29","29","NA","29","29","0","29","NA","29","29","0","29","NA","29","NA","29","0","0","29","29","0","29","29","30","z","02/02/18 15:27:21","The main experiment item","yes","FIN__AB__M21__7%3A10%3A17.osexp","C:\Users\ERP Testing Room\Desktop\Joanna\morph21","no","mono","no","18","no","white","no","yes","1080","legacy","29","29","C:/Users/ERP Testing Room/Desktop/Joanna/morph21/subject-124.csv","xpyriment","Jazzy James","3.1.4","0","z","NA","NA","NA","NA","space","z","924","NA","NA","NA","NA","211099","924","2","legacy","1024","2","48000","-16","AB_m21","124","even","FILL_NW","PIFTH","1360","322436","319345","320928","212468","NA","NA","NA","NA","320922","319842","NA","318845","NA","318833","320922","1369","322687","NA","NA","319928","1360","1360","320320","318833","1360","319928","322687","morph21_Oliver/Morris","22","19609","30","yes","1280","36"
"400","74.1935483871","74.1935483871","659.483870968","659.483870968","black","no","xpyriment","legacy","legacy","0","207","NA","uniform","63042","1000","0.0158624409124","1","undefined","1","0","30","30","30","0","30","30","30","NA","30","30","0","30","NA","30","30","0","30","NA","30","NA","30","0","0","30","30","0","30","30","31","/","02/02/18 15:27:21","The main experiment item","yes","FIN__AB__M21__7%3A10%3A17.osexp","C:\Users\ERP Testing Room\Desktop\Joanna\morph21","no","mono","no","18","no","white","no","yes","1080","legacy","30","30","C:/Users/ERP Testing Room/Desktop/Joanna/morph21/subject-124.csv","xpyriment","Jazzy James","3.1.4","0","/","NA","NA","NA","NA","space","/","835","NA","NA","NA","NA","211099","835","2","legacy","1024","2","48000","-16","AB_m21","124","even","FILL_W","CEASE","1360","325538","323953","320928","212468","NA","NA","NA","NA","325533","324450","NA","323453","NA","323447","325533","1369","325938","NA","NA","324537","1360","1360","324936","323447","1360","324536","325938","morph21_Oliver/Morris","23","20444","31","yes","1280","18"
"350","75","75","665.28125","665.28125","black","no","xpyriment","legacy","legacy","0","207","NA","uniform","64180","1000","0.0155811779371","1","undefined","1","0","31","31","31","0","31","31","31","NA","31","31","0","31","NA","31","31","0","31","NA","31","NA","31","0","0","31","31","0","31","31","32","/","02/02/18 15:27:21","The main experiment item","yes","FIN__AB__M21__7%3A10%3A17.osexp","C:\Users\ERP Testing Room\Desktop\Joanna\morph21","no","mono","no","18","no","white","no","yes","1080","legacy","31","31","C:/Users/ERP Testing Room/Desktop/Joanna/morph21/subject-124.csv","xpyriment","Jazzy James","3.1.4","0","/","NA","NA","NA","NA","space","/","845","NA","NA","NA","NA","211099","845","2","legacy","1024","2","48000","-16","AB_m21","124","even","FILL_W","GLOOM","1360","328879","327279","320928","212468","NA","NA","NA","NA","328873","327776","NA","326779","NA","326770","328873","1369","329229","NA","NA","327879","1360","1360","328271","326770","1360","327879","329229","morph21_Oliver/Morris","24","21289","32","yes","1280","14"
"300","75.7575757576","75.7575757576","672.181818182","672.181818182","black","no","xpyriment","legacy","legacy","0","204","NA","uniform","61316","1000","0.0163089568791","1","undefined","1","0","32","32","32","0","32","32","32","NA","32","32","0","32","NA","32","32","0","32","NA","32","NA","32","0","0","32","32","0","32","32","33","z","02/02/18 15:27:21","The main experiment item","yes","FIN__AB__M21__7%3A10%3A17.osexp","C:\Users\ERP Testing Room\Desktop\Joanna\morph21","no","mono","no","18","no","white","no","yes","1080","legacy","32","32","C:/Users/ERP Testing Room/Desktop/Joanna/morph21/subject-124.csv","xpyriment","Jazzy James","3.1.4","0","z","NA","NA","NA","NA","space","z","893","NA","NA","NA","NA","211099","893","2","legacy","1024","2","48000","-16","AB_m21","124","even","NW_L_COMP","NORTHIZE","1360","333588","330471","332079","212468","NA","NA","NA","NA","332072","330968","NA","329971","NA","329965","332072","1369","333888","NA","NA","331079","1360","1360","331471","329965","1360","331079","333888","morph21_Oliver/Morris","25","22182","33","yes","1280","20"
"350","76.4705882353","76.4705882353","673.235294118","673.235294118","black","no","xpyriment","legacy","legacy","0","201","NA","uniform","67838","1000","0.0147410006191","1","undefined","1","0","33","33","33","0","33","33","33","NA","33","33","0","33","NA","33","33","0","33","NA","33","NA","33","0","0","33","33","0","33","33","34","/","02/02/18 15:27:21","The main experiment item","yes","FIN__AB__M21__7%3A10%3A17.osexp","C:\Users\ERP Testing Room\Desktop\Joanna\morph21","no","mono","no","18","no","white","no","yes","1080","legacy","33","33","C:/Users/ERP Testing Room/Desktop/Joanna/morph21/subject-124.csv","xpyriment","Jazzy James","3.1.4","0","/","NA","NA","NA","NA","space","/","708","NA","NA","NA","NA","211099","708","2","legacy","1024","2","48000","-16","AB_m21","124","even","CW_S","BOSSY","1360","336696","335113","332079","212468","NA","NA","NA","NA","336692","335610","NA","334613","NA","334607","336692","1369","337046","NA","NA","335696","1360","1360","336096","334607","1360","335696","337046","morph21_Oliver/Morris","26","22890","34","yes","1280","49"
"300","77.1428571429","77.1428571429","671.628571429","671.628571429","black","no","xpyriment","legacy","legacy","0","207","NA","uniform","76545","1000","0.0130642105951","1","undefined","1","0","34","34","34","0","34","34","34","NA","34","34","0","34","NA","34","34","0","34","NA","34","NA","34","0","0","34","34","0","34","34","35","/","02/02/18 15:27:21","The main experiment item","yes","FIN__AB__M21__7%3A10%3A17.osexp","C:\Users\ERP Testing Room\Desktop\Joanna\morph21","no","mono","no","18","no","white","no","yes","1080","legacy","34","34","C:/Users/ERP Testing Room/Desktop/Joanna/morph21/subject-124.csv","xpyriment","Jazzy James","3.1.4","0","/","NA","NA","NA","NA","space","/","617","NA","NA","NA","NA","211099","617","2","legacy","1024","2","48000","-16","AB_m21","124","even","FILL_W","SICK","1360","339971","338380","332079","212468","NA","NA","NA","NA","339961","338877","NA","337880","NA","337873","339961","1369","340272","NA","NA","338971","1360","1360","339363","337873","1360","338971","340272","morph21_Oliver/Morris","27","23507","35","yes","1280","36"
"400","77.7777777778","77.7777777778","670.805555556","670.805555556","black","no","xpyriment","legacy","legacy","0","207","NA","uniform","71253","1000","0.0140344967931","1","undefined","1","0","35","35","35","0","35","35","35","NA","35","35","0","35","NA","35","35","0","35","NA","35","NA","35","0","0","35","35","0","35","35","36","/","02/02/18 15:27:21","The main experiment item","yes","FIN__AB__M21__7%3A10%3A17.osexp","C:\Users\ERP Testing Room\Desktop\Joanna\morph21","no","mono","no","18","no","white","no","yes","1080","legacy","35","35","C:/Users/ERP Testing Room/Desktop/Joanna/morph21/subject-124.csv","xpyriment","Jazzy James","3.1.4","0","/","NA","NA","NA","NA","space","/","642","NA","NA","NA","NA","211099","642","2","legacy","1024","2","48000","-16","AB_m21","124","even","FILL_W","QUIT","1360","344631","341538","343123","212468","NA","NA","NA","NA","343119","342035","NA","341038","NA","341026","343119","1369","345031","NA","NA","342130","1360","1360","342522","341026","1360","342130","345031","morph21_Oliver/Morris","28","24149","36","yes","1280","21"
"400","78.3783783784","78.3783783784","673.675675676","673.675675676","black","no","xpyriment","legacy","legacy","0","202","NA","uniform","66582","1000","0.0150190742243","1","undefined","1","0","36","36","36","0","36","36","36","NA","36","36","0","36","NA","36","36","0","36","NA","36","NA","36","0","0","36","36","0","36","36","37","/","02/02/18 15:27:21","The main experiment item","yes","FIN__AB__M21__7%3A10%3A17.osexp","C:\Users\ERP Testing Room\Desktop\Joanna\morph21","no","mono","no","18","no","white","no","yes","1080","legacy","36","36","C:/Users/ERP Testing Room/Desktop/Joanna/morph21/subject-124.csv","xpyriment","Jazzy James","3.1.4","0","/","NA","NA","NA","NA","space","/","777","NA","NA","NA","NA","211099","777","2","legacy","1024","2","48000","-16","AB_m21","124","even","CW_L","CLOUDLESS","1360","347931","346314","343123","212468","NA","NA","NA","NA","347922","346812","NA","345814","NA","345812","347922","1369","348331","NA","NA","346931","1360","1360","347323","345812","1360","346931","348331","morph21_Oliver/Morris","29","24926","37","yes","1280","33"
"350","78.9473684211","78.9473684211","671.289473684","671.289473684","black","no","xpyriment","legacy","legacy","0","204","NA","uniform","70874","1000","0.0141095465192","1","undefined","1","0","37","37","37","0","37","37","37","NA","37","37","0","37","NA","37","37","0","37","NA","37","NA","37","0","0","37","37","0","37","37","38","z","02/02/18 15:27:21","The main experiment item","yes","FIN__AB__M21__7%3A10%3A17.osexp","C:\Users\ERP Testing Room\Desktop\Joanna\morph21","no","mono","no","18","no","white","no","yes","1080","legacy","37","37","C:/Users/ERP Testing Room/Desktop/Joanna/morph21/subject-124.csv","xpyriment","Jazzy James","3.1.4","0","z","NA","NA","NA","NA","space","z","583","NA","NA","NA","NA","211099","583","2","legacy","1024","2","48000","-16","AB_m21","124","even","NW_L_COMP","INKISM","1360","351181","349573","343123","212468","NA","NA","NA","NA","351174","350070","NA","349073","NA","349066","351174","1369","351531","NA","NA","350181","1360","1360","350573","349066","1360","350181","351531","morph21_Oliver/Morris","30","25509","38","yes","1280","8"
"200","79.4871794872","79.4871794872","669.487179487","669.487179487","black","no","xpyriment","legacy","legacy","0","202","NA","uniform","72827","1000","0.0137311711316","1","undefined","1","0","38","38","38","0","38","38","38","NA","38","38","0","38","NA","38","38","0","38","NA","38","NA","38","0","0","38","38","0","38","38","39","/","02/02/18 15:27:21","The main experiment item","yes","FIN__AB__M21__7%3A10%3A17.osexp","C:\Users\ERP Testing Room\Desktop\Joanna\morph21","no","mono","no","18","no","white","no","yes","1080","legacy","38","38","C:/Users/ERP Testing Room/Desktop/Joanna/morph21/subject-124.csv","xpyriment","Jazzy James","3.1.4","0","/","NA","NA","NA","NA","space","/","601","NA","NA","NA","NA","211099","601","2","legacy","1024","2","48000","-16","AB_m21","124","even","CW_L","COLLECTOR","1360","356040","352923","354531","212468","NA","NA","NA","NA","354522","353420","NA","352423","NA","352419","354522","1369","356240","NA","NA","353531","1360","1360","353923","352419","1360","353531","356240","morph21_Oliver/Morris","31","26110","39","yes","1280","46"
"350","80","80","668.625","668.625","black","no","xpyriment","legacy","legacy","0","208","NA","uniform","70956","1000","0.0140932408817","1","undefined","1","0","39","39","39","0","39","39","39","NA","39","39","0","39","NA","39","39","0","39","NA","39","NA","39","0","0","39","39","0","39","39","40","z","02/02/18 15:27:21","The main experiment item","yes","FIN__AB__M21__7%3A10%3A17.osexp","C:\Users\ERP Testing Room\Desktop\Joanna\morph21","no","mono","no","18","no","white","no","yes","1080","legacy","39","39","C:/Users/ERP Testing Room/Desktop/Joanna/morph21/subject-124.csv","xpyriment","Jazzy James","3.1.4","0","z","NA","NA","NA","NA","space","z","635","NA","NA","NA","NA","211099","635","2","legacy","1024","2","48000","-16","AB_m21","124","even","FILL_NW","DOADS","1360","359057","357473","354531","212468","NA","NA","NA","NA","359050","357970","NA","356973","NA","356968","359050","1369","359407","NA","NA","358057","1360","1360","358448","356968","1360","358057","359407","morph21_Oliver/Morris","32","26745","40","yes","1280","15"
"250","78.0487804878","78.0487804878","665.707317073","665.707317073","black","no","xpyriment","legacy","legacy","0","207","NA","uniform","67485","1000","0.0148181077276","0","undefined","0","0","40","40","40","0","40","40","40","NA","40","40","0","40","NA","40","40","0","40","NA","40","NA","40","0","0","40","40","0","40","40","41","/","02/02/18 15:27:21","The main experiment item","yes","FIN__AB__M21__7%3A10%3A17.osexp","C:\Users\ERP Testing Room\Desktop\Joanna\morph21","no","mono","no","18","no","white","no","yes","1080","legacy","40","40","C:/Users/ERP Testing Room/Desktop/Joanna/morph21/subject-124.csv","xpyriment","Jazzy James","3.1.4","0","z","NA","NA","NA","NA","space","z","549","NA","NA","NA","NA","211099","549","2","legacy","1024","2","48000","-16","AB_m21","124","even","FILL_W","SOFT","1360","362399","360783","354531","212468","NA","NA","NA","NA","359050","361280","NA","360283","NA","360272","362389","1369","362650","NA","NA","361399","1360","1360","361791","360272","1360","361399","362650","morph21_Oliver/Morris","32","27294","41","yes","1280","43"
"400","78.5714285714","78.5714285714","667.071428571","667.071428571","black","no","xpyriment","legacy","legacy","0","206","NA","uniform","68648","1000","0.0145670667754","1","undefined","1","0","41","41","41","0","41","41","41","NA","41","41","0","41","NA","41","41","0","41","NA","41","NA","41","0","0","41","41","0","41","41","42","z","02/02/18 15:27:21","The main experiment item","yes","FIN__AB__M21__7%3A10%3A17.osexp","C:\Users\ERP Testing Room\Desktop\Joanna\morph21","no","mono","no","18","no","white","no","yes","1080","legacy","41","41","C:/Users/ERP Testing Room/Desktop/Joanna/morph21/subject-124.csv","xpyriment","Jazzy James","3.1.4","0","z","NA","NA","NA","NA","space","z","723","NA","NA","NA","NA","211099","723","2","legacy","1024","2","48000","-16","AB_m21","124","even","NW_L_SIMP","BLOODEL","1360","367133","364033","365625","212468","NA","NA","NA","NA","365616","364530","NA","363533","NA","363528","365616","1369","367533","NA","NA","364625","1360","1360","365016","363528","1360","364625","367533","morph21_Oliver/Morris","33","28017","42","yes","1280","24"
"200","79.0697674419","79.0697674419","664.395348837","664.395348837","black","no","xpyriment","legacy","legacy","0","201","NA","uniform","70932","1000","0.0140980093611","1","undefined","1","0","42","42","42","0","42","42","42","NA","42","42","0","42","NA","42","42","0","42","NA","42","NA","42","0","0","42","42","0","42","42","43","/","02/02/18 15:27:21","The main experiment item","yes","FIN__AB__M21__7%3A10%3A17.osexp","C:\Users\ERP Testing Room\Desktop\Joanna\morph21","no","mono","no","18","no","white","no","yes","1080","legacy","42","42","C:/Users/ERP Testing Room/Desktop/Joanna/morph21/subject-124.csv","xpyriment","Jazzy James","3.1.4","0","/","NA","NA","NA","NA","space","/","552","NA","NA","NA","NA","211099","552","2","legacy","1024","2","48000","-16","AB_m21","124","even","CW_S","LISTENER","1360","370508","368883","365625","212468","NA","NA","NA","NA","370502","369380","NA","368383","NA","368373","370502","1369","370708","NA","NA","369508","1360","1360","369900","368372","1360","369508","370708","morph21_Oliver/Morris","34","28569","43","yes","1280","18"
"350","79.5454545455","79.5454545455","663.818181818","663.818181818","black","no","xpyriment","legacy","legacy","0","208","NA","uniform","71347","1000","0.0140160062792","1","undefined","1","0","43","43","43","0","43","43","43","NA","43","43","0","43","NA","43","43","0","43","NA","43","NA","43","0","0","43","43","0","43","43","44","z","02/02/18 15:27:21","The main experiment item","yes","FIN__AB__M21__7%3A10%3A17.osexp","C:\Users\ERP Testing Room\Desktop\Joanna\morph21","no","mono","no","18","no","white","no","yes","1080","legacy","43","43","C:/Users/ERP Testing Room/Desktop/Joanna/morph21/subject-124.csv","xpyriment","Jazzy James","3.1.4","0","z","NA","NA","NA","NA","space","z","639","NA","NA","NA","NA","211099","639","2","legacy","1024","2","48000","-16","AB_m21","124","even","FILL_NW","KRAISE","1360","373717","372117","365625","212468","NA","NA","NA","NA","373714","372614","NA","371617","NA","371606","373714","1369","374067","NA","NA","372725","1360","1360","373117","371606","1360","372725","374067","morph21_Oliver/Morris","35","29208","44","yes","1280","33"
"350","77.7777777778","77.7777777778","661.577777778","661.577777778","black","no","xpyriment","legacy","legacy","0","204","NA","uniform","76109","1000","0.0131390505722","0","undefined","0","0","44","44","44","0","44","44","44","NA","44","44","0","44","NA","44","44","0","44","NA","44","NA","44","0","0","44","44","0","44","44","45","z","02/02/18 15:27:21","The main experiment item","yes","FIN__AB__M21__7%3A10%3A17.osexp","C:\Users\ERP Testing Room\Desktop\Joanna\morph21","no","mono","no","18","no","white","no","yes","1080","legacy","44","44","C:/Users/ERP Testing Room/Desktop/Joanna/morph21/subject-124.csv","xpyriment","Jazzy James","3.1.4","0","/","NA","NA","NA","NA","space","/","563","NA","NA","NA","NA","211099","563","2","legacy","1024","2","48000","-16","AB_m21","124","even","NW_L_COMP","MOUTHIZE","1360","378526","375433","377017","212468","NA","NA","NA","NA","373714","375931","NA","374933","NA","374923","377012","1369","378876","NA","NA","376017","1360","1360","376417","374923","1360","376017","378876","morph21_Oliver/Morris","35","29771","45","yes","1280","11"
"300","78.2608695652","78.2608695652","659.739130435","659.739130435","black","no","xpyriment","legacy","legacy","0","208","NA","uniform","72156","1000","0.013858861356","1","undefined","1","0","45","45","45","0","45","45","45","NA","45","45","0","45","NA","45","45","0","45","NA","45","NA","45","0","0","45","45","0","45","45","46","z","02/02/18 15:27:21","The main experiment item","yes","FIN__AB__M21__7%3A10%3A17.osexp","C:\Users\ERP Testing Room\Desktop\Joanna\morph21","no","mono","no","18","no","white","no","yes","1080","legacy","45","45","C:/Users/ERP Testing Room/Desktop/Joanna/morph21/subject-124.csv","xpyriment","Jazzy James","3.1.4","0","z","NA","NA","NA","NA","space","z","577","NA","NA","NA","NA","211099","577","2","legacy","1024","2","48000","-16","AB_m21","124","even","FILL_NW","HEEM","1360","381835","380193","377017","212468","NA","NA","NA","NA","381825","380690","NA","379693","NA","379685","381825","1369","382135","NA","NA","380835","1360","1360","381226","379685","1360","380835","382135","morph21_Oliver/Morris","36","30348","46","yes","1280","27"
"400","78.7234042553","78.7234042553","657.276595745","657.276595745","black","no","xpyriment","legacy","legacy","0","201","NA","uniform","76646","1000","0.013046995277","1","undefined","1","0","46","46","46","0","46","46","46","NA","46","46","0","46","NA","46","46","0","46","NA","46","NA","46","0","0","46","46","0","46","46","47","/","02/02/18 15:27:21","The main experiment item","yes","FIN__AB__M21__7%3A10%3A17.osexp","C:\Users\ERP Testing Room\Desktop\Joanna\morph21","no","mono","no","18","no","white","no","yes","1080","legacy","46","46","C:/Users/ERP Testing Room/Desktop/Joanna/morph21/subject-124.csv","xpyriment","Jazzy James","3.1.4","0","/","NA","NA","NA","NA","space","/","544","NA","NA","NA","NA","211099","544","2","legacy","1024","2","48000","-16","AB_m21","124","even","CW_S","DESIGN","1360","385051","383460","377017","212468","NA","NA","NA","NA","385048","383957","NA","382960","NA","382952","385048","1369","385451","NA","NA","384060","1360","1360","384451","382952","1360","384060","385451","morph21_Oliver/Morris","37","30892","47","yes","1280","19"
"200","79.1666666667","79.1666666667","653.979166667","653.979166667","black","no","xpyriment","legacy","legacy","0","208","NA","uniform","74731","1000","0.0133813276953","1","undefined","1","0","47","47","47","0","47","47","47","NA","47","47","0","47","NA","47","47","0","47","NA","47","NA","47","0","0","47","47","0","47","47","48","z","02/02/18 15:27:21","The main experiment item","yes","FIN__AB__M21__7%3A10%3A17.osexp","C:\Users\ERP Testing Room\Desktop\Joanna\morph21","no","mono","no","18","no","white","no","yes","1080","legacy","47","47","C:/Users/ERP Testing Room/Desktop/Joanna/morph21/subject-124.csv","xpyriment","Jazzy James","3.1.4","0","z","NA","NA","NA","NA","space","z","499","NA","NA","NA","NA","211099","499","2","legacy","1024","2","48000","-16","AB_m21","124","even","FILL_NW","HOITS","1360","389885","386760","388377","212468","NA","NA","NA","NA","388366","387257","NA","386260","NA","386256","388366","1369","390085","NA","NA","387377","1360","1360","387768","386256","1360","387377","390085","morph21_Oliver/Morris","38","31391","48","yes","1280","30"
"200","79.5918367347","79.5918367347","653.285714286","653.285714286","black","no","xpyriment","legacy","legacy","0","208","NA","uniform","73493","1000","0.0136067380567","1","undefined","1","0","48","48","48","0","48","48","48","NA","48","48","0","48","NA","48","48","0","48","NA","48","NA","48","0","0","48","48","0","48","48","49","z","02/02/18 15:27:21","The main experiment item","yes","FIN__AB__M21__7%3A10%3A17.osexp","C:\Users\ERP Testing Room\Desktop\Joanna\morph21","no","mono","no","18","no","white","no","yes","1080","legacy","48","48","C:/Users/ERP Testing Room/Desktop/Joanna/morph21/subject-124.csv","xpyriment","Jazzy James","3.1.4","0","z","NA","NA","NA","NA","space","z","620","NA","NA","NA","NA","211099","620","2","legacy","1024","2","48000","-16","AB_m21","124","even","FILL_NW","PUCTS","1360","392960","391352","388377","212468","NA","NA","NA","NA","392956","391849","NA","390852","NA","390848","392956","1369","393160","NA","NA","391960","1360","1360","392360","390848","1360","391960","393160","morph21_Oliver/Morris","39","32011","49","yes","1280","40"
"250","80","80","650.5","650.5","black","no","xpyriment","legacy","legacy","0","202","NA","uniform","70616","1000","0.0141610966353","1","undefined","1","0","49","49","49","0","49","49","49","NA","49","49","0","49","NA","49","49","0","49","NA","49","NA","49","0","0","49","49","0","49","49","50","/","02/02/18 15:27:21","The main experiment item","yes","FIN__AB__M21__7%3A10%3A17.osexp","C:\Users\ERP Testing Room\Desktop\Joanna\morph21","no","mono","no","18","no","white","no","yes","1080","legacy","49","49","C:/Users/ERP Testing Room/Desktop/Joanna/morph21/subject-124.csv","xpyriment","Jazzy James","3.1.4","0","/","NA","NA","NA","NA","space","/","514","NA","NA","NA","NA","211099","514","2","legacy","1024","2","48000","-16","AB_m21","124","even","CW_L","PUSHER","1360","396003","394402","388377","212468","NA","NA","NA","NA","395996","394899","NA","393902","NA","393897","395996","1369","396253","NA","NA","395002","1360","1360","395395","393897","1360","395002","396253","morph21_Oliver/Morris","40","32525","50","yes","1280","13"
"200","78.431372549","78.431372549","647.37254902","647.37254902","black","no","xpyriment","legacy","legacy","0","202","NA","uniform","75415","1000","0.0132599615461","0","undefined","0","0","50","50","50","0","50","50","50","NA","50","50","0","50","NA","50","50","0","50","NA","50","NA","50","0","0","50","50","0","50","50","51","/","02/02/18 15:27:21","The main experiment item","yes","FIN__AB__M21__7%3A10%3A17.osexp","C:\Users\ERP Testing Room\Desktop\Joanna\morph21","no","mono","no","18","no","white","no","yes","1080","legacy","50","50","C:/Users/ERP Testing Room/Desktop/Joanna/morph21/subject-124.csv","xpyriment","Jazzy James","3.1.4","0","z","NA","NA","NA","NA","space","z","491","NA","NA","NA","NA","211099","491","2","legacy","1024","2","48000","-16","AB_m21","124","even","CW_L","BONELESS","1360","400670","397578","399161","212468","NA","NA","NA","NA","395996","398075","NA","397078","NA","397069","399154","1369","400870","NA","NA","398161","1360","1360","398553","397069","1360","398161","400870","morph21_Oliver/Morris","40","33016","51","yes","1280","34"
"400","78.8461538462","78.8461538462","650.461538462","650.461538462","black","no","xpyriment","legacy","legacy","0","204","NA","uniform","71930","1000","0.0139024051161","1","undefined","1","0","51","51","51","0","51","51","51","NA","51","51","0","51","NA","51","51","0","51","NA","51","NA","51","0","0","51","51","0","51","51","52","z","02/02/18 15:27:21","The main experiment item","yes","FIN__AB__M21__7%3A10%3A17.osexp","C:\Users\ERP Testing Room\Desktop\Joanna\morph21","no","mono","no","18","no","white","no","yes","1080","legacy","51","51","C:/Users/ERP Testing Room/Desktop/Joanna/morph21/subject-124.csv","xpyriment","Jazzy James","3.1.4","0","z","NA","NA","NA","NA","space","z","808","NA","NA","NA","NA","211099","808","2","legacy","1024","2","48000","-16","AB_m21","124","even","NW_L_COMP","COLDITY","1360","403828","402245","399161","212468","NA","NA","NA","NA","403822","402742","NA","401745","NA","401734","403822","1369","404228","NA","NA","402828","1360","1360","403220","401734","1360","402828","404228","morph21_Oliver/Morris","41","33824","52","yes","1280","10"
"400","79.2452830189","79.2452830189","650.037735849","650.037735849","black","no","xpyriment","legacy","legacy","0","207","NA","uniform","66480","1000","0.0150421179302","1","undefined","1","0","52","52","52","0","52","52","52","NA","52","52","0","52","NA","52","52","0","52","NA","52","NA","52","0","0","52","52","0","52","52","53","/","02/02/18 15:27:21","The main experiment item","yes","FIN__AB__M21__7%3A10%3A17.osexp","C:\Users\ERP Testing Room\Desktop\Joanna\morph21","no","mono","no","18","no","white","no","yes","1080","legacy","52","52","C:/Users/ERP Testing Room/Desktop/Joanna/morph21/subject-124.csv","xpyriment","Jazzy James","3.1.4","0","/","NA","NA","NA","NA","space","/","628","NA","NA","NA","NA","211099","628","2","legacy","1024","2","48000","-16","AB_m21","124","even","FILL_W","STEEP","1360","407112","405487","399161","212468","NA","NA","NA","NA","407107","405984","NA","404987","NA","404984","407107","1369","407512","NA","NA","406112","1360","1360","406512","404984","1360","406112","407512","morph21_Oliver/Morris","42","34452","53","yes","1280","16"
"250","79.6296296296","79.6296296296","648.888888889","648.888888889","black","no","xpyriment","legacy","legacy","0","204","NA","uniform","71098","1000","0.0140650932516","1","undefined","1","0","53","53","53","0","53","53","53","NA","53","53","0","53","NA","53","53","0","53","NA","53","NA","53","0","0","53","53","0","53","53","54","z","02/02/18 15:27:21","The main experiment item","yes","FIN__AB__M21__7%3A10%3A17.osexp","C:\Users\ERP Testing Room\Desktop\Joanna\morph21","no","mono","no","18","no","white","no","yes","1080","legacy","53","53","C:/Users/ERP Testing Room/Desktop/Joanna/morph21/subject-124.csv","xpyriment","Jazzy James","3.1.4","0","z","NA","NA","NA","NA","space","z","588","NA","NA","NA","NA","211099","588","2","legacy","1024","2","48000","-16","AB_m21","124","even","NW_L_COMP","TRIPARY","1360","412012","408887","410504","212468","NA","NA","NA","NA","410497","409384","NA","408387","NA","408375","410497","1369","412262","NA","NA","409504","1360","1360","409895","408375","1360","409503","412262","morph21_Oliver/Morris","43","35040","54","yes","1280","2"
"250","80","80","647.163636364","647.163636364","black","no","xpyriment","legacy","legacy","0","202","NA","uniform","74981","1000","0.013336711967","1","undefined","1","0","54","54","54","0","54","54","54","NA","54","54","0","54","NA","54","54","0","54","NA","54","NA","54","0","0","54","54","0","54","54","55","/","02/02/18 15:27:21","The main experiment item","yes","FIN__AB__M21__7%3A10%3A17.osexp","C:\Users\ERP Testing Room\Desktop\Joanna\morph21","no","mono","no","18","no","white","no","yes","1080","legacy","54","54","C:/Users/ERP Testing Room/Desktop/Joanna/morph21/subject-124.csv","xpyriment","Jazzy James","3.1.4","0","/","NA","NA","NA","NA","space","/","554","NA","NA","NA","NA","211099","554","2","legacy","1024","2","48000","-16","AB_m21","124","even","CW_L","EXCITEMENT","1360","415130","413530","410504","212468","NA","NA","NA","NA","415122","414027","NA","413030","NA","413025","415122","1369","415380","NA","NA","414130","1360","1360","414521","413025","1360","414130","415380","morph21_Oliver/Morris","44","35594","55","yes","1280","38"
"300","78.5714285714","78.5714285714","646.464285714","646.464285714","black","no","xpyriment","legacy","legacy","0","202","NA","uniform","70365","1000","0.0142116108861","0","undefined","0","0","55","55","55","0","55","55","55","NA","55","55","0","55","NA","55","55","0","55","NA","55","NA","55","0","0","55","55","0","55","55","56","/","02/02/18 15:27:21","The main experiment item","yes","FIN__AB__M21__7%3A10%3A17.osexp","C:\Users\ERP Testing Room\Desktop\Joanna\morph21","no","mono","no","18","no","white","no","yes","1080","legacy","55","55","C:/Users/ERP Testing Room/Desktop/Joanna/morph21/subject-124.csv","xpyriment","Jazzy James","3.1.4","0","z","NA","NA","NA","NA","space","z","608","NA","NA","NA","NA","211099","608","2","legacy","1024","2","48000","-16","AB_m21","124","even","CW_L","DAMPISH","1360","418388","416797","410504","212468","NA","NA","NA","NA","415122","417294","NA","416297","NA","416286","418381","1369","418688","NA","NA","417388","1360","1360","417780","416286","1360","417388","418688","morph21_Oliver/Morris","44","36202","56","yes","1280","28"
"200","78.9473684211","78.9473684211","647.210526316","647.210526316","black","no","xpyriment","legacy","legacy","0","208","NA","uniform","65299","1000","0.0153141702017","1","undefined","1","0","56","56","56","0","56","56","56","NA","56","56","0","56","NA","56","56","0","56","NA","56","NA","56","0","0","56","56","0","56","56","57","z","02/02/18 15:27:21","The main experiment item","yes","FIN__AB__M21__7%3A10%3A17.osexp","C:\Users\ERP Testing Room\Desktop\Joanna\morph21","no","mono","no","18","no","white","no","yes","1080","legacy","56","56","C:/Users/ERP Testing Room/Desktop/Joanna/morph21/subject-124.csv","xpyriment","Jazzy James","3.1.4","0","z","NA","NA","NA","NA","space","z","689","NA","NA","NA","NA","211099","689","2","legacy","1024","2","48000","-16","AB_m21","124","even","FILL_NW","BROUPS","1360","423072","419972","421563","212468","NA","NA","NA","NA","421560","420469","NA","419472","NA","419466","421560","1369","423272","NA","NA","420563","1360","1360","420963","419466","1360","420563","423272","morph21_Oliver/Morris","45","36891","57","yes","1280","4"
"300","79.3103448276","79.3103448276","645.206896552","645.206896552","black","no","xpyriment","legacy","legacy","0","201","NA","uniform","77650","1000","0.0128783000644","1","undefined","1","0","57","57","57","0","57","57","57","NA","57","57","0","57","NA","57","57","0","57","NA","57","NA","57","0","0","57","57","0","57","57","58","/","02/02/18 15:27:21","The main experiment item","yes","FIN__AB__M21__7%3A10%3A17.osexp","C:\Users\ERP Testing Room\Desktop\Joanna\morph21","no","mono","no","18","no","white","no","yes","1080","legacy","57","57","C:/Users/ERP Testing Room/Desktop/Joanna/morph21/subject-124.csv","xpyriment","Jazzy James","3.1.4","0","/","NA","NA","NA","NA","space","/","531","NA","NA","NA","NA","211099","531","2","legacy","1024","2","48000","-16","AB_m21","124","even","CW_S","RISKY","1360","426097","424489","421563","212468","NA","NA","NA","NA","426089","424986","NA","423989","NA","423981","426089","1369","426397","NA","NA","425097","1360","1360","425489","423981","1360","425097","426397","morph21_Oliver/Morris","46","37422","58","yes","1280","50"
"350","79.6610169492","79.6610169492","643.627118644","643.627118644","black","no","xpyriment","legacy","legacy","0","201","NA","uniform","75040","1000","0.0133262260128","1","undefined","1","0","58","58","58","0","58","58","58","NA","58","58","0","58","NA","58","58","0","58","NA","58","NA","58","0","0","58","58","0","58","58","59","/","02/02/18 15:27:21","The main experiment item","yes","FIN__AB__M21__7%3A10%3A17.osexp","C:\Users\ERP Testing Room\Desktop\Joanna\morph21","no","mono","no","18","no","white","no","yes","1080","legacy","58","58","C:/Users/ERP Testing Room/Desktop/Joanna/morph21/subject-124.csv","xpyriment","Jazzy James","3.1.4","0","/","NA","NA","NA","NA","space","/","552","NA","NA","NA","NA","211099","552","2","legacy","1024","2","48000","-16","AB_m21","124","even","CW_S","TEACHER","1360","429364","427739","421563","212468","NA","NA","NA","NA","429358","428236","NA","427239","NA","427230","429358","1369","429714","NA","NA","428364","1360","1360","428755","427230","1360","428364","429714","morph21_Oliver/Morris","47","37974","59","yes","1280","23"
"400","80","80","640.35","640.35","black","no","xpyriment","legacy","legacy","0","207","NA","uniform","81603","1000","0.0122544514295","1","undefined","1","0","59","59","59","0","59","59","59","NA","59","59","0","59","NA","59","59","0","59","NA","59","NA","59","0","0","59","59","0","59","59","60","/","02/02/18 15:27:21","The main experiment item","yes","FIN__AB__M21__7%3A10%3A17.osexp","C:\Users\ERP Testing Room\Desktop\Joanna\morph21","no","mono","no","18","no","white","no","yes","1080","legacy","59","59","C:/Users/ERP Testing Room/Desktop/Joanna/morph21/subject-124.csv","xpyriment","Jazzy James","3.1.4","0","/","NA","NA","NA","NA","space","/","447","NA","NA","NA","NA","211099","447","2","legacy","1024","2","48000","-16","AB_m21","124","even","FILL_W","CRUNCH","1360","434090","430990","432582","212468","NA","NA","NA","NA","432575","431487","NA","430490","NA","430483","432575","1369","434490","NA","NA","431581","1360","1360","431973","430483","1360","431581","434490","morph21_Oliver/Morris","48","38421","60","yes","1280","20"
"200","80.3278688525","80.3278688525","640.606557377","640.606557377","black","no","xpyriment","legacy","legacy","0","203","NA","uniform","67315","1000","0.014855529971","1","undefined","1","0","60","60","60","0","60","60","60","NA","60","60","0","60","NA","60","60","0","60","NA","60","NA","60","0","0","60","60","0","60","60","61","z","02/02/18 15:27:21","The main experiment item","yes","FIN__AB__M21__7%3A10%3A17.osexp","C:\Users\ERP Testing Room\Desktop\Joanna\morph21","no","mono","no","18","no","white","no","yes","1080","legacy","60","60","C:/Users/ERP Testing Room/Desktop/Joanna/morph21/subject-124.csv","xpyriment","Jazzy James","3.1.4","0","z","NA","NA","NA","NA","space","z","656","NA","NA","NA","NA","211099","656","2","legacy","1024","2","48000","-16","AB_m21","124","even","NW_S_COMP","PILLIZE","1360","437340","435723","432582","212468","NA","NA","NA","NA","437335","436220","NA","435223","NA","435220","437335","1369","437540","NA","NA","436340","1360","1360","436740","435220","1360","436340","437540","morph21_Oliver/Morris","49","39077","61","yes","1280","13"
"400","80.6451612903","80.6451612903","642.322580645","642.322580645","black","no","xpyriment","legacy","legacy","0","205","NA","uniform","70041","1000","0.0142773518368","1","undefined","1","0","61","61","61","0","61","61","61","NA","61","61","0","61","NA","61","61","0","61","NA","61","NA","61","0","0","61","61","0","61","61","62","z","02/02/18 15:27:21","The main experiment item","yes","FIN__AB__M21__7%3A10%3A17.osexp","C:\Users\ERP Testing Room\Desktop\Joanna\morph21","no","mono","no","18","no","white","no","yes","1080","legacy","61","61","C:/Users/ERP Testing Room/Desktop/Joanna/morph21/subject-124.csv","xpyriment","Jazzy James","3.1.4","0","z","NA","NA","NA","NA","space","z","747","NA","NA","NA","NA","211099","747","2","legacy","1024","2","48000","-16","AB_m21","124","even","NW_S_SIMP","RAMPIME","1360","440448","438840","432582","212468","NA","NA","NA","NA","440444","439337","NA","438340","NA","438329","440444","1369","440849","NA","NA","439449","1360","1360","439848","438329","1360","439448","440849","morph21_Oliver/Morris","50","39824","62","yes","1280","6"
"300","80.9523809524","80.9523809524","641.857142857","641.857142857","black","no","xpyriment","legacy","legacy","0","205","NA","uniform","74335","1000","0.0134526131701","1","undefined","1","0","62","62","62","0","62","62","62","NA","62","62","0","62","NA","62","62","0","62","NA","62","NA","62","0","0","62","62","0","62","62","63","z","02/02/18 15:27:21","The main experiment item","yes","FIN__AB__M21__7%3A10%3A17.osexp","C:\Users\ERP Testing Room\Desktop\Joanna\morph21","no","mono","no","18","no","white","no","yes","1080","legacy","62","62","C:/Users/ERP Testing Room/Desktop/Joanna/morph21/subject-124.csv","xpyriment","Jazzy James","3.1.4","0","z","NA","NA","NA","NA","space","z","613","NA","NA","NA","NA","211099","613","2","legacy","1024","2","48000","-16","AB_m21","124","even","NW_S_SIMP","YIELDILT","1360","445307","442199","443799","212468","NA","NA","NA","NA","443792","442696","NA","441699","NA","441689","443792","1369","445607","NA","NA","442799","1360","1360","443190","441689","1360","442799","445607","morph21_Oliver/Morris","51","40437","63","yes","1280","20"
"350","81.25","81.25","641.96875","641.96875","black","no","xpyriment","legacy","legacy","0","202","NA","uniform","69515","1000","0.0143853844494","1","undefined","1","0","63","63","63","0","63","63","63","NA","63","63","0","63","NA","63","63","0","63","NA","63","NA","63","0","0","63","63","0","63","63","64","/","02/02/18 15:27:21","The main experiment item","yes","FIN__AB__M21__7%3A10%3A17.osexp","C:\Users\ERP Testing Room\Desktop\Joanna\morph21","no","mono","no","18","no","white","no","yes","1080","legacy","63","63","C:/Users/ERP Testing Room/Desktop/Joanna/morph21/subject-124.csv","xpyriment","Jazzy James","3.1.4","0","/","NA","NA","NA","NA","space","/","649","NA","NA","NA","NA","211099","649","2","legacy","1024","2","48000","-16","AB_m21","124","even","CW_L","BOMBER","1360","448517","446932","443799","212468","NA","NA","NA","NA","448510","447429","NA","446432","NA","446429","448510","1369","448867","NA","NA","447516","1360","1360","447908","446429","1360","447515","448867","morph21_Oliver/Morris","52","41086","64","yes","1280","7"
"300","81.5384615385","81.5384615385","639.553846154","639.553846154","black","no","xpyriment","legacy","legacy","0","202","NA","uniform","74306","1000","0.0134578634296","1","undefined","1","0","64","64","64","0","64","64","64","NA","64","64","0","64","NA","64","64","0","64","NA","64","NA","64","0","0","64","64","0","64","64","65","/","02/02/18 15:27:21","The main experiment item","yes","FIN__AB__M21__7%3A10%3A17.osexp","C:\Users\ERP Testing Room\Desktop\Joanna\morph21","no","mono","no","18","no","white","no","yes","1080","legacy","64","64","C:/Users/ERP Testing Room/Desktop/Joanna/morph21/subject-124.csv","xpyriment","Jazzy James","3.1.4","0","/","NA","NA","NA","NA","space","/","485","NA","NA","NA","NA","211099","485","2","legacy","1024","2","48000","-16","AB_m21","124","even","CW_L","PROFESSOR","1360","451775","450175","443799","212468","NA","NA","NA","NA","451772","450672","NA","449675","NA","449666","451772","1369","452075","NA","NA","450783","1360","1360","451175","449666","1360","450783","452075","morph21_Oliver/Morris","53","41571","65","yes","1280","47"
"300","81.8181818182","81.8181818182","637.96969697","637.96969697","black","no","xpyriment","legacy","legacy","0","201","NA","uniform","70566","1000","0.0141711305728","1","undefined","1","0","65","65","65","0","65","65","65","NA","65","65","0","65","NA","65","65","0","65","NA","65","NA","65","0","0","65","65","0","65","65","66","/","02/02/18 15:27:21","The main experiment item","yes","FIN__AB__M21__7%3A10%3A17.osexp","C:\Users\ERP Testing Room\Desktop\Joanna\morph21","no","mono","no","18","no","white","no","yes","1080","legacy","65","65","C:/Users/ERP Testing Room/Desktop/Joanna/morph21/subject-124.csv","xpyriment","Jazzy James","3.1.4","0","/","NA","NA","NA","NA","space","/","535","NA","NA","NA","NA","211099","535","2","legacy","1024","2","48000","-16","AB_m21","124","even","CW_S","MAGICAL","1360","456434","453300","454925","212468","NA","NA","NA","NA","454919","453797","NA","452800","NA","452792","454919","1369","456734","NA","NA","453925","1360","1360","454317","452792","1360","453925","456734","morph21_Oliver/Morris","54","42106","66","yes","1280","4"
"200","82.0895522388","82.0895522388","635.776119403","635.776119403","black","no","xpyriment","legacy","legacy","0","202","NA","uniform","69312","1000","0.0144275161588","1","undefined","1","0","66","66","66","0","66","66","66","NA","66","66","0","66","NA","66","66","0","66","NA","66","NA","66","0","0","66","66","0","66","66","67","/","02/02/18 15:27:21","The main experiment item","yes","FIN__AB__M21__7%3A10%3A17.osexp","C:\Users\ERP Testing Room\Desktop\Joanna\morph21","no","mono","no","18","no","white","no","yes","1080","legacy","66","66","C:/Users/ERP Testing Room/Desktop/Joanna/morph21/subject-124.csv","xpyriment","Jazzy James","3.1.4","0","/","NA","NA","NA","NA","space","/","491","NA","NA","NA","NA","211099","491","2","legacy","1024","2","48000","-16","AB_m21","124","even","CW_L","SHAMEFUL","1360","459609","458017","454925","212468","NA","NA","NA","NA","459599","458514","NA","457517","NA","457514","459599","1369","459809","NA","NA","458609","1360","1360","459000","457514","1360","458609","459809","morph21_Oliver/Morris","55","42597","67","yes","1280","19"
"300","80.8823529412","80.8823529412","633.338235294","633.338235294","black","no","xpyriment","legacy","legacy","0","206","NA","uniform","71651","1000","0.0139565393365","0","undefined","0","0","67","67","67","0","67","67","67","NA","67","67","0","67","NA","67","67","0","67","NA","67","NA","67","0","0","67","67","0","67","67","68","z","02/02/18 15:27:21","The main experiment item","yes","FIN__AB__M21__7%3A10%3A17.osexp","C:\Users\ERP Testing Room\Desktop\Joanna\morph21","no","mono","no","18","no","white","no","yes","1080","legacy","67","67","C:/Users/ERP Testing Room/Desktop/Joanna/morph21/subject-124.csv","xpyriment","Jazzy James","3.1.4","0","/","NA","NA","NA","NA","space","/","470","NA","NA","NA","NA","211099","470","2","legacy","1024","2","48000","-16","AB_m21","124","even","NW_L_SIMP","TAXFIL","1360","462734","461117","454925","212468","NA","NA","NA","NA","459599","461614","NA","460617","NA","460606","462731","1369","463034","NA","NA","461742","1360","1360","462134","460606","1360","461742","463034","morph21_Oliver/Morris","55","43067","68","yes","1280","6"
"400","81.1594202899","81.1594202899","632.898550725","632.898550725","black","no","xpyriment","legacy","legacy","0","202","NA","uniform","68578","1000","0.0145819358978","1","undefined","1","0","68","68","68","0","68","68","68","NA","68","68","0","68","NA","68","68","0","68","NA","68","NA","68","0","0","68","68","0","68","68","69","/","02/02/18 15:27:21","The main experiment item","yes","FIN__AB__M21__7%3A10%3A17.osexp","C:\Users\ERP Testing Room\Desktop\Joanna\morph21","no","mono","no","18","no","white","no","yes","1080","legacy","68","68","C:/Users/ERP Testing Room/Desktop/Joanna/morph21/subject-124.csv","xpyriment","Jazzy James","3.1.4","0","/","NA","NA","NA","NA","space","/","603","NA","NA","NA","NA","211099","603","2","legacy","1024","2","48000","-16","AB_m21","124","even","CW_L","COOLING","1360","467543","464409","466035","212468","NA","NA","NA","NA","466029","464906","NA","463909","NA","463899","466029","1369","467944","NA","NA","465034","1360","1360","465427","463899","1360","465034","467944","morph21_Oliver/Morris","56","43670","69","yes","1280","24"
"300","81.4285714286","81.4285714286","631.1","631.1","black","no","xpyriment","legacy","legacy","0","207","NA","uniform","72422","1000","0.0138079589075","1","undefined","1","0","69","69","69","0","69","69","69","NA","69","69","0","69","NA","69","69","0","69","NA","69","NA","69","0","0","69","69","0","69","69","70","/","02/02/18 15:27:21","The main experiment item","yes","FIN__AB__M21__7%3A10%3A17.osexp","C:\Users\ERP Testing Room\Desktop\Joanna\morph21","no","mono","no","18","no","white","no","yes","1080","legacy","69","69","C:/Users/ERP Testing Room/Desktop/Joanna/morph21/subject-124.csv","xpyriment","Jazzy James","3.1.4","0","/","NA","NA","NA","NA","space","/","507","NA","NA","NA","NA","211099","507","2","legacy","1024","2","48000","-16","AB_m21","124","even","FILL_W","IRON","1360","470768","469185","466035","212468","NA","NA","NA","NA","470766","469682","NA","468685","NA","468681","470766","1369","471069","NA","NA","469777","1360","1360","470168","468681","1360","469777","471069","morph21_Oliver/Morris","57","44177","70","yes","1280","33"
"350","81.6901408451","81.6901408451","628.718309859","628.718309859","black","no","xpyriment","legacy","legacy","0","202","NA","uniform","71315","1000","0.0140222954498","1","undefined","1","0","70","70","70","0","70","70","70","NA","70","70","0","70","NA","70","70","0","70","NA","70","NA","70","0","0","70","70","0","70","70","71","/","02/02/18 15:27:21","The main experiment item","yes","FIN__AB__M21__7%3A10%3A17.osexp","C:\Users\ERP Testing Room\Desktop\Joanna\morph21","no","mono","no","18","no","white","no","yes","1080","legacy","70","70","C:/Users/ERP Testing Room/Desktop/Joanna/morph21/subject-124.csv","xpyriment","Jazzy James","3.1.4","0","/","NA","NA","NA","NA","space","/","462","NA","NA","NA","NA","211099","462","2","legacy","1024","2","48000","-16","AB_m21","124","even","CW_L","HUNTER","1360","474085","472477","466035","212468","NA","NA","NA","NA","474082","472974","NA","471977","NA","471969","474082","1369","474435","NA","NA","473094","1360","1360","473485","471968","1360","473094","474435","morph21_Oliver/Morris","58","44639","71","yes","1280","10"
"200","81.9444444444","81.9444444444","626.652777778","626.652777778","black","no","xpyriment","legacy","legacy","0","201","NA","uniform","69096","1000","0.0144726178071","1","undefined","1","0","71","71","71","0","71","71","71","NA","71","71","0","71","NA","71","71","0","71","NA","71","NA","71","0","0","71","71","0","71","71","72","/","02/02/18 15:27:21","The main experiment item","yes","FIN__AB__M21__7%3A10%3A17.osexp","C:\Users\ERP Testing Room\Desktop\Joanna\morph21","no","mono","no","18","no","white","no","yes","1080","legacy","71","71","C:/Users/ERP Testing Room/Desktop/Joanna/morph21/subject-124.csv","xpyriment","Jazzy James","3.1.4","0","/","NA","NA","NA","NA","space","/","480","NA","NA","NA","NA","211099","480","2","legacy","1024","2","48000","-16","AB_m21","124","even","CW_S","ENJOYMENT","1360","478944","475827","477435","212468","NA","NA","NA","NA","477426","476324","NA","475327","NA","475319","477426","1369","479144","NA","NA","476436","1360","1360","476827","475319","1360","476435","479144","morph21_Oliver/Morris","59","45119","72","yes","1280","40"
"350","82.1917808219","82.1917808219","624.328767123","624.328767123","black","no","xpyriment","legacy","legacy","0","201","NA","uniform","78575","1000","0.0127266942412","1","undefined","1","0","72","72","72","0","72","72","72","NA","72","72","0","72","NA","72","72","0","72","NA","72","NA","72","0","0","72","72","0","72","72","73","/","02/02/18 15:27:21","The main experiment item","yes","FIN__AB__M21__7%3A10%3A17.osexp","C:\Users\ERP Testing Room\Desktop\Joanna\morph21","no","mono","no","18","no","white","no","yes","1080","legacy","72","72","C:/Users/ERP Testing Room/Desktop/Joanna/morph21/subject-124.csv","xpyriment","Jazzy James","3.1.4","0","/","NA","NA","NA","NA","space","/","457","NA","NA","NA","NA","211099","457","2","legacy","1024","2","48000","-16","AB_m21","124","even","CW_S","CHILLY","1360","482019","480427","477435","212468","NA","NA","NA","NA","482010","480924","NA","479927","NA","479916","482010","1369","482369","NA","NA","481019","1360","1360","481411","479916","1360","481019","482369","morph21_Oliver/Morris","60","45576","73","yes","1280","48"
"200","82.4324324324","82.4324324324","625.581081081","625.581081081","black","no","xpyriment","legacy","legacy","0","205","NA","uniform","65386","1000","0.0152937937785","1","undefined","1","0","73","73","73","0","73","73","73","NA","73","73","0","73","NA","73","73","0","73","NA","73","NA","73","0","0","73","73","0","73","73","74","z","02/02/18 15:27:21","The main experiment item","yes","FIN__AB__M21__7%3A10%3A17.osexp","C:\Users\ERP Testing Room\Desktop\Joanna\morph21","no","mono","no","18","no","white","no","yes","1080","legacy","73","73","C:/Users/ERP Testing Room/Desktop/Joanna/morph21/subject-124.csv","xpyriment","Jazzy James","3.1.4","0","z","NA","NA","NA","NA","space","z","717","NA","NA","NA","NA","211099","717","2","legacy","1024","2","48000","-16","AB_m21","124","even","NW_S_SIMP","GUMFIL","1360","485303","483720","477435","212468","NA","NA","NA","NA","485299","484217","NA","483220","NA","483211","485299","1369","485504","NA","NA","484303","1360","1360","484703","483211","1360","484303","485504","morph21_Oliver/Morris","61","46293","74","yes","1280","2"
"300","82.6666666667","82.6666666667","624.4","624.4","black","no","xpyriment","legacy","legacy","0","202","NA","uniform","71797","1000","0.0139281585582","undefined","undefined","1","0","74","74","74","0","74","74","74","NA","74","74","0","74","NA","74","74","0","74","NA","74","NA","74","0","0","74","74","0","74","74","75","/","02/02/18 15:27:21","The main experiment item","yes","FIN__AB__M21__7%3A10%3A17.osexp","C:\Users\ERP Testing Room\Desktop\Joanna\morph21","no","mono","no","18","no","white","no","yes","1080","legacy","74","74","C:/Users/ERP Testing Room/Desktop/Joanna/morph21/subject-124.csv","xpyriment","Jazzy James","3.1.4","0","space","space","NA","NA","NA","space","/","37432","37432","NA","NA","NA","211099","537","2","legacy","1024","2","48000","-16","AB_m21","124","even","CW_L","MADNESS","1360","489904","486795","488395","212468","490212","NA","NA","NA","488392","487292","NA","486295","NA","486286","488392","1369","527645","NA","NA","487395","1360","1360","487795","486286","1360","487395","490204","morph21_Oliver/Morris","62","46830","75","yes","1280","41"
"400","82.8947368421","82.8947368421","623.578947368","623.578947368","black","no","xpyriment","legacy","legacy","0","202","NA","uniform","69763","1000","0.014334245947","1","undefined","1","0","75","75","75","0","75","75","75","NA","75","75","0","75","NA","75","75","0","75","NA","75","NA","75","0","0","75","75","0","75","75","76","/","02/02/18 15:27:21","The main experiment item","yes","FIN__AB__M21__7%3A10%3A17.osexp","C:\Users\ERP Testing Room\Desktop\Joanna\morph21","no","mono","no","18","no","white","no","yes","1080","legacy","75","75","C:/Users/ERP Testing Room/Desktop/Joanna/morph21/subject-124.csv","xpyriment","Jazzy James","3.1.4","0","/","space","NA","NA","NA","space","/","562","37432","NA","NA","NA","211099","562","2","legacy","1024","2","48000","-16","AB_m21","124","even","CW_L","CONDUCTOR","1360","530482","528899","488395","212468","490212","NA","NA","NA","530478","529396","NA","528399","NA","528389","530478","1369","530882","NA","NA","529482","1360","1360","529882","528389","1360","529482","530882","morph21_Oliver/Morris","63","47392","76","yes","1280","44"
"200","81.8181818182","81.8181818182","621.935064935","621.935064935","black","no","xpyriment","legacy","legacy","0","203","NA","uniform","78227","1000","0.0127833101103","0","undefined","0","0","76","76","76","0","76","76","76","NA","76","76","0","76","NA","76","76","0","76","NA","76","NA","76","0","0","76","76","0","76","76","77","z","02/02/18 15:27:21","The main experiment item","yes","FIN__AB__M21__7%3A10%3A17.osexp","C:\Users\ERP Testing Room\Desktop\Joanna\morph21","no","mono","no","18","no","white","no","yes","1080","legacy","76","76","C:/Users/ERP Testing Room/Desktop/Joanna/morph21/subject-124.csv","xpyriment","Jazzy James","3.1.4","0","/","space","NA","NA","NA","space","/","497","37432","NA","NA","NA","211099","497","2","legacy","1024","2","48000","-16","AB_m21","124","even","NW_S_COMP","ANTISM","1360","533899","532316","488395","212468","490212","NA","NA","NA","530478","532813","NA","531808","NA","531803","533895","1369","534099","NA","NA","532899","1360","1360","533299","531803","1360","532899","534099","morph21_Oliver/Morris","63","47889","77","yes","1280","8"
"350","82.0512820513","82.0512820513","620.269230769","620.269230769","black","no","xpyriment","legacy","legacy","0","202","NA","uniform","73730","1000","0.0135630001356","1","undefined","1","0","77","77","77","0","77","77","77","NA","77","77","0","77","NA","77","77","0","77","NA","77","NA","77","0","0","77","77","0","77","77","78","/","02/02/18 15:27:21","The main experiment item","yes","FIN__AB__M21__7%3A10%3A17.osexp","C:\Users\ERP Testing Room\Desktop\Joanna\morph21","no","mono","no","18","no","white","no","yes","1080","legacy","77","77","C:/Users/ERP Testing Room/Desktop/Joanna/morph21/subject-124.csv","xpyriment","Jazzy James","3.1.4","0","/","space","NA","NA","NA","space","/","492","37432","NA","NA","NA","211099","492","2","legacy","1024","2","48000","-16","AB_m21","124","even","CW_L","JUMPING","1360","538517","535400","537009","212468","490212","NA","NA","NA","537003","535898","NA","534899","NA","534895","537003","1369","538867","NA","NA","536009","1360","1360","536400","534895","1360","536009","538867","morph21_Oliver/Morris","64","48381","78","yes","1280","30"
"400","82.2784810127","82.2784810127","617.949367089","617.949367089","black","no","xpyriment","legacy","legacy","0","202","NA","uniform","78818","1000","0.0126874571798","1","undefined","1","0","78","78","78","0","78","78","78","NA","78","78","0","78","NA","78","78","0","78","NA","78","NA","78","0","0","78","78","0","78","78","79","/","02/02/18 15:27:21","The main experiment item","yes","FIN__AB__M21__7%3A10%3A17.osexp","C:\Users\ERP Testing Room\Desktop\Joanna\morph21","no","mono","no","18","no","white","no","yes","1080","legacy","78","78","C:/Users/ERP Testing Room/Desktop/Joanna/morph21/subject-124.csv","xpyriment","Jazzy James","3.1.4","0","/","space","NA","NA","NA","space","/","437","37432","NA","NA","NA","211099","437","2","legacy","1024","2","48000","-16","AB_m21","124","even","CW_L","DRYNESS","1360","541759","540134","537009","212468","490212","NA","NA","NA","541750","540631","NA","539634","NA","539622","541750","1369","542159","NA","NA","540759","1360","1360","541151","539622","1360","540759","542159","morph21_Oliver/Morris","65","48818","79","yes","1280","42"
"350","82.5","82.5","617.0375","617.0375","black","no","xpyriment","legacy","legacy","0","208","NA","uniform","73086","1000","0.0136825110144","1","undefined","1","0","79","79","79","0","79","79","79","NA","79","79","0","79","NA","79","79","0","79","NA","79","NA","79","0","0","79","79","0","79","79","80","z","02/02/18 15:27:21","The main experiment item","yes","FIN__AB__M21__7%3A10%3A17.osexp","C:\Users\ERP Testing Room\Desktop\Joanna\morph21","no","mono","no","18","no","white","no","yes","1080","legacy","79","79","C:/Users/ERP Testing Room/Desktop/Joanna/morph21/subject-124.csv","xpyriment","Jazzy James","3.1.4","0","z","space","NA","NA","NA","space","z","545","37432","NA","NA","NA","211099","545","2","legacy","1024","2","48000","-16","AB_m21","124","even","FILL_NW","HEAS","1360","545059","543467","537009","212468","490212","NA","NA","NA","545056","543964","NA","542967","NA","542960","545056","1369","545409","NA","NA","544059","1360","1360","544459","542960","1360","544059","545409","morph21_Oliver/Morris","66","49363","80","yes","1280","26"
"250","82.7160493827","82.7160493827","616.617283951","616.617283951","black","no","xpyriment","legacy","legacy","0","207","NA","uniform","70446","1000","0.014195270136","1","undefined","1","0","80","80","80","0","80","80","80","NA","80","80","0","80","NA","80","80","0","80","NA","80","NA","80","0","0","80","80","0","80","80","81","/","02/02/18 15:27:21","The main experiment item","yes","FIN__AB__M21__7%3A10%3A17.osexp","C:\Users\ERP Testing Room\Desktop\Joanna\morph21","no","mono","no","18","no","white","no","yes","1080","legacy","80","80","C:/Users/ERP Testing Room/Desktop/Joanna/morph21/subject-124.csv","xpyriment","Jazzy James","3.1.4","0","/","space","NA","NA","NA","space","/","583","37432","NA","NA","NA","211099","583","2","legacy","1024","2","48000","-16","AB_m21","124","even","FILL_W","TREAT","1360","549793","546701","548284","212468","490212","NA","NA","NA","548282","547198","NA","546201","NA","546194","548282","1369","550043","NA","NA","547293","1360","1360","547684","546194","1360","547292","550043","morph21_Oliver/Morris","67","49946","81","yes","1280","48"
"350","82.9268292683","82.9268292683","615.597560976","615.597560976","black","no","xpyriment","legacy","legacy","0","205","NA","uniform","68555","1000","0.0145868280942","1","undefined","1","0","81","81","81","0","81","81","81","NA","81","81","0","81","NA","81","81","0","81","NA","81","NA","81","0","0","81","81","0","81","81","82","z","02/02/18 15:27:21","The main experiment item","yes","FIN__AB__M21__7%3A10%3A17.osexp","C:\Users\ERP Testing Room\Desktop\Joanna\morph21","no","mono","no","18","no","white","no","yes","1080","legacy","81","81","C:/Users/ERP Testing Room/Desktop/Joanna/morph21/subject-124.csv","xpyriment","Jazzy James","3.1.4","0","z","space","NA","NA","NA","space","z","533","37432","NA","NA","NA","211099","533","2","legacy","1024","2","48000","-16","AB_m21","124","even","NW_S_SIMP","BASKODY","1360","552944","551326","548284","212468","490212","NA","NA","NA","552939","551823","NA","550826","NA","550820","552939","1369","553294","NA","NA","551943","1360","1360","552343","550820","1360","551943","553294","morph21_Oliver/Morris","68","50479","82","yes","1280","10"
"200","83.1325301205","83.1325301205","614.277108434","614.277108434","black","no","xpyriment","legacy","legacy","0","207","NA","uniform","71903","1000","0.0139076255511","1","undefined","1","0","82","82","82","0","82","82","82","NA","82","82","0","82","NA","82","82","0","82","NA","82","NA","82","0","0","82","82","0","82","82","83","/","02/02/18 15:27:21","The main experiment item","yes","FIN__AB__M21__7%3A10%3A17.osexp","C:\Users\ERP Testing Room\Desktop\Joanna\morph21","no","mono","no","18","no","white","no","yes","1080","legacy","82","82","C:/Users/ERP Testing Room/Desktop/Joanna/morph21/subject-124.csv","xpyriment","Jazzy James","3.1.4","0","/","space","NA","NA","NA","space","/","506","37432","NA","NA","NA","211099","506","2","legacy","1024","2","48000","-16","AB_m21","124","even","FILL_W","FLESH","1360","556186","554602","548284","212468","490212","NA","NA","NA","556179","555099","NA","554102","NA","554093","556179","1369","556386","NA","NA","555186","1360","1360","555577","554093","1360","555185","556386","morph21_Oliver/Morris","69","50985","83","yes","1280","32"
"300","82.1428571429","82.1428571429","613.297619048","613.297619048","black","no","xpyriment","legacy","legacy","0","204","NA","uniform","67585","1000","0.0147961825849","0","undefined","0","0","83","83","83","0","83","83","83","NA","83","83","0","83","NA","83","83","0","83","NA","83","NA","83","0","0","83","83","0","83","83","84","z","02/02/18 15:27:21","The main experiment item","yes","FIN__AB__M21__7%3A10%3A17.osexp","C:\Users\ERP Testing Room\Desktop\Joanna\morph21","no","mono","no","18","no","white","no","yes","1080","legacy","83","83","C:/Users/ERP Testing Room/Desktop/Joanna/morph21/subject-124.csv","xpyriment","Jazzy James","3.1.4","0","/","space","NA","NA","NA","space","/","532","37432","NA","NA","NA","211099","532","2","legacy","1024","2","48000","-16","AB_m21","124","even","NW_L_COMP","FELLOWOUS","1360","560861","557736","559352","212468","490212","NA","NA","NA","556179","558233","NA","557236","NA","557229","559348","1369","561161","NA","NA","558352","1360","1360","558752","557229","1360","558352","561161","morph21_Oliver/Morris","69","51517","84","yes","1280","17"
"400","82.3529411765","82.3529411765","611.552941176","611.552941176","black","no","xpyriment","legacy","legacy","0","202","NA","uniform","75453","1000","0.013253283501","1","undefined","1","0","84","84","84","0","84","84","84","NA","84","84","0","84","NA","84","84","0","84","NA","84","NA","84","0","0","84","84","0","84","84","85","/","02/02/18 15:27:21","The main experiment item","yes","FIN__AB__M21__7%3A10%3A17.osexp","C:\Users\ERP Testing Room\Desktop\Joanna\morph21","no","mono","no","18","no","white","no","yes","1080","legacy","84","84","C:/Users/ERP Testing Room/Desktop/Joanna/morph21/subject-124.csv","xpyriment","Jazzy James","3.1.4","0","/","space","NA","NA","NA","space","/","465","37432","NA","NA","NA","211099","465","2","legacy","1024","2","48000","-16","AB_m21","124","even","CW_L","WRONGLY","1360","564011","562419","559352","212468","490212","NA","NA","NA","564008","562916","NA","561919","NA","561909","564008","1369","564411","NA","NA","563019","1360","1360","563411","561909","1360","563019","564411","morph21_Oliver/Morris","70","51982","85","yes","1280","37"
"200","81.3953488372","81.3953488372","611.61627907","611.61627907","black","no","xpyriment","legacy","legacy","0","206","NA","uniform","73673","1000","0.0135734936815","0","undefined","0","0","85","85","85","0","85","85","85","NA","85","85","0","85","NA","85","85","0","85","NA","85","NA","85","0","0","85","85","0","85","85","86","z","02/02/18 15:27:21","The main experiment item","yes","FIN__AB__M21__7%3A10%3A17.osexp","C:\Users\ERP Testing Room\Desktop\Joanna\morph21","no","mono","no","18","no","white","no","yes","1080","legacy","85","85","C:/Users/ERP Testing Room/Desktop/Joanna/morph21/subject-124.csv","xpyriment","Jazzy James","3.1.4","0","/","space","NA","NA","NA","space","/","617","37432","NA","NA","NA","211099","617","2","legacy","1024","2","48000","-16","AB_m21","124","even","NW_L_SIMP","GROWILT","1360","567211","565586","559352","212468","490212","NA","NA","NA","564008","566083","NA","565086","NA","565079","567207","1369","567411","NA","NA","566211","1360","1360","566611","565079","1360","566211","567411","morph21_Oliver/Morris","70","52599","86","yes","1280","20"
"250","81.6091954023","81.6091954023","610.32183908","610.32183908","black","no","xpyriment","legacy","legacy","0","201","NA","uniform","78944","1000","0.0126672071342","1","undefined","1","0","86","86","86","0","86","86","86","NA","86","86","0","86","NA","86","86","0","86","NA","86","NA","86","0","0","86","86","0","86","86","87","/","02/02/18 15:27:21","The main experiment item","yes","FIN__AB__M21__7%3A10%3A17.osexp","C:\Users\ERP Testing Room\Desktop\Joanna\morph21","no","mono","no","18","no","white","no","yes","1080","legacy","86","86","C:/Users/ERP Testing Room/Desktop/Joanna/morph21/subject-124.csv","xpyriment","Jazzy James","3.1.4","0","/","space","NA","NA","NA","space","/","499","37432","NA","NA","NA","211099","499","2","legacy","1024","2","48000","-16","AB_m21","124","even","CW_S","COSTLY","1360","571671","568578","570162","212468","490212","NA","NA","NA","570154","569075","NA","568078","NA","568074","570154","1369","571921","NA","NA","569161","1360","1360","569553","568074","1360","569161","571921","morph21_Oliver/Morris","71","53098","87","yes","1280","36"
"250","80.6818181818","80.6818181818","609","609","black","no","xpyriment","legacy","legacy","0","203","NA","uniform","75206","1000","0.0132968114246","0","undefined","0","0","87","87","87","0","87","87","87","NA","87","87","0","87","NA","87","87","0","87","NA","87","NA","87","0","0","87","87","0","87","87","88","z","02/02/18 15:27:21","The main experiment item","yes","FIN__AB__M21__7%3A10%3A17.osexp","C:\Users\ERP Testing Room\Desktop\Joanna\morph21","no","mono","no","18","no","white","no","yes","1080","legacy","87","87","C:/Users/ERP Testing Room/Desktop/Joanna/morph21/subject-124.csv","xpyriment","Jazzy James","3.1.4","0","/","space","NA","NA","NA","space","/","494","37432","NA","NA","NA","211099","494","2","legacy","1024","2","48000","-16","AB_m21","124","even","NW_S_COMP","BEERER","1360","574846","573279","570162","212468","490212","NA","NA","NA","570154","573776","NA","572779","NA","572768","574839","1369","575096","NA","NA","573846","1360","1360","574237","572768","1360","573846","575096","morph21_Oliver/Morris","71","53592","88","yes","1280","5"
"350","80.8988764045","80.8988764045","609.02247191","609.02247191","black","no","xpyriment","legacy","legacy","0","201","NA","uniform","78453","1000","0.0127464851567","1","undefined","1","0","88","88","88","0","88","88","88","NA","88","88","0","88","NA","88","88","0","88","NA","88","NA","88","0","0","88","88","0","88","88","89","/","02/02/18 15:27:21","The main experiment item","yes","FIN__AB__M21__7%3A10%3A17.osexp","C:\Users\ERP Testing Room\Desktop\Joanna\morph21","no","mono","no","18","no","white","no","yes","1080","legacy","88","88","C:/Users/ERP Testing Room/Desktop/Joanna/morph21/subject-124.csv","xpyriment","Jazzy James","3.1.4","0","/","space","NA","NA","NA","space","/","611","37432","NA","NA","NA","211099","611","2","legacy","1024","2","48000","-16","AB_m21","124","even","CW_S","NEATLY","1360","577929","576329","570162","212468","490212","NA","NA","NA","577920","576826","NA","575829","NA","575823","577920","1369","578279","NA","NA","576929","1360","1360","577321","575823","1360","576929","578279","morph21_Oliver/Morris","72","54203","89","yes","1280","33"
"300","81.1111111111","81.1111111111","607.111111111","607.111111111","black","no","xpyriment","legacy","legacy","0","203","NA","uniform","76033","1000","0.0131521839201","1","undefined","1","0","89","89","89","0","89","89","89","NA","89","89","0","89","NA","89","89","0","89","NA","89","NA","89","0","0","89","89","0","89","89","90","z","02/02/18 15:27:21","The main experiment item","yes","FIN__AB__M21__7%3A10%3A17.osexp","C:\Users\ERP Testing Room\Desktop\Joanna\morph21","no","mono","no","18","no","white","no","yes","1080","legacy","89","89","C:/Users/ERP Testing Room/Desktop/Joanna/morph21/subject-124.csv","xpyriment","Jazzy James","3.1.4","0","z","space","NA","NA","NA","space","z","437","37432","NA","NA","NA","211099","437","2","legacy","1024","2","48000","-16","AB_m21","124","even","NW_S_COMP","CURTITY","1360","582779","579663","581271","212468","490212","NA","NA","NA","581262","580160","NA","579163","NA","579153","581262","1369","583080","NA","NA","580271","1360","1360","580663","579153","1360","580271","583080","morph21_Oliver/Morris","73","54640","90","yes","1280","11"
"250","81.3186813187","81.3186813187","607.505494505","607.505494505","black","no","xpyriment","legacy","legacy","0","203","NA","uniform","71416","1000","0.0140024644337","1","undefined","1","0","90","90","90","0","90","90","90","NA","90","90","0","90","NA","90","90","0","90","NA","90","NA","90","0","0","90","90","0","90","90","91","z","02/02/18 15:27:21","The main experiment item","yes","FIN__AB__M21__7%3A10%3A17.osexp","C:\Users\ERP Testing Room\Desktop\Joanna\morph21","no","mono","no","18","no","white","no","yes","1080","legacy","90","90","C:/Users/ERP Testing Room/Desktop/Joanna/morph21/subject-124.csv","xpyriment","Jazzy James","3.1.4","0","z","space","NA","NA","NA","space","z","643","37432","NA","NA","NA","211099","643","2","legacy","1024","2","48000","-16","AB_m21","124","even","NW_S_COMP","BRANCHER","1360","585921","584338","581271","212468","490212","NA","NA","NA","585917","584835","NA","583830","NA","583825","585917","1369","586171","NA","NA","584921","1360","1360","585321","583825","1360","584921","586171","morph21_Oliver/Morris","74","55283","91","yes","1280","16"
