"ITI","acc","accuracy","average_response_time","avg_rt","background","bidi","canvas_backend","clock_backend","color_backend","compensation","cond_trig","condtrigtime","coordinates","coroutines_cycles","coroutines_duration","coroutines_mean_cycle_duration","correct","correct_instructions_1","correct_new_keyboard_response_1","count_AB_m21","count_ITI","count_blank_screen","count_blink_screen","count_block1","count_break1","count_break2","count_break3_1","count_canvas","count_correct_trigger","count_def_chain","count_end_screen","count_fixation_1","count_getting_started","count_inc_counter","count_incorrect_trigger","count_instructions_1","count_logger","count_logscript","count_new_coroutines","count_new_inline_script","count_new_keyboard_response_1","count_reset_counter_prep","count_reset_counter_run","count_responsescreen","count_sequence","count_start_trigger","count_target_present","count_word_trigger","counter","cresp","datetime","description","disable_garbage_collection","experiment_file","experiment_path","font_bold","font_family","font_italic","font_size","font_underline","foreground","form_clicks","fullscreen","height","keyboard_backend","live_row","live_row_block1","logfile","mouse_backend","opensesame_codename","opensesame_version","repeat_cycle","response","response_break1","response_break2","response_break3_1","response_end_screen","response_instructions_1","response_new_keyboard_response_1","response_time","response_time_break1","response_time_break2","response_time_break3_1","response_time_end_screen","response_time_instructions_1","response_time_new_keyboard_response_1","round_decimals","sampler_backend","sound_buf_size","sound_channels","sound_freq","sound_sample_size","start","subject_nr","subject_parity","targ_type","target","time_AB_m21","time_ITI","time_blank_screen","time_blink_screen","time_block1","time_break1","time_break2","time_break3_1","time_canvas","time_correct_trigger","time_def_chain","time_end_screen","time_fixation_1","time_getting_started","time_inc_counter","time_incorrect_trigger","time_instructions_1","time_logger","time_logscript","time_new_inline_script","time_new_keyboard_response_1","time_reset_counter_prep","time_reset_counter_run","time_responsescreen","time_sequence","time_start_trigger","time_target_present","time_word_trigger","title","total_correct","total_response_time","total_responses","uniform_coordinates","width","word_trig"
"400","0","0","992","992","black","no","xpyriment","legacy","legacy","0","207","NA","uniform","61291","1000","0.0163156091433","0","undefined","0","0","0","0","0","0","0","0","0","NA","0","0","0","0","NA","0","0","0","0","NA","0","NA","0","0","0","0","0","0","0","0","1","/","07/19/18 15:10:40","The main experiment item","yes","FIN__AB__M21__7%3A10%3A17.osexp","C:\Users\ERP Testing Room\Desktop\Joanna\morph21","no","mono","no","18","no","white","no","yes","1080","legacy","0","0","C:/Users/ERP Testing Room/Desktop/Joanna/morph21/subject-130.csv","xpyriment","Jazzy James","3.1.4","0","None","NA","NA","NA","NA","space","None","992","NA","NA","NA","NA","1938132","992","2","legacy","1024","2","48000","-16","AB_m21","130","even","FILL_W","EAT","1993","1943006","1941406","NA","1940134","NA","NA","NA","NA","NA","1941903","NA","1940901","NA","1940829","1942999","2002","1943406","NA","NA","1942006","1993","1993","1942398","1940829","1993","1942006","1943406","morph21_Oliver/Morris","0","992","1","yes","1280","25"
"350","50","50","854","854","black","no","xpyriment","legacy","legacy","0","208","NA","uniform","63366","1000","0.0157813338383","1","undefined","1","0","1","1","1","0","1","1","1","NA","1","1","0","1","NA","1","1","0","1","NA","1","NA","1","0","0","1","1","0","1","1","2","z","07/19/18 15:10:40","The main experiment item","yes","FIN__AB__M21__7%3A10%3A17.osexp","C:\Users\ERP Testing Room\Desktop\Joanna\morph21","no","mono","no","18","no","white","no","yes","1080","legacy","1","1","C:/Users/ERP Testing Room/Desktop/Joanna/morph21/subject-130.csv","xpyriment","Jazzy James","3.1.4","0","z","NA","NA","NA","NA","space","z","716","NA","NA","NA","NA","1938132","716","2","legacy","1024","2","48000","-16","AB_m21","130","even","FILL_NW","DASP","1993","1946283","1944699","NA","1940134","NA","NA","NA","NA","1946277","1945196","NA","1944199","NA","1944188","1946277","2002","1946633","NA","NA","1945283","1993","1993","1945682","1944188","1993","1945282","1946633","morph21_Oliver/Morris","1","1708","2","yes","1280","13"
"350","66.6666666667","66.6666666667","766.333333333","766.333333333","black","no","xpyriment","legacy","legacy","0","202","NA","uniform","72126","1000","0.0138646257937","1","undefined","1","0","2","2","2","0","2","2","2","NA","2","2","0","2","NA","2","2","0","2","NA","2","NA","2","0","0","2","2","0","2","2","3","/","07/19/18 15:10:40","The main experiment item","yes","FIN__AB__M21__7%3A10%3A17.osexp","C:\Users\ERP Testing Room\Desktop\Joanna\morph21","no","mono","no","18","no","white","no","yes","1080","legacy","2","2","C:/Users/ERP Testing Room/Desktop/Joanna/morph21/subject-130.csv","xpyriment","Jazzy James","3.1.4","0","/","NA","NA","NA","NA","space","/","591","NA","NA","NA","NA","1938132","591","2","legacy","1024","2","48000","-16","AB_m21","130","even","CW_L","RENTER","1993","1950933","1947816","1949424","1940134","NA","NA","NA","NA","1949419","1948313","NA","1947316","NA","1947306","1949419","2002","1951283","NA","NA","1948424","1993","1993","1948824","1947306","1993","1948424","1951283","morph21_Oliver/Morris","2","2299","3","yes","1280","9"
"250","75","75","755","755","black","no","xpyriment","legacy","legacy","0","201","NA","uniform","65407","1000","0.0152888834528","1","undefined","1","0","3","3","3","0","3","3","3","NA","3","3","0","3","NA","3","3","0","3","NA","3","NA","3","0","0","3","3","0","3","3","4","/","07/19/18 15:10:40","The main experiment item","yes","FIN__AB__M21__7%3A10%3A17.osexp","C:\Users\ERP Testing Room\Desktop\Joanna\morph21","no","mono","no","18","no","white","no","yes","1080","legacy","3","3","C:/Users/ERP Testing Room/Desktop/Joanna/morph21/subject-130.csv","xpyriment","Jazzy James","3.1.4","0","/","NA","NA","NA","NA","space","/","721","NA","NA","NA","NA","1938132","721","2","legacy","1024","2","48000","-16","AB_m21","130","even","CW_S","TOSSING","1993","1954141","1952558","1949424","1940134","NA","NA","NA","NA","1954135","1953055","NA","1952058","NA","1952052","1954135","2002","1954391","NA","NA","1953141","1993","1993","1953533","1952052","1993","1953141","1954391","morph21_Oliver/Morris","3","3020","4","yes","1280","26"
"300","80","80","799.8","799.8","black","no","xpyriment","legacy","legacy","0","204","NA","uniform","57638","1000","0.0173496651515","1","undefined","1","0","4","4","4","0","4","4","4","NA","4","4","0","4","NA","4","4","0","4","NA","4","NA","4","0","0","4","4","0","4","4","5","z","07/19/18 15:10:40","The main experiment item","yes","FIN__AB__M21__7%3A10%3A17.osexp","C:\Users\ERP Testing Room\Desktop\Joanna\morph21","no","mono","no","18","no","white","no","yes","1080","legacy","4","4","C:/Users/ERP Testing Room/Desktop/Joanna/morph21/subject-130.csv","xpyriment","Jazzy James","3.1.4","0","z","NA","NA","NA","NA","space","z","979","NA","NA","NA","NA","1938132","979","2","legacy","1024","2","48000","-16","AB_m21","130","even","NW_L_COMP","ILLIST","1993","1957275","1955666","1949424","1940134","NA","NA","NA","NA","1957269","1956163","NA","1955166","NA","1955156","1957269","2002","1957575","NA","NA","1956275","1993","1993","1956666","1955156","1993","1956275","1957575","morph21_Oliver/Morris","4","3999","5","yes","1280","9"
"250","83.3333333333","83.3333333333","781.166666667","781.166666667","black","no","xpyriment","legacy","legacy","0","208","NA","uniform","66741","1000","0.0149832936276","1","undefined","1","0","5","5","5","0","5","5","5","NA","5","5","0","5","NA","5","5","0","5","NA","5","NA","5","0","0","5","5","0","5","5","6","z","07/19/18 15:10:40","The main experiment item","yes","FIN__AB__M21__7%3A10%3A17.osexp","C:\Users\ERP Testing Room\Desktop\Joanna\morph21","no","mono","no","18","no","white","no","yes","1080","legacy","5","5","C:/Users/ERP Testing Room/Desktop/Joanna/morph21/subject-130.csv","xpyriment","Jazzy James","3.1.4","0","z","NA","NA","NA","NA","space","z","688","NA","NA","NA","NA","1938132","688","2","legacy","1024","2","48000","-16","AB_m21","130","even","FILL_NW","PLAODS","1993","1961859","1958766","1960350","1940134","NA","NA","NA","NA","1960345","1959264","NA","1958266","NA","1958263","1960345","2002","1962109","NA","NA","1959350","1993","1993","1959750","1958263","1993","1959350","1962109","morph21_Oliver/Morris","5","4687","6","yes","1280","37"
"400","71.4285714286","71.4285714286","771.714285714","771.714285714","black","no","xpyriment","legacy","legacy","0","208","NA","uniform","65265","1000","0.0153221481652","0","undefined","0","0","6","6","6","0","6","6","6","NA","6","6","0","6","NA","6","6","0","6","NA","6","NA","6","0","0","6","6","0","6","6","7","z","07/19/18 15:10:40","The main experiment item","yes","FIN__AB__M21__7%3A10%3A17.osexp","C:\Users\ERP Testing Room\Desktop\Joanna\morph21","no","mono","no","18","no","white","no","yes","1080","legacy","6","6","C:/Users/ERP Testing Room/Desktop/Joanna/morph21/subject-130.csv","xpyriment","Jazzy James","3.1.4","0","/","NA","NA","NA","NA","space","/","715","NA","NA","NA","NA","1938132","715","2","legacy","1024","2","48000","-16","AB_m21","130","even","FILL_NW","HEND","1993","1964884","1963293","1960350","1940134","NA","NA","NA","NA","1960345","1963790","NA","1962793","NA","1962789","1964874","2002","1965284","NA","NA","1963884","1993","1993","1964276","1962789","1993","1963884","1965284","morph21_Oliver/Morris","5","5402","7","yes","1280","28"
"250","62.5","62.5","799.75","799.75","black","no","xpyriment","legacy","legacy","0","204","NA","uniform","56629","1000","0.0176587967296","0","undefined","0","0","7","7","7","0","7","7","7","NA","7","7","0","7","NA","7","7","0","7","NA","7","NA","7","0","0","7","7","0","7","7","8","z","07/19/18 15:10:40","The main experiment item","yes","FIN__AB__M21__7%3A10%3A17.osexp","C:\Users\ERP Testing Room\Desktop\Joanna\morph21","no","mono","no","18","no","white","no","yes","1080","legacy","7","7","C:/Users/ERP Testing Room/Desktop/Joanna/morph21/subject-130.csv","xpyriment","Jazzy James","3.1.4","0","None","NA","NA","NA","NA","space","None","996","NA","NA","NA","NA","1938132","996","2","legacy","1024","2","48000","-16","AB_m21","130","even","NW_L_COMP","FREENESS","1993","1968101","1966501","1960350","1940134","NA","NA","NA","NA","1960345","1966998","NA","1966001","NA","1965996","1968097","2002","1968351","NA","NA","1967101","1993","1993","1967501","1965996","1993","1967101","1968351","morph21_Oliver/Morris","5","6398","8","yes","1280","15"
"400","66.6666666667","66.6666666667","783.666666667","783.666666667","black","no","xpyriment","legacy","legacy","0","208","NA","uniform","68389","1000","0.0146222345699","1","undefined","1","0","8","8","8","0","8","8","8","NA","8","8","0","8","NA","8","8","0","8","NA","8","NA","8","0","0","8","8","0","8","8","9","z","07/19/18 15:10:40","The main experiment item","yes","FIN__AB__M21__7%3A10%3A17.osexp","C:\Users\ERP Testing Room\Desktop\Joanna\morph21","no","mono","no","18","no","white","no","yes","1080","legacy","8","8","C:/Users/ERP Testing Room/Desktop/Joanna/morph21/subject-130.csv","xpyriment","Jazzy James","3.1.4","0","z","NA","NA","NA","NA","space","z","655","NA","NA","NA","NA","1938132","655","2","legacy","1024","2","48000","-16","AB_m21","130","even","FILL_NW","ULNS","1993","1972660","1969568","1971151","1940134","NA","NA","NA","NA","1971145","1970065","NA","1969068","NA","1969063","1971145","2002","1973060","NA","NA","1970151","1993","1993","1970543","1969063","1993","1970151","1973060","morph21_Oliver/Morris","6","7053","9","yes","1280","45"
"250","70","70","772.7","772.7","black","no","xpyriment","legacy","legacy","0","201","NA","uniform","65864","1000","0.0151828009231","1","undefined","1","0","9","9","9","0","9","9","9","NA","9","9","0","9","NA","9","9","0","9","NA","9","NA","9","0","0","9","9","0","9","9","10","/","07/19/18 15:10:40","The main experiment item","yes","FIN__AB__M21__7%3A10%3A17.osexp","C:\Users\ERP Testing Room\Desktop\Joanna\morph21","no","mono","no","18","no","white","no","yes","1080","legacy","9","9","C:/Users/ERP Testing Room/Desktop/Joanna/morph21/subject-130.csv","xpyriment","Jazzy James","3.1.4","0","/","NA","NA","NA","NA","space","/","674","NA","NA","NA","NA","1938132","674","2","legacy","1024","2","48000","-16","AB_m21","130","even","CW_S","JAILER","1993","1975860","1974276","1971151","1940134","NA","NA","NA","NA","1975855","1974774","NA","1973776","NA","1973774","1975855","2002","1976110","NA","NA","1974860","1993","1993","1975260","1973774","1993","1974860","1976110","morph21_Oliver/Morris","7","7727","10","yes","1280","13"
"200","72.7272727273","72.7272727273","763.363636364","763.363636364","black","no","xpyriment","legacy","legacy","0","201","NA","uniform","64077","1000","0.015606223762","1","undefined","1","0","10","10","10","0","10","10","10","NA","10","10","0","10","NA","10","10","0","10","NA","10","NA","10","0","0","10","10","0","10","10","11","/","07/19/18 15:10:40","The main experiment item","yes","FIN__AB__M21__7%3A10%3A17.osexp","C:\Users\ERP Testing Room\Desktop\Joanna\morph21","no","mono","no","18","no","white","no","yes","1080","legacy","10","10","C:/Users/ERP Testing Room/Desktop/Joanna/morph21/subject-130.csv","xpyriment","Jazzy James","3.1.4","0","/","NA","NA","NA","NA","space","/","670","NA","NA","NA","NA","1938132","670","2","legacy","1024","2","48000","-16","AB_m21","130","even","CW_S","THRUSTER","1993","1978960","1977335","1971151","1940134","NA","NA","NA","NA","1978955","1977832","NA","1976835","NA","1976829","1978955","2002","1979160","NA","NA","1977960","1993","1993","1978360","1976829","1993","1977960","1979160","morph21_Oliver/Morris","8","8397","11","yes","1280","24"
"300","75","75","751.916666667","751.916666667","black","no","xpyriment","legacy","legacy","0","201","NA","uniform","59844","1000","0.0167101129604","1","undefined","1","0","11","11","11","0","11","11","11","NA","11","11","0","11","NA","11","11","0","11","NA","11","NA","11","0","0","11","11","0","11","11","12","/","07/19/18 15:10:40","The main experiment item","yes","FIN__AB__M21__7%3A10%3A17.osexp","C:\Users\ERP Testing Room\Desktop\Joanna\morph21","no","mono","no","18","no","white","no","yes","1080","legacy","11","11","C:/Users/ERP Testing Room/Desktop/Joanna/morph21/subject-130.csv","xpyriment","Jazzy James","3.1.4","0","/","NA","NA","NA","NA","space","/","626","NA","NA","NA","NA","1938132","626","2","legacy","1024","2","48000","-16","AB_m21","130","even","CW_S","DETECTABLE","1993","1983578","1980453","1982069","1940134","NA","NA","NA","NA","1982060","1980950","NA","1979953","NA","1979942","1982060","2002","1983878","NA","NA","1981069","1993","1993","1981461","1979942","1993","1981069","1983878","morph21_Oliver/Morris","9","9023","12","yes","1280","1"
"400","76.9230769231","76.9230769231","743.230769231","743.230769231","black","no","xpyriment","legacy","legacy","0","201","NA","uniform","68464","1000","0.0146062164057","1","undefined","1","0","12","12","12","0","12","12","12","NA","12","12","0","12","NA","12","12","0","12","NA","12","NA","12","0","0","12","12","0","12","12","13","/","07/19/18 15:10:40","The main experiment item","yes","FIN__AB__M21__7%3A10%3A17.osexp","C:\Users\ERP Testing Room\Desktop\Joanna\morph21","no","mono","no","18","no","white","no","yes","1080","legacy","12","12","C:/Users/ERP Testing Room/Desktop/Joanna/morph21/subject-130.csv","xpyriment","Jazzy James","3.1.4","0","/","NA","NA","NA","NA","space","/","639","NA","NA","NA","NA","1938132","639","2","legacy","1024","2","48000","-16","AB_m21","130","even","CW_S","EFFORTLESS","1993","1986695","1985111","1982069","1940134","NA","NA","NA","NA","1986687","1985608","NA","1984611","NA","1984602","1986687","2002","1987095","NA","NA","1985695","1993","1993","1986086","1984602","1993","1985695","1987095","morph21_Oliver/Morris","10","9662","13","yes","1280","30"
"300","78.5714285714","78.5714285714","748.214285714","748.214285714","black","no","xpyriment","legacy","legacy","0","206","NA","uniform","63158","1000","0.0158333069445","1","undefined","1","0","13","13","13","0","13","13","13","NA","13","13","0","13","NA","13","13","0","13","NA","13","NA","13","0","0","13","13","0","13","13","14","z","07/19/18 15:10:40","The main experiment item","yes","FIN__AB__M21__7%3A10%3A17.osexp","C:\Users\ERP Testing Room\Desktop\Joanna\morph21","no","mono","no","18","no","white","no","yes","1080","legacy","13","13","C:/Users/ERP Testing Room/Desktop/Joanna/morph21/subject-130.csv","xpyriment","Jazzy James","3.1.4","0","z","NA","NA","NA","NA","space","z","813","NA","NA","NA","NA","1938132","813","2","legacy","1024","2","48000","-16","AB_m21","130","even","NW_L_SIMP","BEANITH","1993","1989945","1988361","1982069","1940134","NA","NA","NA","NA","1989940","1988859","NA","1987861","NA","1987854","1989940","2002","1990245","NA","NA","1988945","1993","1993","1989345","1987854","1993","1988945","1990245","morph21_Oliver/Morris","11","10475","14","yes","1280","8"
"300","80","80","739.333333333","739.333333333","black","no","xpyriment","legacy","legacy","0","201","NA","uniform","61988","1000","0.0161321546106","1","undefined","1","0","14","14","14","0","14","14","14","NA","14","14","0","14","NA","14","14","0","14","NA","14","NA","14","0","0","14","14","0","14","14","15","/","07/19/18 15:10:40","The main experiment item","yes","FIN__AB__M21__7%3A10%3A17.osexp","C:\Users\ERP Testing Room\Desktop\Joanna\morph21","no","mono","no","18","no","white","no","yes","1080","legacy","14","14","C:/Users/ERP Testing Room/Desktop/Joanna/morph21/subject-130.csv","xpyriment","Jazzy James","3.1.4","0","/","NA","NA","NA","NA","space","/","615","NA","NA","NA","NA","1938132","615","2","legacy","1024","2","48000","-16","AB_m21","130","even","CW_S","RISKY","1993","1994595","1991487","1993087","1940134","NA","NA","NA","NA","1993078","1991984","NA","1990987","NA","1990978","1993078","2002","1994895","NA","NA","1992087","1993","1993","1992478","1990978","1993","1992087","1994895","morph21_Oliver/Morris","12","11090","15","yes","1280","50"
"300","81.25","81.25","725.875","725.875","black","no","xpyriment","legacy","legacy","0","201","NA","uniform","68342","1000","0.0146322905388","1","undefined","1","0","15","15","15","0","15","15","15","NA","15","15","0","15","NA","15","15","0","15","NA","15","NA","15","0","0","15","15","0","15","15","16","/","07/19/18 15:10:40","The main experiment item","yes","FIN__AB__M21__7%3A10%3A17.osexp","C:\Users\ERP Testing Room\Desktop\Joanna\morph21","no","mono","no","18","no","white","no","yes","1080","legacy","15","15","C:/Users/ERP Testing Room/Desktop/Joanna/morph21/subject-130.csv","xpyriment","Jazzy James","3.1.4","0","/","NA","NA","NA","NA","space","/","524","NA","NA","NA","NA","1938132","524","2","legacy","1024","2","48000","-16","AB_m21","130","even","CW_S","BUYER","1993","1997763","1996178","1993087","1940134","NA","NA","NA","NA","1997756","1996676","NA","1995678","NA","1995671","1997756","2002","1998063","NA","NA","1996763","1993","1993","1997154","1995671","1993","1996763","1998063","morph21_Oliver/Morris","13","11614","16","yes","1280","21"
"250","82.3529411765","82.3529411765","716.647058824","716.647058824","black","no","xpyriment","legacy","legacy","0","201","NA","uniform","69288","1000","0.0144325135666","1","undefined","1","0","16","16","16","0","16","16","16","NA","16","16","0","16","NA","16","16","0","16","NA","16","NA","16","0","0","16","16","0","16","16","17","/","07/19/18 15:10:40","The main experiment item","yes","FIN__AB__M21__7%3A10%3A17.osexp","C:\Users\ERP Testing Room\Desktop\Joanna\morph21","no","mono","no","18","no","white","no","yes","1080","legacy","16","16","C:/Users/ERP Testing Room/Desktop/Joanna/morph21/subject-130.csv","xpyriment","Jazzy James","3.1.4","0","/","NA","NA","NA","NA","space","/","569","NA","NA","NA","NA","1938132","569","2","legacy","1024","2","48000","-16","AB_m21","130","even","CW_S","PEAKING","1993","2001030","1999430","1993087","1940134","NA","NA","NA","NA","2001020","1999927","NA","1998930","NA","1998923","2001020","2002","2001280","NA","NA","2000030","1993","1993","2000421","1998923","1993","2000030","2001280","morph21_Oliver/Morris","14","12183","17","yes","1280","28"
"300","83.3333333333","83.3333333333","714.5","714.5","black","no","xpyriment","legacy","legacy","0","208","NA","uniform","61926","1000","0.0161483060427","1","undefined","1","0","17","17","17","0","17","17","17","NA","17","17","0","17","NA","17","17","0","17","NA","17","NA","17","0","0","17","17","0","17","17","18","z","07/19/18 15:10:40","The main experiment item","yes","FIN__AB__M21__7%3A10%3A17.osexp","C:\Users\ERP Testing Room\Desktop\Joanna\morph21","no","mono","no","18","no","white","no","yes","1080","legacy","17","17","C:/Users/ERP Testing Room/Desktop/Joanna/morph21/subject-130.csv","xpyriment","Jazzy James","3.1.4","0","z","NA","NA","NA","NA","space","z","678","NA","NA","NA","NA","1938132","678","2","legacy","1024","2","48000","-16","AB_m21","130","even","FILL_NW","TREMP","1993","2005588","2002505","2004080","1940134","NA","NA","NA","NA","2004077","2003002","NA","2002005","NA","2001999","2004077","2002","2005888","NA","NA","2003088","1993","1993","2003480","2001999","1993","2003088","2005888","morph21_Oliver/Morris","15","12861","18","yes","1280","20"
"350","84.2105263158","84.2105263158","710.210526316","710.210526316","black","no","xpyriment","legacy","legacy","0","202","NA","uniform","67018","1000","0.0149213644096","1","undefined","1","0","18","18","18","0","18","18","18","NA","18","18","0","18","NA","18","18","0","18","NA","18","NA","18","0","0","18","18","0","18","18","19","/","07/19/18 15:10:40","The main experiment item","yes","FIN__AB__M21__7%3A10%3A17.osexp","C:\Users\ERP Testing Room\Desktop\Joanna\morph21","no","mono","no","18","no","white","no","yes","1080","legacy","18","18","C:/Users/ERP Testing Room/Desktop/Joanna/morph21/subject-130.csv","xpyriment","Jazzy James","3.1.4","0","/","NA","NA","NA","NA","space","/","633","NA","NA","NA","NA","1938132","633","2","legacy","1024","2","48000","-16","AB_m21","130","even","CW_L","PAINTER","1993","2008797","2007205","2004080","1940134","NA","NA","NA","NA","2008791","2007702","NA","2006705","NA","2006698","2008791","2002","2009147","NA","NA","2007797","1993","1993","2008188","2006697","1993","2007797","2009147","morph21_Oliver/Morris","16","13494","19","yes","1280","18"
"350","80","80","705.7","705.7","black","no","xpyriment","legacy","legacy","0","208","NA","uniform","63262","1000","0.0158072776706","0","undefined","0","0","19","19","19","0","19","19","19","NA","19","19","0","19","NA","19","19","0","19","NA","19","NA","19","0","0","19","19","0","19","19","20","z","07/19/18 15:10:40","The main experiment item","yes","FIN__AB__M21__7%3A10%3A17.osexp","C:\Users\ERP Testing Room\Desktop\Joanna\morph21","no","mono","no","18","no","white","no","yes","1080","legacy","19","19","C:/Users/ERP Testing Room/Desktop/Joanna/morph21/subject-130.csv","xpyriment","Jazzy James","3.1.4","0","/","NA","NA","NA","NA","space","/","620","NA","NA","NA","NA","1938132","620","2","legacy","1024","2","48000","-16","AB_m21","130","even","FILL_NW","JADS","1993","2011930","2010347","2004080","1940134","NA","NA","NA","NA","2008791","2010844","NA","2009847","NA","2009837","2011922","2002","2012280","NA","NA","2010930","1993","1993","2011322","2009837","1993","2010930","2012280","morph21_Oliver/Morris","16","14114","20","yes","1280","31"
"350","80.9523809524","80.9523809524","702.571428571","702.571428571","black","no","xpyriment","legacy","legacy","0","207","NA","uniform","62871","1000","0.0159055844507","1","undefined","1","0","20","20","20","0","20","20","20","NA","20","20","0","20","NA","20","20","0","20","NA","20","NA","20","0","0","20","20","0","20","20","21","/","07/19/18 15:10:40","The main experiment item","yes","FIN__AB__M21__7%3A10%3A17.osexp","C:\Users\ERP Testing Room\Desktop\Joanna\morph21","no","mono","no","18","no","white","no","yes","1080","legacy","20","20","C:/Users/ERP Testing Room/Desktop/Joanna/morph21/subject-130.csv","xpyriment","Jazzy James","3.1.4","0","/","NA","NA","NA","NA","space","/","640","NA","NA","NA","NA","1938132","640","2","legacy","1024","2","48000","-16","AB_m21","130","even","FILL_W","BRISK","1993","2016548","2013447","2015040","1940134","NA","NA","NA","NA","2015034","2013944","NA","2012938","NA","2012929","2015034","2002","2016898","NA","NA","2014039","1993","1993","2014431","2012929","1993","2014039","2016898","morph21_Oliver/Morris","17","14754","21","yes","1280","8"
"250","81.8181818182","81.8181818182","709.636363636","709.636363636","black","no","xpyriment","legacy","legacy","0","203","NA","uniform","60354","1000","0.0165689100971","1","undefined","1","0","21","21","21","0","21","21","21","NA","21","21","0","21","NA","21","21","0","21","NA","21","NA","21","0","0","21","21","0","21","21","22","z","07/19/18 15:10:40","The main experiment item","yes","FIN__AB__M21__7%3A10%3A17.osexp","C:\Users\ERP Testing Room\Desktop\Joanna\morph21","no","mono","no","18","no","white","no","yes","1080","legacy","21","21","C:/Users/ERP Testing Room/Desktop/Joanna/morph21/subject-130.csv","xpyriment","Jazzy James","3.1.4","0","z","NA","NA","NA","NA","space","z","858","NA","NA","NA","NA","1938132","858","2","legacy","1024","2","48000","-16","AB_m21","130","even","NW_S_COMP","TREASONIZE","1993","2019773","2018165","2015040","1940134","NA","NA","NA","NA","2019763","2018662","NA","2017665","NA","2017660","2019763","2002","2020023","NA","NA","2018773","1993","1993","2019165","2017660","1993","2018773","2020023","morph21_Oliver/Morris","18","15612","22","yes","1280","14"
"250","82.6086956522","82.6086956522","700.304347826","700.304347826","black","no","xpyriment","legacy","legacy","0","207","NA","uniform","71105","1000","0.0140637086","1","undefined","1","0","22","22","22","0","22","22","22","NA","22","22","0","22","NA","22","22","0","22","NA","22","NA","22","0","0","22","22","0","22","22","23","/","07/19/18 15:10:40","The main experiment item","yes","FIN__AB__M21__7%3A10%3A17.osexp","C:\Users\ERP Testing Room\Desktop\Joanna\morph21","no","mono","no","18","no","white","no","yes","1080","legacy","22","22","C:/Users/ERP Testing Room/Desktop/Joanna/morph21/subject-130.csv","xpyriment","Jazzy James","3.1.4","0","/","NA","NA","NA","NA","space","/","495","NA","NA","NA","NA","1938132","495","2","legacy","1024","2","48000","-16","AB_m21","130","even","FILL_W","COOK","1993","2022815","2021232","2015040","1940134","NA","NA","NA","NA","2022807","2021729","NA","2020732","NA","2020728","2022807","2002","2023065","NA","NA","2021815","1993","1993","2022207","2020728","1993","2021815","2023065","morph21_Oliver/Morris","19","16107","23","yes","1280","38"
"400","83.3333333333","83.3333333333","696.208333333","696.208333333","black","no","xpyriment","legacy","legacy","0","202","NA","uniform","70769","1000","0.0141304808603","1","undefined","1","0","23","23","23","0","23","23","23","NA","23","23","0","23","NA","23","23","0","23","NA","23","NA","23","0","0","23","23","0","23","23","24","/","07/19/18 15:10:40","The main experiment item","yes","FIN__AB__M21__7%3A10%3A17.osexp","C:\Users\ERP Testing Room\Desktop\Joanna\morph21","no","mono","no","18","no","white","no","yes","1080","legacy","23","23","C:/Users/ERP Testing Room/Desktop/Joanna/morph21/subject-130.csv","xpyriment","Jazzy James","3.1.4","0","/","NA","NA","NA","NA","space","/","602","NA","NA","NA","NA","1938132","602","2","legacy","1024","2","48000","-16","AB_m21","130","even","CW_L","COOLING","1993","2027448","2024357","2025940","1940134","NA","NA","NA","NA","2025933","2024854","NA","2023857","NA","2023847","2025933","2002","2027849","NA","NA","2024940","1993","1993","2025332","2023847","1993","2024940","2027849","morph21_Oliver/Morris","20","16709","24","yes","1280","24"
"350","84","84","695.36","695.36","black","no","xpyriment","legacy","legacy","0","201","NA","uniform","71550","1000","0.0139762403913","1","undefined","1","0","24","24","24","0","24","24","24","NA","24","24","0","24","NA","24","24","0","24","NA","24","NA","24","0","0","24","24","0","24","24","25","/","07/19/18 15:10:40","The main experiment item","yes","FIN__AB__M21__7%3A10%3A17.osexp","C:\Users\ERP Testing Room\Desktop\Joanna\morph21","no","mono","no","18","no","white","no","yes","1080","legacy","24","24","C:/Users/ERP Testing Room/Desktop/Joanna/morph21/subject-130.csv","xpyriment","Jazzy James","3.1.4","0","/","NA","NA","NA","NA","space","/","675","NA","NA","NA","NA","1938132","675","2","legacy","1024","2","48000","-16","AB_m21","130","even","CW_S","TOASTER","1993","2030715","2029132","2025940","1940134","NA","NA","NA","NA","2030711","2029629","NA","2028632","NA","2028624","2030711","2002","2031065","NA","NA","2029715","1993","1993","2030115","2028624","1993","2029715","2031065","morph21_Oliver/Morris","21","17384","25","yes","1280","10"
"250","84.6153846154","84.6153846154","693.576923077","693.576923077","black","no","xpyriment","legacy","legacy","0","201","NA","uniform","68165","1000","0.014670285337","1","undefined","1","0","25","25","25","0","25","25","25","NA","25","25","0","25","NA","25","25","0","25","NA","25","NA","25","0","0","25","25","0","25","25","26","/","07/19/18 15:10:40","The main experiment item","yes","FIN__AB__M21__7%3A10%3A17.osexp","C:\Users\ERP Testing Room\Desktop\Joanna\morph21","no","mono","no","18","no","white","no","yes","1080","legacy","25","25","C:/Users/ERP Testing Room/Desktop/Joanna/morph21/subject-130.csv","xpyriment","Jazzy James","3.1.4","0","/","NA","NA","NA","NA","space","/","649","NA","NA","NA","NA","1938132","649","2","legacy","1024","2","48000","-16","AB_m21","130","even","CW_S","HUGELY","1993","2033950","2032341","2025940","1940134","NA","NA","NA","NA","2033944","2032838","NA","2031841","NA","2031833","2033944","2002","2034200","NA","NA","2032950","1993","1993","2033341","2031833","1993","2032950","2034200","morph21_Oliver/Morris","22","18033","26","yes","1280","35"
"200","85.1851851852","85.1851851852","691.148148148","691.148148148","black","no","xpyriment","legacy","legacy","0","207","NA","uniform","68425","1000","0.0146145414688","1","undefined","1","0","26","26","26","0","26","26","26","NA","26","26","0","26","NA","26","26","0","26","NA","26","NA","26","0","0","26","26","0","26","26","27","/","07/19/18 15:10:40","The main experiment item","yes","FIN__AB__M21__7%3A10%3A17.osexp","C:\Users\ERP Testing Room\Desktop\Joanna\morph21","no","mono","no","18","no","white","no","yes","1080","legacy","26","26","C:/Users/ERP Testing Room/Desktop/Joanna/morph21/subject-130.csv","xpyriment","Jazzy James","3.1.4","0","/","NA","NA","NA","NA","space","/","628","NA","NA","NA","NA","1938132","628","2","legacy","1024","2","48000","-16","AB_m21","130","even","FILL_W","FLESH","1993","2038583","2035492","2037075","1940134","NA","NA","NA","NA","2037071","2035989","NA","2034991","NA","2034981","2037071","2002","2038783","NA","NA","2036075","1993","1993","2036475","2034981","1993","2036075","2038783","morph21_Oliver/Morris","23","18661","27","yes","1280","32"
"300","85.7142857143","85.7142857143","693.25","693.25","black","no","xpyriment","legacy","legacy","0","204","NA","uniform","59563","1000","0.0167889461578","1","undefined","1","0","27","27","27","0","27","27","27","NA","27","27","0","27","NA","27","27","0","27","NA","27","NA","27","0","0","27","27","0","27","27","28","z","07/19/18 15:10:40","The main experiment item","yes","FIN__AB__M21__7%3A10%3A17.osexp","C:\Users\ERP Testing Room\Desktop\Joanna\morph21","no","mono","no","18","no","white","no","yes","1080","legacy","27","27","C:/Users/ERP Testing Room/Desktop/Joanna/morph21/subject-130.csv","xpyriment","Jazzy James","3.1.4","0","z","NA","NA","NA","NA","space","z","750","NA","NA","NA","NA","1938132","750","2","legacy","1024","2","48000","-16","AB_m21","130","even","NW_L_COMP","KINGISM","1993","2041592","2040008","2037075","1940134","NA","NA","NA","NA","2041584","2040505","NA","2039508","NA","2039497","2041584","2002","2041892","NA","NA","2040592","1993","1993","2040983","2039497","1993","2040592","2041892","morph21_Oliver/Morris","24","19411","28","yes","1280","19"
"250","82.7586206897","82.7586206897","699.482758621","699.482758621","black","no","xpyriment","legacy","legacy","0","202","NA","uniform","59412","1000","0.0168316165084","0","undefined","0","0","28","28","28","0","28","28","28","NA","28","28","0","28","NA","28","28","0","28","NA","28","NA","28","0","0","28","28","0","28","28","29","/","07/19/18 15:10:40","The main experiment item","yes","FIN__AB__M21__7%3A10%3A17.osexp","C:\Users\ERP Testing Room\Desktop\Joanna\morph21","no","mono","no","18","no","white","no","yes","1080","legacy","28","28","C:/Users/ERP Testing Room/Desktop/Joanna/morph21/subject-130.csv","xpyriment","Jazzy James","3.1.4","0","z","NA","NA","NA","NA","space","z","874","NA","NA","NA","NA","1938132","874","2","legacy","1024","2","48000","-16","AB_m21","130","even","CW_L","EXCITEMENT","1993","2044684","2043100","2037075","1940134","NA","NA","NA","NA","2041584","2043597","NA","2042600","NA","2042597","2044676","2002","2044934","NA","NA","2043684","1993","1993","2044075","2042597","1993","2043683","2044934","morph21_Oliver/Morris","24","20285","29","yes","1280","38"
"200","83.3333333333","83.3333333333","700.4","700.4","black","no","xpyriment","legacy","legacy","0","202","NA","uniform","65613","1000","0.0152408821423","1","undefined","1","0","29","29","29","0","29","29","29","NA","29","29","0","29","NA","29","29","0","29","NA","29","NA","29","0","0","29","29","0","29","29","30","/","07/19/18 15:10:40","The main experiment item","yes","FIN__AB__M21__7%3A10%3A17.osexp","C:\Users\ERP Testing Room\Desktop\Joanna\morph21","no","mono","no","18","no","white","no","yes","1080","legacy","29","29","C:/Users/ERP Testing Room/Desktop/Joanna/morph21/subject-130.csv","xpyriment","Jazzy James","3.1.4","0","/","NA","NA","NA","NA","space","/","727","NA","NA","NA","NA","1938132","727","2","legacy","1024","2","48000","-16","AB_m21","130","even","CW_L","SHAMEFUL","1993","2049277","2046167","2047767","1940134","NA","NA","NA","NA","2047757","2046664","NA","2045667","NA","2045660","2047757","2002","2049477","NA","NA","2046767","1993","1993","2047159","2045660","1993","2046767","2049477","morph21_Oliver/Morris","25","21012","30","yes","1280","19"
"350","83.8709677419","83.8709677419","696.709677419","696.709677419","black","no","xpyriment","legacy","legacy","0","201","NA","uniform","73936","1000","0.0135252109933","1","undefined","1","0","30","30","30","0","30","30","30","NA","30","30","0","30","NA","30","30","0","30","NA","30","NA","30","0","0","30","30","0","30","30","31","/","07/19/18 15:10:40","The main experiment item","yes","FIN__AB__M21__7%3A10%3A17.osexp","C:\Users\ERP Testing Room\Desktop\Joanna\morph21","no","mono","no","18","no","white","no","yes","1080","legacy","30","30","C:/Users/ERP Testing Room/Desktop/Joanna/morph21/subject-130.csv","xpyriment","Jazzy James","3.1.4","0","/","NA","NA","NA","NA","space","/","586","NA","NA","NA","NA","1938132","586","2","legacy","1024","2","48000","-16","AB_m21","130","even","CW_S","CHILLY","1993","2052268","2050685","2047767","1940134","NA","NA","NA","NA","2052265","2051182","NA","2050185","NA","2050174","2052265","2002","2052618","NA","NA","2051277","1993","1993","2051668","2050174","1993","2051276","2052618","morph21_Oliver/Morris","26","21598","31","yes","1280","48"
"300","84.375","84.375","694.3125","694.3125","black","no","xpyriment","legacy","legacy","0","207","NA","uniform","73669","1000","0.0135742306805","1","undefined","1","0","31","31","31","0","31","31","31","NA","31","31","0","31","NA","31","31","0","31","NA","31","NA","31","0","0","31","31","0","31","31","32","/","07/19/18 15:10:40","The main experiment item","yes","FIN__AB__M21__7%3A10%3A17.osexp","C:\Users\ERP Testing Room\Desktop\Joanna\morph21","no","mono","no","18","no","white","no","yes","1080","legacy","31","31","C:/Users/ERP Testing Room/Desktop/Joanna/morph21/subject-130.csv","xpyriment","Jazzy James","3.1.4","0","/","NA","NA","NA","NA","space","/","620","NA","NA","NA","NA","1938132","620","2","legacy","1024","2","48000","-16","AB_m21","130","even","FILL_W","BOX","1993","2055435","2053852","2047767","1940134","NA","NA","NA","NA","2055430","2054349","NA","2053352","NA","2053345","2055430","2002","2055735","NA","NA","2054435","1993","1993","2054835","2053345","1993","2054435","2055735","morph21_Oliver/Morris","27","22218","32","yes","1280","42"
"350","84.8484848485","84.8484848485","689.757575758","689.757575758","black","no","xpyriment","legacy","legacy","0","202","NA","uniform","67975","1000","0.0147112909158","1","undefined","1","0","32","32","32","0","32","32","32","NA","32","32","0","32","NA","32","32","0","32","NA","32","NA","32","0","0","32","32","0","32","32","33","/","07/19/18 15:10:40","The main experiment item","yes","FIN__AB__M21__7%3A10%3A17.osexp","C:\Users\ERP Testing Room\Desktop\Joanna\morph21","no","mono","no","18","no","white","no","yes","1080","legacy","32","32","C:/Users/ERP Testing Room/Desktop/Joanna/morph21/subject-130.csv","xpyriment","Jazzy James","3.1.4","0","/","NA","NA","NA","NA","space","/","544","NA","NA","NA","NA","1938132","544","2","legacy","1024","2","48000","-16","AB_m21","130","even","CW_L","GUARDING","1993","2060019","2056927","2058510","1940134","NA","NA","NA","NA","2058506","2057424","NA","2056427","NA","2056417","2058506","2002","2060369","NA","NA","2057510","1993","1993","2057910","2056417","1993","2057510","2060369","morph21_Oliver/Morris","28","22762","33","yes","1280","26"
"400","85.2941176471","85.2941176471","685.352941176","685.352941176","black","no","xpyriment","legacy","legacy","0","202","NA","uniform","69000","1000","0.0144927536232","1","undefined","1","0","33","33","33","0","33","33","33","NA","33","33","0","33","NA","33","33","0","33","NA","33","NA","33","0","0","33","33","0","33","33","34","/","07/19/18 15:10:40","The main experiment item","yes","FIN__AB__M21__7%3A10%3A17.osexp","C:\Users\ERP Testing Room\Desktop\Joanna\morph21","no","mono","no","18","no","white","no","yes","1080","legacy","33","33","C:/Users/ERP Testing Room/Desktop/Joanna/morph21/subject-130.csv","xpyriment","Jazzy James","3.1.4","0","/","NA","NA","NA","NA","space","/","540","NA","NA","NA","NA","1938132","540","2","legacy","1024","2","48000","-16","AB_m21","130","even","CW_L","CLEANER","1993","2063185","2061594","2058510","1940134","NA","NA","NA","NA","2063182","2062091","NA","2061094","NA","2061090","2063182","2002","2063585","NA","NA","2062194","1993","1993","2062585","2061090","1993","2062194","2063585","morph21_Oliver/Morris","29","23302","34","yes","1280","15"
"400","85.7142857143","85.7142857143","682.6","682.6","black","no","xpyriment","legacy","legacy","0","204","NA","uniform","68642","1000","0.0145683400833","1","undefined","1","0","34","34","34","0","34","34","34","NA","34","34","0","34","NA","34","34","0","34","NA","34","NA","34","0","0","34","34","0","34","34","35","z","07/19/18 15:10:40","The main experiment item","yes","FIN__AB__M21__7%3A10%3A17.osexp","C:\Users\ERP Testing Room\Desktop\Joanna\morph21","no","mono","no","18","no","white","no","yes","1080","legacy","34","34","C:/Users/ERP Testing Room/Desktop/Joanna/morph21/subject-130.csv","xpyriment","Jazzy James","3.1.4","0","z","NA","NA","NA","NA","space","z","589","NA","NA","NA","NA","1938132","589","2","legacy","1024","2","48000","-16","AB_m21","130","even","NW_L_COMP","COLDITY","1993","2066369","2064785","2058510","1940134","NA","NA","NA","NA","2066365","2065283","NA","2064285","NA","2064277","2066365","2002","2066769","NA","NA","2065369","1993","1993","2065769","2064277","1993","2065369","2066769","morph21_Oliver/Morris","30","23891","35","yes","1280","10"
"300","86.1111111111","86.1111111111","682.194444444","682.194444444","black","no","xpyriment","legacy","legacy","0","205","NA","uniform","71133","1000","0.0140581727187","1","undefined","1","0","35","35","35","0","35","35","35","NA","35","35","0","35","NA","35","35","0","35","NA","35","NA","35","0","0","35","35","0","35","35","36","z","07/19/18 15:10:40","The main experiment item","yes","FIN__AB__M21__7%3A10%3A17.osexp","C:\Users\ERP Testing Room\Desktop\Joanna\morph21","no","mono","no","18","no","white","no","yes","1080","legacy","35","35","C:/Users/ERP Testing Room/Desktop/Joanna/morph21/subject-130.csv","xpyriment","Jazzy James","3.1.4","0","z","NA","NA","NA","NA","space","z","668","NA","NA","NA","NA","1938132","668","2","legacy","1024","2","48000","-16","AB_m21","130","even","NW_S_SIMP","SOCKETEL","1993","2071103","2068012","2069595","1940134","NA","NA","NA","NA","2069590","2068509","NA","2067512","NA","2067505","2069590","2002","2071404","NA","NA","2068595","1993","1993","2068995","2067505","1993","2068595","2071404","morph21_Oliver/Morris","31","24559","36","yes","1280","1"
"300","86.4864864865","86.4864864865","681.054054054","681.054054054","black","no","xpyriment","legacy","legacy","0","204","NA","uniform","71914","1000","0.013905498234","1","undefined","1","0","36","36","36","0","36","36","36","NA","36","36","0","36","NA","36","36","0","36","NA","36","NA","36","0","0","36","36","0","36","36","37","z","07/19/18 15:10:40","The main experiment item","yes","FIN__AB__M21__7%3A10%3A17.osexp","C:\Users\ERP Testing Room\Desktop\Joanna\morph21","no","mono","no","18","no","white","no","yes","1080","legacy","36","36","C:/Users/ERP Testing Room/Desktop/Joanna/morph21/subject-130.csv","xpyriment","Jazzy James","3.1.4","0","z","NA","NA","NA","NA","space","z","640","NA","NA","NA","NA","1938132","640","2","legacy","1024","2","48000","-16","AB_m21","130","even","NW_L_COMP","FELLOWOUS","1993","2074287","2072703","2069595","1940134","NA","NA","NA","NA","2074277","2073201","NA","2072203","NA","2072197","2074277","2002","2074587","NA","NA","2073287","1993","1993","2073678","2072197","1993","2073287","2074587","morph21_Oliver/Morris","32","25199","37","yes","1280","17"
"350","86.8421052632","86.8421052632","677.736842105","677.736842105","black","no","xpyriment","legacy","legacy","0","202","NA","uniform","68482","1000","0.014602377267","1","undefined","1","0","37","37","37","0","37","37","37","NA","37","37","0","37","NA","37","37","0","37","NA","37","NA","37","0","0","37","37","0","37","37","38","/","07/19/18 15:10:40","The main experiment item","yes","FIN__AB__M21__7%3A10%3A17.osexp","C:\Users\ERP Testing Room\Desktop\Joanna\morph21","no","mono","no","18","no","white","no","yes","1080","legacy","37","37","C:/Users/ERP Testing Room/Desktop/Joanna/morph21/subject-130.csv","xpyriment","Jazzy James","3.1.4","0","/","NA","NA","NA","NA","space","/","555","NA","NA","NA","NA","1938132","555","2","legacy","1024","2","48000","-16","AB_m21","130","even","CW_L","PUNCHER","1993","2077395","2075804","2069595","1940134","NA","NA","NA","NA","2077389","2076301","NA","2075304","NA","2075294","2077389","2002","2077745","NA","NA","2076395","1993","1993","2076787","2075294","1993","2076395","2077745","morph21_Oliver/Morris","33","25754","38","yes","1280","1"
"300","87.1794871795","87.1794871795","677.769230769","677.769230769","black","no","xpyriment","legacy","legacy","0","205","NA","uniform","71319","1000","0.0140215089948","1","undefined","1","0","38","38","38","0","38","38","38","NA","38","38","0","38","NA","38","38","0","38","NA","38","NA","38","0","0","38","38","0","38","38","39","z","07/19/18 15:10:40","The main experiment item","yes","FIN__AB__M21__7%3A10%3A17.osexp","C:\Users\ERP Testing Room\Desktop\Joanna\morph21","no","mono","no","18","no","white","no","yes","1080","legacy","38","38","C:/Users/ERP Testing Room/Desktop/Joanna/morph21/subject-130.csv","xpyriment","Jazzy James","3.1.4","0","z","NA","NA","NA","NA","space","z","679","NA","NA","NA","NA","1938132","679","2","legacy","1024","2","48000","-16","AB_m21","130","even","NW_S_SIMP","YIELDILT","1993","2082004","2078912","2080495","1940134","NA","NA","NA","NA","2080487","2079409","NA","2078412","NA","2078407","2080487","2002","2082304","NA","NA","2079495","1993","1993","2079887","2078407","1993","2079495","2082304","morph21_Oliver/Morris","34","26433","39","yes","1280","20"
"200","85","85","685.7","685.7","black","no","xpyriment","legacy","legacy","0","208","NA","uniform","56321","1000","0.0177553665595","0","undefined","0","0","39","39","39","0","39","39","39","NA","39","39","0","39","NA","39","39","0","39","NA","39","NA","39","0","0","39","39","0","39","39","40","z","07/19/18 15:10:40","The main experiment item","yes","FIN__AB__M21__7%3A10%3A17.osexp","C:\Users\ERP Testing Room\Desktop\Joanna\morph21","no","mono","no","18","no","white","no","yes","1080","legacy","39","39","C:/Users/ERP Testing Room/Desktop/Joanna/morph21/subject-130.csv","xpyriment","Jazzy James","3.1.4","0","None","NA","NA","NA","NA","space","None","995","NA","NA","NA","NA","1938132","995","2","legacy","1024","2","48000","-16","AB_m21","130","even","FILL_NW","FALONS","1993","2085105","2083521","2080495","1940134","NA","NA","NA","NA","2080487","2084018","NA","2083021","NA","2083011","2085100","2002","2085305","NA","NA","2084105","1993","1993","2084505","2083011","1993","2084105","2085305","morph21_Oliver/Morris","34","27428","40","yes","1280","19"
"200","85.3658536585","85.3658536585","688.463414634","688.463414634","black","no","xpyriment","legacy","legacy","0","203","NA","uniform","64243","1000","0.0155658982302","1","undefined","1","0","40","40","40","0","40","40","40","NA","40","40","0","40","NA","40","40","0","40","NA","40","NA","40","0","0","40","40","0","40","40","41","z","07/19/18 15:10:40","The main experiment item","yes","FIN__AB__M21__7%3A10%3A17.osexp","C:\Users\ERP Testing Room\Desktop\Joanna\morph21","no","mono","no","18","no","white","no","yes","1080","legacy","40","40","C:/Users/ERP Testing Room/Desktop/Joanna/morph21/subject-130.csv","xpyriment","Jazzy James","3.1.4","0","z","NA","NA","NA","NA","space","z","799","NA","NA","NA","NA","1938132","799","2","legacy","1024","2","48000","-16","AB_m21","130","even","NW_S_COMP","DUMBITY","1993","2088072","2086488","2080495","1940134","NA","NA","NA","NA","2088065","2086986","NA","2085988","NA","2085985","2088065","2002","2088272","NA","NA","2087072","1993","1993","2087463","2085985","1993","2087072","2088272","morph21_Oliver/Morris","35","28227","41","yes","1280","12"
"350","85.7142857143","85.7142857143","695.5","695.5","black","no","xpyriment","legacy","legacy","0","204","NA","uniform","52959","1000","0.0188825317699","1","undefined","1","0","41","41","41","0","41","41","41","NA","41","41","0","41","NA","41","41","0","41","NA","41","NA","41","0","0","41","41","0","41","41","42","z","07/19/18 15:10:40","The main experiment item","yes","FIN__AB__M21__7%3A10%3A17.osexp","C:\Users\ERP Testing Room\Desktop\Joanna\morph21","no","mono","no","18","no","white","no","yes","1080","legacy","41","41","C:/Users/ERP Testing Room/Desktop/Joanna/morph21/subject-130.csv","xpyriment","Jazzy James","3.1.4","0","z","NA","NA","NA","NA","space","z","984","NA","NA","NA","NA","1938132","984","2","legacy","1024","2","48000","-16","AB_m21","130","even","NW_L_COMP","INKISM","1993","2092564","2089464","2091055","1940134","NA","NA","NA","NA","2091051","2089961","NA","2088964","NA","2088957","2091051","2002","2092914","NA","NA","2090055","1993","1993","2090455","2088957","1993","2090055","2092914","morph21_Oliver/Morris","36","29211","42","yes","1280","8"
"350","86.0465116279","86.0465116279","694.069767442","694.069767442","black","no","xpyriment","legacy","legacy","0","202","NA","uniform","73126","1000","0.0136750266663","1","undefined","1","0","42","42","42","0","42","42","42","NA","42","42","0","42","NA","42","42","0","42","NA","42","NA","42","0","0","42","42","0","42","42","43","/","07/19/18 15:10:40","The main experiment item","yes","FIN__AB__M21__7%3A10%3A17.osexp","C:\Users\ERP Testing Room\Desktop\Joanna\morph21","no","mono","no","18","no","white","no","yes","1080","legacy","42","42","C:/Users/ERP Testing Room/Desktop/Joanna/morph21/subject-130.csv","xpyriment","Jazzy James","3.1.4","0","/","NA","NA","NA","NA","space","/","634","NA","NA","NA","NA","1938132","634","2","legacy","1024","2","48000","-16","AB_m21","130","even","CW_L","GUILELESS","1993","2095772","2094189","2091055","1940134","NA","NA","NA","NA","2095766","2094686","NA","2093680","NA","2093677","2095766","2002","2096122","NA","NA","2094772","1993","1993","2095164","2093677","1993","2094772","2096122","morph21_Oliver/Morris","37","29845","43","yes","1280","31"
"350","86.3636363636","86.3636363636","696.045454545","696.045454545","black","no","xpyriment","legacy","legacy","0","201","NA","uniform","61772","1000","0.0161885643981","1","undefined","1","0","43","43","43","0","43","43","43","NA","43","43","0","43","NA","43","43","0","43","NA","43","NA","43","0","0","43","43","0","43","43","44","/","07/19/18 15:10:40","The main experiment item","yes","FIN__AB__M21__7%3A10%3A17.osexp","C:\Users\ERP Testing Room\Desktop\Joanna\morph21","no","mono","no","18","no","white","no","yes","1080","legacy","43","43","C:/Users/ERP Testing Room/Desktop/Joanna/morph21/subject-130.csv","xpyriment","Jazzy James","3.1.4","0","/","NA","NA","NA","NA","space","/","781","NA","NA","NA","NA","1938132","781","2","legacy","1024","2","48000","-16","AB_m21","130","even","CW_S","STRANGENESS","1993","2098897","2097314","2091055","1940134","NA","NA","NA","NA","2098890","2097811","NA","2096806","NA","2096800","2098890","2002","2099247","NA","NA","2097897","1993","1993","2098289","2096799","1993","2097897","2099247","morph21_Oliver/Morris","38","30626","44","yes","1280","46"
"300","86.6666666667","86.6666666667","695.955555556","695.955555556","black","no","xpyriment","legacy","legacy","0","205","NA","uniform","60212","1000","0.0166079851192","1","undefined","1","0","44","44","44","0","44","44","44","NA","44","44","0","44","NA","44","44","0","44","NA","44","NA","44","0","0","44","44","0","44","44","45","z","07/19/18 15:10:40","The main experiment item","yes","FIN__AB__M21__7%3A10%3A17.osexp","C:\Users\ERP Testing Room\Desktop\Joanna\morph21","no","mono","no","18","no","white","no","yes","1080","legacy","44","44","C:/Users/ERP Testing Room/Desktop/Joanna/morph21/subject-130.csv","xpyriment","Jazzy James","3.1.4","0","z","NA","NA","NA","NA","space","z","692","NA","NA","NA","NA","1938132","692","2","legacy","1024","2","48000","-16","AB_m21","130","even","NW_S_SIMP","FEVERIME","1993","2103640","2100531","2102132","1940134","NA","NA","NA","NA","2102126","2101028","NA","2100031","NA","2100022","2102126","2002","2103940","NA","NA","2101131","1993","1993","2101523","2100022","1993","2101131","2103940","morph21_Oliver/Morris","39","31318","45","yes","1280","24"
"250","84.7826086957","84.7826086957","702.391304348","702.391304348","black","no","xpyriment","legacy","legacy","0","201","NA","uniform","56964","1000","0.0175549469841","0","undefined","0","0","45","45","45","0","45","45","45","NA","45","45","0","45","NA","45","45","0","45","NA","45","NA","45","0","0","45","45","0","45","45","46","/","07/19/18 15:10:40","The main experiment item","yes","FIN__AB__M21__7%3A10%3A17.osexp","C:\Users\ERP Testing Room\Desktop\Joanna\morph21","no","mono","no","18","no","white","no","yes","1080","legacy","45","45","C:/Users/ERP Testing Room/Desktop/Joanna/morph21/subject-130.csv","xpyriment","Jazzy James","3.1.4","0","None","NA","NA","NA","NA","space","None","992","NA","NA","NA","NA","1938132","992","2","legacy","1024","2","48000","-16","AB_m21","130","even","CW_S","GRIMLY","1993","2106749","2105157","2102132","1940134","NA","NA","NA","NA","2102126","2105654","NA","2104657","NA","2104650","2106742","2002","2106999","NA","NA","2105749","1993","1993","2106140","2104650","1993","2105749","2106999","morph21_Oliver/Morris","39","32310","46","yes","1280","31"
"300","85.1063829787","85.1063829787","702.212765957","702.212765957","black","no","xpyriment","legacy","legacy","0","207","NA","uniform","61812","1000","0.0161780883971","1","undefined","1","0","46","46","46","0","46","46","46","NA","46","46","0","46","NA","46","46","0","46","NA","46","NA","46","0","0","46","46","0","46","46","47","/","07/19/18 15:10:40","The main experiment item","yes","FIN__AB__M21__7%3A10%3A17.osexp","C:\Users\ERP Testing Room\Desktop\Joanna\morph21","no","mono","no","18","no","white","no","yes","1080","legacy","46","46","C:/Users/ERP Testing Room/Desktop/Joanna/morph21/subject-130.csv","xpyriment","Jazzy James","3.1.4","0","/","NA","NA","NA","NA","space","/","694","NA","NA","NA","NA","1938132","694","2","legacy","1024","2","48000","-16","AB_m21","130","even","FILL_W","BLUNT","1993","2109840","2108215","2102132","1940134","NA","NA","NA","NA","2109838","2108712","NA","2107715","NA","2107709","2109838","2002","2110140","NA","NA","2108849","1993","1993","2109240","2107709","1993","2108849","2110140","morph21_Oliver/Morris","40","33004","47","yes","1280","4"
"300","85.4166666667","85.4166666667","703.125","703.125","black","no","xpyriment","legacy","legacy","0","205","NA","uniform","63049","1000","0.0158606797887","1","undefined","1","0","47","47","47","0","47","47","47","NA","47","47","0","47","NA","47","47","0","47","NA","47","NA","47","0","0","47","47","0","47","47","48","z","07/19/18 15:10:40","The main experiment item","yes","FIN__AB__M21__7%3A10%3A17.osexp","C:\Users\ERP Testing Room\Desktop\Joanna\morph21","no","mono","no","18","no","white","no","yes","1080","legacy","47","47","C:/Users/ERP Testing Room/Desktop/Joanna/morph21/subject-130.csv","xpyriment","Jazzy James","3.1.4","0","z","NA","NA","NA","NA","space","z","746","NA","NA","NA","NA","1938132","746","2","legacy","1024","2","48000","-16","AB_m21","130","even","NW_S_SIMP","HEIRIG","1993","2114432","2111324","2112924","1940134","NA","NA","NA","NA","2112914","2111821","NA","2110824","NA","2110818","2112914","2002","2114733","NA","NA","2111924","1993","1993","2112315","2110818","1993","2111924","2114733","morph21_Oliver/Morris","41","33750","48","yes","1280","3"
"400","85.7142857143","85.7142857143","703.040816327","703.040816327","black","no","xpyriment","legacy","legacy","0","202","NA","uniform","62019","1000","0.0161240910044","1","undefined","1","0","48","48","48","0","48","48","48","NA","48","48","0","48","NA","48","48","0","48","NA","48","NA","48","0","0","48","48","0","48","48","49","/","07/19/18 15:10:40","The main experiment item","yes","FIN__AB__M21__7%3A10%3A17.osexp","C:\Users\ERP Testing Room\Desktop\Joanna\morph21","no","mono","no","18","no","white","no","yes","1080","legacy","48","48","C:/Users/ERP Testing Room/Desktop/Joanna/morph21/subject-130.csv","xpyriment","Jazzy James","3.1.4","0","/","NA","NA","NA","NA","space","/","699","NA","NA","NA","NA","1938132","699","2","legacy","1024","2","48000","-16","AB_m21","130","even","CW_L","WRONGLY","1993","2117499","2115916","2112924","1940134","NA","NA","NA","NA","2117493","2116413","NA","2115416","NA","2115405","2117493","2002","2117899","NA","NA","2116499","1993","1993","2116891","2115405","1993","2116499","2117899","morph21_Oliver/Morris","42","34449","49","yes","1280","37"
"350","86","86","701.5","701.5","black","no","xpyriment","legacy","legacy","0","203","NA","uniform","62896","1000","0.0158992622742","1","undefined","1","0","49","49","49","0","49","49","49","NA","49","49","0","49","NA","49","49","0","49","NA","49","NA","49","0","0","49","49","0","49","49","50","z","07/19/18 15:10:40","The main experiment item","yes","FIN__AB__M21__7%3A10%3A17.osexp","C:\Users\ERP Testing Room\Desktop\Joanna\morph21","no","mono","no","18","no","white","no","yes","1080","legacy","49","49","C:/Users/ERP Testing Room/Desktop/Joanna/morph21/subject-130.csv","xpyriment","Jazzy James","3.1.4","0","z","NA","NA","NA","NA","space","z","626","NA","NA","NA","NA","1938132","626","2","legacy","1024","2","48000","-16","AB_m21","130","even","NW_S_COMP","WELDIC","1993","2120717","2119109","2112924","1940134","NA","NA","NA","NA","2120712","2119606","NA","2118608","NA","2118603","2120712","2002","2121067","NA","NA","2119717","1993","1993","2120117","2118603","1993","2119717","2121067","morph21_Oliver/Morris","43","35075","50","yes","1280","21"
"350","86.2745098039","86.2745098039","700.078431373","700.078431373","black","no","xpyriment","legacy","legacy","0","202","NA","uniform","62725","1000","0.0159426066162","1","undefined","1","0","50","50","50","0","50","50","50","NA","50","50","0","50","NA","50","50","0","50","NA","50","NA","50","0","0","50","50","0","50","50","51","/","07/19/18 15:10:40","The main experiment item","yes","FIN__AB__M21__7%3A10%3A17.osexp","C:\Users\ERP Testing Room\Desktop\Joanna\morph21","no","mono","no","18","no","white","no","yes","1080","legacy","50","50","C:/Users/ERP Testing Room/Desktop/Joanna/morph21/subject-130.csv","xpyriment","Jazzy James","3.1.4","0","/","NA","NA","NA","NA","space","/","629","NA","NA","NA","NA","1938132","629","2","legacy","1024","2","48000","-16","AB_m21","130","even","CW_L","BARKER","1993","2125342","2122250","2123834","1940134","NA","NA","NA","NA","2123831","2122747","NA","2121750","NA","2121743","2123831","2002","2125692","NA","NA","2122834","1993","1993","2123234","2121743","1993","2122834","2125692","morph21_Oliver/Morris","44","35704","51","yes","1280","2"
"300","86.5384615385","86.5384615385","698.692307692","698.692307692","black","no","xpyriment","legacy","legacy","0","201","NA","uniform","62597","1000","0.0159752064795","1","undefined","1","0","51","51","51","0","51","51","51","NA","51","51","0","51","NA","51","51","0","51","NA","51","NA","51","0","0","51","51","0","51","51","52","/","07/19/18 15:10:40","The main experiment item","yes","FIN__AB__M21__7%3A10%3A17.osexp","C:\Users\ERP Testing Room\Desktop\Joanna\morph21","no","mono","no","18","no","white","no","yes","1080","legacy","51","51","C:/Users/ERP Testing Room/Desktop/Joanna/morph21/subject-130.csv","xpyriment","Jazzy James","3.1.4","0","/","NA","NA","NA","NA","space","/","628","NA","NA","NA","NA","1938132","628","2","legacy","1024","2","48000","-16","AB_m21","130","even","CW_S","MAGICAL","1993","2128626","2127000","2123834","1940134","NA","NA","NA","NA","2128617","2127498","NA","2126501","NA","2126490","2128617","2002","2128926","NA","NA","2127626","1993","1993","2128017","2126490","1993","2127625","2128926","morph21_Oliver/Morris","45","36332","52","yes","1280","4"
"300","86.7924528302","86.7924528302","696.660377358","696.660377358","black","no","xpyriment","legacy","legacy","0","201","NA","uniform","73989","1000","0.0135155225777","1","undefined","1","0","52","52","52","0","52","52","52","NA","52","52","0","52","NA","52","52","0","52","NA","52","NA","52","0","0","52","52","0","52","52","53","/","07/19/18 15:10:40","The main experiment item","yes","FIN__AB__M21__7%3A10%3A17.osexp","C:\Users\ERP Testing Room\Desktop\Joanna\morph21","no","mono","no","18","no","white","no","yes","1080","legacy","52","52","C:/Users/ERP Testing Room/Desktop/Joanna/morph21/subject-130.csv","xpyriment","Jazzy James","3.1.4","0","/","NA","NA","NA","NA","space","/","591","NA","NA","NA","NA","1938132","591","2","legacy","1024","2","48000","-16","AB_m21","130","even","CW_S","INSISTENT","1993","2131751","2130159","2123834","1940134","NA","NA","NA","NA","2131744","2130656","NA","2129659","NA","2129649","2131744","2002","2132051","NA","NA","2130751","1993","1993","2131142","2129649","1993","2130751","2132051","morph21_Oliver/Morris","46","36923","53","yes","1280","9"
"300","87.037037037","87.037037037","697.259259259","697.259259259","black","no","xpyriment","legacy","legacy","0","205","NA","uniform","64610","1000","0.0154774802662","1","undefined","1","0","53","53","53","0","53","53","53","NA","53","53","0","53","NA","53","53","0","53","NA","53","NA","53","0","0","53","53","0","53","53","54","z","07/19/18 15:10:40","The main experiment item","yes","FIN__AB__M21__7%3A10%3A17.osexp","C:\Users\ERP Testing Room\Desktop\Joanna\morph21","no","mono","no","18","no","white","no","yes","1080","legacy","53","53","C:/Users/ERP Testing Room/Desktop/Joanna/morph21/subject-130.csv","xpyriment","Jazzy James","3.1.4","0","z","NA","NA","NA","NA","space","z","729","NA","NA","NA","NA","1938132","729","2","legacy","1024","2","48000","-16","AB_m21","130","even","NW_S_SIMP","WINKIDY","1993","2136409","2133292","2134901","1940134","NA","NA","NA","NA","2134897","2133790","NA","2132792","NA","2132786","2134897","2002","2136709","NA","NA","2133901","1993","1993","2134301","2132786","1993","2133901","2136709","morph21_Oliver/Morris","47","37652","54","yes","1280","21"
"400","87.2727272727","87.2727272727","696.254545455","696.254545455","black","no","xpyriment","legacy","legacy","0","205","NA","uniform","63103","1000","0.0158471071106","1","undefined","1","0","54","54","54","0","54","54","54","NA","54","54","0","54","NA","54","54","0","54","NA","54","NA","54","0","0","54","54","0","54","54","55","z","07/19/18 15:10:40","The main experiment item","yes","FIN__AB__M21__7%3A10%3A17.osexp","C:\Users\ERP Testing Room\Desktop\Joanna\morph21","no","mono","no","18","no","white","no","yes","1080","legacy","54","54","C:/Users/ERP Testing Room/Desktop/Joanna/morph21/subject-130.csv","xpyriment","Jazzy James","3.1.4","0","z","NA","NA","NA","NA","space","z","642","NA","NA","NA","NA","1938132","642","2","legacy","1024","2","48000","-16","AB_m21","130","even","NW_S_SIMP","URNILT","1993","2139460","2137894","2134901","1940134","NA","NA","NA","NA","2139457","2138391","NA","2137394","NA","2137386","2139457","2002","2139861","NA","NA","2138469","1993","1993","2138860","2137386","1993","2138469","2139861","morph21_Oliver/Morris","48","38294","55","yes","1280","5"
"250","87.5","87.5","695.017857143","695.017857143","black","no","xpyriment","legacy","legacy","0","207","NA","uniform","68113","1000","0.014681485179","1","undefined","1","0","55","55","55","0","55","55","55","NA","55","55","0","55","NA","55","55","0","55","NA","55","NA","55","0","0","55","55","0","55","55","56","/","07/19/18 15:10:40","The main experiment item","yes","FIN__AB__M21__7%3A10%3A17.osexp","C:\Users\ERP Testing Room\Desktop\Joanna\morph21","no","mono","no","18","no","white","no","yes","1080","legacy","55","55","C:/Users/ERP Testing Room/Desktop/Joanna/morph21/subject-130.csv","xpyriment","Jazzy James","3.1.4","0","/","NA","NA","NA","NA","space","/","627","NA","NA","NA","NA","1938132","627","2","legacy","1024","2","48000","-16","AB_m21","130","even","FILL_W","SPLICE","1993","2142661","2141077","2134901","1940134","NA","NA","NA","NA","2142656","2141574","NA","2140577","NA","2140569","2142656","2002","2142911","NA","NA","2141660","1993","1993","2142060","2140569","1993","2141660","2142911","morph21_Oliver/Morris","49","38921","56","yes","1280","22"
"200","87.7192982456","87.7192982456","695.578947368","695.578947368","black","no","xpyriment","legacy","legacy","0","208","NA","uniform","66271","1000","0.0150895565179","1","undefined","1","0","56","56","56","0","56","56","56","NA","56","56","0","56","NA","56","56","0","56","NA","56","NA","56","0","0","56","56","0","56","56","57","z","07/19/18 15:10:40","The main experiment item","yes","FIN__AB__M21__7%3A10%3A17.osexp","C:\Users\ERP Testing Room\Desktop\Joanna\morph21","no","mono","no","18","no","white","no","yes","1080","legacy","56","56","C:/Users/ERP Testing Room/Desktop/Joanna/morph21/subject-130.csv","xpyriment","Jazzy James","3.1.4","0","z","NA","NA","NA","NA","space","z","727","NA","NA","NA","NA","1938132","727","2","legacy","1024","2","48000","-16","AB_m21","130","even","FILL_NW","SMADE","1993","2147236","2144102","2145727","1940134","NA","NA","NA","NA","2145720","2144599","NA","2143602","NA","2143599","2145720","2002","2147436","NA","NA","2144727","1993","1993","2145119","2143599","1993","2144727","2147436","morph21_Oliver/Morris","50","39648","57","yes","1280","42"
"350","87.9310344828","87.9310344828","695.379310345","695.379310345","black","no","xpyriment","legacy","legacy","0","208","NA","uniform","71280","1000","0.0140291806958","1","undefined","1","0","57","57","57","0","57","57","57","NA","57","57","0","57","NA","57","57","0","57","NA","57","NA","57","0","0","57","57","0","57","57","58","z","07/19/18 15:10:40","The main experiment item","yes","FIN__AB__M21__7%3A10%3A17.osexp","C:\Users\ERP Testing Room\Desktop\Joanna\morph21","no","mono","no","18","no","white","no","yes","1080","legacy","57","57","C:/Users/ERP Testing Room/Desktop/Joanna/morph21/subject-130.csv","xpyriment","Jazzy James","3.1.4","0","z","NA","NA","NA","NA","space","z","684","NA","NA","NA","NA","1938132","684","2","legacy","1024","2","48000","-16","AB_m21","130","even","FILL_NW","KRAISE","1993","2150194","2148611","2145727","1940134","NA","NA","NA","NA","2150186","2149108","NA","2148111","NA","2148107","2150186","2002","2150544","NA","NA","2149194","1993","1993","2149586","2148107","1993","2149194","2150544","morph21_Oliver/Morris","51","40332","58","yes","1280","33"
"200","88.1355932203","88.1355932203","698.593220339","698.593220339","black","no","xpyriment","legacy","legacy","0","203","NA","uniform","64352","1000","0.0155395325709","1","undefined","1","0","58","58","58","0","58","58","58","NA","58","58","0","58","NA","58","58","0","58","NA","58","NA","58","0","0","58","58","0","58","58","59","z","07/19/18 15:10:40","The main experiment item","yes","FIN__AB__M21__7%3A10%3A17.osexp","C:\Users\ERP Testing Room\Desktop\Joanna\morph21","no","mono","no","18","no","white","no","yes","1080","legacy","58","58","C:/Users/ERP Testing Room/Desktop/Joanna/morph21/subject-130.csv","xpyriment","Jazzy James","3.1.4","0","z","NA","NA","NA","NA","space","z","885","NA","NA","NA","NA","1938132","885","2","legacy","1024","2","48000","-16","AB_m21","130","even","NW_S_COMP","ADOPTISH","1993","2153369","2151786","2145727","1940134","NA","NA","NA","NA","2153365","2152283","NA","2151286","NA","2151281","2153365","2002","2153569","NA","NA","2152369","1993","1993","2152769","2151281","1993","2152369","2153569","morph21_Oliver/Morris","52","41217","59","yes","1280","19"
"200","88.3333333333","88.3333333333","699.45","699.45","black","no","xpyriment","legacy","legacy","0","206","NA","uniform","64332","1000","0.0155443636138","1","undefined","1","0","59","59","59","0","59","59","59","NA","59","59","0","59","NA","59","59","0","59","NA","59","NA","59","0","0","59","59","0","59","59","60","z","07/19/18 15:10:40","The main experiment item","yes","FIN__AB__M21__7%3A10%3A17.osexp","C:\Users\ERP Testing Room\Desktop\Joanna\morph21","no","mono","no","18","no","white","no","yes","1080","legacy","59","59","C:/Users/ERP Testing Room/Desktop/Joanna/morph21/subject-130.csv","xpyriment","Jazzy James","3.1.4","0","z","NA","NA","NA","NA","space","z","750","NA","NA","NA","NA","1938132","750","2","legacy","1024","2","48000","-16","AB_m21","130","even","NW_L_SIMP","GROWILT","1993","2157837","2154729","2156329","1940134","NA","NA","NA","NA","2156320","2155226","NA","2154229","NA","2154221","2156320","2002","2158037","NA","NA","2155329","1993","1993","2155720","2154221","1993","2155329","2158037","morph21_Oliver/Morris","53","41967","60","yes","1280","20"
"350","88.5245901639","88.5245901639","702.278688525","702.278688525","black","no","xpyriment","legacy","legacy","0","201","NA","uniform","58894","1000","0.0169796583693","1","undefined","1","0","60","60","60","0","60","60","60","NA","60","60","0","60","NA","60","60","0","60","NA","60","NA","60","0","0","60","60","0","60","60","61","/","07/19/18 15:10:40","The main experiment item","yes","FIN__AB__M21__7%3A10%3A17.osexp","C:\Users\ERP Testing Room\Desktop\Joanna\morph21","no","mono","no","18","no","white","no","yes","1080","legacy","60","60","C:/Users/ERP Testing Room/Desktop/Joanna/morph21/subject-130.csv","xpyriment","Jazzy James","3.1.4","0","/","NA","NA","NA","NA","space","/","872","NA","NA","NA","NA","1938132","872","2","legacy","1024","2","48000","-16","AB_m21","130","even","CW_S","AMAZEMENT","1993","2160879","2159271","2156329","1940134","NA","NA","NA","NA","2160870","2159768","NA","2158771","NA","2158765","2160870","2002","2161229","NA","NA","2159879","1993","1993","2160271","2158765","1993","2159879","2161229","morph21_Oliver/Morris","54","42839","61","yes","1280","39"
"200","88.7096774194","88.7096774194","701.548387097","701.548387097","black","no","xpyriment","legacy","legacy","0","208","NA","uniform","65597","1000","0.0152445996006","1","undefined","1","0","61","61","61","0","61","61","61","NA","61","61","0","61","NA","61","61","0","61","NA","61","NA","61","0","0","61","61","0","61","61","62","z","07/19/18 15:10:40","The main experiment item","yes","FIN__AB__M21__7%3A10%3A17.osexp","C:\Users\ERP Testing Room\Desktop\Joanna\morph21","no","mono","no","18","no","white","no","yes","1080","legacy","61","61","C:/Users/ERP Testing Room/Desktop/Joanna/morph21/subject-130.csv","xpyriment","Jazzy James","3.1.4","0","z","NA","NA","NA","NA","space","z","657","NA","NA","NA","NA","1938132","657","2","legacy","1024","2","48000","-16","AB_m21","130","even","FILL_NW","HESK","1993","2164037","2162429","2156329","1940134","NA","NA","NA","NA","2164029","2162926","NA","2161929","NA","2161923","2164029","2002","2164237","NA","NA","2163037","1993","1993","2163429","2161923","1993","2163037","2164237","morph21_Oliver/Morris","55","43496","62","yes","1280","29"
"200","88.8888888889","88.8888888889","701.968253968","701.968253968","black","no","xpyriment","legacy","legacy","0","203","NA","uniform","65298","1000","0.0153144047291","1","undefined","1","0","62","62","62","0","62","62","62","NA","62","62","0","62","NA","62","62","0","62","NA","62","NA","62","0","0","62","62","0","62","62","63","z","07/19/18 15:10:40","The main experiment item","yes","FIN__AB__M21__7%3A10%3A17.osexp","C:\Users\ERP Testing Room\Desktop\Joanna\morph21","no","mono","no","18","no","white","no","yes","1080","legacy","62","62","C:/Users/ERP Testing Room/Desktop/Joanna/morph21/subject-130.csv","xpyriment","Jazzy James","3.1.4","0","z","NA","NA","NA","NA","space","z","728","NA","NA","NA","NA","1938132","728","2","legacy","1024","2","48000","-16","AB_m21","130","even","NW_S_COMP","MELTANCE","1993","2168554","2165421","2167046","1940134","NA","NA","NA","NA","2167040","2165918","NA","2164921","NA","2164912","2167040","2002","2168755","NA","NA","2166046","1993","1993","2166438","2164912","1993","2166046","2168755","morph21_Oliver/Morris","56","44224","63","yes","1280","1"
"350","87.5","87.5","706.546875","706.546875","black","no","xpyriment","legacy","legacy","0","203","NA","uniform","57112","1000","0.0175094551058","0","undefined","0","0","63","63","63","0","63","63","63","NA","63","63","0","63","NA","63","63","0","63","NA","63","NA","63","0","0","63","63","0","63","63","64","z","07/19/18 15:10:40","The main experiment item","yes","FIN__AB__M21__7%3A10%3A17.osexp","C:\Users\ERP Testing Room\Desktop\Joanna\morph21","no","mono","no","18","no","white","no","yes","1080","legacy","63","63","C:/Users/ERP Testing Room/Desktop/Joanna/morph21/subject-130.csv","xpyriment","Jazzy James","3.1.4","0","None","NA","NA","NA","NA","space","None","995","NA","NA","NA","NA","1938132","995","2","legacy","1024","2","48000","-16","AB_m21","130","even","NW_S_COMP","HUMIDOUS","1993","2171605","2170004","2167046","1940134","NA","NA","NA","NA","2167040","2170502","NA","2169504","NA","2169494","2171599","2002","2171955","NA","NA","2170604","1993","1993","2170996","2169494","1993","2170604","2171955","morph21_Oliver/Morris","56","45219","64","yes","1280","25"
"250","87.6923076923","87.6923076923","706.323076923","706.323076923","black","no","xpyriment","legacy","legacy","0","206","NA","uniform","68509","1000","0.0145966223416","1","undefined","1","0","64","64","64","0","64","64","64","NA","64","64","0","64","NA","64","64","0","64","NA","64","NA","64","0","0","64","64","0","64","64","65","z","07/19/18 15:10:40","The main experiment item","yes","FIN__AB__M21__7%3A10%3A17.osexp","C:\Users\ERP Testing Room\Desktop\Joanna\morph21","no","mono","no","18","no","white","no","yes","1080","legacy","64","64","C:/Users/ERP Testing Room/Desktop/Joanna/morph21/subject-130.csv","xpyriment","Jazzy James","3.1.4","0","z","NA","NA","NA","NA","space","z","692","NA","NA","NA","NA","1938132","692","2","legacy","1024","2","48000","-16","AB_m21","130","even","NW_L_SIMP"," DRESSODY","1993","2174739","2173122","2167046","1940134","NA","NA","NA","NA","2174733","2173619","NA","2172622","NA","2172611","2174733","2002","2174989","NA","NA","2173739","1993","1993","2174131","2172610","1993","2173739","2174989","morph21_Oliver/Morris","57","45911","65","yes","1280","21"
"250","86.3636363636","86.3636363636","708.878787879","708.878787879","black","no","xpyriment","legacy","legacy","0","206","NA","uniform","65248","1000","0.0153261402648","0","undefined","0","0","65","65","65","0","65","65","65","NA","65","65","0","65","NA","65","65","0","65","NA","65","NA","65","0","0","65","65","0","65","65","66","z","07/19/18 15:10:40","The main experiment item","yes","FIN__AB__M21__7%3A10%3A17.osexp","C:\Users\ERP Testing Room\Desktop\Joanna\morph21","no","mono","no","18","no","white","no","yes","1080","legacy","65","65","C:/Users/ERP Testing Room/Desktop/Joanna/morph21/subject-130.csv","xpyriment","Jazzy James","3.1.4","0","/","NA","NA","NA","NA","space","/","875","NA","NA","NA","NA","1938132","875","2","legacy","1024","2","48000","-16","AB_m21","130","even","NW_L_SIMP","BEARILT","1993","2179281","2176181","2177772","1940134","NA","NA","NA","NA","2174733","2176678","NA","2175681","NA","2175678","2177766","2002","2179531","NA","NA","2176772","1993","1993","2177164","2175678","1993","2176772","2179531","morph21_Oliver/Morris","57","46786","66","yes","1280","25"
"400","86.5671641791","86.5671641791","708.746268657","708.746268657","black","no","xpyriment","legacy","legacy","0","201","NA","uniform","69363","1000","0.0144169081499","1","undefined","1","0","66","66","66","0","66","66","66","NA","66","66","0","66","NA","66","66","0","66","NA","66","NA","66","0","0","66","66","0","66","66","67","/","07/19/18 15:10:40","The main experiment item","yes","FIN__AB__M21__7%3A10%3A17.osexp","C:\Users\ERP Testing Room\Desktop\Joanna\morph21","no","mono","no","18","no","white","no","yes","1080","legacy","66","66","C:/Users/ERP Testing Room/Desktop/Joanna/morph21/subject-130.csv","xpyriment","Jazzy James","3.1.4","0","/","NA","NA","NA","NA","space","/","700","NA","NA","NA","NA","1938132","700","2","legacy","1024","2","48000","-16","AB_m21","130","even","CW_S","WIDOWED","1993","2182298","2180714","2177772","1940134","NA","NA","NA","NA","2182290","2181211","NA","2180214","NA","2180206","2182290","2002","2182698","NA","NA","2181298","1993","1993","2181689","2180206","1993","2181297","2182698","morph21_Oliver/Morris","58","47486","67","yes","1280","7"
"200","86.7647058824","86.7647058824","712.397058824","712.397058824","black","no","xpyriment","legacy","legacy","0","203","NA","uniform","52249","1000","0.0191391222799","1","undefined","1","0","67","67","67","0","67","67","67","NA","67","67","0","67","NA","67","67","0","67","NA","67","NA","67","0","0","67","67","0","67","67","68","z","07/19/18 15:10:40","The main experiment item","yes","FIN__AB__M21__7%3A10%3A17.osexp","C:\Users\ERP Testing Room\Desktop\Joanna\morph21","no","mono","no","18","no","white","no","yes","1080","legacy","67","67","C:/Users/ERP Testing Room/Desktop/Joanna/morph21/subject-130.csv","xpyriment","Jazzy James","3.1.4","0","z","NA","NA","NA","NA","space","z","957","NA","NA","NA","NA","1938132","957","2","legacy","1024","2","48000","-16","AB_m21","130","even","NW_S_COMP","FANFUL","1993","2185473","2183889","2177772","1940134","NA","NA","NA","NA","2185466","2184386","NA","2183389","NA","2183381","2185466","2002","2185673","NA","NA","2184473","1993","1993","2184864","2183381","1993","2184473","2185673","morph21_Oliver/Morris","59","48443","68","yes","1280","6"
"200","86.9565217391","86.9565217391","711.623188406","711.623188406","black","no","xpyriment","legacy","legacy","0","202","NA","uniform","68825","1000","0.0145296040683","1","undefined","1","0","68","68","68","0","68","68","68","NA","68","68","0","68","NA","68","68","0","68","NA","68","NA","68","0","0","68","68","0","68","68","69","/","07/19/18 15:10:40","The main experiment item","yes","FIN__AB__M21__7%3A10%3A17.osexp","C:\Users\ERP Testing Room\Desktop\Joanna\morph21","no","mono","no","18","no","white","no","yes","1080","legacy","68","68","C:/Users/ERP Testing Room/Desktop/Joanna/morph21/subject-130.csv","xpyriment","Jazzy James","3.1.4","0","/","NA","NA","NA","NA","space","/","659","NA","NA","NA","NA","1938132","659","2","legacy","1024","2","48000","-16","AB_m21","130","even","CW_L","BOOTLESS","1993","2190024","2186931","2188515","1940134","NA","NA","NA","NA","2188510","2187428","NA","2186431","NA","2186426","2188510","2002","2190224","NA","NA","2187515","1993","1993","2187914","2186426","1993","2187515","2190224","morph21_Oliver/Morris","60","49102","69","yes","1280","32"
"250","87.1428571429","87.1428571429","711.714285714","711.714285714","black","no","xpyriment","legacy","legacy","0","201","NA","uniform","64428","1000","0.0155212019619","1","undefined","1","0","69","69","69","0","69","69","69","NA","69","69","0","69","NA","69","69","0","69","NA","69","NA","69","0","0","69","69","0","69","69","70","/","07/19/18 15:10:40","The main experiment item","yes","FIN__AB__M21__7%3A10%3A17.osexp","C:\Users\ERP Testing Room\Desktop\Joanna\morph21","no","mono","no","18","no","white","no","yes","1080","legacy","69","69","C:/Users/ERP Testing Room/Desktop/Joanna/morph21/subject-130.csv","xpyriment","Jazzy James","3.1.4","0","/","NA","NA","NA","NA","space","/","718","NA","NA","NA","NA","1938132","718","2","legacy","1024","2","48000","-16","AB_m21","130","even","CW_S","MOSSY","1993","2193041","2191449","2188515","1940134","NA","NA","NA","NA","2193035","2191946","NA","2190949","NA","2190940","2193035","2002","2193291","NA","NA","2192041","1993","1993","2192432","2190940","1993","2192041","2193291","morph21_Oliver/Morris","61","49820","70","yes","1280","47"
"250","87.323943662","87.323943662","711.985915493","711.985915493","black","no","xpyriment","legacy","legacy","0","201","NA","uniform","64294","1000","0.0155535508757","1","undefined","1","0","70","70","70","0","70","70","70","NA","70","70","0","70","NA","70","70","0","70","NA","70","NA","70","0","0","70","70","0","70","70","71","/","07/19/18 15:10:40","The main experiment item","yes","FIN__AB__M21__7%3A10%3A17.osexp","C:\Users\ERP Testing Room\Desktop\Joanna\morph21","no","mono","no","18","no","white","no","yes","1080","legacy","70","70","C:/Users/ERP Testing Room/Desktop/Joanna/morph21/subject-130.csv","xpyriment","Jazzy James","3.1.4","0","/","NA","NA","NA","NA","space","/","731","NA","NA","NA","NA","1938132","731","2","legacy","1024","2","48000","-16","AB_m21","130","even","CW_S","MILDNESS","1993","2196124","2194541","2188515","1940134","NA","NA","NA","NA","2196117","2195038","NA","2194032","NA","2194027","2196117","2002","2196374","NA","NA","2195124","1993","1993","2195516","2194027","1993","2195124","2196374","morph21_Oliver/Morris","62","50551","71","yes","1280","42"
"250","87.5","87.5","712.611111111","712.611111111","black","no","xpyriment","legacy","legacy","0","204","NA","uniform","61128","1000","0.016359115299","1","undefined","1","0","71","71","71","0","71","71","71","NA","71","71","0","71","NA","71","71","0","71","NA","71","NA","71","0","0","71","71","0","71","71","72","z","07/19/18 15:10:40","The main experiment item","yes","FIN__AB__M21__7%3A10%3A17.osexp","C:\Users\ERP Testing Room\Desktop\Joanna\morph21","no","mono","no","18","no","white","no","yes","1080","legacy","71","71","C:/Users/ERP Testing Room/Desktop/Joanna/morph21/subject-130.csv","xpyriment","Jazzy James","3.1.4","0","z","NA","NA","NA","NA","space","z","757","NA","NA","NA","NA","1938132","757","2","legacy","1024","2","48000","-16","AB_m21","130","even","NW_L_COMP","STIRANCE","1993","2200758","2197649","2199249","1940134","NA","NA","NA","NA","2199245","2198146","NA","2197149","NA","2197144","2199245","2002","2201008","NA","NA","2198249","1993","1993","2198649","2197144","1993","2198249","2201008","morph21_Oliver/Morris","63","51308","72","yes","1280","1"
"300","87.6712328767","87.6712328767","712.054794521","712.054794521","black","no","xpyriment","legacy","legacy","0","207","NA","uniform","72114","1000","0.0138669329118","1","undefined","1","0","72","72","72","0","72","72","72","NA","72","72","0","72","NA","72","72","0","72","NA","72","NA","72","0","0","72","72","0","72","72","73","/","07/19/18 15:10:40","The main experiment item","yes","FIN__AB__M21__7%3A10%3A17.osexp","C:\Users\ERP Testing Room\Desktop\Joanna\morph21","no","mono","no","18","no","white","no","yes","1080","legacy","72","72","C:/Users/ERP Testing Room/Desktop/Joanna/morph21/subject-130.csv","xpyriment","Jazzy James","3.1.4","0","/","NA","NA","NA","NA","space","/","672","NA","NA","NA","NA","1938132","672","2","legacy","1024","2","48000","-16","AB_m21","130","even","FILL_W","BALD","1993","2203774","2202208","2199249","1940134","NA","NA","NA","NA","2203769","2202705","NA","2201708","NA","2201704","2203769","2002","2204075","NA","NA","2202774","1993","1993","2203166","2201704","1993","2202774","2204075","morph21_Oliver/Morris","64","51980","73","yes","1280","3"
"350","87.8378378378","87.8378378378","714.810810811","714.810810811","black","no","xpyriment","legacy","legacy","0","204","NA","uniform","59951","1000","0.0166802889026","1","undefined","1","0","73","73","73","0","73","73","73","NA","73","73","0","73","NA","73","73","0","73","NA","73","NA","73","0","0","73","73","0","73","73","74","z","07/19/18 15:10:40","The main experiment item","yes","FIN__AB__M21__7%3A10%3A17.osexp","C:\Users\ERP Testing Room\Desktop\Joanna\morph21","no","mono","no","18","no","white","no","yes","1080","legacy","73","73","C:/Users/ERP Testing Room/Desktop/Joanna/morph21/subject-130.csv","xpyriment","Jazzy James","3.1.4","0","z","NA","NA","NA","NA","space","z","916","NA","NA","NA","NA","1938132","916","2","legacy","1024","2","48000","-16","AB_m21","130","even","NW_L_COMP","AGREELY","1993","2206876","2205266","2199249","1940134","NA","NA","NA","NA","2206866","2205763","NA","2204766","NA","2204764","2206866","2002","2207226","NA","NA","2205875","1993","1993","2206266","2204764","1993","2205875","2207226","morph21_Oliver/Morris","65","52896","74","yes","1280","24"
"300","88","88","715.906666667","715.906666667","black","no","xpyriment","legacy","legacy","0","205","NA","uniform","63799","1000","0.0156742268688","undefined","undefined","1","0","74","74","74","0","74","74","74","NA","74","74","0","74","NA","74","74","0","74","NA","74","NA","74","0","0","74","74","0","74","74","75","z","07/19/18 15:10:40","The main experiment item","yes","FIN__AB__M21__7%3A10%3A17.osexp","C:\Users\ERP Testing Room\Desktop\Joanna\morph21","no","mono","no","18","no","white","no","yes","1080","legacy","74","74","C:/Users/ERP Testing Room/Desktop/Joanna/morph21/subject-130.csv","xpyriment","Jazzy James","3.1.4","0","space","space","NA","NA","NA","space","z","26259","26259","NA","NA","NA","1938132","797","2","legacy","1024","2","48000","-16","AB_m21","130","even","NW_S_SIMP","TILTADY","1993","2211534","2208442","2210026","1940134","2211843","NA","NA","NA","2210017","2208940","NA","2207942","NA","2207935","2210017","2002","2238103","NA","NA","2209026","1993","1993","2209417","2207935","1993","2209026","2211834","morph21_Oliver/Morris","66","53693","75","yes","1280","17"
"400","88.1578947368","88.1578947368","715.394736842","715.394736842","black","no","xpyriment","legacy","legacy","0","202","NA","uniform","66381","1000","0.0150645516036","1","undefined","1","0","75","75","75","0","75","75","75","NA","75","75","0","75","NA","75","75","0","75","NA","75","NA","75","0","0","75","75","0","75","75","76","/","07/19/18 15:10:40","The main experiment item","yes","FIN__AB__M21__7%3A10%3A17.osexp","C:\Users\ERP Testing Room\Desktop\Joanna\morph21","no","mono","no","18","no","white","no","yes","1080","legacy","75","75","C:/Users/ERP Testing Room/Desktop/Joanna/morph21/subject-130.csv","xpyriment","Jazzy James","3.1.4","0","/","space","NA","NA","NA","space","/","677","26259","NA","NA","NA","1938132","677","2","legacy","1024","2","48000","-16","AB_m21","130","even","CW_L","DRYNESS","1993","2240953","2239336","2210026","1940134","2211843","NA","NA","NA","2240948","2239834","NA","2238836","NA","2238830","2240948","2002","2241353","NA","NA","2239953","1993","1993","2240353","2238830","1993","2239953","2241353","morph21_Oliver/Morris","67","54370","76","yes","1280","42"
"400","88.3116883117","88.3116883117","713.454545455","713.454545455","black","no","xpyriment","legacy","legacy","0","206","NA","uniform","72954","1000","0.0137072675933","1","undefined","1","0","76","76","76","0","76","76","76","NA","76","76","0","76","NA","76","76","0","76","NA","76","NA","76","0","0","76","76","0","76","76","77","z","07/19/18 15:10:40","The main experiment item","yes","FIN__AB__M21__7%3A10%3A17.osexp","C:\Users\ERP Testing Room\Desktop\Joanna\morph21","no","mono","no","18","no","white","no","yes","1080","legacy","76","76","C:/Users/ERP Testing Room/Desktop/Joanna/morph21/subject-130.csv","xpyriment","Jazzy James","3.1.4","0","z","space","NA","NA","NA","space","z","566","26259","NA","NA","NA","1938132","566","2","legacy","1024","2","48000","-16","AB_m21","130","even","NW_L_SIMP","VALIDEL","1993","2244121","2242521","2210026","1940134","2211843","NA","NA","NA","2244114","2243018","NA","2242021","NA","2242017","2244114","2002","2244521","NA","NA","2243121","1993","1993","2243513","2242017","1993","2243121","2244521","morph21_Oliver/Morris","68","54936","77","yes","1280","23"
"300","88.4615384615","88.4615384615","714.615384615","714.615384615","black","no","xpyriment","legacy","legacy","0","204","NA","uniform","66115","1000","0.0151251607048","1","undefined","1","0","77","77","77","0","77","77","77","NA","77","77","0","77","NA","77","77","0","77","NA","77","NA","77","0","0","77","77","0","77","77","78","z","07/19/18 15:10:40","The main experiment item","yes","FIN__AB__M21__7%3A10%3A17.osexp","C:\Users\ERP Testing Room\Desktop\Joanna\morph21","no","mono","no","18","no","white","no","yes","1080","legacy","77","77","C:/Users/ERP Testing Room/Desktop/Joanna/morph21/subject-130.csv","xpyriment","Jazzy James","3.1.4","0","z","space","NA","NA","NA","space","z","804","26259","NA","NA","NA","1938132","804","2","legacy","1024","2","48000","-16","AB_m21","130","even","NW_L_COMP","ADDMENT","1993","2248880","2245788","2247371","1940134","2211843","NA","NA","NA","2247366","2246285","NA","2245288","NA","2245280","2247366","2002","2249180","NA","NA","2246371","1993","1993","2246771","2245280","1993","2246371","2249180","morph21_Oliver/Morris","69","55740","78","yes","1280","13"
"200","88.6075949367","88.6075949367","711.746835443","711.746835443","black","no","xpyriment","legacy","legacy","0","207","NA","uniform","72675","1000","0.0137598899209","1","undefined","1","0","78","78","78","0","78","78","78","NA","78","78","0","78","NA","78","78","0","78","NA","78","NA","78","0","0","78","78","0","78","78","79","/","07/19/18 15:10:40","The main experiment item","yes","FIN__AB__M21__7%3A10%3A17.osexp","C:\Users\ERP Testing Room\Desktop\Joanna\morph21","no","mono","no","18","no","white","no","yes","1080","legacy","78","78","C:/Users/ERP Testing Room/Desktop/Joanna/morph21/subject-130.csv","xpyriment","Jazzy James","3.1.4","0","/","space","NA","NA","NA","space","/","488","26259","NA","NA","NA","1938132","488","2","legacy","1024","2","48000","-16","AB_m21","130","even","FILL_W","TAX","1993","2252030","2250421","2247371","1940134","2211843","NA","NA","NA","2252020","2250918","NA","2249921","NA","2249911","2252020","2002","2252230","NA","NA","2251030","1993","1993","2251421","2249911","1993","2251030","2252230","morph21_Oliver/Morris","70","56228","79","yes","1280","45"
"350","88.75","88.75","710.35","710.35","black","no","xpyriment","legacy","legacy","0","201","NA","uniform","69660","1000","0.014355440712","1","undefined","1","0","79","79","79","0","79","79","79","NA","79","79","0","79","NA","79","79","0","79","NA","79","NA","79","0","0","79","79","0","79","79","80","/","07/19/18 15:10:40","The main experiment item","yes","FIN__AB__M21__7%3A10%3A17.osexp","C:\Users\ERP Testing Room\Desktop\Joanna\morph21","no","mono","no","18","no","white","no","yes","1080","legacy","79","79","C:/Users/ERP Testing Room/Desktop/Joanna/morph21/subject-130.csv","xpyriment","Jazzy James","3.1.4","0","/","space","NA","NA","NA","space","/","600","26259","NA","NA","NA","1938132","600","2","legacy","1024","2","48000","-16","AB_m21","130","even","CW_S","DENSELY","1993","2255030","2253438","2247371","1940134","2211843","NA","NA","NA","2255023","2253935","NA","2252938","NA","2252927","2255023","2002","2255380","NA","NA","2254030","1993","1993","2254421","2252927","1993","2254030","2255380","morph21_Oliver/Morris","71","56828","80","yes","1280","32"
"400","88.8888888889","88.8888888889","708.691358025","708.691358025","black","no","xpyriment","legacy","legacy","0","207","NA","uniform","72705","1000","0.0137542122275","1","undefined","1","0","80","80","80","0","80","80","80","NA","80","80","0","80","NA","80","80","0","80","NA","80","NA","80","0","0","80","80","0","80","80","81","/","07/19/18 15:10:40","The main experiment item","yes","FIN__AB__M21__7%3A10%3A17.osexp","C:\Users\ERP Testing Room\Desktop\Joanna\morph21","no","mono","no","18","no","white","no","yes","1080","legacy","80","80","C:/Users/ERP Testing Room/Desktop/Joanna/morph21/subject-130.csv","xpyriment","Jazzy James","3.1.4","0","/","space","NA","NA","NA","space","/","576","26259","NA","NA","NA","1938132","576","2","legacy","1024","2","48000","-16","AB_m21","130","even","FILL_W","CHIP","1993","2259731","2256638","2258222","1940134","2211843","NA","NA","NA","2258214","2257135","NA","2256138","NA","2256132","2258214","2002","2260131","NA","NA","2257222","1993","1993","2257613","2256132","1993","2257222","2260131","morph21_Oliver/Morris","72","57404","81","yes","1280","11"
"250","89.0243902439","89.0243902439","707.926829268","707.926829268","black","no","xpyriment","legacy","legacy","0","206","NA","uniform","72409","1000","0.013810437929","1","undefined","1","0","81","81","81","0","81","81","81","NA","81","81","0","81","NA","81","81","0","81","NA","81","NA","81","0","0","81","81","0","81","81","82","z","07/19/18 15:10:40","The main experiment item","yes","FIN__AB__M21__7%3A10%3A17.osexp","C:\Users\ERP Testing Room\Desktop\Joanna\morph21","no","mono","no","18","no","white","no","yes","1080","legacy","81","81","C:/Users/ERP Testing Room/Desktop/Joanna/morph21/subject-130.csv","xpyriment","Jazzy James","3.1.4","0","z","space","NA","NA","NA","space","z","646","26259","NA","NA","NA","1938132","646","2","legacy","1024","2","48000","-16","AB_m21","130","even","NW_L_SIMP","SHOOTMANT","1993","2262889","2261323","2258222","1940134","2211843","NA","NA","NA","2262885","2261820","NA","2260823","NA","2260814","2262885","2002","2263139","NA","NA","2261889","1993","1993","2262289","2260814","1993","2261889","2263139","morph21_Oliver/Morris","73","58050","82","yes","1280","16"
"200","89.156626506","89.156626506","706.277108434","706.277108434","black","no","xpyriment","legacy","legacy","0","202","NA","uniform","71885","1000","0.0139111080198","1","undefined","1","0","82","82","82","0","82","82","82","NA","82","82","0","82","NA","82","82","0","82","NA","82","NA","82","0","0","82","82","0","82","82","83","/","07/19/18 15:10:40","The main experiment item","yes","FIN__AB__M21__7%3A10%3A17.osexp","C:\Users\ERP Testing Room\Desktop\Joanna\morph21","no","mono","no","18","no","white","no","yes","1080","legacy","82","82","C:/Users/ERP Testing Room/Desktop/Joanna/morph21/subject-130.csv","xpyriment","Jazzy James","3.1.4","0","/","space","NA","NA","NA","space","/","571","26259","NA","NA","NA","1938132","571","2","legacy","1024","2","48000","-16","AB_m21","130","even","CW_L","COLLECTOR","1993","2265948","2264340","2258222","1940134","2211843","NA","NA","NA","2265941","2264837","NA","2263840","NA","2263833","2265941","2002","2266148","NA","NA","2264948","1993","1993","2265340","2263833","1993","2264948","2266148","morph21_Oliver/Morris","74","58621","83","yes","1280","46"
"250","89.2857142857","89.2857142857","705.05952381","705.05952381","black","no","xpyriment","legacy","legacy","0","207","NA","uniform","74554","1000","0.0134130965475","1","undefined","1","0","83","83","83","0","83","83","83","NA","83","83","0","83","NA","83","83","0","83","NA","83","NA","83","0","0","83","83","0","83","83","84","/","07/19/18 15:10:40","The main experiment item","yes","FIN__AB__M21__7%3A10%3A17.osexp","C:\Users\ERP Testing Room\Desktop\Joanna\morph21","no","mono","no","18","no","white","no","yes","1080","legacy","83","83","C:/Users/ERP Testing Room/Desktop/Joanna/morph21/subject-130.csv","xpyriment","Jazzy James","3.1.4","0","/","space","NA","NA","NA","space","/","604","26259","NA","NA","NA","1938132","604","2","legacy","1024","2","48000","-16","AB_m21","130","even","FILL_W","SOUGHT","1993","2270423","2267331","2268915","1940134","2211843","NA","NA","NA","2268909","2267828","NA","2266831","NA","2266825","2268909","2002","2270673","NA","NA","2267915","1993","1993","2268306","2266825","1993","2267915","2270673","morph21_Oliver/Morris","75","59225","84","yes","1280","40"
"200","89.4117647059","89.4117647059","705.282352941","705.282352941","black","no","xpyriment","legacy","legacy","0","201","NA","uniform","69780","1000","0.0143307537976","1","undefined","1","0","84","84","84","0","84","84","84","NA","84","84","0","84","NA","84","84","0","84","NA","84","NA","84","0","0","84","84","0","84","84","85","/","07/19/18 15:10:40","The main experiment item","yes","FIN__AB__M21__7%3A10%3A17.osexp","C:\Users\ERP Testing Room\Desktop\Joanna\morph21","no","mono","no","18","no","white","no","yes","1080","legacy","84","84","C:/Users/ERP Testing Room/Desktop/Joanna/morph21/subject-130.csv","xpyriment","Jazzy James","3.1.4","0","/","space","NA","NA","NA","space","/","724","26259","NA","NA","NA","1938132","724","2","legacy","1024","2","48000","-16","AB_m21","130","even","CW_S","ANGELIC","1993","2273490","2271898","2268915","1940134","2211843","NA","NA","NA","2273482","2272395","NA","2271398","NA","2271395","2273482","2002","2273690","NA","NA","2272490","1993","1993","2272882","2271395","1993","2272490","2273690","morph21_Oliver/Morris","76","59949","85","yes","1280","25"
"350","89.5348837209","89.5348837209","704.930232558","704.930232558","black","no","xpyriment","legacy","legacy","0","207","NA","uniform","68286","1000","0.0146442901913","1","undefined","1","0","85","85","85","0","85","85","85","NA","85","85","0","85","NA","85","85","0","85","NA","85","NA","85","0","0","85","85","0","85","85","86","/","07/19/18 15:10:40","The main experiment item","yes","FIN__AB__M21__7%3A10%3A17.osexp","C:\Users\ERP Testing Room\Desktop\Joanna\morph21","no","mono","no","18","no","white","no","yes","1080","legacy","85","85","C:/Users/ERP Testing Room/Desktop/Joanna/morph21/subject-130.csv","xpyriment","Jazzy James","3.1.4","0","/","space","NA","NA","NA","space","/","675","26259","NA","NA","NA","1938132","675","2","legacy","1024","2","48000","-16","AB_m21","130","even","FILL_W","LIFT","1993","2276516","2274923","2268915","1940134","2211843","NA","NA","NA","2276510","2275420","NA","2274423","NA","2274418","2276510","2002","2276866","NA","NA","2275515","1993","1993","2275915","2274418","1993","2275515","2276866","morph21_Oliver/Morris","77","60624","86","yes","1280","39"
"400","89.6551724138","89.6551724138","705.436781609","705.436781609","black","no","xpyriment","legacy","legacy","0","205","NA","uniform","66364","1000","0.0150684105841","1","undefined","1","0","86","86","86","0","86","86","86","NA","86","86","0","86","NA","86","86","0","86","NA","86","NA","86","0","0","86","86","0","86","86","87","z","07/19/18 15:10:40","The main experiment item","yes","FIN__AB__M21__7%3A10%3A17.osexp","C:\Users\ERP Testing Room\Desktop\Joanna\morph21","no","mono","no","18","no","white","no","yes","1080","legacy","86","86","C:/Users/ERP Testing Room/Desktop/Joanna/morph21/subject-130.csv","xpyriment","Jazzy James","3.1.4","0","z","space","NA","NA","NA","space","z","749","26259","NA","NA","NA","1938132","749","2","legacy","1024","2","48000","-16","AB_m21","130","even","NW_S_SIMP","RAMPIME","1993","2281175","2278091","2279666","1940134","2211843","NA","NA","NA","2279663","2278588","NA","2277591","NA","2277580","2279663","2002","2281575","NA","NA","2278674","1993","1993","2279066","2277579","1993","2278674","2281575","morph21_Oliver/Morris","78","61373","87","yes","1280","6"
"200","89.7727272727","89.7727272727","703.681818182","703.681818182","black","no","xpyriment","legacy","legacy","0","201","NA","uniform","70620","1000","0.0141602945341","1","undefined","1","0","87","87","87","0","87","87","87","NA","87","87","0","87","NA","87","87","0","87","NA","87","NA","87","0","0","87","87","0","87","87","88","/","07/19/18 15:10:40","The main experiment item","yes","FIN__AB__M21__7%3A10%3A17.osexp","C:\Users\ERP Testing Room\Desktop\Joanna\morph21","no","mono","no","18","no","white","no","yes","1080","legacy","87","87","C:/Users/ERP Testing Room/Desktop/Joanna/morph21/subject-130.csv","xpyriment","Jazzy James","3.1.4","0","/","space","NA","NA","NA","space","/","551","26259","NA","NA","NA","1938132","551","2","legacy","1024","2","48000","-16","AB_m21","130","even","CW_S","AMUSEMENT","1993","2284408","2282825","2279666","1940134","2211843","NA","NA","NA","2284405","2283322","NA","2282325","NA","2282318","2284405","2002","2284608","NA","NA","2283408","1993","1993","2283808","2282318","1993","2283408","2284608","morph21_Oliver/Morris","79","61924","88","yes","1280","38"
"200","89.8876404494","89.8876404494","702.494382022","702.494382022","black","no","xpyriment","legacy","legacy","0","208","NA","uniform","69298","1000","0.0144304308927","1","undefined","1","0","88","88","88","0","88","88","88","NA","88","88","0","88","NA","88","88","0","88","NA","88","NA","88","0","0","88","88","0","88","88","89","z","07/19/18 15:10:40","The main experiment item","yes","FIN__AB__M21__7%3A10%3A17.osexp","C:\Users\ERP Testing Room\Desktop\Joanna\morph21","no","mono","no","18","no","white","no","yes","1080","legacy","88","88","C:/Users/ERP Testing Room/Desktop/Joanna/morph21/subject-130.csv","xpyriment","Jazzy James","3.1.4","0","z","space","NA","NA","NA","space","z","598","26259","NA","NA","NA","1938132","598","2","legacy","1024","2","48000","-16","AB_m21","130","even","FILL_NW","BROUPS","1993","2287400","2285775","2279666","1940134","2211843","NA","NA","NA","2287391","2286272","NA","2285266","NA","2285261","2287391","2002","2287600","NA","NA","2286400","1993","1993","2286791","2285261","1993","2286400","2287600","morph21_Oliver/Morris","80","62522","89","yes","1280","4"
