"ITI","acc","accuracy","average_response_time","avg_rt","background","bidi","canvas_backend","clock_backend","color_backend","compensation","cond_trig","condtrigtime","coordinates","coroutines_cycles","coroutines_duration","coroutines_mean_cycle_duration","correct","correct_instructions_1","correct_new_keyboard_response_1","count_BA_m21","count_ITI","count_blank_screen","count_blink_screen","count_block1","count_break1","count_break2","count_break3_1","count_canvas","count_correct_trigger","count_def_chain","count_end_screen","count_fixation_1","count_getting_started","count_inc_counter","count_incorrect_trigger","count_instructions_1","count_logger","count_logscript","count_new_coroutines","count_new_inline_script","count_new_keyboard_response_1","count_reset_counter_prep","count_reset_counter_run","count_responsescreen","count_sequence","count_start_trigger","count_target_present","count_word_trigger","counter","cresp","datetime","description","disable_garbage_collection","experiment_file","experiment_path","font_bold","font_family","font_italic","font_size","font_underline","foreground","form_clicks","fullscreen","height","keyboard_backend","live_row","live_row_block1","logfile","mouse_backend","opensesame_codename","opensesame_version","repeat_cycle","response","response_break1","response_break2","response_break3_1","response_end_screen","response_instructions_1","response_new_keyboard_response_1","response_time","response_time_break1","response_time_break2","response_time_break3_1","response_time_end_screen","response_time_instructions_1","response_time_new_keyboard_response_1","round_decimals","sampler_backend","sound_buf_size","sound_channels","sound_freq","sound_sample_size","start","subject_nr","subject_parity","targ_type","target","time_BA_m21","time_ITI","time_blank_screen","time_blink_screen","time_block1","time_break1","time_break2","time_break3_1","time_canvas","time_correct_trigger","time_def_chain","time_end_screen","time_fixation_1","time_getting_started","time_inc_counter","time_incorrect_trigger","time_instructions_1","time_logger","time_logscript","time_new_inline_script","time_new_keyboard_response_1","time_reset_counter_prep","time_reset_counter_run","time_responsescreen","time_sequence","time_start_trigger","time_target_present","time_word_trigger","title","total_correct","total_response_time","total_responses","uniform_coordinates","width","word_trig"
"300","0","0","990","990","black","no","xpyriment","legacy","legacy","0","207","NA","uniform","55951","1000","0.017872781541","0","undefined","0","0","0","0","0","0","0","0","0","NA","0","0","0","0","NA","0","0","0","0","NA","0","NA","0","0","0","0","0","0","0","0","1","/","07/20/18 12:50:47","The main experiment item","yes","FIN__BA__M21__7%3A10%3A17.osexp","C:\Users\ERP Testing Room\Desktop\Joanna\morph21","no","mono","no","18","no","white","no","yes","1080","legacy","0","0","C:/Users/ERP Testing Room/Desktop/Joanna/morph21/subject-131.csv","xpyriment","Jazzy James","3.1.4","0","None","NA","NA","NA","NA","space","None","990","NA","NA","NA","NA","113394","990","2","legacy","1024","2","48000","-16","BA_m21","131","odd","FILL_W","MOURN","2407","118624","117024","NA","115821","NA","NA","NA","NA","NA","117521","NA","116519","NA","116455","118614","2427","118924","NA","NA","117624","2407","2407","118016","116455","2407","117624","118924","morph21_Oliver/Morris","0","990","1","yes","1280","26"
"300","50","50","938.5","938.5","black","no","xpyriment","legacy","legacy","0","208","NA","uniform","63774","1000","0.0156803713112","1","undefined","1","0","1","1","1","0","1","1","1","NA","1","1","0","1","NA","1","1","0","1","NA","1","NA","1","0","0","1","1","0","1","1","2","z","07/20/18 12:50:47","The main experiment item","yes","FIN__BA__M21__7%3A10%3A17.osexp","C:\Users\ERP Testing Room\Desktop\Joanna\morph21","no","mono","no","18","no","white","no","yes","1080","legacy","1","1","C:/Users/ERP Testing Room/Desktop/Joanna/morph21/subject-131.csv","xpyriment","Jazzy James","3.1.4","0","z","NA","NA","NA","NA","space","z","887","NA","NA","NA","NA","113394","887","2","legacy","1024","2","48000","-16","BA_m21","131","odd","FILL_NW","VOOFS","2407","121766","120183","NA","115821","NA","NA","NA","NA","121758","120680","NA","119683","NA","119680","121758","2427","122066","NA","NA","120766","2407","2407","121158","119680","2407","120766","122066","morph21_Oliver/Morris","1","1877","2","yes","1280","48"
"200","66.6666666667","66.6666666667","873.333333333","873.333333333","black","no","xpyriment","legacy","legacy","0","208","NA","uniform","68884","1000","0.0145171592823","1","undefined","1","0","2","2","2","0","2","2","2","NA","2","2","0","2","NA","2","2","0","2","NA","2","NA","2","0","0","2","2","0","2","2","3","z","07/20/18 12:50:47","The main experiment item","yes","FIN__BA__M21__7%3A10%3A17.osexp","C:\Users\ERP Testing Room\Desktop\Joanna\morph21","no","mono","no","18","no","white","no","yes","1080","legacy","2","2","C:/Users/ERP Testing Room/Desktop/Joanna/morph21/subject-131.csv","xpyriment","Jazzy James","3.1.4","0","z","NA","NA","NA","NA","space","z","743","NA","NA","NA","NA","113394","743","2","legacy","1024","2","48000","-16","BA_m21","131","odd","FILL_NW","HESK","2407","126458","123349","124949","115821","NA","NA","NA","NA","124944","123846","NA","122849","NA","122840","124944","2427","126658","NA","NA","123949","2407","2407","124341","122840","2407","123949","126658","morph21_Oliver/Morris","2","2620","3","yes","1280","29"
"350","75","75","887","887","black","no","xpyriment","legacy","legacy","0","207","NA","uniform","59890","1000","0.0166972783436","1","undefined","1","0","3","3","3","0","3","3","3","NA","3","3","0","3","NA","3","3","0","3","NA","3","NA","3","0","0","3","3","0","3","3","4","/","07/20/18 12:50:47","The main experiment item","yes","FIN__BA__M21__7%3A10%3A17.osexp","C:\Users\ERP Testing Room\Desktop\Joanna\morph21","no","mono","no","18","no","white","no","yes","1080","legacy","3","3","C:/Users/ERP Testing Room/Desktop/Joanna/morph21/subject-131.csv","xpyriment","Jazzy James","3.1.4","0","/","NA","NA","NA","NA","space","/","928","NA","NA","NA","NA","113394","928","2","legacy","1024","2","48000","-16","BA_m21","131","odd","FILL_W","WEIRD","2407","129516","127908","124949","115821","NA","NA","NA","NA","129509","128405","NA","127408","NA","127398","129509","2427","129866","NA","NA","128516","2407","2407","128908","127398","2407","128516","129866","morph21_Oliver/Morris","3","3548","4","yes","1280","2"
"300","80","80","867.8","867.8","black","no","xpyriment","legacy","legacy","0","208","NA","uniform","68133","1000","0.0146771755243","1","undefined","1","0","4","4","4","0","4","4","4","NA","4","4","0","4","NA","4","4","0","4","NA","4","NA","4","0","0","4","4","0","4","4","5","z","07/20/18 12:50:47","The main experiment item","yes","FIN__BA__M21__7%3A10%3A17.osexp","C:\Users\ERP Testing Room\Desktop\Joanna\morph21","no","mono","no","18","no","white","no","yes","1080","legacy","4","4","C:/Users/ERP Testing Room/Desktop/Joanna/morph21/subject-131.csv","xpyriment","Jazzy James","3.1.4","0","z","NA","NA","NA","NA","space","z","791","NA","NA","NA","NA","113394","791","2","legacy","1024","2","48000","-16","BA_m21","131","odd","FILL_NW","SCURE","2407","132733","131150","124949","115821","NA","NA","NA","NA","132730","131647","NA","130650","NA","130643","132730","2427","133033","NA","NA","131741","2407","2407","132133","130643","2407","131741","133033","morph21_Oliver/Morris","4","4339","5","yes","1280","41"
"400","66.6666666667","66.6666666667","889","889","black","no","xpyriment","legacy","legacy","0","207","NA","uniform","56575","1000","0.0176756517897","0","undefined","0","0","5","5","5","0","5","5","5","NA","5","5","0","5","NA","5","5","0","5","NA","5","NA","5","0","0","5","5","0","5","5","6","/","07/20/18 12:50:47","The main experiment item","yes","FIN__BA__M21__7%3A10%3A17.osexp","C:\Users\ERP Testing Room\Desktop\Joanna\morph21","no","mono","no","18","no","white","no","yes","1080","legacy","5","5","C:/Users/ERP Testing Room/Desktop/Joanna/morph21/subject-131.csv","xpyriment","Jazzy James","3.1.4","0","None","NA","NA","NA","NA","space","None","995","NA","NA","NA","NA","113394","995","2","legacy","1024","2","48000","-16","BA_m21","131","odd","FILL_W","STEEP","2407","137351","134251","135843","115821","NA","NA","NA","NA","132730","134748","NA","133751","NA","133744","135838","2427","137751","NA","NA","134843","2407","2407","135243","133744","2407","134843","137751","morph21_Oliver/Morris","4","5334","6","yes","1280","16"
"200","57.1428571429","57.1428571429","903.428571429","903.428571429","black","no","xpyriment","legacy","legacy","0","203","NA","uniform","61459","1000","0.0162710099416","0","undefined","0","0","6","6","6","0","6","6","6","NA","6","6","0","6","NA","6","6","0","6","NA","6","NA","6","0","0","6","6","0","6","6","7","z","07/20/18 12:50:47","The main experiment item","yes","FIN__BA__M21__7%3A10%3A17.osexp","C:\Users\ERP Testing Room\Desktop\Joanna\morph21","no","mono","no","18","no","white","no","yes","1080","legacy","6","6","C:/Users/ERP Testing Room/Desktop/Joanna/morph21/subject-131.csv","xpyriment","Jazzy James","3.1.4","0","None","NA","NA","NA","NA","space","None","990","NA","NA","NA","NA","113394","990","2","legacy","1024","2","48000","-16","BA_m21","131","odd","NW_S_COMP","ANTILM","2407","140526","138926","135843","115821","NA","NA","NA","NA","132730","139423","NA","138426","NA","138417","140516","2427","140726","NA","NA","139526","2407","2407","139918","138417","2407","139526","140726","morph21_Oliver/Morris","4","6324","7","yes","1280","8"
"300","62.5","62.5","912.875","912.875","black","no","xpyriment","legacy","legacy","0","202","NA","uniform","60585","1000","0.0165057357432","1","undefined","1","0","7","7","7","0","7","7","7","NA","7","7","0","7","NA","7","7","0","7","NA","7","NA","7","0","0","7","7","0","7","7","8","/","07/20/18 12:50:47","The main experiment item","yes","FIN__BA__M21__7%3A10%3A17.osexp","C:\Users\ERP Testing Room\Desktop\Joanna\morph21","no","mono","no","18","no","white","no","yes","1080","legacy","7","7","C:/Users/ERP Testing Room/Desktop/Joanna/morph21/subject-131.csv","xpyriment","Jazzy James","3.1.4","0","/","NA","NA","NA","NA","space","/","979","NA","NA","NA","NA","113394","979","2","legacy","1024","2","48000","-16","BA_m21","131","odd","CW_L","COMPOSER","2407","143593","141985","135843","115821","NA","NA","NA","NA","143589","142482","NA","141485","NA","141475","143589","2427","143893","NA","NA","142593","2407","2407","142993","141475","2407","142593","143893","morph21_Oliver/Morris","5","7303","8","yes","1280","6"
"400","55.5555555556","55.5555555556","921.777777778","921.777777778","black","no","xpyriment","legacy","legacy","0","208","NA","uniform","62770","1000","0.015931177314","0","undefined","0","0","8","8","8","0","8","8","8","NA","8","8","0","8","NA","8","8","0","8","NA","8","NA","8","0","0","8","8","0","8","8","9","z","07/20/18 12:50:47","The main experiment item","yes","FIN__BA__M21__7%3A10%3A17.osexp","C:\Users\ERP Testing Room\Desktop\Joanna\morph21","no","mono","no","18","no","white","no","yes","1080","legacy","8","8","C:/Users/ERP Testing Room/Desktop/Joanna/morph21/subject-131.csv","xpyriment","Jazzy James","3.1.4","0","None","NA","NA","NA","NA","space","None","993","NA","NA","NA","NA","113394","993","2","legacy","1024","2","48000","-16","BA_m21","131","odd","FILL_NW","CORG","2407","148160","145051","146651","115821","NA","NA","NA","NA","143589","145548","NA","144551","NA","144547","146644","2427","148560","NA","NA","145651","2407","2407","146043","144547","2407","145651","148560","morph21_Oliver/Morris","5","8296","9","yes","1280","7"
"300","50","50","928.4","928.4","black","no","xpyriment","legacy","legacy","0","205","NA","uniform","59150","1000","0.0169061707523","0","undefined","0","0","9","9","9","0","9","9","9","NA","9","9","0","9","NA","9","9","0","9","NA","9","NA","9","0","0","9","9","0","9","9","10","z","07/20/18 12:50:47","The main experiment item","yes","FIN__BA__M21__7%3A10%3A17.osexp","C:\Users\ERP Testing Room\Desktop\Joanna\morph21","no","mono","no","18","no","white","no","yes","1080","legacy","9","9","C:/Users/ERP Testing Room/Desktop/Joanna/morph21/subject-131.csv","xpyriment","Jazzy James","3.1.4","0","None","NA","NA","NA","NA","space","None","988","NA","NA","NA","NA","113394","988","2","legacy","1024","2","48000","-16","BA_m21","131","odd","NW_S_SIMP","WARNORY","2407","151428","149827","146651","115821","NA","NA","NA","NA","143589","150324","NA","149327","NA","149324","151424","2427","151728","NA","NA","150436","2407","2407","150828","149324","2407","150436","151728","morph21_Oliver/Morris","5","9284","10","yes","1280","12"
"200","54.5454545455","54.5454545455","930.454545455","930.454545455","black","no","xpyriment","legacy","legacy","0","205","NA","uniform","58258","1000","0.017165024546","1","undefined","1","0","10","10","10","0","10","10","10","NA","10","10","0","10","NA","10","10","0","10","NA","10","NA","10","0","0","10","10","0","10","10","11","z","07/20/18 12:50:47","The main experiment item","yes","FIN__BA__M21__7%3A10%3A17.osexp","C:\Users\ERP Testing Room\Desktop\Joanna\morph21","no","mono","no","18","no","white","no","yes","1080","legacy","10","10","C:/Users/ERP Testing Room/Desktop/Joanna/morph21/subject-131.csv","xpyriment","Jazzy James","3.1.4","0","z","NA","NA","NA","NA","space","z","951","NA","NA","NA","NA","113394","951","2","legacy","1024","2","48000","-16","BA_m21","131","odd","NW_S_SIMP","JAWLY","2407","154486","152894","146651","115821","NA","NA","NA","NA","154479","153392","NA","152394","NA","152390","154479","2427","154686","NA","NA","153486","2407","2407","153878","152390","2407","153486","154686","morph21_Oliver/Morris","6","10235","11","yes","1280","7"
"200","58.3333333333","58.3333333333","914.833333333","914.833333333","black","no","xpyriment","legacy","legacy","0","203","NA","uniform","67082","1000","0.0149071285889","1","undefined","1","0","11","11","11","0","11","11","11","NA","11","11","0","11","NA","11","11","0","11","NA","11","NA","11","0","0","11","11","0","11","11","12","z","07/20/18 12:50:47","The main experiment item","yes","FIN__BA__M21__7%3A10%3A17.osexp","C:\Users\ERP Testing Room\Desktop\Joanna\morph21","no","mono","no","18","no","white","no","yes","1080","legacy","11","11","C:/Users/ERP Testing Room/Desktop/Joanna/morph21/subject-131.csv","xpyriment","Jazzy James","3.1.4","0","z","NA","NA","NA","NA","space","z","743","NA","NA","NA","NA","113394","743","2","legacy","1024","2","48000","-16","BA_m21","131","odd","NW_S_COMP","FANFIL","2407","158970","155869","157461","115821","NA","NA","NA","NA","157451","156367","NA","155370","NA","155364","157451","2427","159170","NA","NA","156461","2407","2407","156853","155363","2407","156461","159170","morph21_Oliver/Morris","7","10978","12","yes","1280","6"
"300","61.5384615385","61.5384615385","919.230769231","919.230769231","black","no","xpyriment","legacy","legacy","0","201","NA","uniform","62233","1000","0.0160686452525","1","undefined","1","0","12","12","12","0","12","12","12","NA","12","12","0","12","NA","12","12","0","12","NA","12","NA","12","0","0","12","12","0","12","12","13","/","07/20/18 12:50:47","The main experiment item","yes","FIN__BA__M21__7%3A10%3A17.osexp","C:\Users\ERP Testing Room\Desktop\Joanna\morph21","no","mono","no","18","no","white","no","yes","1080","legacy","12","12","C:/Users/ERP Testing Room/Desktop/Joanna/morph21/subject-131.csv","xpyriment","Jazzy James","3.1.4","0","/","NA","NA","NA","NA","space","/","972","NA","NA","NA","NA","113394","972","2","legacy","1024","2","48000","-16","BA_m21","131","odd","CW_S","INSISTENT","2407","161928","160336","157461","115821","NA","NA","NA","NA","161919","160833","NA","159836","NA","159830","161919","2427","162228","NA","NA","160928","2407","2407","161320","159830","2407","160928","162228","morph21_Oliver/Morris","8","11950","13","yes","1280","9"
"200","64.2857142857","64.2857142857","918.142857143","918.142857143","black","no","xpyriment","legacy","legacy","0","208","NA","uniform","63530","1000","0.0157405949945","1","undefined","1","0","13","13","13","0","13","13","13","NA","13","13","0","13","NA","13","13","0","13","NA","13","NA","13","0","0","13","13","0","13","13","14","z","07/20/18 12:50:47","The main experiment item","yes","FIN__BA__M21__7%3A10%3A17.osexp","C:\Users\ERP Testing Room\Desktop\Joanna\morph21","no","mono","no","18","no","white","no","yes","1080","legacy","13","13","C:/Users/ERP Testing Room/Desktop/Joanna/morph21/subject-131.csv","xpyriment","Jazzy James","3.1.4","0","z","NA","NA","NA","NA","space","z","904","NA","NA","NA","NA","113394","904","2","legacy","1024","2","48000","-16","BA_m21","131","odd","FILL_NW","CINDS","2407","165037","163436","157461","115821","NA","NA","NA","NA","165026","163934","NA","162936","NA","162930","165026","2427","165237","NA","NA","164036","2407","2407","164428","162930","2407","164036","165237","morph21_Oliver/Morris","9","12854","14","yes","1280","6"
"400","66.6666666667","66.6666666667","895.2","895.2","black","no","xpyriment","legacy","legacy","0","207","NA","uniform","73226","1000","0.0136563515691","1","undefined","1","0","14","14","14","0","14","14","14","NA","14","14","0","14","NA","14","14","0","14","NA","14","NA","14","0","0","14","14","0","14","14","15","/","07/20/18 12:50:47","The main experiment item","yes","FIN__BA__M21__7%3A10%3A17.osexp","C:\Users\ERP Testing Room\Desktop\Joanna\morph21","no","mono","no","18","no","white","no","yes","1080","legacy","14","14","C:/Users/ERP Testing Room/Desktop/Joanna/morph21/subject-131.csv","xpyriment","Jazzy James","3.1.4","0","/","NA","NA","NA","NA","space","/","574","NA","NA","NA","NA","113394","574","2","legacy","1024","2","48000","-16","BA_m21","131","odd","FILL_W","QUIT","2407","169563","166437","168054","115821","NA","NA","NA","NA","168050","166934","NA","165937","NA","165931","168050","2427","169963","NA","NA","167062","2407","2407","167453","165931","2407","167062","169963","morph21_Oliver/Morris","10","13428","15","yes","1280","21"
"400","68.75","68.75","901.25","901.25","black","no","xpyriment","legacy","legacy","0","204","NA","uniform","63623","1000","0.0157175864074","1","undefined","1","0","15","15","15","0","15","15","15","NA","15","15","0","15","NA","15","15","0","15","NA","15","NA","15","0","0","15","15","0","15","15","16","z","07/20/18 12:50:47","The main experiment item","yes","FIN__BA__M21__7%3A10%3A17.osexp","C:\Users\ERP Testing Room\Desktop\Joanna\morph21","no","mono","no","18","no","white","no","yes","1080","legacy","15","15","C:/Users/ERP Testing Room/Desktop/Joanna/morph21/subject-131.csv","xpyriment","Jazzy James","3.1.4","0","z","NA","NA","NA","NA","space","z","992","NA","NA","NA","NA","113394","992","2","legacy","1024","2","48000","-16","BA_m21","131","odd","NW_L_COMP","COLDIDY","2407","172805","171171","168054","115821","NA","NA","NA","NA","172799","171668","NA","170671","NA","170667","172799","2427","173205","NA","NA","171805","2407","2407","172196","170667","2407","171804","173205","morph21_Oliver/Morris","11","14420","16","yes","1280","10"
"300","64.7058823529","64.7058823529","906.411764706","906.411764706","black","no","xpyriment","legacy","legacy","0","208","NA","uniform","62146","1000","0.0160911402182","0","undefined","0","0","16","16","16","0","16","16","16","NA","16","16","0","16","NA","16","16","0","16","NA","16","NA","16","0","0","16","16","0","16","16","17","z","07/20/18 12:50:47","The main experiment item","yes","FIN__BA__M21__7%3A10%3A17.osexp","C:\Users\ERP Testing Room\Desktop\Joanna\morph21","no","mono","no","18","no","white","no","yes","1080","legacy","16","16","C:/Users/ERP Testing Room/Desktop/Joanna/morph21/subject-131.csv","xpyriment","Jazzy James","3.1.4","0","None","NA","NA","NA","NA","space","None","989","NA","NA","NA","NA","113394","989","2","legacy","1024","2","48000","-16","BA_m21","131","odd","FILL_NW","DASK","2407","175913","174338","168054","115821","NA","NA","NA","NA","172799","174835","NA","173838","NA","173831","175910","2427","176213","NA","NA","174921","2407","2407","175313","173830","2407","174921","176213","morph21_Oliver/Morris","11","15409","17","yes","1280","12"
"250","61.1111111111","61.1111111111","911","911","black","no","xpyriment","legacy","legacy","0","203","NA","uniform","58542","1000","0.0170817532712","0","undefined","0","0","17","17","17","0","17","17","17","NA","17","17","0","17","NA","17","17","0","17","NA","17","NA","17","0","0","17","17","0","17","17","18","z","07/20/18 12:50:47","The main experiment item","yes","FIN__BA__M21__7%3A10%3A17.osexp","C:\Users\ERP Testing Room\Desktop\Joanna\morph21","no","mono","no","18","no","white","no","yes","1080","legacy","17","17","C:/Users/ERP Testing Room/Desktop/Joanna/morph21/subject-131.csv","xpyriment","Jazzy James","3.1.4","0","None","NA","NA","NA","NA","space","None","989","NA","NA","NA","NA","113394","989","2","legacy","1024","2","48000","-16","BA_m21","131","odd","NW_S_COMP","BRANCHEL","2407","180572","177463","179063","115821","NA","NA","NA","NA","172799","177960","NA","176963","NA","176957","179060","2427","180822","NA","NA","178071","2407","2407","178463","176957","2407","178071","180822","morph21_Oliver/Morris","11","16398","18","yes","1280","16"
"300","63.1578947368","63.1578947368","903.052631579","903.052631579","black","no","xpyriment","legacy","legacy","0","205","NA","uniform","59188","1000","0.0168953166182","1","undefined","1","0","18","18","18","0","18","18","18","NA","18","18","0","18","NA","18","18","0","18","NA","18","NA","18","0","0","18","18","0","18","18","19","z","07/20/18 12:50:47","The main experiment item","yes","FIN__BA__M21__7%3A10%3A17.osexp","C:\Users\ERP Testing Room\Desktop\Joanna\morph21","no","mono","no","18","no","white","no","yes","1080","legacy","18","18","C:/Users/ERP Testing Room/Desktop/Joanna/morph21/subject-131.csv","xpyriment","Jazzy James","3.1.4","0","z","NA","NA","NA","NA","space","z","760","NA","NA","NA","NA","113394","760","2","legacy","1024","2","48000","-16","BA_m21","131","odd","NW_S_SIMP","HELMETOUS","2407","183588","181988","179063","115821","NA","NA","NA","NA","183578","182486","NA","181488","NA","181483","183578","2427","183889","NA","NA","182588","2407","2407","182980","181483","2407","182588","183889","morph21_Oliver/Morris","12","17158","19","yes","1280","14"
"300","65","65","893.15","893.15","black","no","xpyriment","legacy","legacy","0","203","NA","uniform","71619","1000","0.0139627752412","1","undefined","1","0","19","19","19","0","19","19","19","NA","19","19","0","19","NA","19","19","0","19","NA","19","NA","19","0","0","19","19","0","19","19","20","z","07/20/18 12:50:47","The main experiment item","yes","FIN__BA__M21__7%3A10%3A17.osexp","C:\Users\ERP Testing Room\Desktop\Joanna\morph21","no","mono","no","18","no","white","no","yes","1080","legacy","19","19","C:/Users/ERP Testing Room/Desktop/Joanna/morph21/subject-131.csv","xpyriment","Jazzy James","3.1.4","0","z","NA","NA","NA","NA","space","z","705","NA","NA","NA","NA","113394","705","2","legacy","1024","2","48000","-16","BA_m21","131","odd","NW_S_COMP","CURTIDY","2407","186739","185147","179063","115821","NA","NA","NA","NA","186730","185644","NA","184647","NA","184640","186730","2427","187040","NA","NA","185740","2407","2407","186131","184640","2407","185739","187040","morph21_Oliver/Morris","13","17863","20","yes","1280","11"
"400","66.6666666667","66.6666666667","878.428571429","878.428571429","black","no","xpyriment","legacy","legacy","0","203","NA","uniform","75547","1000","0.0132367929898","1","undefined","1","0","20","20","20","0","20","20","20","NA","20","20","0","20","NA","20","20","0","20","NA","20","NA","20","0","0","20","20","0","20","20","21","z","07/20/18 12:50:47","The main experiment item","yes","FIN__BA__M21__7%3A10%3A17.osexp","C:\Users\ERP Testing Room\Desktop\Joanna\morph21","no","mono","no","18","no","white","no","yes","1080","legacy","20","20","C:/Users/ERP Testing Room/Desktop/Joanna/morph21/subject-131.csv","xpyriment","Jazzy James","3.1.4","0","z","NA","NA","NA","NA","space","z","584","NA","NA","NA","NA","113394","584","2","legacy","1024","2","48000","-16","BA_m21","131","odd","NW_S_COMP","ARIDILM","2407","191281","188190","189773","115821","NA","NA","NA","NA","189764","188687","NA","187690","NA","187681","189764","2427","191682","NA","NA","188773","2407","2407","189165","187681","2407","188773","191682","morph21_Oliver/Morris","14","18447","21","yes","1280","9"
"400","63.6363636364","63.6363636364","883.590909091","883.590909091","black","no","xpyriment","legacy","legacy","0","204","NA","uniform","59568","1000","0.0167875369326","0","undefined","0","0","21","21","21","0","21","21","21","NA","21","21","0","21","NA","21","21","0","21","NA","21","NA","21","0","0","21","21","0","21","21","22","z","07/20/18 12:50:47","The main experiment item","yes","FIN__BA__M21__7%3A10%3A17.osexp","C:\Users\ERP Testing Room\Desktop\Joanna\morph21","no","mono","no","18","no","white","no","yes","1080","legacy","21","21","C:/Users/ERP Testing Room/Desktop/Joanna/morph21/subject-131.csv","xpyriment","Jazzy James","3.1.4","0","None","NA","NA","NA","NA","space","None","992","NA","NA","NA","NA","113394","992","2","legacy","1024","2","48000","-16","BA_m21","131","odd","NW_L_COMP","PASSMANT","2407","194473","192890","189773","115821","NA","NA","NA","NA","189764","193387","NA","192390","NA","192381","194466","2427","194873","NA","NA","193473","2407","2407","193865","192381","2407","193473","194873","morph21_Oliver/Morris","14","19439","22","yes","1280","14"
"400","60.8695652174","60.8695652174","888.217391304","888.217391304","black","no","xpyriment","legacy","legacy","0","208","NA","uniform","58113","1000","0.0172078536644","0","undefined","0","0","22","22","22","0","22","22","22","NA","22","22","0","22","NA","22","22","0","22","NA","22","NA","22","0","0","22","22","0","22","22","23","z","07/20/18 12:50:47","The main experiment item","yes","FIN__BA__M21__7%3A10%3A17.osexp","C:\Users\ERP Testing Room\Desktop\Joanna\morph21","no","mono","no","18","no","white","no","yes","1080","legacy","22","22","C:/Users/ERP Testing Room/Desktop/Joanna/morph21/subject-131.csv","xpyriment","Jazzy James","3.1.4","0","None","NA","NA","NA","NA","space","None","990","NA","NA","NA","NA","113394","990","2","legacy","1024","2","48000","-16","BA_m21","131","odd","FILL_NW","FROES","2407","197715","196115","189773","115821","NA","NA","NA","NA","189764","196612","NA","195615","NA","195611","197705","2427","198115","NA","NA","196715","2407","2407","197107","195611","2407","196715","198115","morph21_Oliver/Morris","14","20429","23","yes","1280","21"
"250","58.3333333333","58.3333333333","892.5","892.5","black","no","xpyriment","legacy","legacy","0","202","NA","uniform","62221","1000","0.0160717442664","0","undefined","0","0","23","23","23","0","23","23","23","NA","23","23","0","23","NA","23","23","0","23","NA","23","NA","23","0","0","23","23","0","23","23","24","/","07/20/18 12:50:47","The main experiment item","yes","FIN__BA__M21__7%3A10%3A17.osexp","C:\Users\ERP Testing Room\Desktop\Joanna\morph21","no","mono","no","18","no","white","no","yes","1080","legacy","23","23","C:/Users/ERP Testing Room/Desktop/Joanna/morph21/subject-131.csv","xpyriment","Jazzy James","3.1.4","0","None","NA","NA","NA","NA","space","None","991","NA","NA","NA","NA","113394","991","2","legacy","1024","2","48000","-16","BA_m21","131","odd","CW_L","CREAMY","2407","202474","199382","200965","115821","NA","NA","NA","NA","189764","199879","NA","198873","NA","198863","200957","2427","202724","NA","NA","199965","2407","2407","200357","198863","2407","199965","202724","morph21_Oliver/Morris","14","21420","24","yes","1280","49"
"350","56","56","896.52","896.52","black","no","xpyriment","legacy","legacy","0","204","NA","uniform","61920","1000","0.016149870801","0","undefined","0","0","24","24","24","0","24","24","24","NA","24","24","0","24","NA","24","24","0","24","NA","24","NA","24","0","0","24","24","0","24","24","25","z","07/20/18 12:50:47","The main experiment item","yes","FIN__BA__M21__7%3A10%3A17.osexp","C:\Users\ERP Testing Room\Desktop\Joanna\morph21","no","mono","no","18","no","white","no","yes","1080","legacy","24","24","C:/Users/ERP Testing Room/Desktop/Joanna/morph21/subject-131.csv","xpyriment","Jazzy James","3.1.4","0","None","NA","NA","NA","NA","space","None","993","NA","NA","NA","NA","113394","993","2","legacy","1024","2","48000","-16","BA_m21","131","odd","NW_L_COMP","MOUTHIME","2407","205533","203950","200965","115821","NA","NA","NA","NA","189764","204447","NA","203450","NA","203438","205527","2427","205883","NA","NA","204533","2407","2407","204925","203438","2407","204533","205883","morph21_Oliver/Morris","14","22413","25","yes","1280","11"
"300","53.8461538462","53.8461538462","900.307692308","900.307692308","black","no","xpyriment","legacy","legacy","0","205","NA","uniform","58700","1000","0.0170357751278","0","undefined","0","0","25","25","25","0","25","25","25","NA","25","25","0","25","NA","25","25","0","25","NA","25","NA","25","0","0","25","25","0","25","25","26","z","07/20/18 12:50:47","The main experiment item","yes","FIN__BA__M21__7%3A10%3A17.osexp","C:\Users\ERP Testing Room\Desktop\Joanna\morph21","no","mono","no","18","no","white","no","yes","1080","legacy","25","25","C:/Users/ERP Testing Room/Desktop/Joanna/morph21/subject-131.csv","xpyriment","Jazzy James","3.1.4","0","None","NA","NA","NA","NA","space","None","995","NA","NA","NA","NA","113394","995","2","legacy","1024","2","48000","-16","BA_m21","131","odd","NW_S_SIMP","HEIRIC","2407","208633","207041","200965","115821","NA","NA","NA","NA","189764","207539","NA","206541","NA","206537","208628","2427","208933","NA","NA","207633","2407","2407","208033","206537","2407","207633","208933","morph21_Oliver/Morris","14","23408","26","yes","1280","3"
"250","51.8518518519","51.8518518519","903.62962963","903.62962963","black","no","xpyriment","legacy","legacy","0","203","NA","uniform","57009","1000","0.0175410900033","0","undefined","0","0","26","26","26","0","26","26","26","NA","26","26","0","26","NA","26","26","0","26","NA","26","NA","26","0","0","26","26","0","26","26","27","z","07/20/18 12:50:47","The main experiment item","yes","FIN__BA__M21__7%3A10%3A17.osexp","C:\Users\ERP Testing Room\Desktop\Joanna\morph21","no","mono","no","18","no","white","no","yes","1080","legacy","26","26","C:/Users/ERP Testing Room/Desktop/Joanna/morph21/subject-131.csv","xpyriment","Jazzy James","3.1.4","0","None","NA","NA","NA","NA","space","None","990","NA","NA","NA","NA","113394","990","2","legacy","1024","2","48000","-16","BA_m21","131","odd","NW_S_COMP","BEEREL","2407","213258","210167","211750","115821","NA","NA","NA","NA","189764","210664","NA","209667","NA","209657","211740","2427","213509","NA","NA","210750","2407","2407","211142","209657","2407","210750","213509","morph21_Oliver/Morris","14","24398","27","yes","1280","5"
"250","53.5714285714","53.5714285714","897.285714286","897.285714286","black","no","xpyriment","legacy","legacy","0","207","NA","uniform","73520","1000","0.0136017410229","1","undefined","1","0","27","27","27","0","27","27","27","NA","27","27","0","27","NA","27","27","0","27","NA","27","NA","27","0","0","27","27","0","27","27","28","/","07/20/18 12:50:47","The main experiment item","yes","FIN__BA__M21__7%3A10%3A17.osexp","C:\Users\ERP Testing Room\Desktop\Joanna\morph21","no","mono","no","18","no","white","no","yes","1080","legacy","27","27","C:/Users/ERP Testing Room/Desktop/Joanna/morph21/subject-131.csv","xpyriment","Jazzy James","3.1.4","0","/","NA","NA","NA","NA","space","/","726","NA","NA","NA","NA","113394","726","2","legacy","1024","2","48000","-16","BA_m21","131","odd","FILL_W","WEAVE","2407","216342","214742","211750","115821","NA","NA","NA","NA","216334","215239","NA","214242","NA","214233","216334","2427","216592","NA","NA","215342","2407","2407","215733","214233","2407","215342","216592","morph21_Oliver/Morris","15","25124","28","yes","1280","12"
"350","55.1724137931","55.1724137931","889.620689655","889.620689655","black","no","xpyriment","legacy","legacy","0","206","NA","uniform","68884","1000","0.0145171592823","1","undefined","1","0","28","28","28","0","28","28","28","NA","28","28","0","28","NA","28","28","0","28","NA","28","NA","28","0","0","28","28","0","28","28","29","z","07/20/18 12:50:47","The main experiment item","yes","FIN__BA__M21__7%3A10%3A17.osexp","C:\Users\ERP Testing Room\Desktop\Joanna\morph21","no","mono","no","18","no","white","no","yes","1080","legacy","28","28","C:/Users/ERP Testing Room/Desktop/Joanna/morph21/subject-131.csv","xpyriment","Jazzy James","3.1.4","0","z","NA","NA","NA","NA","space","z","675","NA","NA","NA","NA","113394","675","2","legacy","1024","2","48000","-16","BA_m21","131","odd","NW_L_SIMP","WITCHISH","2407","219409","217825","211750","115821","NA","NA","NA","NA","219402","218322","NA","217325","NA","217316","219402","2427","219759","NA","NA","218409","2407","2407","218800","217316","2407","218409","219759","morph21_Oliver/Morris","16","25799","29","yes","1280","11"
"200","56.6666666667","56.6666666667","884.133333333","884.133333333","black","no","xpyriment","legacy","legacy","0","208","NA","uniform","63131","1000","0.0158400785668","1","undefined","1","0","29","29","29","0","29","29","29","NA","29","29","0","29","NA","29","29","0","29","NA","29","NA","29","0","0","29","29","0","29","29","30","z","07/20/18 12:50:47","The main experiment item","yes","FIN__BA__M21__7%3A10%3A17.osexp","C:\Users\ERP Testing Room\Desktop\Joanna\morph21","no","mono","no","18","no","white","no","yes","1080","legacy","29","29","C:/Users/ERP Testing Room/Desktop/Joanna/morph21/subject-131.csv","xpyriment","Jazzy James","3.1.4","0","z","NA","NA","NA","NA","space","z","725","NA","NA","NA","NA","113394","725","2","legacy","1024","2","48000","-16","BA_m21","131","odd","FILL_NW","BROUPS","2407","224077","220985","222568","115821","NA","NA","NA","NA","222562","221482","NA","220485","NA","220474","222562","2427","224277","NA","NA","221568","2407","2407","221960","220474","2407","221568","224277","morph21_Oliver/Morris","17","26524","30","yes","1280","4"
"250","58.064516129","58.064516129","885.290322581","885.290322581","black","no","xpyriment","legacy","legacy","0","204","NA","uniform","66521","1000","0.0150328467702","1","undefined","1","0","30","30","30","0","30","30","30","NA","30","30","0","30","NA","30","30","0","30","NA","30","NA","30","0","0","30","30","0","30","30","31","z","07/20/18 12:50:47","The main experiment item","yes","FIN__BA__M21__7%3A10%3A17.osexp","C:\Users\ERP Testing Room\Desktop\Joanna\morph21","no","mono","no","18","no","white","no","yes","1080","legacy","30","30","C:/Users/ERP Testing Room/Desktop/Joanna/morph21/subject-131.csv","xpyriment","Jazzy James","3.1.4","0","z","NA","NA","NA","NA","space","z","920","NA","NA","NA","NA","113394","920","2","legacy","1024","2","48000","-16","BA_m21","131","odd","NW_L_COMP","BREAKIDY","2407","227077","225477","222568","115821","NA","NA","NA","NA","227067","225974","NA","224977","NA","224966","227067","2427","227327","NA","NA","226077","2407","2407","226468","224966","2407","226077","227327","morph21_Oliver/Morris","18","27444","31","yes","1280","23"
"300","56.25","56.25","888.5625","888.5625","black","no","xpyriment","legacy","legacy","0","205","NA","uniform","64344","1000","0.0155414646276","0","undefined","0","0","31","31","31","0","31","31","31","NA","31","31","0","31","NA","31","31","0","31","NA","31","NA","31","0","0","31","31","0","31","31","32","z","07/20/18 12:50:47","The main experiment item","yes","FIN__BA__M21__7%3A10%3A17.osexp","C:\Users\ERP Testing Room\Desktop\Joanna\morph21","no","mono","no","18","no","white","no","yes","1080","legacy","31","31","C:/Users/ERP Testing Room/Desktop/Joanna/morph21/subject-131.csv","xpyriment","Jazzy James","3.1.4","0","None","NA","NA","NA","NA","space","None","990","NA","NA","NA","NA","113394","990","2","legacy","1024","2","48000","-16","BA_m21","131","odd","NW_S_SIMP","NEXTNESS","2407","230127","228527","222568","115821","NA","NA","NA","NA","227067","229024","NA","228027","NA","228018","230117","2427","230427","NA","NA","229127","2407","2407","229518","228018","2407","229127","230427","morph21_Oliver/Morris","18","28434","32","yes","1280","9"
"250","54.5454545455","54.5454545455","891.606060606","891.606060606","black","no","xpyriment","legacy","legacy","0","207","NA","uniform","58226","1000","0.0171744581458","0","undefined","0","0","32","32","32","0","32","32","32","NA","32","32","0","32","NA","32","32","0","32","NA","32","NA","32","0","0","32","32","0","32","32","33","/","07/20/18 12:50:47","The main experiment item","yes","FIN__BA__M21__7%3A10%3A17.osexp","C:\Users\ERP Testing Room\Desktop\Joanna\morph21","no","mono","no","18","no","white","no","yes","1080","legacy","32","32","C:/Users/ERP Testing Room/Desktop/Joanna/morph21/subject-131.csv","xpyriment","Jazzy James","3.1.4","0","None","NA","NA","NA","NA","space","None","989","NA","NA","NA","NA","113394","989","2","legacy","1024","2","48000","-16","BA_m21","131","odd","FILL_W","SOUGHT","2407","234660","231577","233152","115821","NA","NA","NA","NA","227067","232074","NA","231077","NA","231071","233149","2427","234910","NA","NA","232160","2407","2407","232552","231071","2407","232160","234910","morph21_Oliver/Morris","18","29423","33","yes","1280","40"
"400","52.9411764706","52.9411764706","894.470588235","894.470588235","black","no","xpyriment","legacy","legacy","0","206","NA","uniform","56858","1000","0.0175876745577","0","undefined","0","0","33","33","33","0","33","33","33","NA","33","33","0","33","NA","33","33","0","33","NA","33","NA","33","0","0","33","33","0","33","33","34","z","07/20/18 12:50:47","The main experiment item","yes","FIN__BA__M21__7%3A10%3A17.osexp","C:\Users\ERP Testing Room\Desktop\Joanna\morph21","no","mono","no","18","no","white","no","yes","1080","legacy","33","33","C:/Users/ERP Testing Room/Desktop/Joanna/morph21/subject-131.csv","xpyriment","Jazzy James","3.1.4","0","None","NA","NA","NA","NA","space","None","989","NA","NA","NA","NA","113394","989","2","legacy","1024","2","48000","-16","BA_m21","131","odd","NW_L_SIMP","BLOODER","2407","237795","236177","233152","115821","NA","NA","NA","NA","227067","236674","NA","235677","NA","235668","237792","2427","238195","NA","NA","236802","2407","2407","237194","235668","2407","236802","238195","morph21_Oliver/Morris","18","30412","34","yes","1280","24"
"350","54.2857142857","54.2857142857","890.6","890.6","black","no","xpyriment","legacy","legacy","0","208","NA","uniform","67326","1000","0.0148531028132","1","undefined","1","0","34","34","34","0","34","34","34","NA","34","34","0","34","NA","34","34","0","34","NA","34","NA","34","0","0","34","34","0","34","34","35","z","07/20/18 12:50:47","The main experiment item","yes","FIN__BA__M21__7%3A10%3A17.osexp","C:\Users\ERP Testing Room\Desktop\Joanna\morph21","no","mono","no","18","no","white","no","yes","1080","legacy","34","34","C:/Users/ERP Testing Room/Desktop/Joanna/morph21/subject-131.csv","xpyriment","Jazzy James","3.1.4","0","z","NA","NA","NA","NA","space","z","759","NA","NA","NA","NA","113394","759","2","legacy","1024","2","48000","-16","BA_m21","131","odd","FILL_NW","HEAS","2407","241053","239453","233152","115821","NA","NA","NA","NA","241050","239950","NA","238953","NA","238945","241050","2427","241403","NA","NA","240062","2407","2407","240453","238945","2407","240062","241403","morph21_Oliver/Morris","19","31171","35","yes","1280","26"
"250","55.5555555556","55.5555555556","889.722222222","889.722222222","black","no","xpyriment","legacy","legacy","0","204","NA","uniform","67138","1000","0.0148946945098","1","undefined","1","0","35","35","35","0","35","35","35","NA","35","35","0","35","NA","35","35","0","35","NA","35","NA","35","0","0","35","35","0","35","35","36","z","07/20/18 12:50:47","The main experiment item","yes","FIN__BA__M21__7%3A10%3A17.osexp","C:\Users\ERP Testing Room\Desktop\Joanna\morph21","no","mono","no","18","no","white","no","yes","1080","legacy","35","35","C:/Users/ERP Testing Room/Desktop/Joanna/morph21/subject-131.csv","xpyriment","Jazzy James","3.1.4","0","z","NA","NA","NA","NA","space","z","859","NA","NA","NA","NA","113394","859","2","legacy","1024","2","48000","-16","BA_m21","131","odd","NW_L_COMP","FREENELS","2407","245670","242578","244162","115821","NA","NA","NA","NA","244154","243075","NA","242078","NA","242069","244154","2427","245920","NA","NA","243162","2407","2407","243553","242068","2407","243162","245920","morph21_Oliver/Morris","20","32030","36","yes","1280","15"
"200","56.7567567568","56.7567567568","885.891891892","885.891891892","black","no","xpyriment","legacy","legacy","0","207","NA","uniform","65376","1000","0.0152961331375","1","undefined","1","0","36","36","36","0","36","36","36","NA","36","36","0","36","NA","36","36","0","36","NA","36","NA","36","0","0","36","36","0","36","36","37","/","07/20/18 12:50:47","The main experiment item","yes","FIN__BA__M21__7%3A10%3A17.osexp","C:\Users\ERP Testing Room\Desktop\Joanna\morph21","no","mono","no","18","no","white","no","yes","1080","legacy","36","36","C:/Users/ERP Testing Room/Desktop/Joanna/morph21/subject-131.csv","xpyriment","Jazzy James","3.1.4","0","/","NA","NA","NA","NA","space","/","748","NA","NA","NA","NA","113394","748","2","legacy","1024","2","48000","-16","BA_m21","131","odd","FILL_W","FLOAT","2407","248720","247137","244162","115821","NA","NA","NA","NA","248713","247634","NA","246637","NA","246630","248713","2427","248920","NA","NA","247720","2407","2407","248112","246630","2407","247720","248920","morph21_Oliver/Morris","21","32778","37","yes","1280","30"
"350","57.8947368421","57.8947368421","877.789473684","877.789473684","black","no","xpyriment","legacy","legacy","0","202","NA","uniform","78669","1000","0.0127114873711","1","undefined","1","0","37","37","37","0","37","37","37","NA","37","37","0","37","NA","37","37","0","37","NA","37","NA","37","0","0","37","37","0","37","37","38","/","07/20/18 12:50:47","The main experiment item","yes","FIN__BA__M21__7%3A10%3A17.osexp","C:\Users\ERP Testing Room\Desktop\Joanna\morph21","no","mono","no","18","no","white","no","yes","1080","legacy","37","37","C:/Users/ERP Testing Room/Desktop/Joanna/morph21/subject-131.csv","xpyriment","Jazzy James","3.1.4","0","/","NA","NA","NA","NA","space","/","578","NA","NA","NA","NA","113394","578","2","legacy","1024","2","48000","-16","BA_m21","131","odd","CW_L","EDITOR","2407","251762","250170","244162","115821","NA","NA","NA","NA","251756","250667","NA","249670","NA","249662","251756","2427","252112","NA","NA","250762","2407","2407","251154","249662","2407","250762","252112","morph21_Oliver/Morris","22","33356","38","yes","1280","45"
"350","58.9743589744","58.9743589744","874.102564103","874.102564103","black","no","xpyriment","legacy","legacy","0","206","NA","uniform","62432","1000","0.0160174269605","1","undefined","1","0","38","38","38","0","38","38","38","NA","38","38","0","38","NA","38","38","0","38","NA","38","NA","38","0","0","38","38","0","38","38","39","z","07/20/18 12:50:47","The main experiment item","yes","FIN__BA__M21__7%3A10%3A17.osexp","C:\Users\ERP Testing Room\Desktop\Joanna\morph21","no","mono","no","18","no","white","no","yes","1080","legacy","38","38","C:/Users/ERP Testing Room/Desktop/Joanna/morph21/subject-131.csv","xpyriment","Jazzy James","3.1.4","0","z","NA","NA","NA","NA","space","z","734","NA","NA","NA","NA","113394","734","2","legacy","1024","2","48000","-16","BA_m21","131","odd","NW_L_SIMP","CRITICANCE","2407","256363","253254","254854","115821","NA","NA","NA","NA","254851","253751","NA","252754","NA","252746","254851","2427","256713","NA","NA","253862","2407","2407","254254","252746","2407","253862","256713","morph21_Oliver/Morris","23","34090","39","yes","1280","22"
"200","60","60","875.225","875.225","black","no","xpyriment","legacy","legacy","0","207","NA","uniform","57745","1000","0.0173175166681","1","undefined","1","0","39","39","39","0","39","39","39","NA","39","39","0","39","NA","39","39","0","39","NA","39","NA","39","0","0","39","39","0","39","39","40","/","07/20/18 12:50:47","The main experiment item","yes","FIN__BA__M21__7%3A10%3A17.osexp","C:\Users\ERP Testing Room\Desktop\Joanna\morph21","no","mono","no","18","no","white","no","yes","1080","legacy","39","39","C:/Users/ERP Testing Room/Desktop/Joanna/morph21/subject-131.csv","xpyriment","Jazzy James","3.1.4","0","/","NA","NA","NA","NA","space","/","919","NA","NA","NA","NA","113394","919","2","legacy","1024","2","48000","-16","BA_m21","131","odd","FILL_W","BLEAK","2407","259638","258038","254854","115821","NA","NA","NA","NA","259633","258535","NA","257538","NA","257532","259633","2427","259838","NA","NA","258638","2407","2407","259030","257532","2407","258638","259838","morph21_Oliver/Morris","24","35009","40","yes","1280","5"
"200","60.9756097561","60.9756097561","871.804878049","871.804878049","black","no","xpyriment","legacy","legacy","0","208","NA","uniform","67374","1000","0.0148425208537","1","undefined","1","0","40","40","40","0","40","40","40","NA","40","40","0","40","NA","40","40","0","40","NA","40","NA","40","0","0","40","40","0","40","40","41","z","07/20/18 12:50:47","The main experiment item","yes","FIN__BA__M21__7%3A10%3A17.osexp","C:\Users\ERP Testing Room\Desktop\Joanna\morph21","no","mono","no","18","no","white","no","yes","1080","legacy","40","40","C:/Users/ERP Testing Room/Desktop/Joanna/morph21/subject-131.csv","xpyriment","Jazzy James","3.1.4","0","z","NA","NA","NA","NA","space","z","735","NA","NA","NA","NA","113394","735","2","legacy","1024","2","48000","-16","BA_m21","131","odd","FILL_NW","VUNKS","2407","262613","261038","254854","115821","NA","NA","NA","NA","262611","261536","NA","260539","NA","260527","262611","2427","262814","NA","NA","261622","2407","2407","262014","260527","2407","261622","262814","morph21_Oliver/Morris","25","35744","41","yes","1280","49"
"200","59.5238095238","59.5238095238","874.69047619","874.69047619","black","no","xpyriment","legacy","legacy","0","208","NA","uniform","53274","1000","0.0187708826069","0","undefined","0","0","41","41","41","0","41","41","41","NA","41","41","0","41","NA","41","41","0","41","NA","41","NA","41","0","0","41","41","0","41","41","42","z","07/20/18 12:50:47","The main experiment item","yes","FIN__BA__M21__7%3A10%3A17.osexp","C:\Users\ERP Testing Room\Desktop\Joanna\morph21","no","mono","no","18","no","white","no","yes","1080","legacy","41","41","C:/Users/ERP Testing Room/Desktop/Joanna/morph21/subject-131.csv","xpyriment","Jazzy James","3.1.4","0","None","NA","NA","NA","NA","space","None","993","NA","NA","NA","NA","113394","993","2","legacy","1024","2","48000","-16","BA_m21","131","odd","FILL_NW","TUEER","2407","267089","263980","265580","115821","NA","NA","NA","NA","262611","264477","NA","263480","NA","263475","265573","2427","267289","NA","NA","264580","2407","2407","264972","263475","2407","264580","267289","morph21_Oliver/Morris","25","36737","42","yes","1280","44"
"200","60.4651162791","60.4651162791","875.76744186","875.76744186","black","no","xpyriment","legacy","legacy","0","208","NA","uniform","63762","1000","0.015683322355","1","undefined","1","0","42","42","42","0","42","42","42","NA","42","42","0","42","NA","42","42","0","42","NA","42","NA","42","0","0","42","42","0","42","42","43","z","07/20/18 12:50:47","The main experiment item","yes","FIN__BA__M21__7%3A10%3A17.osexp","C:\Users\ERP Testing Room\Desktop\Joanna\morph21","no","mono","no","18","no","white","no","yes","1080","legacy","42","42","C:/Users/ERP Testing Room/Desktop/Joanna/morph21/subject-131.csv","xpyriment","Jazzy James","3.1.4","0","z","NA","NA","NA","NA","space","z","921","NA","NA","NA","NA","113394","921","2","legacy","1024","2","48000","-16","BA_m21","131","odd","FILL_NW","GILN","2407","270139","268530","265580","115821","NA","NA","NA","NA","270133","269028","NA","268031","NA","268020","270133","2427","270339","NA","NA","269139","2407","2407","269530","268020","2407","269139","270339","morph21_Oliver/Morris","26","37658","43","yes","1280","25"
"300","61.3636363636","61.3636363636","871.5","871.5","black","no","xpyriment","legacy","legacy","0","207","NA","uniform","69147","1000","0.014461943396","1","undefined","1","0","43","43","43","0","43","43","43","NA","43","43","0","43","NA","43","43","0","43","NA","43","NA","43","0","0","43","43","0","43","43","44","/","07/20/18 12:50:47","The main experiment item","yes","FIN__BA__M21__7%3A10%3A17.osexp","C:\Users\ERP Testing Room\Desktop\Joanna\morph21","no","mono","no","18","no","white","no","yes","1080","legacy","43","43","C:/Users/ERP Testing Room/Desktop/Joanna/morph21/subject-131.csv","xpyriment","Jazzy James","3.1.4","0","/","NA","NA","NA","NA","space","/","688","NA","NA","NA","NA","113394","688","2","legacy","1024","2","48000","-16","BA_m21","131","odd","FILL_W","BAKE","2407","273190","271597","265580","115821","NA","NA","NA","NA","273186","272094","NA","271097","NA","271092","273186","2427","273490","NA","NA","272197","2407","2407","272589","271092","2407","272197","273490","morph21_Oliver/Morris","27","38346","44","yes","1280","29"
"200","62.2222222222","62.2222222222","867.866666667","867.866666667","black","no","xpyriment","legacy","legacy","0","208","NA","uniform","63500","1000","0.0157480314961","1","undefined","1","0","44","44","44","0","44","44","44","NA","44","44","0","44","NA","44","44","0","44","NA","44","NA","44","0","0","44","44","0","44","44","45","z","07/20/18 12:50:47","The main experiment item","yes","FIN__BA__M21__7%3A10%3A17.osexp","C:\Users\ERP Testing Room\Desktop\Joanna\morph21","no","mono","no","18","no","white","no","yes","1080","legacy","44","44","C:/Users/ERP Testing Room/Desktop/Joanna/morph21/subject-131.csv","xpyriment","Jazzy James","3.1.4","0","z","NA","NA","NA","NA","space","z","708","NA","NA","NA","NA","113394","708","2","legacy","1024","2","48000","-16","BA_m21","131","odd","FILL_NW","HOITS","2407","277757","274657","276249","115821","NA","NA","NA","NA","276246","275154","NA","274157","NA","274150","276246","2427","277957","NA","NA","275257","2407","2407","275648","274150","2407","275257","277957","morph21_Oliver/Morris","28","39054","45","yes","1280","30"
"400","63.0434782609","63.0434782609","863.97826087","863.97826087","black","no","xpyriment","legacy","legacy","0","206","NA","uniform","72498","1000","0.0137934839582","1","undefined","1","0","45","45","45","0","45","45","45","NA","45","45","0","45","NA","45","45","0","45","NA","45","NA","45","0","0","45","45","0","45","45","46","z","07/20/18 12:50:47","The main experiment item","yes","FIN__BA__M21__7%3A10%3A17.osexp","C:\Users\ERP Testing Room\Desktop\Joanna\morph21","no","mono","no","18","no","white","no","yes","1080","legacy","45","45","C:/Users/ERP Testing Room/Desktop/Joanna/morph21/subject-131.csv","xpyriment","Jazzy James","3.1.4","0","z","NA","NA","NA","NA","space","z","689","NA","NA","NA","NA","113394","689","2","legacy","1024","2","48000","-16","BA_m21","131","odd","NW_L_SIMP","CLASSOUS","2407","280724","279140","276249","115821","NA","NA","NA","NA","280720","279637","NA","278640","NA","278633","280720","2427","281124","NA","NA","279724","2407","2407","280124","278633","2407","279724","281124","morph21_Oliver/Morris","29","39743","46","yes","1280","18"
"300","63.829787234","63.829787234","856","856","black","no","xpyriment","legacy","legacy","0","204","NA","uniform","74883","1000","0.013354165832","1","undefined","1","0","46","46","46","0","46","46","46","NA","46","46","0","46","NA","46","46","0","46","NA","46","NA","46","0","0","46","46","0","46","46","47","z","07/20/18 12:50:47","The main experiment item","yes","FIN__BA__M21__7%3A10%3A17.osexp","C:\Users\ERP Testing Room\Desktop\Joanna\morph21","no","mono","no","18","no","white","no","yes","1080","legacy","46","46","C:/Users/ERP Testing Room/Desktop/Joanna/morph21/subject-131.csv","xpyriment","Jazzy James","3.1.4","0","z","NA","NA","NA","NA","space","z","489","NA","NA","NA","NA","113394","489","2","legacy","1024","2","48000","-16","BA_m21","131","odd","NW_L_COMP","IME","2407","283890","282274","276249","115821","NA","NA","NA","NA","283886","282771","NA","281774","NA","281765","283886","2427","284191","NA","NA","282891","2407","2407","283290","281765","2407","282891","284191","morph21_Oliver/Morris","30","40232","47","yes","1280","20"
"350","64.5833333333","64.5833333333","855.1875","855.1875","black","no","xpyriment","legacy","legacy","0","201","NA","uniform","63570","1000","0.0157306905773","1","undefined","1","0","47","47","47","0","47","47","47","NA","47","47","0","47","NA","47","47","0","47","NA","47","NA","47","0","0","47","47","0","47","47","48","/","07/20/18 12:50:47","The main experiment item","yes","FIN__BA__M21__7%3A10%3A17.osexp","C:\Users\ERP Testing Room\Desktop\Joanna\morph21","no","mono","no","18","no","white","no","yes","1080","legacy","47","47","C:/Users/ERP Testing Room/Desktop/Joanna/morph21/subject-131.csv","xpyriment","Jazzy James","3.1.4","0","/","NA","NA","NA","NA","space","/","817","NA","NA","NA","NA","113394","817","2","legacy","1024","2","48000","-16","BA_m21","131","odd","CW_S","BEARDED","2407","288599","285466","287091","115821","NA","NA","NA","NA","287081","285963","NA","284966","NA","284961","287081","2427","288949","NA","NA","286091","2407","2407","286482","284961","2407","286091","288949","morph21_Oliver/Morris","31","41049","48","yes","1280","8"
"250","63.2653061224","63.2653061224","857.979591837","857.979591837","black","no","xpyriment","legacy","legacy","0","204","NA","uniform","64307","1000","0.0155504066431","0","undefined","0","0","48","48","48","0","48","48","48","NA","48","48","0","48","NA","48","48","0","48","NA","48","NA","48","0","0","48","48","0","48","48","49","z","07/20/18 12:50:47","The main experiment item","yes","FIN__BA__M21__7%3A10%3A17.osexp","C:\Users\ERP Testing Room\Desktop\Joanna\morph21","no","mono","no","18","no","white","no","yes","1080","legacy","48","48","C:/Users/ERP Testing Room/Desktop/Joanna/morph21/subject-131.csv","xpyriment","Jazzy James","3.1.4","0","None","NA","NA","NA","NA","space","None","992","NA","NA","NA","NA","113394","992","2","legacy","1024","2","48000","-16","BA_m21","131","odd","NW_L_COMP","MUDLA","2407","291742","290157","287091","115821","NA","NA","NA","NA","287081","290655","NA","289657","NA","289649","291734","2427","291992","NA","NA","290742","2407","2407","291133","289649","2407","290742","291992","morph21_Oliver/Morris","31","42041","49","yes","1280","12"
"350","64","64","859.36","859.36","black","no","xpyriment","legacy","legacy","0","202","NA","uniform","66653","1000","0.0150030756305","1","undefined","1","0","49","49","49","0","49","49","49","NA","49","49","0","49","NA","49","49","0","49","NA","49","NA","49","0","0","49","49","0","49","49","50","/","07/20/18 12:50:47","The main experiment item","yes","FIN__BA__M21__7%3A10%3A17.osexp","C:\Users\ERP Testing Room\Desktop\Joanna\morph21","no","mono","no","18","no","white","no","yes","1080","legacy","49","49","C:/Users/ERP Testing Room/Desktop/Joanna/morph21/subject-131.csv","xpyriment","Jazzy James","3.1.4","0","/","NA","NA","NA","NA","space","/","927","NA","NA","NA","NA","113394","927","2","legacy","1024","2","48000","-16","BA_m21","131","odd","CW_L","PUNCHER","2407","294734","293142","287091","115821","NA","NA","NA","NA","294729","293639","NA","292642","NA","292639","294729","2427","295084","NA","NA","293734","2407","2407","294134","292639","2407","293734","295084","morph21_Oliver/Morris","32","42968","50","yes","1280","1"
"300","64.7058823529","64.7058823529","855.568627451","855.568627451","black","no","xpyriment","legacy","legacy","0","201","NA","uniform","71782","1000","0.0139310690702","1","undefined","1","0","50","50","50","0","50","50","50","NA","50","50","0","50","NA","50","50","0","50","NA","50","NA","50","0","0","50","50","0","50","50","51","/","07/20/18 12:50:47","The main experiment item","yes","FIN__BA__M21__7%3A10%3A17.osexp","C:\Users\ERP Testing Room\Desktop\Joanna\morph21","no","mono","no","18","no","white","no","yes","1080","legacy","50","50","C:/Users/ERP Testing Room/Desktop/Joanna/morph21/subject-131.csv","xpyriment","Jazzy James","3.1.4","0","/","NA","NA","NA","NA","space","/","666","NA","NA","NA","NA","113394","666","2","legacy","1024","2","48000","-16","BA_m21","131","odd","CW_S","RISKY","2407","299384","296267","297875","115821","NA","NA","NA","NA","297865","296764","NA","295767","NA","295760","297865","2427","299684","NA","NA","296875","2407","2407","297267","295760","2407","296875","299684","morph21_Oliver/Morris","33","43634","51","yes","1280","50"
"250","65.3846153846","65.3846153846","852.75","852.75","black","no","xpyriment","legacy","legacy","0","202","NA","uniform","73979","1000","0.0135173495181","1","undefined","1","0","51","51","51","0","51","51","51","NA","51","51","0","51","NA","51","51","0","51","NA","51","NA","51","0","0","51","51","0","51","51","52","/","07/20/18 12:50:47","The main experiment item","yes","FIN__BA__M21__7%3A10%3A17.osexp","C:\Users\ERP Testing Room\Desktop\Joanna\morph21","no","mono","no","18","no","white","no","yes","1080","legacy","51","51","C:/Users/ERP Testing Room/Desktop/Joanna/morph21/subject-131.csv","xpyriment","Jazzy James","3.1.4","0","/","NA","NA","NA","NA","space","/","709","NA","NA","NA","NA","113394","709","2","legacy","1024","2","48000","-16","BA_m21","131","odd","CW_L","STRIKER","2407","302567","300976","297875","115821","NA","NA","NA","NA","302559","301473","NA","300476","NA","300467","302559","2427","302818","NA","NA","301567","2407","2407","301959","300467","2407","301567","302818","morph21_Oliver/Morris","34","44343","52","yes","1280","17"
"400","66.0377358491","66.0377358491","849.358490566","849.358490566","black","no","xpyriment","legacy","legacy","0","205","NA","uniform","71914","1000","0.013905498234","1","undefined","1","0","52","52","52","0","52","52","52","NA","52","52","0","52","NA","52","52","0","52","NA","52","NA","52","0","0","52","52","0","52","52","53","z","07/20/18 12:50:47","The main experiment item","yes","FIN__BA__M21__7%3A10%3A17.osexp","C:\Users\ERP Testing Room\Desktop\Joanna\morph21","no","mono","no","18","no","white","no","yes","1080","legacy","52","52","C:/Users/ERP Testing Room/Desktop/Joanna/morph21/subject-131.csv","xpyriment","Jazzy James","3.1.4","0","z","NA","NA","NA","NA","space","z","673","NA","NA","NA","NA","113394","673","2","legacy","1024","2","48000","-16","BA_m21","131","odd","NW_S_SIMP","RAMPIZE","2407","305667","304042","297875","115821","NA","NA","NA","NA","305661","304540","NA","303542","NA","303537","305661","2427","306067","NA","NA","304667","2407","2407","305059","303537","2407","304667","306067","morph21_Oliver/Morris","35","45016","53","yes","1280","6"
"300","64.8148148148","64.8148148148","852.055555556","852.055555556","black","no","xpyriment","legacy","legacy","0","206","NA","uniform","62025","1000","0.0161225312374","0","undefined","0","0","53","53","53","0","53","53","53","NA","53","53","0","53","NA","53","53","0","53","NA","53","NA","53","0","0","53","53","0","53","53","54","z","07/20/18 12:50:47","The main experiment item","yes","FIN__BA__M21__7%3A10%3A17.osexp","C:\Users\ERP Testing Room\Desktop\Joanna\morph21","no","mono","no","18","no","white","no","yes","1080","legacy","53","53","C:/Users/ERP Testing Room/Desktop/Joanna/morph21/subject-131.csv","xpyriment","Jazzy James","3.1.4","0","None","NA","NA","NA","NA","space","None","995","NA","NA","NA","NA","113394","995","2","legacy","1024","2","48000","-16","BA_m21","131","odd","NW_L_SIMP","TAXFUL","2407","310435","307343","308927","115821","NA","NA","NA","NA","305661","307840","NA","306843","NA","306835","308922","2427","310736","NA","NA","307927","2407","2407","308327","306835","2407","307927","310736","morph21_Oliver/Morris","35","46011","54","yes","1280","6"
"250","65.4545454545","65.4545454545","847.163636364","847.163636364","black","no","xpyriment","legacy","legacy","0","201","NA","uniform","63407","1000","0.0157711293706","1","undefined","1","0","54","54","54","0","54","54","54","NA","54","54","0","54","NA","54","54","0","54","NA","54","NA","54","0","0","54","54","0","54","54","55","/","07/20/18 12:50:47","The main experiment item","yes","FIN__BA__M21__7%3A10%3A17.osexp","C:\Users\ERP Testing Room\Desktop\Joanna\morph21","no","mono","no","18","no","white","no","yes","1080","legacy","54","54","C:/Users/ERP Testing Room/Desktop/Joanna/morph21/subject-131.csv","xpyriment","Jazzy James","3.1.4","0","/","NA","NA","NA","NA","space","/","583","NA","NA","NA","NA","113394","583","2","legacy","1024","2","48000","-16","BA_m21","131","odd","CW_S","PLANNER","2407","313502","311919","308927","115821","NA","NA","NA","NA","313495","312416","NA","311419","NA","311411","313495","2427","313752","NA","NA","312502","2407","2407","312894","311411","2407","312502","313752","morph21_Oliver/Morris","36","46594","55","yes","1280","22"
"400","66.0714285714","66.0714285714","842.946428571","842.946428571","black","no","xpyriment","legacy","legacy","0","201","NA","uniform","72127","1000","0.0138644335686","1","undefined","1","0","55","55","55","0","55","55","55","NA","55","55","0","55","NA","55","55","0","55","NA","55","NA","55","0","0","55","55","0","55","55","56","/","07/20/18 12:50:47","The main experiment item","yes","FIN__BA__M21__7%3A10%3A17.osexp","C:\Users\ERP Testing Room\Desktop\Joanna\morph21","no","mono","no","18","no","white","no","yes","1080","legacy","55","55","C:/Users/ERP Testing Room/Desktop/Joanna/morph21/subject-131.csv","xpyriment","Jazzy James","3.1.4","0","/","NA","NA","NA","NA","space","/","611","NA","NA","NA","NA","113394","611","2","legacy","1024","2","48000","-16","BA_m21","131","odd","CW_S","AVOIDABLE","2407","316586","315002","308927","115821","NA","NA","NA","NA","316577","315499","NA","314502","NA","314498","316577","2427","316986","NA","NA","315586","2407","2407","315977","314498","2407","315586","316986","morph21_Oliver/Morris","37","47205","56","yes","1280","2"
"350","64.9122807018","64.9122807018","845.543859649","845.543859649","black","no","xpyriment","legacy","legacy","0","205","NA","uniform","62704","1000","0.0159479459046","0","undefined","0","0","56","56","56","0","56","56","56","NA","56","56","0","56","NA","56","56","0","56","NA","56","NA","56","0","0","56","56","0","56","56","57","z","07/20/18 12:50:47","The main experiment item","yes","FIN__BA__M21__7%3A10%3A17.osexp","C:\Users\ERP Testing Room\Desktop\Joanna\morph21","no","mono","no","18","no","white","no","yes","1080","legacy","56","56","C:/Users/ERP Testing Room/Desktop/Joanna/morph21/subject-131.csv","xpyriment","Jazzy James","3.1.4","0","None","NA","NA","NA","NA","space","None","991","NA","NA","NA","NA","113394","991","2","legacy","1024","2","48000","-16","BA_m21","131","odd","NW_S_SIMP","ACREMENT","2407","321361","318269","319852","115821","NA","NA","NA","NA","316577","318766","NA","317769","NA","317758","319843","2427","321711","NA","NA","318852","2407","2407","319244","317758","2407","318852","321711","morph21_Oliver/Morris","37","48196","57","yes","1280","16"
"250","65.5172413793","65.5172413793","840.810344828","840.810344828","black","no","xpyriment","legacy","legacy","0","202","NA","uniform","74305","1000","0.0134580445461","1","undefined","1","0","57","57","57","0","57","57","57","NA","57","57","0","57","NA","57","57","0","57","NA","57","NA","57","0","0","57","57","0","57","57","58","/","07/20/18 12:50:47","The main experiment item","yes","FIN__BA__M21__7%3A10%3A17.osexp","C:\Users\ERP Testing Room\Desktop\Joanna\morph21","no","mono","no","18","no","white","no","yes","1080","legacy","57","57","C:/Users/ERP Testing Room/Desktop/Joanna/morph21/subject-131.csv","xpyriment","Jazzy James","3.1.4","0","/","NA","NA","NA","NA","space","/","571","NA","NA","NA","NA","113394","571","2","legacy","1024","2","48000","-16","BA_m21","131","odd","CW_L","LAUGHING","2407","324544","322944","319852","115821","NA","NA","NA","NA","324541","323441","NA","322444","NA","322439","324541","2427","324794","NA","NA","323553","2407","2407","323944","322439","2407","323553","324794","morph21_Oliver/Morris","38","48767","58","yes","1280","27"
"300","66.1016949153","66.1016949153","843.152542373","843.152542373","black","no","xpyriment","legacy","legacy","0","204","NA","uniform","61633","1000","0.0162250742297","1","undefined","1","0","58","58","58","0","58","58","58","NA","58","58","0","58","NA","58","58","0","58","NA","58","NA","58","0","0","58","58","0","58","58","59","z","07/20/18 12:50:47","The main experiment item","yes","FIN__BA__M21__7%3A10%3A17.osexp","C:\Users\ERP Testing Room\Desktop\Joanna\morph21","no","mono","no","18","no","white","no","yes","1080","legacy","58","58","C:/Users/ERP Testing Room/Desktop/Joanna/morph21/subject-131.csv","xpyriment","Jazzy James","3.1.4","0","z","NA","NA","NA","NA","space","z","979","NA","NA","NA","NA","113394","979","2","legacy","1024","2","48000","-16","BA_m21","131","odd","NW_L_COMP","ADDMANT","2407","327562","325937","319852","115821","NA","NA","NA","NA","327554","326434","NA","325437","NA","325429","327554","2427","327862","NA","NA","326562","2407","2407","326954","325428","2407","326562","327862","morph21_Oliver/Morris","39","49746","59","yes","1280","13"
"200","65","65","845.633333333","845.633333333","black","no","xpyriment","legacy","legacy","0","207","NA","uniform","64482","1000","0.0155082038398","0","undefined","0","0","59","59","59","0","59","59","59","NA","59","59","0","59","NA","59","59","0","59","NA","59","NA","59","0","0","59","59","0","59","59","60","/","07/20/18 12:50:47","The main experiment item","yes","FIN__BA__M21__7%3A10%3A17.osexp","C:\Users\ERP Testing Room\Desktop\Joanna\morph21","no","mono","no","18","no","white","no","yes","1080","legacy","59","59","C:/Users/ERP Testing Room/Desktop/Joanna/morph21/subject-131.csv","xpyriment","Jazzy James","3.1.4","0","None","NA","NA","NA","NA","space","None","992","NA","NA","NA","NA","113394","992","2","legacy","1024","2","48000","-16","BA_m21","131","odd","FILL_W","BRASS","2407","332146","329029","330637","115821","NA","NA","NA","NA","327554","329526","NA","328529","NA","328524","330629","2427","332346","NA","NA","329637","2407","2407","330029","328524","2407","329637","332346","morph21_Oliver/Morris","39","50738","60","yes","1280","10"
"400","65.5737704918","65.5737704918","842.262295082","842.262295082","black","no","xpyriment","legacy","legacy","0","208","NA","uniform","73117","1000","0.0136767099307","1","undefined","1","0","60","60","60","0","60","60","60","NA","60","60","0","60","NA","60","60","0","60","NA","60","NA","60","0","0","60","60","0","60","60","61","z","07/20/18 12:50:47","The main experiment item","yes","FIN__BA__M21__7%3A10%3A17.osexp","C:\Users\ERP Testing Room\Desktop\Joanna\morph21","no","mono","no","18","no","white","no","yes","1080","legacy","60","60","C:/Users/ERP Testing Room/Desktop/Joanna/morph21/subject-131.csv","xpyriment","Jazzy James","3.1.4","0","z","NA","NA","NA","NA","space","z","640","NA","NA","NA","NA","113394","640","2","legacy","1024","2","48000","-16","BA_m21","131","odd","FILL_NW","BALFS","2407","335196","333587","330637","115821","NA","NA","NA","NA","335189","334084","NA","333087","NA","333084","335189","2427","335596","NA","NA","334196","2407","2407","334587","333084","2407","334196","335596","morph21_Oliver/Morris","40","51378","61","yes","1280","2"
"350","64.5161290323","64.5161290323","844.661290323","844.661290323","black","no","xpyriment","legacy","legacy","0","201","NA","uniform","63597","1000","0.0157240121389","0","undefined","0","0","61","61","61","0","61","61","61","NA","61","61","0","61","NA","61","61","0","61","NA","61","NA","61","0","0","61","61","0","61","61","62","/","07/20/18 12:50:47","The main experiment item","yes","FIN__BA__M21__7%3A10%3A17.osexp","C:\Users\ERP Testing Room\Desktop\Joanna\morph21","no","mono","no","18","no","white","no","yes","1080","legacy","61","61","C:/Users/ERP Testing Room/Desktop/Joanna/morph21/subject-131.csv","xpyriment","Jazzy James","3.1.4","0","None","NA","NA","NA","NA","space","None","991","NA","NA","NA","NA","113394","991","2","legacy","1024","2","48000","-16","BA_m21","131","odd","CW_S","DENSELY","2407","338363","336754","330637","115821","NA","NA","NA","NA","335189","337251","NA","336254","NA","336250","338354","2427","338713","NA","NA","337363","2407","2407","337754","336250","2407","337363","338713","morph21_Oliver/Morris","40","52369","62","yes","1280","32"
"350","65.0793650794","65.0793650794","842.746031746","842.746031746","black","no","xpyriment","legacy","legacy","0","202","NA","uniform","68251","1000","0.0146517999736","1","undefined","1","0","62","62","62","0","62","62","62","NA","62","62","0","62","NA","62","62","0","62","NA","62","NA","62","0","0","62","62","0","62","62","63","/","07/20/18 12:50:47","The main experiment item","yes","FIN__BA__M21__7%3A10%3A17.osexp","C:\Users\ERP Testing Room\Desktop\Joanna\morph21","no","mono","no","18","no","white","no","yes","1080","legacy","62","62","C:/Users/ERP Testing Room/Desktop/Joanna/morph21/subject-131.csv","xpyriment","Jazzy James","3.1.4","0","/","NA","NA","NA","NA","space","/","724","NA","NA","NA","NA","113394","724","2","legacy","1024","2","48000","-16","BA_m21","131","odd","CW_L","PAINTER","2407","343005","339888","341496","115821","NA","NA","NA","NA","341490","340385","NA","339388","NA","339382","341490","2427","343356","NA","NA","340496","2407","2407","340888","339382","2407","340496","343356","morph21_Oliver/Morris","41","53093","63","yes","1280","18"
"250","64.0625","64.0625","838.5625","838.5625","black","no","xpyriment","legacy","legacy","0","206","NA","uniform","72514","1000","0.0137904404667","0","undefined","0","0","63","63","63","0","63","63","63","NA","63","63","0","63","NA","63","63","0","63","NA","63","NA","63","0","0","63","63","0","63","63","64","z","07/20/18 12:50:47","The main experiment item","yes","FIN__BA__M21__7%3A10%3A17.osexp","C:\Users\ERP Testing Room\Desktop\Joanna\morph21","no","mono","no","18","no","white","no","yes","1080","legacy","63","63","C:/Users/ERP Testing Room/Desktop/Joanna/morph21/subject-131.csv","xpyriment","Jazzy James","3.1.4","0","/","NA","NA","NA","NA","space","/","575","NA","NA","NA","NA","113394","575","2","legacy","1024","2","48000","-16","BA_m21","131","odd","NW_L_SIMP","SMOOTHFUL","2407","346206","344622","341496","115821","NA","NA","NA","NA","341490","345119","NA","344122","NA","344112","346199","2427","346456","NA","NA","345206","2407","2407","345597","344112","2407","345206","346456","morph21_Oliver/Morris","41","53668","64","yes","1280","19"
"400","64.6153846154","64.6153846154","838.415384615","838.415384615","black","no","xpyriment","legacy","legacy","0","202","NA","uniform","69284","1000","0.0144333468045","1","undefined","1","0","64","64","64","0","64","64","64","NA","64","64","0","64","NA","64","64","0","64","NA","64","NA","64","0","0","64","64","0","64","64","65","/","07/20/18 12:50:47","The main experiment item","yes","FIN__BA__M21__7%3A10%3A17.osexp","C:\Users\ERP Testing Room\Desktop\Joanna\morph21","no","mono","no","18","no","white","no","yes","1080","legacy","64","64","C:/Users/ERP Testing Room/Desktop/Joanna/morph21/subject-131.csv","xpyriment","Jazzy James","3.1.4","0","/","NA","NA","NA","NA","space","/","829","NA","NA","NA","NA","113394","829","2","legacy","1024","2","48000","-16","BA_m21","131","odd","CW_L","CLEANER","2407","349256","347631","341496","115821","NA","NA","NA","NA","349248","348128","NA","347131","NA","347123","349248","2427","349656","NA","NA","348256","2407","2407","348647","347123","2407","348256","349656","morph21_Oliver/Morris","42","54497","65","yes","1280","15"
"300","63.6363636364","63.6363636364","840.772727273","840.772727273","black","no","xpyriment","legacy","legacy","0","206","NA","uniform","62056","1000","0.0161144772464","0","undefined","0","0","65","65","65","0","65","65","65","NA","65","65","0","65","NA","65","65","0","65","NA","65","NA","65","0","0","65","65","0","65","65","66","z","07/20/18 12:50:47","The main experiment item","yes","FIN__BA__M21__7%3A10%3A17.osexp","C:\Users\ERP Testing Room\Desktop\Joanna\morph21","no","mono","no","18","no","white","no","yes","1080","legacy","65","65","C:/Users/ERP Testing Room/Desktop/Joanna/morph21/subject-131.csv","xpyriment","Jazzy James","3.1.4","0","None","NA","NA","NA","NA","space","None","994","NA","NA","NA","NA","113394","994","2","legacy","1024","2","48000","-16","BA_m21","131","odd","NW_L_SIMP","LONGNESS","2407","353906","350814","352397","115821","NA","NA","NA","NA","349248","351311","NA","350314","NA","350304","352392","2427","354206","NA","NA","351398","2407","2407","351789","350304","2407","351397","354206","morph21_Oliver/Morris","42","55491","66","yes","1280","17"
"250","64.1791044776","64.1791044776","842.880597015","842.880597015","black","no","xpyriment","legacy","legacy","0","208","NA","uniform","55252","1000","0.0180988923478","1","undefined","1","0","66","66","66","0","66","66","66","NA","66","66","0","66","NA","66","66","0","66","NA","66","NA","66","0","0","66","66","0","66","66","67","z","07/20/18 12:50:47","The main experiment item","yes","FIN__BA__M21__7%3A10%3A17.osexp","C:\Users\ERP Testing Room\Desktop\Joanna\morph21","no","mono","no","18","no","white","no","yes","1080","legacy","66","66","C:/Users/ERP Testing Room/Desktop/Joanna/morph21/subject-131.csv","xpyriment","Jazzy James","3.1.4","0","z","NA","NA","NA","NA","space","z","982","NA","NA","NA","NA","113394","982","2","legacy","1024","2","48000","-16","BA_m21","131","odd","FILL_NW","LOLDS","2407","356998","355414","352397","115821","NA","NA","NA","NA","356990","355911","NA","354914","NA","354907","356990","2427","357248","NA","NA","355998","2407","2407","356389","354907","2407","355998","357248","morph21_Oliver/Morris","43","56473","67","yes","1280","34"
"250","63.2352941176","63.2352941176","845.088235294","845.088235294","black","no","xpyriment","legacy","legacy","0","207","NA","uniform","64179","1000","0.0155814207139","0","undefined","0","0","67","67","67","0","67","67","67","NA","67","67","0","67","NA","67","67","0","67","NA","67","NA","67","0","0","67","67","0","67","67","68","/","07/20/18 12:50:47","The main experiment item","yes","FIN__BA__M21__7%3A10%3A17.osexp","C:\Users\ERP Testing Room\Desktop\Joanna\morph21","no","mono","no","18","no","white","no","yes","1080","legacy","67","67","C:/Users/ERP Testing Room/Desktop/Joanna/morph21/subject-131.csv","xpyriment","Jazzy James","3.1.4","0","None","NA","NA","NA","NA","space","None","993","NA","NA","NA","NA","113394","993","2","legacy","1024","2","48000","-16","BA_m21","131","odd","FILL_W","SHIP","2407","360015","358431","352397","115821","NA","NA","NA","NA","356990","358928","NA","357931","NA","357921","360007","2427","360265","NA","NA","359014","2407","2407","359406","357921","2407","359014","360265","morph21_Oliver/Morris","43","57466","68","yes","1280","37"
"200","62.3188405797","62.3188405797","846.927536232","846.927536232","black","no","xpyriment","legacy","legacy","0","205","NA","uniform","64832","1000","0.0154244817374","0","undefined","0","0","68","68","68","0","68","68","68","NA","68","68","0","68","NA","68","68","0","68","NA","68","NA","68","0","0","68","68","0","68","68","69","z","07/20/18 12:50:47","The main experiment item","yes","FIN__BA__M21__7%3A10%3A17.osexp","C:\Users\ERP Testing Room\Desktop\Joanna\morph21","no","mono","no","18","no","white","no","yes","1080","legacy","68","68","C:/Users/ERP Testing Room/Desktop/Joanna/morph21/subject-131.csv","xpyriment","Jazzy James","3.1.4","0","/","NA","NA","NA","NA","space","/","972","NA","NA","NA","NA","113394","972","2","legacy","1024","2","48000","-16","BA_m21","131","odd","NW_S_SIMP","OPPOSEMENT","2407","364557","361457","363049","115821","NA","NA","NA","NA","356990","361954","NA","360957","NA","360954","363041","2427","364758","NA","NA","362049","2407","2407","362441","360954","2407","362049","364758","morph21_Oliver/Morris","43","58438","69","yes","1280","8"
"350","62.8571428571","62.8571428571","844.314285714","844.314285714","black","no","xpyriment","legacy","legacy","0","203","NA","uniform","75449","1000","0.0132539861363","1","undefined","1","0","69","69","69","0","69","69","69","NA","69","69","0","69","NA","69","69","0","69","NA","69","NA","69","0","0","69","69","0","69","69","70","z","07/20/18 12:50:47","The main experiment item","yes","FIN__BA__M21__7%3A10%3A17.osexp","C:\Users\ERP Testing Room\Desktop\Joanna\morph21","no","mono","no","18","no","white","no","yes","1080","legacy","69","69","C:/Users/ERP Testing Room/Desktop/Joanna/morph21/subject-131.csv","xpyriment","Jazzy James","3.1.4","0","z","NA","NA","NA","NA","space","z","664","NA","NA","NA","NA","113394","664","2","legacy","1024","2","48000","-16","BA_m21","131","odd","NW_S_COMP","WELDIG","2407","367558","365949","363049","115821","NA","NA","NA","NA","367551","366446","NA","365449","NA","365442","367551","2427","367908","NA","NA","366557","2407","2407","366949","365442","2407","366557","367908","morph21_Oliver/Morris","44","59102","70","yes","1280","21"
"350","61.9718309859","61.9718309859","846.338028169","846.338028169","black","no","xpyriment","legacy","legacy","0","201","NA","uniform","54894","1000","0.0182169271687","0","undefined","0","0","70","70","70","0","70","70","70","NA","70","70","0","70","NA","70","70","0","70","NA","70","NA","70","0","0","70","70","0","70","70","71","/","07/20/18 12:50:47","The main experiment item","yes","FIN__BA__M21__7%3A10%3A17.osexp","C:\Users\ERP Testing Room\Desktop\Joanna\morph21","no","mono","no","18","no","white","no","yes","1080","legacy","70","70","C:/Users/ERP Testing Room/Desktop/Joanna/morph21/subject-131.csv","xpyriment","Jazzy James","3.1.4","0","None","NA","NA","NA","NA","space","None","988","NA","NA","NA","NA","113394","988","2","legacy","1024","2","48000","-16","BA_m21","131","odd","CW_S","STRANGENESS","2407","370674","369058","363049","115821","NA","NA","NA","NA","367551","369555","NA","368558","NA","368546","370671","2427","371024","NA","NA","369683","2407","2407","370074","368546","2407","369683","371024","morph21_Oliver/Morris","44","60090","71","yes","1280","46"
"400","61.1111111111","61.1111111111","848.388888889","848.388888889","black","no","xpyriment","legacy","legacy","0","206","NA","uniform","56346","1000","0.0177474887303","0","undefined","0","0","71","71","71","0","71","71","71","NA","71","71","0","71","NA","71","71","0","71","NA","71","NA","71","0","0","71","71","0","71","71","72","z","07/20/18 12:50:47","The main experiment item","yes","FIN__BA__M21__7%3A10%3A17.osexp","C:\Users\ERP Testing Room\Desktop\Joanna\morph21","no","mono","no","18","no","white","no","yes","1080","legacy","71","71","C:/Users/ERP Testing Room/Desktop/Joanna/morph21/subject-131.csv","xpyriment","Jazzy James","3.1.4","0","None","NA","NA","NA","NA","space","None","994","NA","NA","NA","NA","113394","994","2","legacy","1024","2","48000","-16","BA_m21","131","odd","NW_L_SIMP","VALIDER","2407","375383","372283","373874","115821","NA","NA","NA","NA","367551","372780","NA","371774","NA","371769","373869","2427","375783","NA","NA","372874","2407","2407","373266","371768","2407","372874","375783","morph21_Oliver/Morris","44","61084","72","yes","1280","23"
"200","61.6438356164","61.6438356164","847.780821918","847.780821918","black","no","xpyriment","legacy","legacy","0","202","NA","uniform","66538","1000","0.0150290059815","1","undefined","1","0","72","72","72","0","72","72","72","NA","72","72","0","72","NA","72","72","0","72","NA","72","NA","72","0","0","72","72","0","72","72","73","/","07/20/18 12:50:47","The main experiment item","yes","FIN__BA__M21__7%3A10%3A17.osexp","C:\Users\ERP Testing Room\Desktop\Joanna\morph21","no","mono","no","18","no","white","no","yes","1080","legacy","72","72","C:/Users/ERP Testing Room/Desktop/Joanna/morph21/subject-131.csv","xpyriment","Jazzy James","3.1.4","0","/","NA","NA","NA","NA","space","/","804","NA","NA","NA","NA","113394","804","2","legacy","1024","2","48000","-16","BA_m21","131","odd","CW_L","SAILOR","2407","378626","377033","373874","115821","NA","NA","NA","NA","378621","377530","NA","376533","NA","376522","378621","2427","378826","NA","NA","377625","2407","2407","378026","376522","2407","377625","378826","morph21_Oliver/Morris","45","61888","73","yes","1280","43"
"300","60.8108108108","60.8108108108","849.72972973","849.72972973","black","no","xpyriment","legacy","legacy","0","208","NA","uniform","63362","1000","0.0157823301032","0","undefined","0","0","73","73","73","0","73","73","73","NA","73","73","0","73","NA","73","73","0","73","NA","73","NA","73","0","0","73","73","0","73","73","74","z","07/20/18 12:50:47","The main experiment item","yes","FIN__BA__M21__7%3A10%3A17.osexp","C:\Users\ERP Testing Room\Desktop\Joanna\morph21","no","mono","no","18","no","white","no","yes","1080","legacy","73","73","C:/Users/ERP Testing Room/Desktop/Joanna/morph21/subject-131.csv","xpyriment","Jazzy James","3.1.4","0","None","NA","NA","NA","NA","space","None","992","NA","NA","NA","NA","113394","992","2","legacy","1024","2","48000","-16","BA_m21","131","odd","FILL_NW","DULKS","2407","381692","380092","373874","115821","NA","NA","NA","NA","378621","380590","NA","379592","NA","379588","381685","2427","381993","NA","NA","380692","2407","2407","381084","379588","2407","380692","381993","morph21_Oliver/Morris","45","62880","74","yes","1280","18"
"400","61.3333333333","61.3333333333","850.28","850.28","black","no","xpyriment","legacy","legacy","0","207","NA","uniform","61705","1000","0.0162061421279","undefined","undefined","1","0","74","74","74","0","74","74","74","NA","74","74","0","74","NA","74","74","0","74","NA","74","NA","74","0","0","74","74","0","74","74","75","/","07/20/18 12:50:47","The main experiment item","yes","FIN__BA__M21__7%3A10%3A17.osexp","C:\Users\ERP Testing Room\Desktop\Joanna\morph21","no","mono","no","18","no","white","no","yes","1080","legacy","74","74","C:/Users/ERP Testing Room/Desktop/Joanna/morph21/subject-131.csv","xpyriment","Jazzy James","3.1.4","0","space","space","NA","NA","NA","space","/","21269","21269","NA","NA","NA","113394","891","2","legacy","1024","2","48000","-16","BA_m21","131","odd","FILL_W","CEASE","2407","386343","383218","384834","115821","386751","NA","NA","NA","384828","383715","NA","382718","NA","382709","384828","2427","408021","NA","NA","383834","2407","2407","384226","382709","2407","383834","386743","morph21_Oliver/Morris","46","63771","75","yes","1280","18"
"300","61.8421052632","61.8421052632","846.565789474","846.565789474","black","no","xpyriment","legacy","legacy","0","202","NA","uniform","72758","1000","0.0137441930784","1","undefined","1","0","75","75","75","0","75","75","75","NA","75","75","0","75","NA","75","75","0","75","NA","75","NA","75","0","0","75","75","0","75","75","76","/","07/20/18 12:50:47","The main experiment item","yes","FIN__BA__M21__7%3A10%3A17.osexp","C:\Users\ERP Testing Room\Desktop\Joanna\morph21","no","mono","no","18","no","white","no","yes","1080","legacy","75","75","C:/Users/ERP Testing Room/Desktop/Joanna/morph21/subject-131.csv","xpyriment","Jazzy James","3.1.4","0","/","space","NA","NA","NA","space","/","568","21269","NA","NA","NA","113394","568","2","legacy","1024","2","48000","-16","BA_m21","131","odd","CW_L","MADNESS","2407","410828","409220","384834","115821","386751","NA","NA","NA","410820","409717","NA","408720","NA","408711","410820","2427","411128","NA","NA","409828","2407","2407","410220","408711","2407","409828","411128","morph21_Oliver/Morris","47","64339","76","yes","1280","41"
"350","62.3376623377","62.3376623377","841.454545455","841.454545455","black","no","xpyriment","legacy","legacy","0","202","NA","uniform","77216","1000","0.0129506837961","1","undefined","1","0","76","76","76","0","76","76","76","NA","76","76","0","76","NA","76","76","0","76","NA","76","NA","76","0","0","76","76","0","76","76","77","/","07/20/18 12:50:47","The main experiment item","yes","FIN__BA__M21__7%3A10%3A17.osexp","C:\Users\ERP Testing Room\Desktop\Joanna\morph21","no","mono","no","18","no","white","no","yes","1080","legacy","76","76","C:/Users/ERP Testing Room/Desktop/Joanna/morph21/subject-131.csv","xpyriment","Jazzy James","3.1.4","0","/","space","NA","NA","NA","space","/","453","21269","NA","NA","NA","113394","453","2","legacy","1024","2","48000","-16","BA_m21","131","odd","CW_L","PARKING","2407","413896","412295","384834","115821","386751","NA","NA","NA","413886","412792","NA","411795","NA","411788","413886","2427","414246","NA","NA","412896","2407","2407","413288","411788","2407","412896","414246","morph21_Oliver/Morris","48","64792","77","yes","1280","25"
"300","62.8205128205","62.8205128205","839.230769231","839.230769231","black","no","xpyriment","legacy","legacy","0","204","NA","uniform","61584","1000","0.0162379838919","1","undefined","1","0","77","77","77","0","77","77","77","NA","77","77","0","77","NA","77","77","0","77","NA","77","NA","77","0","0","77","77","0","77","77","78","z","07/20/18 12:50:47","The main experiment item","yes","FIN__BA__M21__7%3A10%3A17.osexp","C:\Users\ERP Testing Room\Desktop\Joanna\morph21","no","mono","no","18","no","white","no","yes","1080","legacy","77","77","C:/Users/ERP Testing Room/Desktop/Joanna/morph21/subject-131.csv","xpyriment","Jazzy James","3.1.4","0","z","space","NA","NA","NA","space","z","668","21269","NA","NA","NA","113394","668","2","legacy","1024","2","48000","-16","BA_m21","131","odd","NW_L_COMP","ILLILT","2407","418613","415521","417104","115821","386751","NA","NA","NA","417101","416018","NA","415021","NA","415011","417101","2427","418913","NA","NA","416113","2407","2407","416504","415011","2407","416113","418913","morph21_Oliver/Morris","49","65460","78","yes","1280","9"
"250","63.2911392405","63.2911392405","836.860759494","836.860759494","black","no","xpyriment","legacy","legacy","0","203","NA","uniform","73907","1000","0.0135305180835","1","undefined","1","0","78","78","78","0","78","78","78","NA","78","78","0","78","NA","78","78","0","78","NA","78","NA","78","0","0","78","78","0","78","78","79","z","07/20/18 12:50:47","The main experiment item","yes","FIN__BA__M21__7%3A10%3A17.osexp","C:\Users\ERP Testing Room\Desktop\Joanna\morph21","no","mono","no","18","no","white","no","yes","1080","legacy","78","78","C:/Users/ERP Testing Room/Desktop/Joanna/morph21/subject-131.csv","xpyriment","Jazzy James","3.1.4","0","z","space","NA","NA","NA","space","z","652","21269","NA","NA","NA","113394","652","2","legacy","1024","2","48000","-16","BA_m21","131","odd","NW_S_COMP","TREASONIME","2407","421705","420121","417104","115821","386751","NA","NA","NA","421696","420618","NA","419621","NA","419611","421696","2427","421955","NA","NA","420705","2407","2407","421096","419611","2407","420705","421955","morph21_Oliver/Morris","50","66112","79","yes","1280","14"
"250","63.75","63.75","835.425","835.425","black","no","xpyriment","legacy","legacy","0","203","NA","uniform","73407","1000","0.0136226790361","1","undefined","1","0","79","79","79","0","79","79","79","NA","79","79","0","79","NA","79","79","0","79","NA","79","NA","79","0","0","79","79","0","79","79","80","z","07/20/18 12:50:47","The main experiment item","yes","FIN__BA__M21__7%3A10%3A17.osexp","C:\Users\ERP Testing Room\Desktop\Joanna\morph21","no","mono","no","18","no","white","no","yes","1080","legacy","79","79","C:/Users/ERP Testing Room/Desktop/Joanna/morph21/subject-131.csv","xpyriment","Jazzy James","3.1.4","0","z","space","NA","NA","NA","space","z","722","21269","NA","NA","NA","113394","722","2","legacy","1024","2","48000","-16","BA_m21","131","odd","NW_S_COMP","LIDADY","2407","424730","423146","417104","115821","386751","NA","NA","NA","424723","423643","NA","422646","NA","422641","424723","2427","424980","NA","NA","423730","2407","2407","424121","422641","2407","423730","424980","morph21_Oliver/Morris","51","66834","80","yes","1280","3"
"350","64.1975308642","64.1975308642","835.49382716","835.49382716","black","no","xpyriment","legacy","legacy","0","206","NA","uniform","64922","1000","0.0154030991035","1","undefined","1","0","80","80","80","0","80","80","80","NA","80","80","0","80","NA","80","80","0","80","NA","80","NA","80","0","0","80","80","0","80","80","81","z","07/20/18 12:50:47","The main experiment item","yes","FIN__BA__M21__7%3A10%3A17.osexp","C:\Users\ERP Testing Room\Desktop\Joanna\morph21","no","mono","no","18","no","white","no","yes","1080","legacy","80","80","C:/Users/ERP Testing Room/Desktop/Joanna/morph21/subject-131.csv","xpyriment","Jazzy James","3.1.4","0","z","space","NA","NA","NA","space","z","841","21269","NA","NA","NA","113394","841","2","legacy","1024","2","48000","-16","BA_m21","131","odd","NW_L_SIMP","PICKENCE","2407","429272","426180","427763","115821","386751","NA","NA","NA","427754","426677","NA","425680","NA","425672","427754","2427","429622","NA","NA","426763","2407","2407","427155","425672","2407","426763","429622","morph21_Oliver/Morris","52","67675","81","yes","1280","5"
"200","64.6341463415","64.6341463415","832.609756098","832.609756098","black","no","xpyriment","legacy","legacy","0","208","NA","uniform","77873","1000","0.0128414212885","1","undefined","1","0","81","81","81","0","81","81","81","NA","81","81","0","81","NA","81","81","0","81","NA","81","NA","81","0","0","81","81","0","81","81","82","z","07/20/18 12:50:47","The main experiment item","yes","FIN__BA__M21__7%3A10%3A17.osexp","C:\Users\ERP Testing Room\Desktop\Joanna\morph21","no","mono","no","18","no","white","no","yes","1080","legacy","81","81","C:/Users/ERP Testing Room/Desktop/Joanna/morph21/subject-131.csv","xpyriment","Jazzy James","3.1.4","0","z","space","NA","NA","NA","space","z","599","21269","NA","NA","NA","113394","599","2","legacy","1024","2","48000","-16","BA_m21","131","odd","FILL_NW","PUCTS","2407","432414","430823","427763","115821","386751","NA","NA","NA","432406","431320","NA","430323","NA","430319","432406","2427","432614","NA","NA","431414","2407","2407","431806","430319","2407","431414","432614","morph21_Oliver/Morris","53","68274","82","yes","1280","40"
"300","65.0602409639","65.0602409639","830.277108434","830.277108434","black","no","xpyriment","legacy","legacy","0","208","NA","uniform","69734","1000","0.0143402070726","1","undefined","1","0","82","82","82","0","82","82","82","NA","82","82","0","82","NA","82","82","0","82","NA","82","NA","82","0","0","82","82","0","82","82","83","z","07/20/18 12:50:47","The main experiment item","yes","FIN__BA__M21__7%3A10%3A17.osexp","C:\Users\ERP Testing Room\Desktop\Joanna\morph21","no","mono","no","18","no","white","no","yes","1080","legacy","82","82","C:/Users/ERP Testing Room/Desktop/Joanna/morph21/subject-131.csv","xpyriment","Jazzy James","3.1.4","0","z","space","NA","NA","NA","space","z","639","21269","NA","NA","NA","113394","639","2","legacy","1024","2","48000","-16","BA_m21","131","odd","FILL_NW","VOGS","2407","435398","433798","427763","115821","386751","NA","NA","NA","435393","434295","NA","433298","NA","433293","435393","2427","435698","NA","NA","434398","2407","2407","434798","433293","2407","434398","435698","morph21_Oliver/Morris","54","68913","83","yes","1280","47"
"200","65.4761904762","65.4761904762","828.011904762","828.011904762","black","no","xpyriment","legacy","legacy","0","207","NA","uniform","69391","1000","0.0144110907755","1","undefined","1","0","83","83","83","0","83","83","83","NA","83","83","0","83","NA","83","83","0","83","NA","83","NA","83","0","0","83","83","0","83","83","84","/","07/20/18 12:50:47","The main experiment item","yes","FIN__BA__M21__7%3A10%3A17.osexp","C:\Users\ERP Testing Room\Desktop\Joanna\morph21","no","mono","no","18","no","white","no","yes","1080","legacy","83","83","C:/Users/ERP Testing Room/Desktop/Joanna/morph21/subject-131.csv","xpyriment","Jazzy James","3.1.4","0","/","space","NA","NA","NA","space","/","640","21269","NA","NA","NA","113394","640","2","legacy","1024","2","48000","-16","BA_m21","131","odd","FILL_W","FLESH","2407","440073","436981","438565","115821","386751","NA","NA","NA","438555","437478","NA","436481","NA","436475","438555","2427","440273","NA","NA","437565","2407","2407","437956","436475","2407","437565","440273","morph21_Oliver/Morris","55","69553","84","yes","1280","32"
"200","65.8823529412","65.8823529412","827.494117647","827.494117647","black","no","xpyriment","legacy","legacy","0","207","NA","uniform","71576","1000","0.0139711635185","1","undefined","1","0","84","84","84","0","84","84","84","NA","84","84","0","84","NA","84","84","0","84","NA","84","NA","84","0","0","84","84","0","84","84","85","/","07/20/18 12:50:47","The main experiment item","yes","FIN__BA__M21__7%3A10%3A17.osexp","C:\Users\ERP Testing Room\Desktop\Joanna\morph21","no","mono","no","18","no","white","no","yes","1080","legacy","84","84","C:/Users/ERP Testing Room/Desktop/Joanna/morph21/subject-131.csv","xpyriment","Jazzy James","3.1.4","0","/","space","NA","NA","NA","space","/","784","21269","NA","NA","NA","113394","784","2","legacy","1024","2","48000","-16","BA_m21","131","odd","FILL_W","GOLF","2407","443140","441556","438565","115821","386751","NA","NA","NA","443132","442054","NA","441056","NA","441052","443132","2427","443340","NA","NA","442140","2407","2407","442531","441051","2407","442140","443340","morph21_Oliver/Morris","56","70337","85","yes","1280","28"
"300","66.2790697674","66.2790697674","827.837209302","827.837209302","black","no","xpyriment","legacy","legacy","0","201","NA","uniform","68744","1000","0.0145467240777","1","undefined","1","0","85","85","85","0","85","85","85","NA","85","85","0","85","NA","85","85","0","85","NA","85","NA","85","0","0","85","85","0","85","85","86","/","07/20/18 12:50:47","The main experiment item","yes","FIN__BA__M21__7%3A10%3A17.osexp","C:\Users\ERP Testing Room\Desktop\Joanna\morph21","no","mono","no","18","no","white","no","yes","1080","legacy","85","85","C:/Users/ERP Testing Room/Desktop/Joanna/morph21/subject-131.csv","xpyriment","Jazzy James","3.1.4","0","/","space","NA","NA","NA","space","/","857","21269","NA","NA","NA","113394","857","2","legacy","1024","2","48000","-16","BA_m21","131","odd","CW_S","GUILTY","2407","446115","444532","438565","115821","386751","NA","NA","NA","446111","445029","NA","444032","NA","444025","446111","2427","446415","NA","NA","445115","2407","2407","445515","444025","2407","445115","446415","morph21_Oliver/Morris","57","71194","86","yes","1280","34"
"300","66.6666666667","66.6666666667","827.425287356","827.425287356","black","no","xpyriment","legacy","legacy","0","204","NA","uniform","70673","1000","0.014149675265","1","undefined","1","0","86","86","86","0","86","86","86","NA","86","86","0","86","NA","86","86","0","86","NA","86","NA","86","0","0","86","86","0","86","86","87","z","07/20/18 12:50:47","The main experiment item","yes","FIN__BA__M21__7%3A10%3A17.osexp","C:\Users\ERP Testing Room\Desktop\Joanna\morph21","no","mono","no","18","no","white","no","yes","1080","legacy","86","86","C:/Users/ERP Testing Room/Desktop/Joanna/morph21/subject-131.csv","xpyriment","Jazzy James","3.1.4","0","z","space","NA","NA","NA","space","z","792","21269","NA","NA","NA","113394","792","2","legacy","1024","2","48000","-16","BA_m21","131","odd","NW_L_COMP","BINDIG","2407","450658","447565","449149","115821","386751","NA","NA","NA","449142","448062","NA","447065","NA","447056","449142","2427","450958","NA","NA","448149","2407","2407","448541","447056","2407","448149","450958","morph21_Oliver/Morris","58","71986","87","yes","1280","22"
"300","67.0454545455","67.0454545455","825.534090909","825.534090909","black","no","xpyriment","legacy","legacy","0","206","NA","uniform","71880","1000","0.0139120756817","1","undefined","1","0","87","87","87","0","87","87","87","NA","87","87","0","87","NA","87","87","0","87","NA","87","NA","87","0","0","87","87","0","87","87","88","z","07/20/18 12:50:47","The main experiment item","yes","FIN__BA__M21__7%3A10%3A17.osexp","C:\Users\ERP Testing Room\Desktop\Joanna\morph21","no","mono","no","18","no","white","no","yes","1080","legacy","87","87","C:/Users/ERP Testing Room/Desktop/Joanna/morph21/subject-131.csv","xpyriment","Jazzy James","3.1.4","0","z","space","NA","NA","NA","space","z","661","21269","NA","NA","NA","113394","661","2","legacy","1024","2","48000","-16","BA_m21","131","odd","NW_L_SIMP","BANDARY","2407","453800","452208","449149","115821","386751","NA","NA","NA","453790","452705","NA","451708","NA","451705","453790","2427","454100","NA","NA","452800","2407","2407","453191","451705","2407","452800","454100","morph21_Oliver/Morris","59","72647","88","yes","1280","3"
"400","66.2921348315","66.2921348315","826.258426966","826.258426966","black","no","xpyriment","legacy","legacy","0","202","NA","uniform","61397","1000","0.0162874407544","0","undefined","0","0","88","88","88","0","88","88","88","NA","88","88","0","88","NA","88","88","0","88","NA","88","NA","88","0","0","88","88","0","88","88","89","/","07/20/18 12:50:47","The main experiment item","yes","FIN__BA__M21__7%3A10%3A17.osexp","C:\Users\ERP Testing Room\Desktop\Joanna\morph21","no","mono","no","18","no","white","no","yes","1080","legacy","88","88","C:/Users/ERP Testing Room/Desktop/Joanna/morph21/subject-131.csv","xpyriment","Jazzy James","3.1.4","0","z","space","NA","NA","NA","space","z","890","21269","NA","NA","NA","113394","890","2","legacy","1024","2","48000","-16","BA_m21","131","odd","CW_L","CLOUDLESS","2407","456883","455300","449149","115821","386751","NA","NA","NA","453790","455797","NA","454800","NA","454795","456880","2427","457283","NA","NA","455891","2407","2407","456283","454795","2407","455891","457283","morph21_Oliver/Morris","59","73537","89","yes","1280","33"
"250","66.6666666667","66.6666666667","824.811111111","824.811111111","black","no","xpyriment","legacy","legacy","0","202","NA","uniform","74210","1000","0.0134752728743","1","undefined","1","0","89","89","89","0","89","89","89","NA","89","89","0","89","NA","89","89","0","89","NA","89","NA","89","0","0","89","89","0","89","89","90","/","07/20/18 12:50:47","The main experiment item","yes","FIN__BA__M21__7%3A10%3A17.osexp","C:\Users\ERP Testing Room\Desktop\Joanna\morph21","no","mono","no","18","no","white","no","yes","1080","legacy","89","89","C:/Users/ERP Testing Room/Desktop/Joanna/morph21/subject-131.csv","xpyriment","Jazzy James","3.1.4","0","/","space","NA","NA","NA","space","/","696","21269","NA","NA","NA","113394","696","2","legacy","1024","2","48000","-16","BA_m21","131","odd","CW_L","FLEXIBLE","2407","461608","458517","460100","115821","386751","NA","NA","NA","460093","459014","NA","458017","NA","458009","460093","2427","461859","NA","NA","459100","2407","2407","459492","458009","2407","459100","461859","morph21_Oliver/Morris","60","74233","90","yes","1280","22"
"400","67.032967033","67.032967033","825.604395604","825.604395604","black","no","xpyriment","legacy","legacy","0","202","NA","uniform","65098","1000","0.015361455037","1","undefined","1","0","90","90","90","0","90","90","90","NA","90","90","0","90","NA","90","90","0","90","NA","90","NA","90","0","0","90","90","0","90","90","91","/","07/20/18 12:50:47","The main experiment item","yes","FIN__BA__M21__7%3A10%3A17.osexp","C:\Users\ERP Testing Room\Desktop\Joanna\morph21","no","mono","no","18","no","white","no","yes","1080","legacy","90","90","C:/Users/ERP Testing Room/Desktop/Joanna/morph21/subject-131.csv","xpyriment","Jazzy James","3.1.4","0","/","space","NA","NA","NA","space","/","897","21269","NA","NA","NA","113394","897","2","legacy","1024","2","48000","-16","BA_m21","131","odd","CW_L","SPELLER","2407","464667","463042","460100","115821","386751","NA","NA","NA","464658","463539","NA","462542","NA","462534","464658","2427","465067","NA","NA","463667","2407","2407","464058","462533","2407","463667","465067","morph21_Oliver/Morris","61","75130","91","yes","1280","3"
