"ITI","acc","accuracy","average_response_time","avg_rt","background","bidi","canvas_backend","clock_backend","color_backend","compensation","cond_trig","condtrigtime","coordinates","coroutines_cycles","coroutines_duration","coroutines_mean_cycle_duration","correct","correct_instructions_1","correct_new_keyboard_response_1","count_BA_m21","count_ITI","count_blank_screen","count_blink_screen","count_block1","count_break1","count_break2","count_break3_1","count_canvas","count_correct_trigger","count_def_chain","count_end_screen","count_fixation_1","count_getting_started","count_inc_counter","count_incorrect_trigger","count_instructions_1","count_logger","count_logscript","count_new_coroutines","count_new_inline_script","count_new_keyboard_response_1","count_reset_counter_prep","count_reset_counter_run","count_responsescreen","count_sequence","count_start_trigger","count_target_present","count_word_trigger","counter","cresp","datetime","description","disable_garbage_collection","experiment_file","experiment_path","font_bold","font_family","font_italic","font_size","font_underline","foreground","form_clicks","fullscreen","height","keyboard_backend","live_row","live_row_block1","logfile","mouse_backend","opensesame_codename","opensesame_version","repeat_cycle","response","response_break1","response_break2","response_break3_1","response_end_screen","response_instructions_1","response_new_keyboard_response_1","response_time","response_time_break1","response_time_break2","response_time_break3_1","response_time_end_screen","response_time_instructions_1","response_time_new_keyboard_response_1","round_decimals","sampler_backend","sound_buf_size","sound_channels","sound_freq","sound_sample_size","start","subject_nr","subject_parity","targ_type","target","time_BA_m21","time_ITI","time_blank_screen","time_blink_screen","time_block1","time_break1","time_break2","time_break3_1","time_canvas","time_correct_trigger","time_def_chain","time_end_screen","time_fixation_1","time_getting_started","time_inc_counter","time_incorrect_trigger","time_instructions_1","time_logger","time_logscript","time_new_inline_script","time_new_keyboard_response_1","time_reset_counter_prep","time_reset_counter_run","time_responsescreen","time_sequence","time_start_trigger","time_target_present","time_word_trigger","title","total_correct","total_response_time","total_responses","uniform_coordinates","width","word_trig"
"250","100","100","683","683","black","no","xpyriment","legacy","legacy","0","202","NA","uniform","64409","1000","0.0155257805586","1","undefined","1","0","0","0","0","0","0","0","0","NA","0","0","0","0","NA","0","0","0","0","NA","0","NA","0","0","0","0","0","0","0","0","1","/","03/05/19 12:37:08","The main experiment item","yes","FIN__BA__M21__7%3A10%3A17.osexp","C:\Users\ERP Testing Room\Desktop\Joanna\morph21","no","mono","no","18","no","white","no","yes","1080","legacy","0","0","C:/Users/ERP Testing Room/Desktop/Joanna/morph21/subject-165.csv","xpyriment","Kafkaesque Koffka","3.2.5","0","/","NA","NA","NA","NA","space","/","683","NA","NA","NA","NA","112497","683","2","legacy","1024","2","48000","-16","BA_m21","165","odd","CW_L","LAUGHING","1941","117301","115651","NA","114449","NA","NA","NA","NA","117292","116148","NA","115150","NA","115075","117292","1951","117551","NA","NA","116301","1941","1941","116693","115075","1941","116301","117551","morph21_Oliver/Morris","1","683","1","yes","1280","27"
"200","50","50","641","641","black","no","xpyriment","legacy","legacy","0","208","NA","uniform","64173","1000","0.0155828775342","0","undefined","0","0","1","1","1","0","1","1","1","NA","1","1","0","1","NA","1","1","0","1","NA","1","NA","1","0","0","1","1","0","1","1","2","z","03/05/19 12:37:08","The main experiment item","yes","FIN__BA__M21__7%3A10%3A17.osexp","C:\Users\ERP Testing Room\Desktop\Joanna\morph21","no","mono","no","18","no","white","no","yes","1080","legacy","1","1","C:/Users/ERP Testing Room/Desktop/Joanna/morph21/subject-165.csv","xpyriment","Kafkaesque Koffka","3.2.5","0","/","NA","NA","NA","NA","space","/","599","NA","NA","NA","NA","112497","599","2","legacy","1024","2","48000","-16","BA_m21","165","odd","FILL_NW","GAIRS","1941","120393","118743","NA","114449","NA","NA","NA","NA","117292","119240","NA","118234","NA","118226","120385","1951","120593","NA","NA","119393","1941","1941","119784","118226","1941","119393","120593","morph21_Oliver/Morris","1","1282","2","yes","1280","23"
"400","66.6666666667","66.6666666667","629.333333333","629.333333333","black","no","xpyriment","legacy","legacy","0","203","NA","uniform","70642","1000","0.0141558846012","1","undefined","1","0","2","2","2","0","2","2","2","NA","2","2","0","2","NA","2","2","0","2","NA","2","NA","2","0","0","2","2","0","2","2","3","z","03/05/19 12:37:08","The main experiment item","yes","FIN__BA__M21__7%3A10%3A17.osexp","C:\Users\ERP Testing Room\Desktop\Joanna\morph21","no","mono","no","18","no","white","no","yes","1080","legacy","2","2","C:/Users/ERP Testing Room/Desktop/Joanna/morph21/subject-165.csv","xpyriment","Kafkaesque Koffka","3.2.5","0","z","NA","NA","NA","NA","space","z","606","NA","NA","NA","NA","112497","606","2","legacy","1024","2","48000","-16","BA_m21","165","odd","NW_S_COMP","ALTARIG","1941","124918","121718","123410","114449","NA","NA","NA","NA","123401","122215","NA","121218","NA","121207","123401","1951","125318","NA","NA","122410","1941","1941","122801","121207","1941","122410","125318","morph21_Oliver/Morris","2","1888","3","yes","1280","7"
"350","75","75","586","586","black","no","xpyriment","legacy","legacy","0","207","NA","uniform","75598","1000","0.013227863171","1","undefined","1","0","3","3","3","0","3","3","3","NA","3","3","0","3","NA","3","3","0","3","NA","3","NA","3","0","0","3","3","0","3","3","4","/","03/05/19 12:37:08","The main experiment item","yes","FIN__BA__M21__7%3A10%3A17.osexp","C:\Users\ERP Testing Room\Desktop\Joanna\morph21","no","mono","no","18","no","white","no","yes","1080","legacy","3","3","C:/Users/ERP Testing Room/Desktop/Joanna/morph21/subject-165.csv","xpyriment","Kafkaesque Koffka","3.2.5","0","/","NA","NA","NA","NA","space","/","456","NA","NA","NA","NA","112497","456","2","legacy","1024","2","48000","-16","BA_m21","165","odd","FILL_W","LIFT","1941","128143","126476","123410","114449","NA","NA","NA","NA","128133","126974","NA","125976","NA","125968","128133","1951","128493","NA","NA","127143","1941","1941","127535","125968","1941","127143","128493","morph21_Oliver/Morris","3","2344","4","yes","1280","39"
"250","80","80","612.8","612.8","black","no","xpyriment","legacy","legacy","0","201","NA","uniform","64930","1000","0.0154012012937","1","undefined","1","0","4","4","4","0","4","4","4","NA","4","4","0","4","NA","4","4","0","4","NA","4","NA","4","0","0","4","4","0","4","4","5","/","03/05/19 12:37:08","The main experiment item","yes","FIN__BA__M21__7%3A10%3A17.osexp","C:\Users\ERP Testing Room\Desktop\Joanna\morph21","no","mono","no","18","no","white","no","yes","1080","legacy","4","4","C:/Users/ERP Testing Room/Desktop/Joanna/morph21/subject-165.csv","xpyriment","Kafkaesque Koffka","3.2.5","0","/","NA","NA","NA","NA","space","/","720","NA","NA","NA","NA","112497","720","2","legacy","1024","2","48000","-16","BA_m21","165","odd","CW_S","AWARENESS","1941","131328","129678","123410","114449","NA","NA","NA","NA","131323","130175","NA","129177","NA","129166","131323","1951","131578","NA","NA","130328","1941","1941","130728","129166","1941","130328","131578","morph21_Oliver/Morris","4","3064","5","yes","1280","44"
"200","66.6666666667","66.6666666667","590.666666667","590.666666667","black","no","xpyriment","legacy","legacy","0","207","NA","uniform","76958","1000","0.0129941006783","0","undefined","0","0","5","5","5","0","5","5","5","NA","5","5","0","5","NA","5","5","0","5","NA","5","NA","5","0","0","5","5","0","5","5","6","/","03/05/19 12:37:08","The main experiment item","yes","FIN__BA__M21__7%3A10%3A17.osexp","C:\Users\ERP Testing Room\Desktop\Joanna\morph21","no","mono","no","18","no","white","no","yes","1080","legacy","5","5","C:/Users/ERP Testing Room/Desktop/Joanna/morph21/subject-165.csv","xpyriment","Kafkaesque Koffka","3.2.5","0","z","NA","NA","NA","NA","space","z","480","NA","NA","NA","NA","112497","480","2","legacy","1024","2","48000","-16","BA_m21","165","odd","FILL_W","OLD","1941","136045","132844","134536","114449","NA","NA","NA","NA","131323","133342","NA","132344","NA","132338","134528","1951","136245","NA","NA","133536","1941","1941","133928","132338","1941","133536","136245","morph21_Oliver/Morris","4","3544","6","yes","1280","44"
"250","57.1428571429","57.1428571429","576.285714286","576.285714286","black","no","xpyriment","legacy","legacy","0","207","NA","uniform","68354","1000","0.0146297217427","0","undefined","0","0","6","6","6","0","6","6","6","NA","6","6","0","6","NA","6","6","0","6","NA","6","NA","6","0","0","6","6","0","6","6","7","/","03/05/19 12:37:08","The main experiment item","yes","FIN__BA__M21__7%3A10%3A17.osexp","C:\Users\ERP Testing Room\Desktop\Joanna\morph21","no","mono","no","18","no","white","no","yes","1080","legacy","6","6","C:/Users/ERP Testing Room/Desktop/Joanna/morph21/subject-165.csv","xpyriment","Kafkaesque Koffka","3.2.5","0","z","NA","NA","NA","NA","space","z","490","NA","NA","NA","NA","112497","490","2","legacy","1024","2","48000","-16","BA_m21","165","odd","FILL_W","SOUGHT","1941","139070","137378","134536","114449","NA","NA","NA","NA","131323","137875","NA","136878","NA","136868","139067","1951","139320","NA","NA","138078","1941","1941","138470","136868","1941","138078","139320","morph21_Oliver/Morris","4","4034","7","yes","1280","40"
"400","50","50","560.5","560.5","black","no","xpyriment","legacy","legacy","0","206","NA","uniform","73623","1000","0.0135827119243","0","undefined","0","0","7","7","7","0","7","7","7","NA","7","7","0","7","NA","7","7","0","7","NA","7","NA","7","0","0","7","7","0","7","7","8","z","03/05/19 12:37:08","The main experiment item","yes","FIN__BA__M21__7%3A10%3A17.osexp","C:\Users\ERP Testing Room\Desktop\Joanna\morph21","no","mono","no","18","no","white","no","yes","1080","legacy","7","7","C:/Users/ERP Testing Room/Desktop/Joanna/morph21/subject-165.csv","xpyriment","Kafkaesque Koffka","3.2.5","0","/","NA","NA","NA","NA","space","/","450","NA","NA","NA","NA","112497","450","2","legacy","1024","2","48000","-16","BA_m21","165","odd","NW_L_SIMP","BLOODER","1941","142086","140403","134536","114449","NA","NA","NA","NA","131323","140900","NA","139903","NA","139893","142078","1951","142486","NA","NA","141086","1941","1941","141478","139893","1941","141086","142486","morph21_Oliver/Morris","4","4484","8","yes","1280","24"
"350","55.5555555556","55.5555555556","569","569","black","no","xpyriment","legacy","legacy","0","208","NA","uniform","65235","1000","0.0153291944508","1","undefined","1","0","8","8","8","0","8","8","8","NA","8","8","0","8","NA","8","8","0","8","NA","8","NA","8","0","0","8","8","0","8","8","9","z","03/05/19 12:37:08","The main experiment item","yes","FIN__BA__M21__7%3A10%3A17.osexp","C:\Users\ERP Testing Room\Desktop\Joanna\morph21","no","mono","no","18","no","white","no","yes","1080","legacy","8","8","C:/Users/ERP Testing Room/Desktop/Joanna/morph21/subject-165.csv","xpyriment","Kafkaesque Koffka","3.2.5","0","z","NA","NA","NA","NA","space","z","637","NA","NA","NA","NA","112497","637","2","legacy","1024","2","48000","-16","BA_m21","165","odd","FILL_NW","BLANTH","1941","146879","143687","145370","114449","NA","NA","NA","NA","145366","144184","NA","143187","NA","143175","145366","1951","147230","NA","NA","144370","1941","1941","144770","143175","1941","144370","147230","morph21_Oliver/Morris","5","5121","9","yes","1280","3"
"200","60","60","554.8","554.8","black","no","xpyriment","legacy","legacy","0","207","NA","uniform","71790","1000","0.0139295166458","1","undefined","1","0","9","9","9","0","9","9","9","NA","9","9","0","9","NA","9","9","0","9","NA","9","NA","9","0","0","9","9","0","9","9","10","/","03/05/19 12:37:08","The main experiment item","yes","FIN__BA__M21__7%3A10%3A17.osexp","C:\Users\ERP Testing Room\Desktop\Joanna\morph21","no","mono","no","18","no","white","no","yes","1080","legacy","9","9","C:/Users/ERP Testing Room/Desktop/Joanna/morph21/subject-165.csv","xpyriment","Kafkaesque Koffka","3.2.5","0","/","NA","NA","NA","NA","space","/","427","NA","NA","NA","NA","112497","427","2","legacy","1024","2","48000","-16","BA_m21","165","odd","FILL_W","SAVE","1941","150013","148338","145370","114449","NA","NA","NA","NA","150003","148835","NA","147838","NA","147833","150003","1951","150213","NA","NA","149013","1941","1941","149404","147833","1941","149013","150213","morph21_Oliver/Morris","6","5548","10","yes","1280","46"
"250","63.6363636364","63.6363636364","541.727272727","541.727272727","black","no","xpyriment","legacy","legacy","0","207","NA","uniform","71793","1000","0.0139289345758","1","undefined","1","0","10","10","10","0","10","10","10","NA","10","10","0","10","NA","10","10","0","10","NA","10","NA","10","0","0","10","10","0","10","10","11","/","03/05/19 12:37:08","The main experiment item","yes","FIN__BA__M21__7%3A10%3A17.osexp","C:\Users\ERP Testing Room\Desktop\Joanna\morph21","no","mono","no","18","no","white","no","yes","1080","legacy","10","10","C:/Users/ERP Testing Room/Desktop/Joanna/morph21/subject-165.csv","xpyriment","Kafkaesque Koffka","3.2.5","0","/","NA","NA","NA","NA","space","/","411","NA","NA","NA","NA","112497","411","2","legacy","1024","2","48000","-16","BA_m21","165","odd","FILL_W","PACK","1941","153021","151371","145370","114449","NA","NA","NA","NA","153016","151868","NA","150871","NA","150859","153016","1951","153271","NA","NA","152021","1941","1941","152421","150859","1941","152021","153271","morph21_Oliver/Morris","7","5959","11","yes","1280","41"
"350","58.3333333333","58.3333333333","556.5","556.5","black","no","xpyriment","legacy","legacy","0","202","NA","uniform","66376","1000","0.0150656863927","0","undefined","0","0","11","11","11","0","11","11","11","NA","11","11","0","11","NA","11","11","0","11","NA","11","NA","11","0","0","11","11","0","11","11","12","/","03/05/19 12:37:08","The main experiment item","yes","FIN__BA__M21__7%3A10%3A17.osexp","C:\Users\ERP Testing Room\Desktop\Joanna\morph21","no","mono","no","18","no","white","no","yes","1080","legacy","11","11","C:/Users/ERP Testing Room/Desktop/Joanna/morph21/subject-165.csv","xpyriment","Kafkaesque Koffka","3.2.5","0","z","NA","NA","NA","NA","space","z","719","NA","NA","NA","NA","112497","719","2","legacy","1024","2","48000","-16","BA_m21","165","odd","CW_L","BARKER","1941","157630","154455","156121","114449","NA","NA","NA","NA","153016","154952","NA","153955","NA","153948","156117","1951","157980","NA","NA","155121","1941","1941","155521","153948","1941","155121","157980","morph21_Oliver/Morris","7","6678","12","yes","1280","2"
"400","53.8461538462","53.8461538462","551.153846154","551.153846154","black","no","xpyriment","legacy","legacy","0","205","NA","uniform","76224","1000","0.0131192275399","0","undefined","0","0","12","12","12","0","12","12","12","NA","12","12","0","12","NA","12","12","0","12","NA","12","NA","12","0","0","12","12","0","12","12","13","z","03/05/19 12:37:08","The main experiment item","yes","FIN__BA__M21__7%3A10%3A17.osexp","C:\Users\ERP Testing Room\Desktop\Joanna\morph21","no","mono","no","18","no","white","no","yes","1080","legacy","12","12","C:/Users/ERP Testing Room/Desktop/Joanna/morph21/subject-165.csv","xpyriment","Kafkaesque Koffka","3.2.5","0","/","NA","NA","NA","NA","space","/","487","NA","NA","NA","NA","112497","487","2","legacy","1024","2","48000","-16","BA_m21","165","odd","NW_S_SIMP","MEDICALARY","1941","160713","159063","156121","114449","NA","NA","NA","NA","153016","159560","NA","158563","NA","158551","160708","1951","161113","NA","NA","159713","1941","1941","160105","158551","1941","159713","161113","morph21_Oliver/Morris","7","7165","13","yes","1280","18"
"400","57.1428571429","57.1428571429","546.5","546.5","black","no","xpyriment","legacy","legacy","0","201","NA","uniform","62210","1000","0.0160745860794","1","undefined","1","0","13","13","13","0","13","13","13","NA","13","13","0","13","NA","13","13","0","13","NA","13","NA","13","0","0","13","13","0","13","13","14","/","03/05/19 12:37:08","The main experiment item","yes","FIN__BA__M21__7%3A10%3A17.osexp","C:\Users\ERP Testing Room\Desktop\Joanna\morph21","no","mono","no","18","no","white","no","yes","1080","legacy","13","13","C:/Users/ERP Testing Room/Desktop/Joanna/morph21/subject-165.csv","xpyriment","Kafkaesque Koffka","3.2.5","0","/","NA","NA","NA","NA","space","/","486","NA","NA","NA","NA","112497","486","2","legacy","1024","2","48000","-16","BA_m21","165","odd","CW_S","DESIGN","1941","163905","162213","156121","114449","NA","NA","NA","NA","163900","162710","NA","161713","NA","161705","163900","1951","164305","NA","NA","162905","1941","1941","163305","161705","1941","162905","164305","morph21_Oliver/Morris","8","7651","14","yes","1280","19"
"200","53.3333333333","53.3333333333","536.4","536.4","black","no","xpyriment","legacy","legacy","0","206","NA","uniform","78310","1000","0.0127697612055","0","undefined","0","0","14","14","14","0","14","14","14","NA","14","14","0","14","NA","14","14","0","14","NA","14","NA","14","0","0","14","14","0","14","14","15","z","03/05/19 12:37:08","The main experiment item","yes","FIN__BA__M21__7%3A10%3A17.osexp","C:\Users\ERP Testing Room\Desktop\Joanna\morph21","no","mono","no","18","no","white","no","yes","1080","legacy","14","14","C:/Users/ERP Testing Room/Desktop/Joanna/morph21/subject-165.csv","xpyriment","Kafkaesque Koffka","3.2.5","0","/","NA","NA","NA","NA","space","/","395","NA","NA","NA","NA","112497","395","2","legacy","1024","2","48000","-16","BA_m21","165","odd","NW_L_SIMP","TOWERLY","1941","168698","165539","167189","114449","NA","NA","NA","NA","163900","166037","NA","165039","NA","165034","167184","1951","168898","NA","NA","166189","1941","1941","166581","165034","1941","166189","168898","morph21_Oliver/Morris","8","8046","15","yes","1280","15"
"200","56.25","56.25","535.625","535.625","black","no","xpyriment","legacy","legacy","0","201","NA","uniform","72510","1000","0.0137912012136","1","undefined","1","0","15","15","15","0","15","15","15","NA","15","15","0","15","NA","15","15","0","15","NA","15","NA","15","0","0","15","15","0","15","15","16","/","03/05/19 12:37:08","The main experiment item","yes","FIN__BA__M21__7%3A10%3A17.osexp","C:\Users\ERP Testing Room\Desktop\Joanna\morph21","no","mono","no","18","no","white","no","yes","1080","legacy","15","15","C:/Users/ERP Testing Room/Desktop/Joanna/morph21/subject-165.csv","xpyriment","Kafkaesque Koffka","3.2.5","0","/","NA","NA","NA","NA","space","/","524","NA","NA","NA","NA","112497","524","2","legacy","1024","2","48000","-16","BA_m21","165","odd","CW_S","BOLDNESS","1941","171731","170065","167189","114449","NA","NA","NA","NA","171727","170562","NA","169565","NA","169560","171727","1951","171931","NA","NA","170740","1941","1941","171131","169560","1941","170740","171931","morph21_Oliver/Morris","9","8570","16","yes","1280","41"
"300","58.8235294118","58.8235294118","539.764705882","539.764705882","black","no","xpyriment","legacy","legacy","0","206","NA","uniform","69515","1000","0.0143853844494","1","undefined","1","0","16","16","16","0","16","16","16","NA","16","16","0","16","NA","16","16","0","16","NA","16","NA","16","0","0","16","16","0","16","16","17","z","03/05/19 12:37:08","The main experiment item","yes","FIN__BA__M21__7%3A10%3A17.osexp","C:\Users\ERP Testing Room\Desktop\Joanna\morph21","no","mono","no","18","no","white","no","yes","1080","legacy","16","16","C:/Users/ERP Testing Room/Desktop/Joanna/morph21/subject-165.csv","xpyriment","Kafkaesque Koffka","3.2.5","0","z","NA","NA","NA","NA","space","z","606","NA","NA","NA","NA","112497","606","2","legacy","1024","2","48000","-16","BA_m21","165","odd","NW_L_SIMP","BANDARY","1941","174890","173223","167189","114449","NA","NA","NA","NA","174886","173720","NA","172723","NA","172718","174886","1951","175190","NA","NA","173890","1941","1941","174290","172718","1941","173890","175190","morph21_Oliver/Morris","10","9176","17","yes","1280","3"
"400","61.1111111111","61.1111111111","541.833333333","541.833333333","black","no","xpyriment","legacy","legacy","0","201","NA","uniform","70590","1000","0.0141663125089","1","undefined","1","0","17","17","17","0","17","17","17","NA","17","17","0","17","NA","17","17","0","17","NA","17","NA","17","0","0","17","17","0","17","17","18","/","03/05/19 12:37:08","The main experiment item","yes","FIN__BA__M21__7%3A10%3A17.osexp","C:\Users\ERP Testing Room\Desktop\Joanna\morph21","no","mono","no","18","no","white","no","yes","1080","legacy","17","17","C:/Users/ERP Testing Room/Desktop/Joanna/morph21/subject-165.csv","xpyriment","Kafkaesque Koffka","3.2.5","0","/","NA","NA","NA","NA","space","/","577","NA","NA","NA","NA","112497","577","2","legacy","1024","2","48000","-16","BA_m21","165","odd","CW_S","DIETARY","1941","179523","176340","178015","114449","NA","NA","NA","NA","178009","176837","NA","175832","NA","175827","178009","1951","179924","NA","NA","177015","1941","1941","177407","175827","1941","177015","179924","morph21_Oliver/Morris","11","9753","18","yes","1280","6"
"200","63.1578947368","63.1578947368","544.263157895","544.263157895","black","no","xpyriment","legacy","legacy","0","207","NA","uniform","68483","1000","0.0146021640407","1","undefined","1","0","18","18","18","0","18","18","18","NA","18","18","0","18","NA","18","18","0","18","NA","18","NA","18","0","0","18","18","0","18","18","19","/","03/05/19 12:37:08","The main experiment item","yes","FIN__BA__M21__7%3A10%3A17.osexp","C:\Users\ERP Testing Room\Desktop\Joanna\morph21","no","mono","no","18","no","white","no","yes","1080","legacy","18","18","C:/Users/ERP Testing Room/Desktop/Joanna/morph21/subject-165.csv","xpyriment","Kafkaesque Koffka","3.2.5","0","/","NA","NA","NA","NA","space","/","588","NA","NA","NA","NA","112497","588","2","legacy","1024","2","48000","-16","BA_m21","165","odd","FILL_W","FLOAT","1941","182741","181057","178015","114449","NA","NA","NA","NA","182731","181554","NA","180557","NA","180553","182731","1951","182941","NA","NA","181740","1941","1941","182133","180553","1941","181740","182941","morph21_Oliver/Morris","12","10341","19","yes","1280","30"
"350","65","65","546.3","546.3","black","no","xpyriment","legacy","legacy","0","208","NA","uniform","66856","1000","0.0149575206414","1","undefined","1","0","19","19","19","0","19","19","19","NA","19","19","0","19","NA","19","19","0","19","NA","19","NA","19","0","0","19","19","0","19","19","20","z","03/05/19 12:37:08","The main experiment item","yes","FIN__BA__M21__7%3A10%3A17.osexp","C:\Users\ERP Testing Room\Desktop\Joanna\morph21","no","mono","no","18","no","white","no","yes","1080","legacy","19","19","C:/Users/ERP Testing Room/Desktop/Joanna/morph21/subject-165.csv","xpyriment","Kafkaesque Koffka","3.2.5","0","z","NA","NA","NA","NA","space","z","585","NA","NA","NA","NA","112497","585","2","legacy","1024","2","48000","-16","BA_m21","165","odd","FILL_NW","DELP","1941","185783","184100","178015","114449","NA","NA","NA","NA","185777","184597","NA","183600","NA","183594","185777","1951","186133","NA","NA","184783","1941","1941","185175","183594","1941","184783","186133","morph21_Oliver/Morris","13","10926","20","yes","1280","14"
"300","66.6666666667","66.6666666667","555.761904762","555.761904762","black","no","xpyriment","legacy","legacy","0","205","NA","uniform","65566","1000","0.0152518073392","1","undefined","1","0","20","20","20","0","20","20","20","NA","20","20","0","20","NA","20","20","0","20","NA","20","NA","20","0","0","20","20","0","20","20","21","z","03/05/19 12:37:08","The main experiment item","yes","FIN__BA__M21__7%3A10%3A17.osexp","C:\Users\ERP Testing Room\Desktop\Joanna\morph21","no","mono","no","18","no","white","no","yes","1080","legacy","20","20","C:/Users/ERP Testing Room/Desktop/Joanna/morph21/subject-165.csv","xpyriment","Kafkaesque Koffka","3.2.5","0","z","NA","NA","NA","NA","space","z","745","NA","NA","NA","NA","112497","745","2","legacy","1024","2","48000","-16","BA_m21","165","odd","NW_S_SIMP","YIELDIST","1941","190500","187333","188991","114449","NA","NA","NA","NA","188983","187830","NA","186833","NA","186823","188983","1951","190800","NA","NA","187991","1941","1941","188383","186823","1941","187991","190800","morph21_Oliver/Morris","14","11671","21","yes","1280","20"
"400","68.1818181818","68.1818181818","560.409090909","560.409090909","black","no","xpyriment","legacy","legacy","0","202","NA","uniform","66927","1000","0.0149416528456","1","undefined","1","0","21","21","21","0","21","21","21","NA","21","21","0","21","NA","21","21","0","21","NA","21","NA","21","0","0","21","21","0","21","21","22","/","03/05/19 12:37:08","The main experiment item","yes","FIN__BA__M21__7%3A10%3A17.osexp","C:\Users\ERP Testing Room\Desktop\Joanna\morph21","no","mono","no","18","no","white","no","yes","1080","legacy","21","21","C:/Users/ERP Testing Room/Desktop/Joanna/morph21/subject-165.csv","xpyriment","Kafkaesque Koffka","3.2.5","0","/","NA","NA","NA","NA","space","/","658","NA","NA","NA","NA","112497","658","2","legacy","1024","2","48000","-16","BA_m21","165","odd","CW_L","SPELLER","1941","193558","191883","188991","114449","NA","NA","NA","NA","193551","192380","NA","191383","NA","191372","193551","1951","193958","NA","NA","192558","1941","1941","192950","191372","1941","192558","193958","morph21_Oliver/Morris","15","12329","22","yes","1280","3"
"400","69.5652173913","69.5652173913","557.434782609","557.434782609","black","no","xpyriment","legacy","legacy","0","201","NA","uniform","73771","1000","0.0135554621735","1","undefined","1","0","22","22","22","0","22","22","22","NA","22","22","0","22","NA","22","22","0","22","NA","22","NA","22","0","0","22","22","0","22","22","23","/","03/05/19 12:37:08","The main experiment item","yes","FIN__BA__M21__7%3A10%3A17.osexp","C:\Users\ERP Testing Room\Desktop\Joanna\morph21","no","mono","no","18","no","white","no","yes","1080","legacy","22","22","C:/Users/ERP Testing Room/Desktop/Joanna/morph21/subject-165.csv","xpyriment","Kafkaesque Koffka","3.2.5","0","/","NA","NA","NA","NA","space","/","492","NA","NA","NA","NA","112497","492","2","legacy","1024","2","48000","-16","BA_m21","165","odd","CW_S","EFFORTLESS","1941","196892","195242","188991","114449","NA","NA","NA","NA","196887","195739","NA","194742","NA","194732","196887","1951","197292","NA","NA","195892","1941","1941","196292","194732","1941","195892","197292","morph21_Oliver/Morris","16","12821","23","yes","1280","30"
"250","70.8333333333","70.8333333333","556.625","556.625","black","no","xpyriment","legacy","legacy","0","201","NA","uniform","72870","1000","0.0137230684781","1","undefined","1","0","23","23","23","0","23","23","23","NA","23","23","0","23","NA","23","23","0","23","NA","23","NA","23","0","0","23","23","0","23","23","24","/","03/05/19 12:37:08","The main experiment item","yes","FIN__BA__M21__7%3A10%3A17.osexp","C:\Users\ERP Testing Room\Desktop\Joanna\morph21","no","mono","no","18","no","white","no","yes","1080","legacy","23","23","C:/Users/ERP Testing Room/Desktop/Joanna/morph21/subject-165.csv","xpyriment","Kafkaesque Koffka","3.2.5","0","/","NA","NA","NA","NA","space","/","538","NA","NA","NA","NA","112497","538","2","legacy","1024","2","48000","-16","BA_m21","165","odd","CW_S","PLANNER","1941","201643","198475","200135","114449","NA","NA","NA","NA","200132","198972","NA","197975","NA","197965","200132","1951","201893","NA","NA","199142","1941","1941","199534","197965","1941","199142","201893","morph21_Oliver/Morris","17","13359","24","yes","1280","22"
"250","72","72","555.92","555.92","black","no","xpyriment","legacy","legacy","0","206","NA","uniform","68722","1000","0.014551380926","1","undefined","1","0","24","24","24","0","24","24","24","NA","24","24","0","24","NA","24","24","0","24","NA","24","NA","24","0","0","24","24","0","24","24","25","z","03/05/19 12:37:08","The main experiment item","yes","FIN__BA__M21__7%3A10%3A17.osexp","C:\Users\ERP Testing Room\Desktop\Joanna\morph21","no","mono","no","18","no","white","no","yes","1080","legacy","24","24","C:/Users/ERP Testing Room/Desktop/Joanna/morph21/subject-165.csv","xpyriment","Kafkaesque Koffka","3.2.5","0","z","NA","NA","NA","NA","space","z","539","NA","NA","NA","NA","112497","539","2","legacy","1024","2","48000","-16","BA_m21","165","odd","NW_L_SIMP"," DRESSORY","1941","204685","203010","200135","114449","NA","NA","NA","NA","204675","203507","NA","202510","NA","202503","204675","1951","204935","NA","NA","203685","1941","1941","204076","202503","1941","203685","204935","morph21_Oliver/Morris","18","13898","25","yes","1280","21"
"300","69.2307692308","69.2307692308","555.153846154","555.153846154","black","no","xpyriment","legacy","legacy","0","208","NA","uniform","67727","1000","0.0147651601282","0","undefined","0","0","25","25","25","0","25","25","25","NA","25","25","0","25","NA","25","25","0","25","NA","25","NA","25","0","0","25","25","0","25","25","26","z","03/05/19 12:37:08","The main experiment item","yes","FIN__BA__M21__7%3A10%3A17.osexp","C:\Users\ERP Testing Room\Desktop\Joanna\morph21","no","mono","no","18","no","white","no","yes","1080","legacy","25","25","C:/Users/ERP Testing Room/Desktop/Joanna/morph21/subject-165.csv","xpyriment","Kafkaesque Koffka","3.2.5","0","/","NA","NA","NA","NA","space","/","536","NA","NA","NA","NA","112497","536","2","legacy","1024","2","48000","-16","BA_m21","165","odd","FILL_NW","SCURE","1941","207777","206110","200135","114449","NA","NA","NA","NA","204675","206607","NA","205610","NA","205605","207766","1951","208077","NA","NA","206776","1941","1941","207168","205605","1941","206776","208077","morph21_Oliver/Morris","18","14434","26","yes","1280","41"
"350","70.3703703704","70.3703703704","559.296296296","559.296296296","black","no","xpyriment","legacy","legacy","0","208","NA","uniform","65125","1000","0.0153550863724","1","undefined","1","0","26","26","26","0","26","26","26","NA","26","26","0","26","NA","26","26","0","26","NA","26","NA","26","0","0","26","26","0","26","26","27","z","03/05/19 12:37:08","The main experiment item","yes","FIN__BA__M21__7%3A10%3A17.osexp","C:\Users\ERP Testing Room\Desktop\Joanna\morph21","no","mono","no","18","no","white","no","yes","1080","legacy","26","26","C:/Users/ERP Testing Room/Desktop/Joanna/morph21/subject-165.csv","xpyriment","Kafkaesque Koffka","3.2.5","0","z","NA","NA","NA","NA","space","z","667","NA","NA","NA","NA","112497","667","2","legacy","1024","2","48000","-16","BA_m21","165","odd","FILL_NW","DARF","1941","212402","209243","210893","114449","NA","NA","NA","NA","210886","209740","NA","208743","NA","208737","210886","1951","212752","NA","NA","209893","1941","1941","210285","208737","1941","209893","212752","morph21_Oliver/Morris","19","15101","27","yes","1280","10"
"300","71.4285714286","71.4285714286","565.571428571","565.571428571","black","no","xpyriment","legacy","legacy","0","204","NA","uniform","66035","1000","0.0151434845158","1","undefined","1","0","27","27","27","0","27","27","27","NA","27","27","0","27","NA","27","27","0","27","NA","27","NA","27","0","0","27","27","0","27","27","28","z","03/05/19 12:37:08","The main experiment item","yes","FIN__BA__M21__7%3A10%3A17.osexp","C:\Users\ERP Testing Room\Desktop\Joanna\morph21","no","mono","no","18","no","white","no","yes","1080","legacy","27","27","C:/Users/ERP Testing Room/Desktop/Joanna/morph21/subject-165.csv","xpyriment","Kafkaesque Koffka","3.2.5","0","z","NA","NA","NA","NA","space","z","735","NA","NA","NA","NA","112497","735","2","legacy","1024","2","48000","-16","BA_m21","165","odd","NW_L_COMP","IME","1941","215552","213877","210893","114449","NA","NA","NA","NA","215542","214374","NA","213377","NA","213372","215542","1951","215852","NA","NA","214552","1941","1941","214943","213372","1941","214552","215852","morph21_Oliver/Morris","20","15836","28","yes","1280","20"
"350","72.4137931034","72.4137931034","559.275862069","559.275862069","black","no","xpyriment","legacy","legacy","0","201","NA","uniform","78034","1000","0.0128149268268","1","undefined","1","0","28","28","28","0","28","28","28","NA","28","28","0","28","NA","28","28","0","28","NA","28","NA","28","0","0","28","28","0","28","28","29","/","03/05/19 12:37:08","The main experiment item","yes","FIN__BA__M21__7%3A10%3A17.osexp","C:\Users\ERP Testing Room\Desktop\Joanna\morph21","no","mono","no","18","no","white","no","yes","1080","legacy","28","28","C:/Users/ERP Testing Room/Desktop/Joanna/morph21/subject-165.csv","xpyriment","Kafkaesque Koffka","3.2.5","0","/","NA","NA","NA","NA","space","/","383","NA","NA","NA","NA","112497","383","2","legacy","1024","2","48000","-16","BA_m21","165","odd","CW_S","TEACHER","1941","218745","217086","210893","114449","NA","NA","NA","NA","218741","217583","NA","216585","NA","216575","218741","1951","219095","NA","NA","217745","1941","1941","218145","216575","1941","217745","219095","morph21_Oliver/Morris","21","16219","29","yes","1280","23"
"200","73.3333333333","73.3333333333","560.833333333","560.833333333","black","no","xpyriment","legacy","legacy","0","203","NA","uniform","70560","1000","0.0141723356009","1","undefined","1","0","29","29","29","0","29","29","29","NA","29","29","0","29","NA","29","29","0","29","NA","29","NA","29","0","0","29","29","0","29","29","30","z","03/05/19 12:37:08","The main experiment item","yes","FIN__BA__M21__7%3A10%3A17.osexp","C:\Users\ERP Testing Room\Desktop\Joanna\morph21","no","mono","no","18","no","white","no","yes","1080","legacy","29","29","C:/Users/ERP Testing Room/Desktop/Joanna/morph21/subject-165.csv","xpyriment","Kafkaesque Koffka","3.2.5","0","z","NA","NA","NA","NA","space","z","606","NA","NA","NA","NA","112497","606","2","legacy","1024","2","48000","-16","BA_m21","165","odd","NW_S_COMP","DUMBIDY","1941","223478","220278","221970","114449","NA","NA","NA","NA","221963","220775","NA","219778","NA","219773","221963","1951","223678","NA","NA","220970","1941","1941","221361","219773","1941","220970","223678","morph21_Oliver/Morris","22","16825","30","yes","1280","12"
"250","70.9677419355","70.9677419355","557.774193548","557.774193548","black","no","xpyriment","legacy","legacy","0","208","NA","uniform","67480","1000","0.0148192056906","0","undefined","0","0","30","30","30","0","30","30","30","NA","30","30","0","30","NA","30","30","0","30","NA","30","NA","30","0","0","30","30","0","30","30","31","z","03/05/19 12:37:08","The main experiment item","yes","FIN__BA__M21__7%3A10%3A17.osexp","C:\Users\ERP Testing Room\Desktop\Joanna\morph21","no","mono","no","18","no","white","no","yes","1080","legacy","30","30","C:/Users/ERP Testing Room/Desktop/Joanna/morph21/subject-165.csv","xpyriment","Kafkaesque Koffka","3.2.5","0","/","NA","NA","NA","NA","space","/","466","NA","NA","NA","NA","112497","466","2","legacy","1024","2","48000","-16","BA_m21","165","odd","FILL_NW","PLAODS","1941","226470","224778","221970","114449","NA","NA","NA","NA","221963","225275","NA","224278","NA","224272","226460","1951","226720","NA","NA","225470","1941","1941","225862","224272","1941","225470","226720","morph21_Oliver/Morris","22","17291","31","yes","1280","37"
"350","71.875","71.875","558.75","558.75","black","no","xpyriment","legacy","legacy","0","201","NA","uniform","65036","1000","0.0153760993911","1","undefined","1","0","31","31","31","0","31","31","31","NA","31","31","0","31","NA","31","31","0","31","NA","31","NA","31","0","0","31","31","0","31","31","32","/","03/05/19 12:37:08","The main experiment item","yes","FIN__BA__M21__7%3A10%3A17.osexp","C:\Users\ERP Testing Room\Desktop\Joanna\morph21","no","mono","no","18","no","white","no","yes","1080","legacy","31","31","C:/Users/ERP Testing Room/Desktop/Joanna/morph21/subject-165.csv","xpyriment","Kafkaesque Koffka","3.2.5","0","/","NA","NA","NA","NA","space","/","589","NA","NA","NA","NA","112497","589","2","legacy","1024","2","48000","-16","BA_m21","165","odd","CW_S","DULLNESS","1941","229595","227912","221970","114449","NA","NA","NA","NA","229586","228409","NA","227412","NA","227404","229586","1951","229945","NA","NA","228595","1941","1941","228987","227404","1941","228595","229945","morph21_Oliver/Morris","23","17880","32","yes","1280","43"
"400","69.696969697","69.696969697","554","554","black","no","xpyriment","legacy","legacy","0","204","NA","uniform","73690","1000","0.0135703623287","0","undefined","0","0","32","32","32","0","32","32","32","NA","32","32","0","32","NA","32","32","0","32","NA","32","NA","32","0","0","32","32","0","32","32","33","z","03/05/19 12:37:08","The main experiment item","yes","FIN__BA__M21__7%3A10%3A17.osexp","C:\Users\ERP Testing Room\Desktop\Joanna\morph21","no","mono","no","18","no","white","no","yes","1080","legacy","32","32","C:/Users/ERP Testing Room/Desktop/Joanna/morph21/subject-165.csv","xpyriment","Kafkaesque Koffka","3.2.5","0","/","NA","NA","NA","NA","space","/","402","NA","NA","NA","NA","112497","402","2","legacy","1024","2","48000","-16","BA_m21","165","odd","NW_L_COMP","ANGELITH","1941","234380","231162","232870","114449","NA","NA","NA","NA","229586","231659","NA","230662","NA","230652","232860","1951","234780","NA","NA","231870","1941","1941","232262","230652","1941","231870","234780","morph21_Oliver/Morris","23","18282","33","yes","1280","7"
"350","70.5882352941","70.5882352941","550.764705882","550.764705882","black","no","xpyriment","legacy","legacy","0","202","NA","uniform","73398","1000","0.0136243494373","1","undefined","1","0","33","33","33","0","33","33","33","NA","33","33","0","33","NA","33","33","0","33","NA","33","NA","33","0","0","33","33","0","33","33","34","/","03/05/19 12:37:08","The main experiment item","yes","FIN__BA__M21__7%3A10%3A17.osexp","C:\Users\ERP Testing Room\Desktop\Joanna\morph21","no","mono","no","18","no","white","no","yes","1080","legacy","33","33","C:/Users/ERP Testing Room/Desktop/Joanna/morph21/subject-165.csv","xpyriment","Kafkaesque Koffka","3.2.5","0","/","NA","NA","NA","NA","space","/","444","NA","NA","NA","NA","112497","444","2","legacy","1024","2","48000","-16","BA_m21","165","odd","CW_L","PARKING","1941","237580","235913","232870","114449","NA","NA","NA","NA","237575","236410","NA","235413","NA","235405","237575","1951","237930","NA","NA","236580","1941","1941","236980","235405","1941","236580","237930","morph21_Oliver/Morris","24","18726","34","yes","1280","25"
"400","71.4285714286","71.4285714286","549.085714286","549.085714286","black","no","xpyriment","legacy","legacy","0","207","NA","uniform","75370","1000","0.0132678784662","1","undefined","1","0","34","34","34","0","34","34","34","NA","34","34","0","34","NA","34","34","0","34","NA","34","NA","34","0","0","34","34","0","34","34","35","/","03/05/19 12:37:08","The main experiment item","yes","FIN__BA__M21__7%3A10%3A17.osexp","C:\Users\ERP Testing Room\Desktop\Joanna\morph21","no","mono","no","18","no","white","no","yes","1080","legacy","34","34","C:/Users/ERP Testing Room/Desktop/Joanna/morph21/subject-165.csv","xpyriment","Kafkaesque Koffka","3.2.5","0","/","NA","NA","NA","NA","space","/","492","NA","NA","NA","NA","112497","492","2","legacy","1024","2","48000","-16","BA_m21","165","odd","FILL_W","CHIP","1941","240780","239130","232870","114449","NA","NA","NA","NA","240775","239627","NA","238630","NA","238618","240775","1951","241180","NA","NA","239780","1941","1941","240180","238618","1941","239780","241180","morph21_Oliver/Morris","25","19218","35","yes","1280","11"
"250","72.2222222222","72.2222222222","550.5","550.5","black","no","xpyriment","legacy","legacy","0","201","NA","uniform","64203","1000","0.0155755961559","1","undefined","1","0","35","35","35","0","35","35","35","NA","35","35","0","35","NA","35","35","0","35","NA","35","NA","35","0","0","35","35","0","35","35","36","/","03/05/19 12:37:08","The main experiment item","yes","FIN__BA__M21__7%3A10%3A17.osexp","C:\Users\ERP Testing Room\Desktop\Joanna\morph21","no","mono","no","18","no","white","no","yes","1080","legacy","35","35","C:/Users/ERP Testing Room/Desktop/Joanna/morph21/subject-165.csv","xpyriment","Kafkaesque Koffka","3.2.5","0","/","NA","NA","NA","NA","space","/","600","NA","NA","NA","NA","112497","600","2","legacy","1024","2","48000","-16","BA_m21","165","odd","CW_S","GRIMLY","1941","245580","242363","244072","114449","NA","NA","NA","NA","244062","242861","NA","241863","NA","241855","244062","1951","245830","NA","NA","243072","1941","1941","243463","241855","1941","243072","245830","morph21_Oliver/Morris","26","19818","36","yes","1280","31"
"200","72.972972973","72.972972973","550.972972973","550.972972973","black","no","xpyriment","legacy","legacy","0","202","NA","uniform","71349","1000","0.0140156133933","1","undefined","1","0","36","36","36","0","36","36","36","NA","36","36","0","36","NA","36","36","0","36","NA","36","NA","36","0","0","36","36","0","36","36","37","/","03/05/19 12:37:08","The main experiment item","yes","FIN__BA__M21__7%3A10%3A17.osexp","C:\Users\ERP Testing Room\Desktop\Joanna\morph21","no","mono","no","18","no","white","no","yes","1080","legacy","36","36","C:/Users/ERP Testing Room/Desktop/Joanna/morph21/subject-165.csv","xpyriment","Kafkaesque Koffka","3.2.5","0","/","NA","NA","NA","NA","space","/","568","NA","NA","NA","NA","112497","568","2","legacy","1024","2","48000","-16","BA_m21","165","odd","CW_L","VERBAL","1941","248664","246972","244072","114449","NA","NA","NA","NA","248658","247469","NA","246472","NA","246465","248658","1951","248864","NA","NA","247664","1941","1941","248055","246465","1941","247663","248864","morph21_Oliver/Morris","27","20386","37","yes","1280","50"
"250","73.6842105263","73.6842105263","550.526315789","550.526315789","black","no","xpyriment","legacy","legacy","0","208","NA","uniform","69063","1000","0.0144795331799","1","undefined","1","0","37","37","37","0","37","37","37","NA","37","37","0","37","NA","37","37","0","37","NA","37","NA","37","0","0","37","37","0","37","37","38","z","03/05/19 12:37:08","The main experiment item","yes","FIN__BA__M21__7%3A10%3A17.osexp","C:\Users\ERP Testing Room\Desktop\Joanna\morph21","no","mono","no","18","no","white","no","yes","1080","legacy","37","37","C:/Users/ERP Testing Room/Desktop/Joanna/morph21/subject-165.csv","xpyriment","Kafkaesque Koffka","3.2.5","0","z","NA","NA","NA","NA","space","z","534","NA","NA","NA","NA","112497","534","2","legacy","1024","2","48000","-16","BA_m21","165","odd","FILL_NW","BUWL","1941","251706","250047","244072","114449","NA","NA","NA","NA","251698","250544","NA","249547","NA","249539","251698","1951","251956","NA","NA","250705","1941","1941","251097","249539","1941","250705","251956","morph21_Oliver/Morris","28","20920","38","yes","1280","9"
"300","71.7948717949","71.7948717949","551.897435897","551.897435897","black","no","xpyriment","legacy","legacy","0","204","NA","uniform","67130","1000","0.0148964695367","0","undefined","0","0","38","38","38","0","38","38","38","NA","38","38","0","38","NA","38","38","0","38","NA","38","NA","38","0","0","38","38","0","38","38","39","z","03/05/19 12:37:08","The main experiment item","yes","FIN__BA__M21__7%3A10%3A17.osexp","C:\Users\ERP Testing Room\Desktop\Joanna\morph21","no","mono","no","18","no","white","no","yes","1080","legacy","38","38","C:/Users/ERP Testing Room/Desktop/Joanna/morph21/subject-165.csv","xpyriment","Kafkaesque Koffka","3.2.5","0","/","NA","NA","NA","NA","space","/","604","NA","NA","NA","NA","112497","604","2","legacy","1024","2","48000","-16","BA_m21","165","odd","NW_L_COMP","EMPLOYNELS","1941","256248","253040","254740","114449","NA","NA","NA","NA","251698","253537","NA","252531","NA","252527","254732","1951","256548","NA","NA","253740","1941","1941","254131","252527","1941","253740","256548","morph21_Oliver/Morris","28","21524","39","yes","1280","21"
"400","72.5","72.5","552.775","552.775","black","no","xpyriment","legacy","legacy","0","208","NA","uniform","68296","1000","0.0146421459529","1","undefined","1","0","39","39","39","0","39","39","39","NA","39","39","0","39","NA","39","39","0","39","NA","39","NA","39","0","0","39","39","0","39","39","40","z","03/05/19 12:37:08","The main experiment item","yes","FIN__BA__M21__7%3A10%3A17.osexp","C:\Users\ERP Testing Room\Desktop\Joanna\morph21","no","mono","no","18","no","white","no","yes","1080","legacy","39","39","C:/Users/ERP Testing Room/Desktop/Joanna/morph21/subject-165.csv","xpyriment","Kafkaesque Koffka","3.2.5","0","z","NA","NA","NA","NA","space","z","587","NA","NA","NA","NA","112497","587","2","legacy","1024","2","48000","-16","BA_m21","165","odd","FILL_NW","VELT","1941","259373","257648","254740","114449","NA","NA","NA","NA","259365","258145","NA","257148","NA","257138","259365","1951","259773","NA","NA","258373","1941","1941","258765","257138","1941","258373","259773","morph21_Oliver/Morris","29","22111","40","yes","1280","46"
"300","73.1707317073","73.1707317073","551.926829268","551.926829268","black","no","xpyriment","legacy","legacy","0","202","NA","uniform","74123","1000","0.0134910891356","1","undefined","1","0","40","40","40","0","40","40","40","NA","40","40","0","40","NA","40","40","0","40","NA","40","NA","40","0","0","40","40","0","40","40","41","/","03/05/19 12:37:08","The main experiment item","yes","FIN__BA__M21__7%3A10%3A17.osexp","C:\Users\ERP Testing Room\Desktop\Joanna\morph21","no","mono","no","18","no","white","no","yes","1080","legacy","40","40","C:/Users/ERP Testing Room/Desktop/Joanna/morph21/subject-165.csv","xpyriment","Kafkaesque Koffka","3.2.5","0","/","NA","NA","NA","NA","space","/","518","NA","NA","NA","NA","112497","518","2","legacy","1024","2","48000","-16","BA_m21","165","odd","CW_L","WEEDY","1941","262699","260982","254740","114449","NA","NA","NA","NA","262693","261479","NA","260473","NA","260466","262693","1951","262999","NA","NA","261698","1941","1941","262090","260466","1941","261698","262999","morph21_Oliver/Morris","30","22629","41","yes","1280","48"
"350","71.4285714286","71.4285714286","557.833333333","557.833333333","black","no","xpyriment","legacy","legacy","0","206","NA","uniform","65037","1000","0.0153758629703","0","undefined","0","0","41","41","41","0","41","41","41","NA","41","41","0","41","NA","41","41","0","41","NA","41","NA","41","0","0","41","41","0","41","41","42","z","03/05/19 12:37:08","The main experiment item","yes","FIN__BA__M21__7%3A10%3A17.osexp","C:\Users\ERP Testing Room\Desktop\Joanna\morph21","no","mono","no","18","no","white","no","yes","1080","legacy","41","41","C:/Users/ERP Testing Room/Desktop/Joanna/morph21/subject-165.csv","xpyriment","Kafkaesque Koffka","3.2.5","0","/","NA","NA","NA","NA","space","/","800","NA","NA","NA","NA","112497","800","2","legacy","1024","2","48000","-16","BA_m21","165","odd","NW_L_SIMP","NUTLY","1941","267332","264174","265824","114449","NA","NA","NA","NA","262693","264671","NA","263674","NA","263669","265816","1951","267682","NA","NA","264824","1941","1941","265215","263669","1941","264824","267682","morph21_Oliver/Morris","30","23429","42","yes","1280","14"
"300","72.0930232558","72.0930232558","557.046511628","557.046511628","black","no","xpyriment","legacy","legacy","0","207","NA","uniform","64829","1000","0.0154251955144","1","undefined","1","0","42","42","42","0","42","42","42","NA","42","42","0","42","NA","42","42","0","42","NA","42","NA","42","0","0","42","42","0","42","42","43","/","03/05/19 12:37:08","The main experiment item","yes","FIN__BA__M21__7%3A10%3A17.osexp","C:\Users\ERP Testing Room\Desktop\Joanna\morph21","no","mono","no","18","no","white","no","yes","1080","legacy","42","42","C:/Users/ERP Testing Room/Desktop/Joanna/morph21/subject-165.csv","xpyriment","Kafkaesque Koffka","3.2.5","0","/","NA","NA","NA","NA","space","/","524","NA","NA","NA","NA","112497","524","2","legacy","1024","2","48000","-16","BA_m21","165","odd","FILL_W","BOX","1941","270492","268824","265824","114449","NA","NA","NA","NA","270481","269321","NA","268315","NA","268307","270481","1951","270792","NA","NA","269492","1941","1941","269883","268307","1941","269491","270792","morph21_Oliver/Morris","31","23953","43","yes","1280","42"
"400","72.7272727273","72.7272727273","559.727272727","559.727272727","black","no","xpyriment","legacy","legacy","0","208","NA","uniform","64363","1000","0.015536876777","1","undefined","1","0","43","43","43","0","43","43","43","NA","43","43","0","43","NA","43","43","0","43","NA","43","NA","43","0","0","43","43","0","43","43","44","z","03/05/19 12:37:08","The main experiment item","yes","FIN__BA__M21__7%3A10%3A17.osexp","C:\Users\ERP Testing Room\Desktop\Joanna\morph21","no","mono","no","18","no","white","no","yes","1080","legacy","43","43","C:/Users/ERP Testing Room/Desktop/Joanna/morph21/subject-165.csv","xpyriment","Kafkaesque Koffka","3.2.5","0","z","NA","NA","NA","NA","space","z","675","NA","NA","NA","NA","112497","675","2","legacy","1024","2","48000","-16","BA_m21","165","odd","FILL_NW","GIKE","1941","273717","272025","265824","114449","NA","NA","NA","NA","273708","272522","NA","271525","NA","271519","273708","1951","274117","NA","NA","272717","1941","1941","273108","271519","1941","272717","274117","morph21_Oliver/Morris","32","24628","44","yes","1280","24"
"250","73.3333333333","73.3333333333","557.822222222","557.822222222","black","no","xpyriment","legacy","legacy","0","207","NA","uniform","71867","1000","0.0139145922329","1","undefined","1","0","44","44","44","0","44","44","44","NA","44","44","0","44","NA","44","44","0","44","NA","44","NA","44","0","0","44","44","0","44","44","45","/","03/05/19 12:37:08","The main experiment item","yes","FIN__BA__M21__7%3A10%3A17.osexp","C:\Users\ERP Testing Room\Desktop\Joanna\morph21","no","mono","no","18","no","white","no","yes","1080","legacy","44","44","C:/Users/ERP Testing Room/Desktop/Joanna/morph21/subject-165.csv","xpyriment","Kafkaesque Koffka","3.2.5","0","/","NA","NA","NA","NA","space","/","474","NA","NA","NA","NA","112497","474","2","legacy","1024","2","48000","-16","BA_m21","165","odd","FILL_W","SHIP","1941","278467","275283","276958","114449","NA","NA","NA","NA","276948","275781","NA","274783","NA","274774","276948","1951","278717","NA","NA","275958","1941","1941","276350","274774","1941","275958","278717","morph21_Oliver/Morris","33","25102","45","yes","1280","37"
"350","71.7391304348","71.7391304348","561.043478261","561.043478261","black","no","xpyriment","legacy","legacy","0","203","NA","uniform","66847","1000","0.0149595344593","0","undefined","0","0","45","45","45","0","45","45","45","NA","45","45","0","45","NA","45","45","0","45","NA","45","NA","45","0","0","45","45","0","45","45","46","z","03/05/19 12:37:08","The main experiment item","yes","FIN__BA__M21__7%3A10%3A17.osexp","C:\Users\ERP Testing Room\Desktop\Joanna\morph21","no","mono","no","18","no","white","no","yes","1080","legacy","45","45","C:/Users/ERP Testing Room/Desktop/Joanna/morph21/subject-165.csv","xpyriment","Kafkaesque Koffka","3.2.5","0","/","NA","NA","NA","NA","space","/","706","NA","NA","NA","NA","112497","706","2","legacy","1024","2","48000","-16","BA_m21","165","odd","NW_S_COMP","FIENDILM","1941","281542","279884","276958","114449","NA","NA","NA","NA","276948","280381","NA","279384","NA","279373","281534","1951","281892","NA","NA","280542","1941","1941","280934","279373","1941","280542","281892","morph21_Oliver/Morris","33","25808","46","yes","1280","24"
"300","72.3404255319","72.3404255319","558.893617021","558.893617021","black","no","xpyriment","legacy","legacy","0","201","NA","uniform","73551","1000","0.013596008212","1","undefined","1","0","46","46","46","0","46","46","46","NA","46","46","0","46","NA","46","46","0","46","NA","46","NA","46","0","0","46","46","0","46","46","47","/","03/05/19 12:37:08","The main experiment item","yes","FIN__BA__M21__7%3A10%3A17.osexp","C:\Users\ERP Testing Room\Desktop\Joanna\morph21","no","mono","no","18","no","white","no","yes","1080","legacy","46","46","C:/Users/ERP Testing Room/Desktop/Joanna/morph21/subject-165.csv","xpyriment","Kafkaesque Koffka","3.2.5","0","/","NA","NA","NA","NA","space","/","460","NA","NA","NA","NA","112497","460","2","legacy","1024","2","48000","-16","BA_m21","165","odd","CW_S","DETECTABLE","1941","284667","283000","276958","114449","NA","NA","NA","NA","284664","283498","NA","282500","NA","282496","284664","1951","284967","NA","NA","283676","1941","1941","284067","282496","1941","283675","284967","morph21_Oliver/Morris","34","26268","47","yes","1280","1"
"300","72.9166666667","72.9166666667","555.833333333","555.833333333","black","no","xpyriment","legacy","legacy","0","207","NA","uniform","75569","1000","0.0132329394328","1","undefined","1","0","47","47","47","0","47","47","47","NA","47","47","0","47","NA","47","47","0","47","NA","47","NA","47","0","0","47","47","0","47","47","48","/","03/05/19 12:37:08","The main experiment item","yes","FIN__BA__M21__7%3A10%3A17.osexp","C:\Users\ERP Testing Room\Desktop\Joanna\morph21","no","mono","no","18","no","white","no","yes","1080","legacy","47","47","C:/Users/ERP Testing Room/Desktop/Joanna/morph21/subject-165.csv","xpyriment","Kafkaesque Koffka","3.2.5","0","/","NA","NA","NA","NA","space","/","412","NA","NA","NA","NA","112497","412","2","legacy","1024","2","48000","-16","BA_m21","165","odd","FILL_W","IRON","1941","289377","286192","287868","114449","NA","NA","NA","NA","287860","286689","NA","285692","NA","285683","287860","1951","289677","NA","NA","286868","1941","1941","287260","285683","1941","286868","289677","morph21_Oliver/Morris","35","26680","48","yes","1280","33"
"350","73.4693877551","73.4693877551","556.285714286","556.285714286","black","no","xpyriment","legacy","legacy","0","201","NA","uniform","70841","1000","0.0141161191965","1","undefined","1","0","48","48","48","0","48","48","48","NA","48","48","0","48","NA","48","48","0","48","NA","48","NA","48","0","0","48","48","0","48","48","49","/","03/05/19 12:37:08","The main experiment item","yes","FIN__BA__M21__7%3A10%3A17.osexp","C:\Users\ERP Testing Room\Desktop\Joanna\morph21","no","mono","no","18","no","white","no","yes","1080","legacy","48","48","C:/Users/ERP Testing Room/Desktop/Joanna/morph21/subject-165.csv","xpyriment","Kafkaesque Koffka","3.2.5","0","/","NA","NA","NA","NA","space","/","578","NA","NA","NA","NA","112497","578","2","legacy","1024","2","48000","-16","BA_m21","165","odd","CW_S","AMAZEMENT","1941","292493","290818","287868","114449","NA","NA","NA","NA","292491","291316","NA","290318","NA","290311","292491","1951","292844","NA","NA","291502","1941","1941","291893","290311","1941","291502","292844","morph21_Oliver/Morris","36","27258","49","yes","1280","39"
"250","74","74","555.52","555.52","black","no","xpyriment","legacy","legacy","0","207","NA","uniform","65125","1000","0.0153550863724","1","undefined","1","0","49","49","49","0","49","49","49","NA","49","49","0","49","NA","49","49","0","49","NA","49","NA","49","0","0","49","49","0","49","49","50","/","03/05/19 12:37:08","The main experiment item","yes","FIN__BA__M21__7%3A10%3A17.osexp","C:\Users\ERP Testing Room\Desktop\Joanna\morph21","no","mono","no","18","no","white","no","yes","1080","legacy","49","49","C:/Users/ERP Testing Room/Desktop/Joanna/morph21/subject-165.csv","xpyriment","Kafkaesque Koffka","3.2.5","0","/","NA","NA","NA","NA","space","/","518","NA","NA","NA","NA","112497","518","2","legacy","1024","2","48000","-16","BA_m21","165","odd","FILL_W","SLIM","1941","295602","293952","287868","114449","NA","NA","NA","NA","295597","294449","NA","293444","NA","293438","295597","1951","295852","NA","NA","294602","1941","1941","295002","293438","1941","294602","295852","morph21_Oliver/Morris","37","27776","50","yes","1280","6"
"350","72.5490196078","72.5490196078","553.882352941","553.882352941","black","no","xpyriment","legacy","legacy","0","208","NA","uniform","76190","1000","0.0131250820318","0","undefined","0","0","50","50","50","0","50","50","50","NA","50","50","0","50","NA","50","50","0","50","NA","50","NA","50","0","0","50","50","0","50","50","51","z","03/05/19 12:37:08","The main experiment item","yes","FIN__BA__M21__7%3A10%3A17.osexp","C:\Users\ERP Testing Room\Desktop\Joanna\morph21","no","mono","no","18","no","white","no","yes","1080","legacy","50","50","C:/Users/ERP Testing Room/Desktop/Joanna/morph21/subject-165.csv","xpyriment","Kafkaesque Koffka","3.2.5","0","/","NA","NA","NA","NA","space","/","472","NA","NA","NA","NA","112497","472","2","legacy","1024","2","48000","-16","BA_m21","165","odd","FILL_NW","KRAISE","1941","300261","297077","298752","114449","NA","NA","NA","NA","295597","297574","NA","296577","NA","296572","298743","1951","300611","NA","NA","297752","1941","1941","298144","296572","1941","297752","300611","morph21_Oliver/Morris","37","28248","51","yes","1280","33"
"400","73.0769230769","73.0769230769","555.788461538","555.788461538","black","no","xpyriment","legacy","legacy","0","208","NA","uniform","64989","1000","0.0153872193756","1","undefined","1","0","51","51","51","0","51","51","51","NA","51","51","0","51","NA","51","51","0","51","NA","51","NA","51","0","0","51","51","0","51","51","52","z","03/05/19 12:37:08","The main experiment item","yes","FIN__BA__M21__7%3A10%3A17.osexp","C:\Users\ERP Testing Room\Desktop\Joanna\morph21","no","mono","no","18","no","white","no","yes","1080","legacy","51","51","C:/Users/ERP Testing Room/Desktop/Joanna/morph21/subject-165.csv","xpyriment","Kafkaesque Koffka","3.2.5","0","z","NA","NA","NA","NA","space","z","653","NA","NA","NA","NA","112497","653","2","legacy","1024","2","48000","-16","BA_m21","165","odd","FILL_NW","HEND","1941","303419","301744","298752","114449","NA","NA","NA","NA","303412","302241","NA","301244","NA","301241","303412","1951","303819","NA","NA","302419","1941","1941","302811","301241","1941","302419","303819","morph21_Oliver/Morris","38","28901","52","yes","1280","28"
"300","71.6981132075","71.6981132075","557.603773585","557.603773585","black","no","xpyriment","legacy","legacy","0","203","NA","uniform","68719","1000","0.0145520161818","0","undefined","0","0","52","52","52","0","52","52","52","NA","52","52","0","52","NA","52","52","0","52","NA","52","NA","52","0","0","52","52","0","52","52","53","z","03/05/19 12:37:08","The main experiment item","yes","FIN__BA__M21__7%3A10%3A17.osexp","C:\Users\ERP Testing Room\Desktop\Joanna\morph21","no","mono","no","18","no","white","no","yes","1080","legacy","52","52","C:/Users/ERP Testing Room/Desktop/Joanna/morph21/subject-165.csv","xpyriment","Kafkaesque Koffka","3.2.5","0","/","NA","NA","NA","NA","space","/","652","NA","NA","NA","NA","112497","652","2","legacy","1024","2","48000","-16","BA_m21","165","odd","NW_S_COMP","FIGEL","1941","306628","304978","298752","114449","NA","NA","NA","NA","303412","305476","NA","304478","NA","304471","306623","1951","306928","NA","NA","305628","1941","1941","306028","304471","1941","305628","306928","morph21_Oliver/Morris","38","29553","53","yes","1280","4"
"300","72.2222222222","72.2222222222","557.185185185","557.185185185","black","no","xpyriment","legacy","legacy","0","205","NA","uniform","65668","1000","0.0152281171956","1","undefined","1","0","53","53","53","0","53","53","53","NA","53","53","0","53","NA","53","53","0","53","NA","53","NA","53","0","0","53","53","0","53","53","54","z","03/05/19 12:37:08","The main experiment item","yes","FIN__BA__M21__7%3A10%3A17.osexp","C:\Users\ERP Testing Room\Desktop\Joanna\morph21","no","mono","no","18","no","white","no","yes","1080","legacy","53","53","C:/Users/ERP Testing Room/Desktop/Joanna/morph21/subject-165.csv","xpyriment","Kafkaesque Koffka","3.2.5","0","z","NA","NA","NA","NA","space","z","535","NA","NA","NA","NA","112497","535","2","legacy","1024","2","48000","-16","BA_m21","165","odd","NW_S_SIMP","FEVERIZE","1941","311254","308020","309745","114449","NA","NA","NA","NA","309738","308517","NA","307520","NA","307512","309738","1951","311554","NA","NA","308745","1941","1941","309137","307512","1941","308745","311554","morph21_Oliver/Morris","39","30088","54","yes","1280","24"
"400","72.7272727273","72.7272727273","562.581818182","562.581818182","black","no","xpyriment","legacy","legacy","0","204","NA","uniform","59106","1000","0.016918756133","1","undefined","1","0","54","54","54","0","54","54","54","NA","54","54","0","54","NA","54","54","0","54","NA","54","NA","54","0","0","54","54","0","54","54","55","z","03/05/19 12:37:08","The main experiment item","yes","FIN__BA__M21__7%3A10%3A17.osexp","C:\Users\ERP Testing Room\Desktop\Joanna\morph21","no","mono","no","18","no","white","no","yes","1080","legacy","54","54","C:/Users/ERP Testing Room/Desktop/Joanna/morph21/subject-165.csv","xpyriment","Kafkaesque Koffka","3.2.5","0","z","NA","NA","NA","NA","space","z","854","NA","NA","NA","NA","112497","854","2","legacy","1024","2","48000","-16","BA_m21","165","odd","NW_L_COMP","PASSMANT","1941","314354","312687","309745","114449","NA","NA","NA","NA","314347","313184","NA","312187","NA","312184","314347","1951","314754","NA","NA","313354","1941","1941","313745","312183","1941","313354","314754","morph21_Oliver/Morris","40","30942","55","yes","1280","14"
"350","73.2142857143","73.2142857143","560.892857143","560.892857143","black","no","xpyriment","legacy","legacy","0","201","NA","uniform","71754","1000","0.0139365052819","1","undefined","1","0","55","55","55","0","55","55","55","NA","55","55","0","55","NA","55","55","0","55","NA","55","NA","55","0","0","55","55","0","55","55","56","/","03/05/19 12:37:08","The main experiment item","yes","FIN__BA__M21__7%3A10%3A17.osexp","C:\Users\ERP Testing Room\Desktop\Joanna\morph21","no","mono","no","18","no","white","no","yes","1080","legacy","55","55","C:/Users/ERP Testing Room/Desktop/Joanna/morph21/subject-165.csv","xpyriment","Kafkaesque Koffka","3.2.5","0","/","NA","NA","NA","NA","space","/","468","NA","NA","NA","NA","112497","468","2","legacy","1024","2","48000","-16","BA_m21","165","odd","CW_S","BOSSY","1941","317596","315921","309745","114449","NA","NA","NA","NA","317591","316418","NA","315420","NA","315416","317591","1951","317946","NA","NA","316596","1941","1941","316995","315416","1941","316596","317946","morph21_Oliver/Morris","41","31410","56","yes","1280","49"
"200","73.6842105263","73.6842105263","562.315789474","562.315789474","black","no","xpyriment","legacy","legacy","0","201","NA","uniform","69601","1000","0.0143676096608","1","undefined","1","0","56","56","56","0","56","56","56","NA","56","56","0","56","NA","56","56","0","56","NA","56","NA","56","0","0","56","56","0","56","56","57","/","03/05/19 12:37:08","The main experiment item","yes","FIN__BA__M21__7%3A10%3A17.osexp","C:\Users\ERP Testing Room\Desktop\Joanna\morph21","no","mono","no","18","no","white","no","yes","1080","legacy","56","56","C:/Users/ERP Testing Room/Desktop/Joanna/morph21/subject-165.csv","xpyriment","Kafkaesque Koffka","3.2.5","0","/","NA","NA","NA","NA","space","/","642","NA","NA","NA","NA","112497","642","2","legacy","1024","2","48000","-16","BA_m21","165","odd","CW_S","AMUSEMENT","1941","322172","319012","320662","114449","NA","NA","NA","NA","320656","319509","NA","318512","NA","318504","320656","1951","322372","NA","NA","319662","1941","1941","320054","318504","1941","319662","322372","morph21_Oliver/Morris","42","32052","57","yes","1280","38"
"250","74.1379310345","74.1379310345","560.24137931","560.24137931","black","no","xpyriment","legacy","legacy","0","207","NA","uniform","73041","1000","0.0136909407045","1","undefined","1","0","57","57","57","0","57","57","57","NA","57","57","0","57","NA","57","57","0","57","NA","57","NA","57","0","0","57","57","0","57","57","58","/","03/05/19 12:37:08","The main experiment item","yes","FIN__BA__M21__7%3A10%3A17.osexp","C:\Users\ERP Testing Room\Desktop\Joanna\morph21","no","mono","no","18","no","white","no","yes","1080","legacy","57","57","C:/Users/ERP Testing Room/Desktop/Joanna/morph21/subject-165.csv","xpyriment","Kafkaesque Koffka","3.2.5","0","/","NA","NA","NA","NA","space","/","442","NA","NA","NA","NA","112497","442","2","legacy","1024","2","48000","-16","BA_m21","165","odd","FILL_W","TREAT","1941","325213","323547","320662","114449","NA","NA","NA","NA","325206","324044","NA","323047","NA","323037","325206","1951","325464","NA","NA","324214","1941","1941","324605","323037","1941","324213","325464","morph21_Oliver/Morris","43","32494","58","yes","1280","48"
"300","74.5762711864","74.5762711864","561.915254237","561.915254237","black","no","xpyriment","legacy","legacy","0","208","NA","uniform","66963","1000","0.0149336200588","1","undefined","1","0","58","58","58","0","58","58","58","NA","58","58","0","58","NA","58","58","0","58","NA","58","NA","58","0","0","58","58","0","58","58","59","z","03/05/19 12:37:08","The main experiment item","yes","FIN__BA__M21__7%3A10%3A17.osexp","C:\Users\ERP Testing Room\Desktop\Joanna\morph21","no","mono","no","18","no","white","no","yes","1080","legacy","58","58","C:/Users/ERP Testing Room/Desktop/Joanna/morph21/subject-165.csv","xpyriment","Kafkaesque Koffka","3.2.5","0","z","NA","NA","NA","NA","space","z","659","NA","NA","NA","NA","112497","659","2","legacy","1024","2","48000","-16","BA_m21","165","odd","FILL_NW","VOGS","1941","328189","326522","320662","114449","NA","NA","NA","NA","328186","327019","NA","326022","NA","326012","328186","1951","328489","NA","NA","327197","1941","1941","327589","326012","1941","327197","328489","morph21_Oliver/Morris","44","33153","59","yes","1280","47"
"250","75","75","562.5","562.5","black","no","xpyriment","legacy","legacy","0","202","NA","uniform","68542","1000","0.0145895947011","1","undefined","1","0","59","59","59","0","59","59","59","NA","59","59","0","59","NA","59","59","0","59","NA","59","NA","59","0","0","59","59","0","59","59","60","/","03/05/19 12:37:08","The main experiment item","yes","FIN__BA__M21__7%3A10%3A17.osexp","C:\Users\ERP Testing Room\Desktop\Joanna\morph21","no","mono","no","18","no","white","no","yes","1080","legacy","59","59","C:/Users/ERP Testing Room/Desktop/Joanna/morph21/subject-165.csv","xpyriment","Kafkaesque Koffka","3.2.5","0","/","NA","NA","NA","NA","space","/","597","NA","NA","NA","NA","112497","597","2","legacy","1024","2","48000","-16","BA_m21","165","odd","CW_L","DEAFNESS","1941","332847","329672","331339","114449","NA","NA","NA","NA","331331","330169","NA","329172","NA","329162","331331","1951","333097","NA","NA","330339","1941","1941","330730","329161","1941","330339","333097","morph21_Oliver/Morris","45","33750","60","yes","1280","39"
"350","75.4098360656","75.4098360656","561.295081967","561.295081967","black","no","xpyriment","legacy","legacy","0","207","NA","uniform","63631","1000","0.0157156103157","1","undefined","1","0","60","60","60","0","60","60","60","NA","60","60","0","60","NA","60","60","0","60","NA","60","NA","60","0","0","60","60","0","60","60","61","/","03/05/19 12:37:08","The main experiment item","yes","FIN__BA__M21__7%3A10%3A17.osexp","C:\Users\ERP Testing Room\Desktop\Joanna\morph21","no","mono","no","18","no","white","no","yes","1080","legacy","60","60","C:/Users/ERP Testing Room/Desktop/Joanna/morph21/subject-165.csv","xpyriment","Kafkaesque Koffka","3.2.5","0","/","NA","NA","NA","NA","space","/","489","NA","NA","NA","NA","112497","489","2","legacy","1024","2","48000","-16","BA_m21","165","odd","FILL_W","LEAK","1941","336031","334331","331339","114449","NA","NA","NA","NA","336023","334828","NA","333831","NA","333819","336023","1951","336381","NA","NA","335031","1941","1941","335422","333819","1941","335031","336381","morph21_Oliver/Morris","46","34239","61","yes","1280","9"
"350","75.8064516129","75.8064516129","560.258064516","560.258064516","black","no","xpyriment","legacy","legacy","0","201","NA","uniform","73255","1000","0.013650945328","1","undefined","1","0","61","61","61","0","61","61","61","NA","61","61","0","61","NA","61","61","0","61","NA","61","NA","61","0","0","61","61","0","61","61","62","/","03/05/19 12:37:08","The main experiment item","yes","FIN__BA__M21__7%3A10%3A17.osexp","C:\Users\ERP Testing Room\Desktop\Joanna\morph21","no","mono","no","18","no","white","no","yes","1080","legacy","61","61","C:/Users/ERP Testing Room/Desktop/Joanna/morph21/subject-165.csv","xpyriment","Kafkaesque Koffka","3.2.5","0","/","NA","NA","NA","NA","space","/","497","NA","NA","NA","NA","112497","497","2","legacy","1024","2","48000","-16","BA_m21","165","odd","CW_S","SINGER","1941","339232","337522","331339","114449","NA","NA","NA","NA","339225","338020","NA","337022","NA","337017","339225","1951","339582","NA","NA","338231","1941","1941","338622","337017","1941","338231","339582","morph21_Oliver/Morris","47","34736","62","yes","1280","17"
"350","74.6031746032","74.6031746032","562.666666667","562.666666667","black","no","xpyriment","legacy","legacy","0","203","NA","uniform","63842","1000","0.0156636696845","0","undefined","0","0","62","62","62","0","62","62","62","NA","62","62","0","62","NA","62","62","0","62","NA","62","NA","62","0","0","62","62","0","62","62","63","z","03/05/19 12:37:08","The main experiment item","yes","FIN__BA__M21__7%3A10%3A17.osexp","C:\Users\ERP Testing Room\Desktop\Joanna\morph21","no","mono","no","18","no","white","no","yes","1080","legacy","62","62","C:/Users/ERP Testing Room/Desktop/Joanna/morph21/subject-165.csv","xpyriment","Kafkaesque Koffka","3.2.5","0","/","NA","NA","NA","NA","space","/","712","NA","NA","NA","NA","112497","712","2","legacy","1024","2","48000","-16","BA_m21","165","odd","NW_S_COMP","HEIGHTENGE","1941","343932","340724","342424","114449","NA","NA","NA","NA","339225","341221","NA","340224","NA","340220","342415","1951","344282","NA","NA","341424","1941","1941","341815","340220","1941","341424","344282","morph21_Oliver/Morris","47","35448","63","yes","1280","18"
"400","75","75","562.296875","562.296875","black","no","xpyriment","legacy","legacy","0","201","NA","uniform","68170","1000","0.0146692093296","1","undefined","1","0","63","63","63","0","63","63","63","NA","63","63","0","63","NA","63","63","0","63","NA","63","NA","63","0","0","63","63","0","63","63","64","/","03/05/19 12:37:08","The main experiment item","yes","FIN__BA__M21__7%3A10%3A17.osexp","C:\Users\ERP Testing Room\Desktop\Joanna\morph21","no","mono","no","18","no","white","no","yes","1080","legacy","63","63","C:/Users/ERP Testing Room/Desktop/Joanna/morph21/subject-165.csv","xpyriment","Kafkaesque Koffka","3.2.5","0","/","NA","NA","NA","NA","space","/","539","NA","NA","NA","NA","112497","539","2","legacy","1024","2","48000","-16","BA_m21","165","odd","CW_S","WIDOWED","1941","347149","345424","342424","114449","NA","NA","NA","NA","347142","345921","NA","344924","NA","344916","347142","1951","347549","NA","NA","346149","1941","1941","346540","344916","1941","346149","347549","morph21_Oliver/Morris","48","35987","64","yes","1280","7"
"250","75.3846153846","75.3846153846","562.353846154","562.353846154","black","no","xpyriment","legacy","legacy","0","202","NA","uniform","72135","1000","0.013862895959","1","undefined","1","0","64","64","64","0","64","64","64","NA","64","64","0","64","NA","64","64","0","64","NA","64","NA","64","0","0","64","64","0","64","64","65","/","03/05/19 12:37:08","The main experiment item","yes","FIN__BA__M21__7%3A10%3A17.osexp","C:\Users\ERP Testing Room\Desktop\Joanna\morph21","no","mono","no","18","no","white","no","yes","1080","legacy","64","64","C:/Users/ERP Testing Room/Desktop/Joanna/morph21/subject-165.csv","xpyriment","Kafkaesque Koffka","3.2.5","0","/","NA","NA","NA","NA","space","/","566","NA","NA","NA","NA","112497","566","2","legacy","1024","2","48000","-16","BA_m21","165","odd","CW_L","EXCITEMENT","1941","350282","348632","342424","114449","NA","NA","NA","NA","350279","349129","NA","348132","NA","348128","350279","1951","350532","NA","NA","349282","1941","1941","349682","348128","1941","349282","350532","morph21_Oliver/Morris","49","36553","65","yes","1280","38"
"300","75.7575757576","75.7575757576","563.818181818","563.818181818","black","no","xpyriment","legacy","legacy","0","206","NA","uniform","70206","1000","0.0142437968265","1","undefined","1","0","65","65","65","0","65","65","65","NA","65","65","0","65","NA","65","65","0","65","NA","65","NA","65","0","0","65","65","0","65","65","66","z","03/05/19 12:37:08","The main experiment item","yes","FIN__BA__M21__7%3A10%3A17.osexp","C:\Users\ERP Testing Room\Desktop\Joanna\morph21","no","mono","no","18","no","white","no","yes","1080","legacy","65","65","C:/Users/ERP Testing Room/Desktop/Joanna/morph21/subject-165.csv","xpyriment","Kafkaesque Koffka","3.2.5","0","z","NA","NA","NA","NA","space","z","659","NA","NA","NA","NA","112497","659","2","legacy","1024","2","48000","-16","BA_m21","165","odd","NW_L_SIMP","PRAYANCE","1941","354866","351699","353357","114449","NA","NA","NA","NA","353349","352196","NA","351199","NA","351189","353349","1951","355166","NA","NA","352357","1941","1941","352749","351189","1941","352357","355166","morph21_Oliver/Morris","50","37212","66","yes","1280","1"
"200","76.1194029851","76.1194029851","563.402985075","563.402985075","black","no","xpyriment","legacy","legacy","0","207","NA","uniform","72978","1000","0.0137027597358","1","undefined","1","0","66","66","66","0","66","66","66","NA","66","66","0","66","NA","66","66","0","66","NA","66","NA","66","0","0","66","66","0","66","66","67","/","03/05/19 12:37:08","The main experiment item","yes","FIN__BA__M21__7%3A10%3A17.osexp","C:\Users\ERP Testing Room\Desktop\Joanna\morph21","no","mono","no","18","no","white","no","yes","1080","legacy","66","66","C:/Users/ERP Testing Room/Desktop/Joanna/morph21/subject-165.csv","xpyriment","Kafkaesque Koffka","3.2.5","0","/","NA","NA","NA","NA","space","/","536","NA","NA","NA","NA","112497","536","2","legacy","1024","2","48000","-16","BA_m21","165","odd","FILL_W","TEST","1941","357984","356324","353357","114449","NA","NA","NA","NA","357974","356821","NA","355824","NA","355817","357974","1951","358184","NA","NA","356984","1941","1941","357375","355817","1941","356983","358184","morph21_Oliver/Morris","51","37748","67","yes","1280","47"
"300","75","75","563.779411765","563.779411765","black","no","xpyriment","legacy","legacy","0","204","NA","uniform","70819","1000","0.0141205043844","0","undefined","0","0","67","67","67","0","67","67","67","NA","67","67","0","67","NA","67","67","0","67","NA","67","NA","67","0","0","67","67","0","67","67","68","z","03/05/19 12:37:08","The main experiment item","yes","FIN__BA__M21__7%3A10%3A17.osexp","C:\Users\ERP Testing Room\Desktop\Joanna\morph21","no","mono","no","18","no","white","no","yes","1080","legacy","67","67","C:/Users/ERP Testing Room/Desktop/Joanna/morph21/subject-165.csv","xpyriment","Kafkaesque Koffka","3.2.5","0","/","NA","NA","NA","NA","space","/","589","NA","NA","NA","NA","112497","589","2","legacy","1024","2","48000","-16","BA_m21","165","odd","NW_L_COMP","BINDIG","1941","361059","359392","353357","114449","NA","NA","NA","NA","357974","359889","NA","358892","NA","358888","361049","1951","361359","NA","NA","360059","1941","1941","360450","358888","1941","360059","361359","morph21_Oliver/Morris","51","38337","68","yes","1280","22"
"300","73.9130434783","73.9130434783","564.434782609","564.434782609","black","no","xpyriment","legacy","legacy","0","206","NA","uniform","68194","1000","0.0146640466903","0","undefined","0","0","68","68","68","0","68","68","68","NA","68","68","0","68","NA","68","68","0","68","NA","68","NA","68","0","0","68","68","0","68","68","69","z","03/05/19 12:37:08","The main experiment item","yes","FIN__BA__M21__7%3A10%3A17.osexp","C:\Users\ERP Testing Room\Desktop\Joanna\morph21","no","mono","no","18","no","white","no","yes","1080","legacy","68","68","C:/Users/ERP Testing Room/Desktop/Joanna/morph21/subject-165.csv","xpyriment","Kafkaesque Koffka","3.2.5","0","/","NA","NA","NA","NA","space","/","609","NA","NA","NA","NA","112497","609","2","legacy","1024","2","48000","-16","BA_m21","165","odd","NW_L_SIMP","LONGNESS","1941","365676","362467","364167","114449","NA","NA","NA","NA","357974","362964","NA","361967","NA","361959","364159","1951","365976","NA","NA","363167","1941","1941","363559","361959","1941","363167","365976","morph21_Oliver/Morris","51","38946","69","yes","1280","17"
"300","74.2857142857","74.2857142857","566.728571429","566.728571429","black","no","xpyriment","legacy","legacy","0","205","NA","uniform","66413","1000","0.0150572929999","1","undefined","1","0","69","69","69","0","69","69","69","NA","69","69","0","69","NA","69","69","0","69","NA","69","NA","69","0","0","69","69","0","69","69","70","z","03/05/19 12:37:08","The main experiment item","yes","FIN__BA__M21__7%3A10%3A17.osexp","C:\Users\ERP Testing Room\Desktop\Joanna\morph21","no","mono","no","18","no","white","no","yes","1080","legacy","69","69","C:/Users/ERP Testing Room/Desktop/Joanna/morph21/subject-165.csv","xpyriment","Kafkaesque Koffka","3.2.5","0","z","NA","NA","NA","NA","space","z","725","NA","NA","NA","NA","112497","725","2","legacy","1024","2","48000","-16","BA_m21","165","odd","NW_S_SIMP","NEXTNESS","1941","368867","367209","364167","114449","NA","NA","NA","NA","368862","367706","NA","366709","NA","366703","368862","1951","369167","NA","NA","367867","1941","1941","368267","366703","1941","367867","369167","morph21_Oliver/Morris","52","39671","70","yes","1280","9"
"400","74.6478873239","74.6478873239","565.915492958","565.915492958","black","no","xpyriment","legacy","legacy","0","207","NA","uniform","69404","1000","0.0144083914472","1","undefined","1","0","70","70","70","0","70","70","70","NA","70","70","0","70","NA","70","70","0","70","NA","70","NA","70","0","0","70","70","0","70","70","71","/","03/05/19 12:37:08","The main experiment item","yes","FIN__BA__M21__7%3A10%3A17.osexp","C:\Users\ERP Testing Room\Desktop\Joanna\morph21","no","mono","no","18","no","white","no","yes","1080","legacy","70","70","C:/Users/ERP Testing Room/Desktop/Joanna/morph21/subject-165.csv","xpyriment","Kafkaesque Koffka","3.2.5","0","/","NA","NA","NA","NA","space","/","509","NA","NA","NA","NA","112497","509","2","legacy","1024","2","48000","-16","BA_m21","165","odd","FILL_W","EAT","1941","372042","370376","364167","114449","NA","NA","NA","NA","372038","370873","NA","369876","NA","369868","372038","1951","372443","NA","NA","371043","1941","1941","371442","369868","1941","371042","372443","morph21_Oliver/Morris","53","40180","71","yes","1280","25"
"400","75","75","564.666666667","564.666666667","black","no","xpyriment","legacy","legacy","0","207","NA","uniform","71382","1000","0.0140091339553","1","undefined","1","0","71","71","71","0","71","71","71","NA","71","71","0","71","NA","71","71","0","71","NA","71","NA","71","0","0","71","71","0","71","71","72","/","03/05/19 12:37:08","The main experiment item","yes","FIN__BA__M21__7%3A10%3A17.osexp","C:\Users\ERP Testing Room\Desktop\Joanna\morph21","no","mono","no","18","no","white","no","yes","1080","legacy","71","71","C:/Users/ERP Testing Room/Desktop/Joanna/morph21/subject-165.csv","xpyriment","Kafkaesque Koffka","3.2.5","0","/","NA","NA","NA","NA","space","/","476","NA","NA","NA","NA","112497","476","2","legacy","1024","2","48000","-16","BA_m21","165","odd","FILL_W","CRUNCH","1941","376777","373559","375269","114449","NA","NA","NA","NA","375258","374056","NA","373059","NA","373052","375258","1951","377177","NA","NA","374269","1941","1941","374660","373052","1941","374269","377177","morph21_Oliver/Morris","54","40656","72","yes","1280","20"
"300","75.3424657534","75.3424657534","570.520547945","570.520547945","black","no","xpyriment","legacy","legacy","0","207","NA","uniform","52183","1000","0.0191633290535","1","undefined","1","0","72","72","72","0","72","72","72","NA","72","72","0","72","NA","72","72","0","72","NA","72","NA","72","0","0","72","72","0","72","72","73","/","03/05/19 12:37:08","The main experiment item","yes","FIN__BA__M21__7%3A10%3A17.osexp","C:\Users\ERP Testing Room\Desktop\Joanna\morph21","no","mono","no","18","no","white","no","yes","1080","legacy","72","72","C:/Users/ERP Testing Room/Desktop/Joanna/morph21/subject-165.csv","xpyriment","Kafkaesque Koffka","3.2.5","0","/","NA","NA","NA","NA","space","/","992","NA","NA","NA","NA","112497","992","2","legacy","1024","2","48000","-16","BA_m21","165","odd","FILL_W","BALD","1941","379960","378294","375269","114449","NA","NA","NA","NA","379955","378791","NA","377794","NA","377787","379955","1951","380261","NA","NA","378960","1941","1941","379352","377787","1941","378960","380261","morph21_Oliver/Morris","55","41648","73","yes","1280","3"
"250","75.6756756757","75.6756756757","571.918918919","571.918918919","black","no","xpyriment","legacy","legacy","0","204","NA","uniform","63029","1000","0.0158657126085","1","undefined","1","0","73","73","73","0","73","73","73","NA","73","73","0","73","NA","73","73","0","73","NA","73","NA","73","0","0","73","73","0","73","73","74","z","03/05/19 12:37:08","The main experiment item","yes","FIN__BA__M21__7%3A10%3A17.osexp","C:\Users\ERP Testing Room\Desktop\Joanna\morph21","no","mono","no","18","no","white","no","yes","1080","legacy","73","73","C:/Users/ERP Testing Room/Desktop/Joanna/morph21/subject-165.csv","xpyriment","Kafkaesque Koffka","3.2.5","0","z","NA","NA","NA","NA","space","z","674","NA","NA","NA","NA","112497","674","2","legacy","1024","2","48000","-16","BA_m21","165","odd","NW_L_COMP","BREAKIDY","1941","383086","381427","375269","114449","NA","NA","NA","NA","383082","381924","NA","380927","NA","380916","383082","1951","383336","NA","NA","382086","1941","1941","382486","380916","1941","382086","383336","morph21_Oliver/Morris","56","42322","74","yes","1280","23"
"350","76","76","573.826666667","573.826666667","black","no","xpyriment","legacy","legacy","0","203","NA","uniform","66066","1000","0.0151363787727","undefined","undefined","1","0","74","74","74","0","74","74","74","NA","74","74","0","74","NA","74","74","0","74","NA","74","NA","74","0","0","74","74","0","74","74","75","z","03/05/19 12:37:08","The main experiment item","yes","FIN__BA__M21__7%3A10%3A17.osexp","C:\Users\ERP Testing Room\Desktop\Joanna\morph21","no","mono","no","18","no","white","no","yes","1080","legacy","74","74","C:/Users/ERP Testing Room/Desktop/Joanna/morph21/subject-165.csv","xpyriment","Kafkaesque Koffka","3.2.5","0","space","space","NA","NA","NA","space","z","3945","3945","NA","NA","NA","112497","715","2","legacy","1024","2","48000","-16","BA_m21","165","odd","NW_S_COMP","EJECTENGE","1941","387778","384561","386269","114449","388136","NA","NA","NA","386266","385058","NA","384061","NA","384054","386266","1951","392081","NA","NA","385277","1941","1941","385669","384054","1941","385277","388128","morph21_Oliver/Morris","57","43037","75","yes","1280","20"
"300","76.3157894737","76.3157894737","573.236842105","573.236842105","black","no","xpyriment","legacy","legacy","0","202","NA","uniform","71974","1000","0.0138939061328","1","undefined","1","0","75","75","75","0","75","75","75","NA","75","75","0","75","NA","75","75","0","75","NA","75","NA","75","0","0","75","75","0","75","75","76","/","03/05/19 12:37:08","The main experiment item","yes","FIN__BA__M21__7%3A10%3A17.osexp","C:\Users\ERP Testing Room\Desktop\Joanna\morph21","no","mono","no","18","no","white","no","yes","1080","legacy","75","75","C:/Users/ERP Testing Room/Desktop/Joanna/morph21/subject-165.csv","xpyriment","Kafkaesque Koffka","3.2.5","0","/","space","NA","NA","NA","space","/","529","3945","NA","NA","NA","112497","529","2","legacy","1024","2","48000","-16","BA_m21","165","odd","CW_L","HEATER","1941","394879","393195","386269","114449","388136","NA","NA","NA","394873","393693","NA","392695","NA","392686","394873","1951","395179","NA","NA","393879","1941","1941","394270","392686","1941","393879","395179","morph21_Oliver/Morris","58","43566","76","yes","1280","16"
"200","76.6233766234","76.6233766234","571.714285714","571.714285714","black","no","xpyriment","legacy","legacy","0","207","NA","uniform","76108","1000","0.0131392232091","1","undefined","1","0","76","76","76","0","76","76","76","NA","76","76","0","76","NA","76","76","0","76","NA","76","NA","76","0","0","76","76","0","76","76","77","/","03/05/19 12:37:08","The main experiment item","yes","FIN__BA__M21__7%3A10%3A17.osexp","C:\Users\ERP Testing Room\Desktop\Joanna\morph21","no","mono","no","18","no","white","no","yes","1080","legacy","76","76","C:/Users/ERP Testing Room/Desktop/Joanna/morph21/subject-165.csv","xpyriment","Kafkaesque Koffka","3.2.5","0","/","space","NA","NA","NA","space","/","456","3945","NA","NA","NA","112497","456","2","legacy","1024","2","48000","-16","BA_m21","165","odd","FILL_W","LEGAL","1941","398112","396446","386269","114449","388136","NA","NA","NA","398108","396943","NA","395946","NA","395934","398108","1951","398312","NA","NA","397112","1941","1941","397512","395934","1941","397112","398312","morph21_Oliver/Morris","59","44022","77","yes","1280","35"
"300","76.9230769231","76.9230769231","570.564102564","570.564102564","black","no","xpyriment","legacy","legacy","0","202","NA","uniform","69333","1000","0.0144231462651","1","undefined","1","0","77","77","77","0","77","77","77","NA","77","77","0","77","NA","77","77","0","77","NA","77","NA","77","0","0","77","77","0","77","77","78","/","03/05/19 12:37:08","The main experiment item","yes","FIN__BA__M21__7%3A10%3A17.osexp","C:\Users\ERP Testing Room\Desktop\Joanna\morph21","no","mono","no","18","no","white","no","yes","1080","legacy","77","77","C:/Users/ERP Testing Room/Desktop/Joanna/morph21/subject-165.csv","xpyriment","Kafkaesque Koffka","3.2.5","0","/","space","NA","NA","NA","space","/","482","3945","NA","NA","NA","112497","482","2","legacy","1024","2","48000","-16","BA_m21","165","odd","CW_L","PROFESSOR","1941","402571","399412","401062","114449","388136","NA","NA","NA","401058","399910","NA","398912","NA","398908","401058","1951","402871","NA","NA","400062","1941","1941","400462","398908","1941","400062","402871","morph21_Oliver/Morris","60","44504","78","yes","1280","47"
"200","77.2151898734","77.2151898734","570.240506329","570.240506329","black","no","xpyriment","legacy","legacy","0","201","NA","uniform","66655","1000","0.0150026254595","1","undefined","1","0","78","78","78","0","78","78","78","NA","78","78","0","78","NA","78","78","0","78","NA","78","NA","78","0","0","78","78","0","78","78","79","/","03/05/19 12:37:08","The main experiment item","yes","FIN__BA__M21__7%3A10%3A17.osexp","C:\Users\ERP Testing Room\Desktop\Joanna\morph21","no","mono","no","18","no","white","no","yes","1080","legacy","78","78","C:/Users/ERP Testing Room/Desktop/Joanna/morph21/subject-165.csv","xpyriment","Kafkaesque Koffka","3.2.5","0","/","space","NA","NA","NA","space","/","545","3945","NA","NA","NA","112497","545","2","legacy","1024","2","48000","-16","BA_m21","165","odd","CW_S","ENJOYMENT","1941","405654","404004","401062","114449","388136","NA","NA","NA","405651","404501","NA","403504","NA","403493","405651","1951","405854","NA","NA","404663","1941","1941","405054","403493","1941","404663","405854","morph21_Oliver/Morris","61","45049","79","yes","1280","40"
"300","77.5","77.5","568.4","568.4","black","no","xpyriment","legacy","legacy","0","201","NA","uniform","75309","1000","0.0132786253967","1","undefined","1","0","79","79","79","0","79","79","79","NA","79","79","0","79","NA","79","79","0","79","NA","79","NA","79","0","0","79","79","0","79","79","80","/","03/05/19 12:37:08","The main experiment item","yes","FIN__BA__M21__7%3A10%3A17.osexp","C:\Users\ERP Testing Room\Desktop\Joanna\morph21","no","mono","no","18","no","white","no","yes","1080","legacy","79","79","C:/Users/ERP Testing Room/Desktop/Joanna/morph21/subject-165.csv","xpyriment","Kafkaesque Koffka","3.2.5","0","/","space","NA","NA","NA","space","/","423","3945","NA","NA","NA","112497","423","2","legacy","1024","2","48000","-16","BA_m21","165","odd","CW_S","MAGICAL","1941","408721","407046","401062","114449","388136","NA","NA","NA","408715","407543","NA","406546","NA","406539","408715","1951","409021","NA","NA","407721","1941","1941","408113","406539","1941","407721","409021","morph21_Oliver/Morris","62","45472","80","yes","1280","4"
"200","77.7777777778","77.7777777778","569.950617284","569.950617284","black","no","xpyriment","legacy","legacy","0","201","NA","uniform","65825","1000","0.0151917964299","1","undefined","1","0","80","80","80","0","80","80","80","NA","80","80","0","80","NA","80","80","0","80","NA","80","NA","80","0","0","80","80","0","80","80","81","/","03/05/19 12:37:08","The main experiment item","yes","FIN__BA__M21__7%3A10%3A17.osexp","C:\Users\ERP Testing Room\Desktop\Joanna\morph21","no","mono","no","18","no","white","no","yes","1080","legacy","80","80","C:/Users/ERP Testing Room/Desktop/Joanna/morph21/subject-165.csv","xpyriment","Kafkaesque Koffka","3.2.5","0","/","space","NA","NA","NA","space","/","694","3945","NA","NA","NA","112497","694","2","legacy","1024","2","48000","-16","BA_m21","165","odd","CW_S","CAMPAIGNER","1941","413431","410230","411922","114449","388136","NA","NA","NA","411915","410728","NA","409731","NA","409720","411915","1951","413631","NA","NA","410922","1941","1941","411314","409719","1941","410922","413631","morph21_Oliver/Morris","63","46166","81","yes","1280","15"
"200","76.8292682927","76.8292682927","570.134146341","570.134146341","black","no","xpyriment","legacy","legacy","0","201","NA","uniform","68843","1000","0.0145258050927","0","undefined","0","0","81","81","81","0","81","81","81","NA","81","81","0","81","NA","81","81","0","81","NA","81","NA","81","0","0","81","81","0","81","81","82","/","03/05/19 12:37:08","The main experiment item","yes","FIN__BA__M21__7%3A10%3A17.osexp","C:\Users\ERP Testing Room\Desktop\Joanna\morph21","no","mono","no","18","no","white","no","yes","1080","legacy","81","81","C:/Users/ERP Testing Room/Desktop/Joanna/morph21/subject-165.csv","xpyriment","Kafkaesque Koffka","3.2.5","0","z","space","NA","NA","NA","space","z","585","3945","NA","NA","NA","112497","585","2","legacy","1024","2","48000","-16","BA_m21","165","odd","CW_S","THRUSTER","1941","416439","414722","411922","114449","388136","NA","NA","NA","411915","415219","NA","414222","NA","414217","416436","1951","416639","NA","NA","415439","1941","1941","415839","414217","1941","415439","416639","morph21_Oliver/Morris","63","46751","82","yes","1280","24"
"350","75.9036144578","75.9036144578","570.56626506","570.56626506","black","no","xpyriment","legacy","legacy","0","206","NA","uniform","68632","1000","0.0145704627579","0","undefined","0","0","82","82","82","0","82","82","82","NA","82","82","0","82","NA","82","82","0","82","NA","82","NA","82","0","0","82","82","0","82","82","83","z","03/05/19 12:37:08","The main experiment item","yes","FIN__BA__M21__7%3A10%3A17.osexp","C:\Users\ERP Testing Room\Desktop\Joanna\morph21","no","mono","no","18","no","white","no","yes","1080","legacy","82","82","C:/Users/ERP Testing Room/Desktop/Joanna/morph21/subject-165.csv","xpyriment","Kafkaesque Koffka","3.2.5","0","/","space","NA","NA","NA","space","/","606","3945","NA","NA","NA","112497","606","2","legacy","1024","2","48000","-16","BA_m21","165","odd","NW_L_SIMP","CRITICANCE","1941","419522","417831","411922","114449","388136","NA","NA","NA","411915","418328","NA","417331","NA","417320","419517","1951","419873","NA","NA","418522","1941","1941","418914","417320","1941","418522","419873","morph21_Oliver/Morris","63","47357","83","yes","1280","22"
"200","76.1904761905","76.1904761905","570.880952381","570.880952381","black","no","xpyriment","legacy","legacy","0","207","NA","uniform","62181","1000","0.0160820829514","1","undefined","1","0","83","83","83","0","83","83","83","NA","83","83","0","83","NA","83","83","0","83","NA","83","NA","83","0","0","83","83","0","83","83","84","/","03/05/19 12:37:08","The main experiment item","yes","FIN__BA__M21__7%3A10%3A17.osexp","C:\Users\ERP Testing Room\Desktop\Joanna\morph21","no","mono","no","18","no","white","no","yes","1080","legacy","83","83","C:/Users/ERP Testing Room/Desktop/Joanna/morph21/subject-165.csv","xpyriment","Kafkaesque Koffka","3.2.5","0","/","space","NA","NA","NA","space","/","597","3945","NA","NA","NA","112497","597","2","legacy","1024","2","48000","-16","BA_m21","165","odd","FILL_W","STALK","1941","424239","421014","422731","114449","388136","NA","NA","NA","422726","421511","NA","420514","NA","420510","422726","1951","424440","NA","NA","421731","1941","1941","422131","420510","1941","421731","424440","morph21_Oliver/Morris","64","47954","84","yes","1280","27"
"200","76.4705882353","76.4705882353","571.388235294","571.388235294","black","no","xpyriment","legacy","legacy","0","208","NA","uniform","63161","1000","0.0158325548994","1","undefined","1","0","84","84","84","0","84","84","84","NA","84","84","0","84","NA","84","84","0","84","NA","84","NA","84","0","0","84","84","0","84","84","85","z","03/05/19 12:37:08","The main experiment item","yes","FIN__BA__M21__7%3A10%3A17.osexp","C:\Users\ERP Testing Room\Desktop\Joanna\morph21","no","mono","no","18","no","white","no","yes","1080","legacy","84","84","C:/Users/ERP Testing Room/Desktop/Joanna/morph21/subject-165.csv","xpyriment","Kafkaesque Koffka","3.2.5","0","z","space","NA","NA","NA","space","z","614","3945","NA","NA","NA","112497","614","2","legacy","1024","2","48000","-16","BA_m21","165","odd","FILL_NW","HOITS","1941","427299","425556","422731","114449","388136","NA","NA","NA","427292","426053","NA","425056","NA","425051","427292","1951","427499","NA","NA","426298","1941","1941","426691","425051","1941","426298","427499","morph21_Oliver/Morris","65","48568","85","yes","1280","30"
"350","76.7441860465","76.7441860465","573.139534884","573.139534884","black","no","xpyriment","legacy","legacy","0","205","NA","uniform","66008","1000","0.0151496788268","1","undefined","1","0","85","85","85","0","85","85","85","NA","85","85","0","85","NA","85","85","0","85","NA","85","NA","85","0","0","85","85","0","85","85","86","z","03/05/19 12:37:08","The main experiment item","yes","FIN__BA__M21__7%3A10%3A17.osexp","C:\Users\ERP Testing Room\Desktop\Joanna\morph21","no","mono","no","18","no","white","no","yes","1080","legacy","85","85","C:/Users/ERP Testing Room/Desktop/Joanna/morph21/subject-165.csv","xpyriment","Kafkaesque Koffka","3.2.5","0","z","space","NA","NA","NA","space","z","722","3945","NA","NA","NA","112497","722","2","legacy","1024","2","48000","-16","BA_m21","165","odd","NW_S_SIMP","BASKORY","1941","430382","428682","422731","114449","388136","NA","NA","NA","430374","429179","NA","428182","NA","428171","430374","1951","430732","NA","NA","429382","1941","1941","429774","428171","1941","429382","430732","morph21_Oliver/Morris","66","49290","86","yes","1280","10"
"200","77.0114942529","77.0114942529","576.609195402","576.609195402","black","no","xpyriment","legacy","legacy","0","203","NA","uniform","53975","1000","0.0185270958777","1","undefined","1","0","86","86","86","0","86","86","86","NA","86","86","0","86","NA","86","86","0","86","NA","86","NA","86","0","0","86","86","0","86","86","87","z","03/05/19 12:37:08","The main experiment item","yes","FIN__BA__M21__7%3A10%3A17.osexp","C:\Users\ERP Testing Room\Desktop\Joanna\morph21","no","mono","no","18","no","white","no","yes","1080","legacy","86","86","C:/Users/ERP Testing Room/Desktop/Joanna/morph21/subject-165.csv","xpyriment","Kafkaesque Koffka","3.2.5","0","z","space","NA","NA","NA","space","z","875","3945","NA","NA","NA","112497","875","2","legacy","1024","2","48000","-16","BA_m21","165","odd","NW_S_COMP","MELTANGE","1941","435049","431849","433541","114449","388136","NA","NA","NA","433535","432346","NA","431349","NA","431342","433535","1951","435249","NA","NA","432541","1941","1941","432933","431342","1941","432541","435249","morph21_Oliver/Morris","67","50165","87","yes","1280","1"
"200","76.1363636364","76.1363636364","577.556818182","577.556818182","black","no","xpyriment","legacy","legacy","0","205","NA","uniform","65005","1000","0.0153834320437","0","undefined","0","0","87","87","87","0","87","87","87","NA","87","87","0","87","NA","87","87","0","87","NA","87","NA","87","0","0","87","87","0","87","87","88","z","03/05/19 12:37:08","The main experiment item","yes","FIN__BA__M21__7%3A10%3A17.osexp","C:\Users\ERP Testing Room\Desktop\Joanna\morph21","no","mono","no","18","no","white","no","yes","1080","legacy","87","87","C:/Users/ERP Testing Room/Desktop/Joanna/morph21/subject-165.csv","xpyriment","Kafkaesque Koffka","3.2.5","0","/","space","NA","NA","NA","space","/","660","3945","NA","NA","NA","112497","660","2","legacy","1024","2","48000","-16","BA_m21","165","odd","NW_S_SIMP","JAWLY","1941","438116","436416","433541","114449","388136","NA","NA","NA","433535","436913","NA","435916","NA","435907","438109","1951","438316","NA","NA","437116","1941","1941","437508","435907","1941","437116","438316","morph21_Oliver/Morris","67","50825","88","yes","1280","7"
"350","75.2808988764","75.2808988764","580.112359551","580.112359551","black","no","xpyriment","legacy","legacy","0","206","NA","uniform","61465","1000","0.0162694216221","0","undefined","0","0","88","88","88","0","88","88","88","NA","88","88","0","88","NA","88","88","0","88","NA","88","NA","88","0","0","88","88","0","88","88","89","z","03/05/19 12:37:08","The main experiment item","yes","FIN__BA__M21__7%3A10%3A17.osexp","C:\Users\ERP Testing Room\Desktop\Joanna\morph21","no","mono","no","18","no","white","no","yes","1080","legacy","88","88","C:/Users/ERP Testing Room/Desktop/Joanna/morph21/subject-165.csv","xpyriment","Kafkaesque Koffka","3.2.5","0","/","space","NA","NA","NA","space","/","805","3945","NA","NA","NA","112497","805","2","legacy","1024","2","48000","-16","BA_m21","165","odd","NW_L_SIMP","HABITIC","1941","441283","439608","433541","114449","388136","NA","NA","NA","433535","440105","NA","439099","NA","439090","441277","1951","441633","NA","NA","440283","1941","1941","440674","439090","1941","440283","441633","morph21_Oliver/Morris","67","51630","89","yes","1280","7"
"300","75.5555555556","75.5555555556","580.4","580.4","black","no","xpyriment","legacy","legacy","0","202","NA","uniform","71416","1000","0.0140024644337","1","undefined","1","0","89","89","89","0","89","89","89","NA","89","89","0","89","NA","89","89","0","89","NA","89","NA","89","0","0","89","89","0","89","89","90","/","03/05/19 12:37:08","The main experiment item","yes","FIN__BA__M21__7%3A10%3A17.osexp","C:\Users\ERP Testing Room\Desktop\Joanna\morph21","no","mono","no","18","no","white","no","yes","1080","legacy","89","89","C:/Users/ERP Testing Room/Desktop/Joanna/morph21/subject-165.csv","xpyriment","Kafkaesque Koffka","3.2.5","0","/","space","NA","NA","NA","space","/","606","3945","NA","NA","NA","112497","606","2","legacy","1024","2","48000","-16","BA_m21","165","odd","CW_L","COMPOSER","1941","445992","442833","444484","114449","388136","NA","NA","NA","444479","443330","NA","442333","NA","442326","444479","1951","446293","NA","NA","443483","1941","1941","443883","442325","1941","443483","446293","morph21_Oliver/Morris","68","52236","90","yes","1280","6"
