"ITI","acc","accuracy","average_response_time","avg_rt","background","bidi","canvas_backend","clock_backend","color_backend","compensation","cond_trig","condtrigtime","coordinates","coroutines_cycles","coroutines_duration","coroutines_mean_cycle_duration","correct","correct_instructions_1","correct_new_keyboard_response_1","count_BA_m21","count_ITI","count_blank_screen","count_blink_screen","count_block1","count_break1","count_break2","count_break3_1","count_canvas","count_correct_trigger","count_def_chain","count_end_screen","count_fixation_1","count_getting_started","count_inc_counter","count_incorrect_trigger","count_instructions_1","count_logger","count_logscript","count_new_coroutines","count_new_inline_script","count_new_keyboard_response_1","count_reset_counter_prep","count_reset_counter_run","count_responsescreen","count_sequence","count_start_trigger","count_target_present","count_word_trigger","counter","cresp","datetime","description","disable_garbage_collection","experiment_file","experiment_path","font_bold","font_family","font_italic","font_size","font_underline","foreground","form_clicks","fullscreen","height","keyboard_backend","live_row","live_row_block1","logfile","mouse_backend","opensesame_codename","opensesame_version","repeat_cycle","response","response_break1","response_break2","response_break3_1","response_end_screen","response_instructions_1","response_new_keyboard_response_1","response_time","response_time_break1","response_time_break2","response_time_break3_1","response_time_end_screen","response_time_instructions_1","response_time_new_keyboard_response_1","round_decimals","sampler_backend","sound_buf_size","sound_channels","sound_freq","sound_sample_size","start","subject_nr","subject_parity","targ_type","target","time_BA_m21","time_ITI","time_blank_screen","time_blink_screen","time_block1","time_break1","time_break2","time_break3_1","time_canvas","time_correct_trigger","time_def_chain","time_end_screen","time_fixation_1","time_getting_started","time_inc_counter","time_incorrect_trigger","time_instructions_1","time_logger","time_logscript","time_new_inline_script","time_new_keyboard_response_1","time_reset_counter_prep","time_reset_counter_run","time_responsescreen","time_sequence","time_start_trigger","time_target_present","time_word_trigger","title","total_correct","total_response_time","total_responses","uniform_coordinates","width","word_trig"
"300","100","100","916","916","black","no","xpyriment","legacy","legacy","0","201","NA","uniform","48218","1000","0.0207391430586","1","undefined","1","0","0","0","0","0","0","0","0","NA","0","0","0","0","NA","0","0","0","0","NA","0","NA","0","0","0","0","0","0","0","0","1","/","02/04/19 15:24:22","The main experiment item","yes","FIN__BA__M21__7%3A10%3A17.osexp","C:\Users\ERP Testing Room\Desktop\Joanna\morph21","no","mono","no","18","no","white","no","yes","1080","legacy","0","0","C:/Users/ERP Testing Room/Desktop/Joanna/morph21/subject-157.csv","xpyriment","Kafkaesque Koffka","3.2.5","0","/","NA","NA","NA","NA","space","/","916","NA","NA","NA","NA","76976","916","2","legacy","1024","2","48000","-16","BA_m21","157","odd","CW_S","BUYER","1952","81779","80095","NA","78943","NA","NA","NA","NA","81769","80592","NA","79590","NA","79512","81769","1967","82079","NA","NA","80779","1952","1952","81170","79512","1952","80779","82079","morph21_Oliver/Morris","1","916","1","yes","1280","21"
"200","100","100","839","839","black","no","xpyriment","legacy","legacy","0","208","NA","uniform","55908","1000","0.0178865278672","1","undefined","1","0","1","1","1","0","1","1","1","NA","1","1","0","1","NA","1","1","0","1","NA","1","NA","1","0","0","1","1","0","1","1","2","z","02/04/19 15:24:22","The main experiment item","yes","FIN__BA__M21__7%3A10%3A17.osexp","C:\Users\ERP Testing Room\Desktop\Joanna\morph21","no","mono","no","18","no","white","no","yes","1080","legacy","1","1","C:/Users/ERP Testing Room/Desktop/Joanna/morph21/subject-157.csv","xpyriment","Kafkaesque Koffka","3.2.5","0","z","NA","NA","NA","NA","space","z","762","NA","NA","NA","NA","76976","762","2","legacy","1024","2","48000","-16","BA_m21","157","odd","FILL_NW","PUCTS","1952","84845","83170","NA","78943","NA","NA","NA","NA","84838","83668","NA","82670","NA","82659","84838","1967","85045","NA","NA","83845","1952","1952","84237","82659","1952","83845","85045","morph21_Oliver/Morris","2","1678","2","yes","1280","40"
"350","66.6666666667","66.6666666667","707.333333333","707.333333333","black","no","xpyriment","legacy","legacy","0","204","NA","uniform","68238","1000","0.0146545912834","0","undefined","0","0","2","2","2","0","2","2","2","NA","2","2","0","2","NA","2","2","0","2","NA","2","NA","2","0","0","2","2","0","2","2","3","z","02/04/19 15:24:22","The main experiment item","yes","FIN__BA__M21__7%3A10%3A17.osexp","C:\Users\ERP Testing Room\Desktop\Joanna\morph21","no","mono","no","18","no","white","no","yes","1080","legacy","2","2","C:/Users/ERP Testing Room/Desktop/Joanna/morph21/subject-157.csv","xpyriment","Kafkaesque Koffka","3.2.5","0","/","NA","NA","NA","NA","space","/","444","NA","NA","NA","NA","76976","444","2","legacy","1024","2","48000","-16","BA_m21","157","odd","NW_L_COMP","INKILM","1952","89471","86295","87962","78943","NA","NA","NA","NA","84838","86793","NA","85796","NA","85787","87957","1967","89821","NA","NA","86962","1952","1952","87362","85787","1952","86962","89821","morph21_Oliver/Morris","2","2122","3","yes","1280","8"
"300","50","50","647.75","647.75","black","no","xpyriment","legacy","legacy","0","205","NA","uniform","65517","1000","0.0152632141276","0","undefined","0","0","3","3","3","0","3","3","3","NA","3","3","0","3","NA","3","3","0","3","NA","3","NA","3","0","0","3","3","0","3","3","4","z","02/04/19 15:24:22","The main experiment item","yes","FIN__BA__M21__7%3A10%3A17.osexp","C:\Users\ERP Testing Room\Desktop\Joanna\morph21","no","mono","no","18","no","white","no","yes","1080","legacy","3","3","C:/Users/ERP Testing Room/Desktop/Joanna/morph21/subject-157.csv","xpyriment","Kafkaesque Koffka","3.2.5","0","/","NA","NA","NA","NA","space","/","469","NA","NA","NA","NA","76976","469","2","legacy","1024","2","48000","-16","BA_m21","157","odd","NW_S_SIMP","BOLTOUS","1952","92721","90987","87962","78943","NA","NA","NA","NA","84838","91484","NA","90487","NA","90481","92718","1967","93021","NA","NA","91729","1952","1952","92121","90481","1952","91729","93021","morph21_Oliver/Morris","2","2591","4","yes","1280","13"
"350","60","60","613.8","613.8","black","no","xpyriment","legacy","legacy","0","207","NA","uniform","67711","1000","0.0147686491117","1","undefined","1","0","4","4","4","0","4","4","4","NA","4","4","0","4","NA","4","4","0","4","NA","4","NA","4","0","0","4","4","0","4","4","5","/","02/04/19 15:24:22","The main experiment item","yes","FIN__BA__M21__7%3A10%3A17.osexp","C:\Users\ERP Testing Room\Desktop\Joanna\morph21","no","mono","no","18","no","white","no","yes","1080","legacy","4","4","C:/Users/ERP Testing Room/Desktop/Joanna/morph21/subject-157.csv","xpyriment","Kafkaesque Koffka","3.2.5","0","/","NA","NA","NA","NA","space","/","478","NA","NA","NA","NA","76976","478","2","legacy","1024","2","48000","-16","BA_m21","157","odd","FILL_W","LEAK","1952","95897","94221","87962","78943","NA","NA","NA","NA","95893","94718","NA","93721","NA","93710","95893","1967","96247","NA","NA","94897","1952","1952","95297","93710","1952","94897","96247","morph21_Oliver/Morris","3","3069","5","yes","1280","9"
"300","50","50","598","598","black","no","xpyriment","legacy","legacy","0","203","NA","uniform","60761","1000","0.0164579253139","0","undefined","0","0","5","5","5","0","5","5","5","NA","5","5","0","5","NA","5","5","0","5","NA","5","NA","5","0","0","5","5","0","5","5","6","z","02/04/19 15:24:22","The main experiment item","yes","FIN__BA__M21__7%3A10%3A17.osexp","C:\Users\ERP Testing Room\Desktop\Joanna\morph21","no","mono","no","18","no","white","no","yes","1080","legacy","5","5","C:/Users/ERP Testing Room/Desktop/Joanna/morph21/subject-157.csv","xpyriment","Kafkaesque Koffka","3.2.5","0","/","NA","NA","NA","NA","space","/","519","NA","NA","NA","NA","76976","519","2","legacy","1024","2","48000","-16","BA_m21","157","odd","NW_S_COMP","CURTIDY","1952","100580","97355","99072","78943","NA","NA","NA","NA","95893","97852","NA","96855","NA","96847","99064","1967","100881","NA","NA","98072","1952","1952","98464","96847","1952","98072","100881","morph21_Oliver/Morris","3","3588","6","yes","1280","11"
"300","57.1428571429","57.1428571429","589.857142857","589.857142857","black","no","xpyriment","legacy","legacy","0","205","NA","uniform","66223","1000","0.0151004937861","1","undefined","1","0","6","6","6","0","6","6","6","NA","6","6","0","6","NA","6","6","0","6","NA","6","NA","6","0","0","6","6","0","6","6","7","z","02/04/19 15:24:22","The main experiment item","yes","FIN__BA__M21__7%3A10%3A17.osexp","C:\Users\ERP Testing Room\Desktop\Joanna\morph21","no","mono","no","18","no","white","no","yes","1080","legacy","6","6","C:/Users/ERP Testing Room/Desktop/Joanna/morph21/subject-157.csv","xpyriment","Kafkaesque Koffka","3.2.5","0","z","NA","NA","NA","NA","space","z","541","NA","NA","NA","NA","76976","541","2","legacy","1024","2","48000","-16","BA_m21","157","odd","NW_S_SIMP","SOCKETER","1952","103722","102072","99072","78943","NA","NA","NA","NA","103713","102569","NA","101572","NA","101565","103713","1967","104022","NA","NA","102722","1952","1952","103114","101565","1952","102722","104022","morph21_Oliver/Morris","4","4129","7","yes","1280","1"
"300","62.5","62.5","569.875","569.875","black","no","xpyriment","legacy","legacy","0","205","NA","uniform","66851","1000","0.0149586393622","1","undefined","1","0","7","7","7","0","7","7","7","NA","7","7","0","7","NA","7","7","0","7","NA","7","NA","7","0","0","7","7","0","7","7","8","z","02/04/19 15:24:22","The main experiment item","yes","FIN__BA__M21__7%3A10%3A17.osexp","C:\Users\ERP Testing Room\Desktop\Joanna\morph21","no","mono","no","18","no","white","no","yes","1080","legacy","7","7","C:/Users/ERP Testing Room/Desktop/Joanna/morph21/subject-157.csv","xpyriment","Kafkaesque Koffka","3.2.5","0","z","NA","NA","NA","NA","space","z","430","NA","NA","NA","NA","76976","430","2","legacy","1024","2","48000","-16","BA_m21","157","odd","NW_S_SIMP","YIELDIST","1952","106872","105206","99072","78943","NA","NA","NA","NA","106867","105703","NA","104706","NA","104697","106867","1967","107172","NA","NA","105872","1952","1952","106272","104697","1952","105872","107172","morph21_Oliver/Morris","5","4559","8","yes","1280","20"
"350","66.6666666667","66.6666666667","544.111111111","544.111111111","black","no","xpyriment","legacy","legacy","0","202","NA","uniform","69749","1000","0.0143371231129","1","undefined","1","0","8","8","8","0","8","8","8","NA","8","8","0","8","NA","8","8","0","8","NA","8","NA","8","0","0","8","8","0","8","8","9","/","02/04/19 15:24:22","The main experiment item","yes","FIN__BA__M21__7%3A10%3A17.osexp","C:\Users\ERP Testing Room\Desktop\Joanna\morph21","no","mono","no","18","no","white","no","yes","1080","legacy","8","8","C:/Users/ERP Testing Room/Desktop/Joanna/morph21/subject-157.csv","xpyriment","Kafkaesque Koffka","3.2.5","0","/","NA","NA","NA","NA","space","/","338","NA","NA","NA","NA","76976","338","2","legacy","1024","2","48000","-16","BA_m21","157","odd","CW_L","GUILELESS","1952","111464","108281","109956","78943","NA","NA","NA","NA","109947","108778","NA","107781","NA","107770","109947","1967","111814","NA","NA","108956","1952","1952","109347","107769","1952","108956","111814","morph21_Oliver/Morris","6","4897","9","yes","1280","31"
"400","60","60","538.2","538.2","black","no","xpyriment","legacy","legacy","0","208","NA","uniform","70762","1000","0.014131878692","0","undefined","0","0","9","9","9","0","9","9","9","NA","9","9","0","9","NA","9","9","0","9","NA","9","NA","9","0","0","9","9","0","9","9","10","z","02/04/19 15:24:22","The main experiment item","yes","FIN__BA__M21__7%3A10%3A17.osexp","C:\Users\ERP Testing Room\Desktop\Joanna\morph21","no","mono","no","18","no","white","no","yes","1080","legacy","9","9","C:/Users/ERP Testing Room/Desktop/Joanna/morph21/subject-157.csv","xpyriment","Kafkaesque Koffka","3.2.5","0","/","NA","NA","NA","NA","space","/","485","NA","NA","NA","NA","76976","485","2","legacy","1024","2","48000","-16","BA_m21","157","odd","FILL_NW","DROES","1952","114690","113032","109956","78943","NA","NA","NA","NA","109947","113529","NA","112532","NA","112523","114683","1967","115090","NA","NA","113690","1952","1952","114082","112523","1952","113690","115090","morph21_Oliver/Morris","6","5382","10","yes","1280","17"
"400","63.6363636364","63.6363636364","532.636363636","532.636363636","black","no","xpyriment","legacy","legacy","0","201","NA","uniform","70271","1000","0.0142306214512","1","undefined","1","0","10","10","10","0","10","10","10","NA","10","10","0","10","NA","10","10","0","10","NA","10","NA","10","0","0","10","10","0","10","10","11","/","02/04/19 15:24:22","The main experiment item","yes","FIN__BA__M21__7%3A10%3A17.osexp","C:\Users\ERP Testing Room\Desktop\Joanna\morph21","no","mono","no","18","no","white","no","yes","1080","legacy","10","10","C:/Users/ERP Testing Room/Desktop/Joanna/morph21/subject-157.csv","xpyriment","Kafkaesque Koffka","3.2.5","0","/","NA","NA","NA","NA","space","/","477","NA","NA","NA","NA","76976","477","2","legacy","1024","2","48000","-16","BA_m21","157","odd","CW_S","EFFORTLESS","1952","117882","116207","109956","78943","NA","NA","NA","NA","117873","116704","NA","115707","NA","115698","117873","1967","118282","NA","NA","116882","1952","1952","117274","115698","1952","116882","118282","morph21_Oliver/Morris","7","5859","11","yes","1280","30"
"250","66.6666666667","66.6666666667","517.833333333","517.833333333","black","no","xpyriment","legacy","legacy","0","202","NA","uniform","66000","1000","0.0151515151515","1","undefined","1","0","11","11","11","0","11","11","11","NA","11","11","0","11","NA","11","11","0","11","NA","11","NA","11","0","0","11","11","0","11","11","12","/","02/04/19 15:24:22","The main experiment item","yes","FIN__BA__M21__7%3A10%3A17.osexp","C:\Users\ERP Testing Room\Desktop\Joanna\morph21","no","mono","no","18","no","white","no","yes","1080","legacy","11","11","C:/Users/ERP Testing Room/Desktop/Joanna/morph21/subject-157.csv","xpyriment","Kafkaesque Koffka","3.2.5","0","/","NA","NA","NA","NA","space","/","355","NA","NA","NA","NA","76976","355","2","legacy","1024","2","48000","-16","BA_m21","157","odd","CW_L","LAUGHING","1952","122632","119449","121124","78943","NA","NA","NA","NA","121115","119946","NA","118949","NA","118942","121115","1967","122883","NA","NA","120124","1952","1952","120516","118942","1952","120124","122883","morph21_Oliver/Morris","8","6214","12","yes","1280","27"
"350","69.2307692308","69.2307692308","505.384615385","505.384615385","black","no","xpyriment","legacy","legacy","0","201","NA","uniform","72691","1000","0.0137568612345","1","undefined","1","0","12","12","12","0","12","12","12","NA","12","12","0","12","NA","12","12","0","12","NA","12","NA","12","0","0","12","12","0","12","12","13","/","02/04/19 15:24:22","The main experiment item","yes","FIN__BA__M21__7%3A10%3A17.osexp","C:\Users\ERP Testing Room\Desktop\Joanna\morph21","no","mono","no","18","no","white","no","yes","1080","legacy","12","12","C:/Users/ERP Testing Room/Desktop/Joanna/morph21/subject-157.csv","xpyriment","Kafkaesque Koffka","3.2.5","0","/","NA","NA","NA","NA","space","/","356","NA","NA","NA","NA","76976","356","2","legacy","1024","2","48000","-16","BA_m21","157","odd","CW_S","DENSELY","1952","125674","124007","121124","78943","NA","NA","NA","NA","125670","124505","NA","123507","NA","123499","125670","1967","126024","NA","NA","124674","1952","1952","125074","123499","1952","124674","126024","morph21_Oliver/Morris","9","6570","13","yes","1280","32"
"250","71.4285714286","71.4285714286","498.142857143","498.142857143","black","no","xpyriment","legacy","legacy","0","207","NA","uniform","68896","1000","0.0145146307478","1","undefined","1","0","13","13","13","0","13","13","13","NA","13","13","0","13","NA","13","13","0","13","NA","13","NA","13","0","0","13","13","0","13","13","14","/","02/04/19 15:24:22","The main experiment item","yes","FIN__BA__M21__7%3A10%3A17.osexp","C:\Users\ERP Testing Room\Desktop\Joanna\morph21","no","mono","no","18","no","white","no","yes","1080","legacy","13","13","C:/Users/ERP Testing Room/Desktop/Joanna/morph21/subject-157.csv","xpyriment","Kafkaesque Koffka","3.2.5","0","/","NA","NA","NA","NA","space","/","404","NA","NA","NA","NA","76976","404","2","legacy","1024","2","48000","-16","BA_m21","157","odd","FILL_W","COOK","1952","128858","127191","121124","78943","NA","NA","NA","NA","128855","127688","NA","126691","NA","126683","128855","1967","129108","NA","NA","127866","1952","1952","128258","126683","1952","127866","129108","morph21_Oliver/Morris","10","6974","14","yes","1280","38"
"250","73.3333333333","73.3333333333","489.6","489.6","black","no","xpyriment","legacy","legacy","0","202","NA","uniform","68854","1000","0.0145234844744","1","undefined","1","0","14","14","14","0","14","14","14","NA","14","14","0","14","NA","14","14","0","14","NA","14","NA","14","0","0","14","14","0","14","14","15","/","02/04/19 15:24:22","The main experiment item","yes","FIN__BA__M21__7%3A10%3A17.osexp","C:\Users\ERP Testing Room\Desktop\Joanna\morph21","no","mono","no","18","no","white","no","yes","1080","legacy","14","14","C:/Users/ERP Testing Room/Desktop/Joanna/morph21/subject-157.csv","xpyriment","Kafkaesque Koffka","3.2.5","0","/","NA","NA","NA","NA","space","/","370","NA","NA","NA","NA","76976","370","2","legacy","1024","2","48000","-16","BA_m21","157","odd","CW_L","DREAMER","1952","133426","130234","131917","78943","NA","NA","NA","NA","131913","130731","NA","129734","NA","129723","131913","1967","133676","NA","NA","130917","1952","1952","131317","129723","1952","130917","133676","morph21_Oliver/Morris","11","7344","15","yes","1280","12"
"250","75","75","478.875","478.875","black","no","xpyriment","legacy","legacy","0","202","NA","uniform","72662","1000","0.0137623517107","1","undefined","1","0","15","15","15","0","15","15","15","NA","15","15","0","15","NA","15","15","0","15","NA","15","NA","15","0","0","15","15","0","15","15","16","/","02/04/19 15:24:22","The main experiment item","yes","FIN__BA__M21__7%3A10%3A17.osexp","C:\Users\ERP Testing Room\Desktop\Joanna\morph21","no","mono","no","18","no","white","no","yes","1080","legacy","15","15","C:/Users/ERP Testing Room/Desktop/Joanna/morph21/subject-157.csv","xpyriment","Kafkaesque Koffka","3.2.5","0","/","NA","NA","NA","NA","space","/","318","NA","NA","NA","NA","76976","318","2","legacy","1024","2","48000","-16","BA_m21","157","odd","CW_L","DEAFNESS","1952","136417","134742","131917","78943","NA","NA","NA","NA","136412","135239","NA","134242","NA","134234","136412","1967","136667","NA","NA","135417","1952","1952","135809","134234","1952","135417","136667","morph21_Oliver/Morris","12","7662","16","yes","1280","39"
"250","70.5882352941","70.5882352941","467.352941176","467.352941176","black","no","xpyriment","legacy","legacy","0","205","NA","uniform","77241","1000","0.012946492148","0","undefined","0","0","16","16","16","0","16","16","16","NA","16","16","0","16","NA","16","16","0","16","NA","16","NA","16","0","0","16","16","0","16","16","17","z","02/04/19 15:24:22","The main experiment item","yes","FIN__BA__M21__7%3A10%3A17.osexp","C:\Users\ERP Testing Room\Desktop\Joanna\morph21","no","mono","no","18","no","white","no","yes","1080","legacy","16","16","C:/Users/ERP Testing Room/Desktop/Joanna/morph21/subject-157.csv","xpyriment","Kafkaesque Koffka","3.2.5","0","/","NA","NA","NA","NA","space","/","283","NA","NA","NA","NA","76976","283","2","legacy","1024","2","48000","-16","BA_m21","157","odd","NW_S_SIMP","ZOOMFUL","1952","139476","137776","131917","78943","NA","NA","NA","NA","136412","138273","NA","137276","NA","137268","139466","1967","139726","NA","NA","138476","1952","1952","138867","137268","1952","138476","139726","morph21_Oliver/Morris","12","7945","17","yes","1280","19"
"250","72.2222222222","72.2222222222","460.944444444","460.944444444","black","no","xpyriment","legacy","legacy","0","202","NA","uniform","75698","1000","0.0132103886496","1","undefined","1","0","17","17","17","0","17","17","17","NA","17","17","0","17","NA","17","17","0","17","NA","17","NA","17","0","0","17","17","0","17","17","18","/","02/04/19 15:24:22","The main experiment item","yes","FIN__BA__M21__7%3A10%3A17.osexp","C:\Users\ERP Testing Room\Desktop\Joanna\morph21","no","mono","no","18","no","white","no","yes","1080","legacy","17","17","C:/Users/ERP Testing Room/Desktop/Joanna/morph21/subject-157.csv","xpyriment","Kafkaesque Koffka","3.2.5","0","/","NA","NA","NA","NA","space","/","352","NA","NA","NA","NA","76976","352","2","legacy","1024","2","48000","-16","BA_m21","157","odd","CW_L","DANCER","1952","144043","140876","142534","78943","NA","NA","NA","NA","142524","141373","NA","140376","NA","140371","142524","1967","144293","NA","NA","141534","1952","1952","141926","140371","1952","141534","144293","morph21_Oliver/Morris","13","8297","18","yes","1280","11"
"250","73.6842105263","73.6842105263","460.736842105","460.736842105","black","no","xpyriment","legacy","legacy","0","207","NA","uniform","69497","1000","0.0143891103213","1","undefined","1","0","18","18","18","0","18","18","18","NA","18","18","0","18","NA","18","18","0","18","NA","18","NA","18","0","0","18","18","0","18","18","19","/","02/04/19 15:24:22","The main experiment item","yes","FIN__BA__M21__7%3A10%3A17.osexp","C:\Users\ERP Testing Room\Desktop\Joanna\morph21","no","mono","no","18","no","white","no","yes","1080","legacy","18","18","C:/Users/ERP Testing Room/Desktop/Joanna/morph21/subject-157.csv","xpyriment","Kafkaesque Koffka","3.2.5","0","/","NA","NA","NA","NA","space","/","457","NA","NA","NA","NA","76976","457","2","legacy","1024","2","48000","-16","BA_m21","157","odd","FILL_W","SOUGHT","1952","147085","145434","142534","78943","NA","NA","NA","NA","147083","145931","NA","144934","NA","144930","147083","1967","147335","NA","NA","146093","1952","1952","146484","144930","1952","146093","147335","morph21_Oliver/Morris","14","8754","19","yes","1280","40"
"350","70","70","457.45","457.45","black","no","xpyriment","legacy","legacy","0","206","NA","uniform","67638","1000","0.0147845885449","0","undefined","0","0","19","19","19","0","19","19","19","NA","19","19","0","19","NA","19","19","0","19","NA","19","NA","19","0","0","19","19","0","19","19","20","z","02/04/19 15:24:22","The main experiment item","yes","FIN__BA__M21__7%3A10%3A17.osexp","C:\Users\ERP Testing Room\Desktop\Joanna\morph21","no","mono","no","18","no","white","no","yes","1080","legacy","19","19","C:/Users/ERP Testing Room/Desktop/Joanna/morph21/subject-157.csv","xpyriment","Kafkaesque Koffka","3.2.5","0","/","NA","NA","NA","NA","space","/","395","NA","NA","NA","NA","76976","395","2","legacy","1024","2","48000","-16","BA_m21","157","odd","NW_L_SIMP","PICKENCE","1952","150044","148385","142534","78943","NA","NA","NA","NA","147083","148883","NA","147885","NA","147877","150041","1967","150394","NA","NA","149052","1952","1952","149444","147877","1952","149052","150394","morph21_Oliver/Morris","14","9149","20","yes","1280","5"
"400","66.6666666667","66.6666666667","453.523809524","453.523809524","black","no","xpyriment","legacy","legacy","0","205","NA","uniform","71771","1000","0.013933204219","0","undefined","0","0","20","20","20","0","20","20","20","NA","20","20","0","20","NA","20","20","0","20","NA","20","NA","20","0","0","20","20","0","20","20","21","z","02/04/19 15:24:22","The main experiment item","yes","FIN__BA__M21__7%3A10%3A17.osexp","C:\Users\ERP Testing Room\Desktop\Joanna\morph21","no","mono","no","18","no","white","no","yes","1080","legacy","20","20","C:/Users/ERP Testing Room/Desktop/Joanna/morph21/subject-157.csv","xpyriment","Kafkaesque Koffka","3.2.5","0","/","NA","NA","NA","NA","space","/","375","NA","NA","NA","NA","76976","375","2","legacy","1024","2","48000","-16","BA_m21","157","odd","NW_S_SIMP","SCHEMENESS","1952","154661","151502","153152","78943","NA","NA","NA","NA","147083","151999","NA","151002","NA","150993","153146","1967","155061","NA","NA","152152","1952","1952","152544","150993","1952","152152","155061","morph21_Oliver/Morris","14","9524","21","yes","1280","15"
"400","63.6363636364","63.6363636364","450.818181818","450.818181818","black","no","xpyriment","legacy","legacy","0","208","NA","uniform","66960","1000","0.0149342891278","0","undefined","0","0","21","21","21","0","21","21","21","NA","21","21","0","21","NA","21","21","0","21","NA","21","NA","21","0","0","21","21","0","21","21","22","z","02/04/19 15:24:22","The main experiment item","yes","FIN__BA__M21__7%3A10%3A17.osexp","C:\Users\ERP Testing Room\Desktop\Joanna\morph21","no","mono","no","18","no","white","no","yes","1080","legacy","21","21","C:/Users/ERP Testing Room/Desktop/Joanna/morph21/subject-157.csv","xpyriment","Kafkaesque Koffka","3.2.5","0","/","NA","NA","NA","NA","space","/","394","NA","NA","NA","NA","76976","394","2","legacy","1024","2","48000","-16","BA_m21","157","odd","FILL_NW","BUTE","1952","157877","156161","153152","78943","NA","NA","NA","NA","147083","156658","NA","155652","NA","155648","157867","1967","158277","NA","NA","156877","1952","1952","157269","155648","1952","156877","158277","morph21_Oliver/Morris","14","9918","22","yes","1280","5"
"250","60.8695652174","60.8695652174","446.913043478","446.913043478","black","no","xpyriment","legacy","legacy","0","204","NA","uniform","75765","1000","0.0131987065268","0","undefined","0","0","22","22","22","0","22","22","22","NA","22","22","0","22","NA","22","22","0","22","NA","22","NA","22","0","0","22","22","0","22","22","23","z","02/04/19 15:24:22","The main experiment item","yes","FIN__BA__M21__7%3A10%3A17.osexp","C:\Users\ERP Testing Room\Desktop\Joanna\morph21","no","mono","no","18","no","white","no","yes","1080","legacy","22","22","C:/Users/ERP Testing Room/Desktop/Joanna/morph21/subject-157.csv","xpyriment","Kafkaesque Koffka","3.2.5","0","/","NA","NA","NA","NA","space","/","361","NA","NA","NA","NA","76976","361","2","legacy","1024","2","48000","-16","BA_m21","157","odd","NW_L_COMP","STIRANGE","1952","161053","159386","153152","78943","NA","NA","NA","NA","147083","159883","NA","158886","NA","158881","161046","1967","161303","NA","NA","160053","1952","1952","160444","158880","1952","160053","161303","morph21_Oliver/Morris","14","10279","23","yes","1280","1"
"350","62.5","62.5","445.25","445.25","black","no","xpyriment","legacy","legacy","0","203","NA","uniform","64796","1000","0.0154330514229","1","undefined","1","0","23","23","23","0","23","23","23","NA","23","23","0","23","NA","23","23","0","23","NA","23","NA","23","0","0","23","23","0","23","23","24","z","02/04/19 15:24:22","The main experiment item","yes","FIN__BA__M21__7%3A10%3A17.osexp","C:\Users\ERP Testing Room\Desktop\Joanna\morph21","no","mono","no","18","no","white","no","yes","1080","legacy","23","23","C:/Users/ERP Testing Room/Desktop/Joanna/morph21/subject-157.csv","xpyriment","Kafkaesque Koffka","3.2.5","0","z","NA","NA","NA","NA","space","z","407","NA","NA","NA","NA","76976","407","2","legacy","1024","2","48000","-16","BA_m21","157","odd","NW_S_COMP","PRINCEMANT","1952","165604","162411","164094","78943","NA","NA","NA","NA","164091","162908","NA","161911","NA","161904","164091","1967","165954","NA","NA","163103","1952","1952","163494","161904","1952","163103","165954","morph21_Oliver/Morris","15","10686","24","yes","1280","17"
"200","60","60","445.8","445.8","black","no","xpyriment","legacy","legacy","0","203","NA","uniform","64836","1000","0.0154235301376","0","undefined","0","0","24","24","24","0","24","24","24","NA","24","24","0","24","NA","24","24","0","24","NA","24","NA","24","0","0","24","24","0","24","24","25","z","02/04/19 15:24:22","The main experiment item","yes","FIN__BA__M21__7%3A10%3A17.osexp","C:\Users\ERP Testing Room\Desktop\Joanna\morph21","no","mono","no","18","no","white","no","yes","1080","legacy","24","24","C:/Users/ERP Testing Room/Desktop/Joanna/morph21/subject-157.csv","xpyriment","Kafkaesque Koffka","3.2.5","0","/","NA","NA","NA","NA","space","/","459","NA","NA","NA","NA","76976","459","2","legacy","1024","2","48000","-16","BA_m21","157","odd","NW_S_COMP","FANFIL","1952","168812","167154","164094","78943","NA","NA","NA","NA","164091","167651","NA","166646","NA","166640","168803","1967","169012","NA","NA","167812","1952","1952","168204","166640","1952","167812","169012","morph21_Oliver/Morris","15","11145","25","yes","1280","6"
"300","57.6923076923","57.6923076923","440.730769231","440.730769231","black","no","xpyriment","legacy","legacy","0","208","NA","uniform","74673","1000","0.0133917212379","0","undefined","0","0","25","25","25","0","25","25","25","NA","25","25","0","25","NA","25","25","0","25","NA","25","NA","25","0","0","25","25","0","25","25","26","z","02/04/19 15:24:22","The main experiment item","yes","FIN__BA__M21__7%3A10%3A17.osexp","C:\Users\ERP Testing Room\Desktop\Joanna\morph21","no","mono","no","18","no","white","no","yes","1080","legacy","25","25","C:/Users/ERP Testing Room/Desktop/Joanna/morph21/subject-157.csv","xpyriment","Kafkaesque Koffka","3.2.5","0","/","NA","NA","NA","NA","space","/","314","NA","NA","NA","NA","76976","314","2","legacy","1024","2","48000","-16","BA_m21","157","odd","FILL_NW","DULKS","1952","171837","170187","164094","78943","NA","NA","NA","NA","164091","170684","NA","169687","NA","169680","171834","1967","172137","NA","NA","170837","1952","1952","171237","169680","1952","170837","172137","morph21_Oliver/Morris","15","11459","26","yes","1280","18"
"200","55.5555555556","55.5555555556","439.666666667","439.666666667","black","no","xpyriment","legacy","legacy","0","203","NA","uniform","74136","1000","0.0134887234272","0","undefined","0","0","26","26","26","0","26","26","26","NA","26","26","0","26","NA","26","26","0","26","NA","26","NA","26","0","0","26","26","0","26","26","27","z","02/04/19 15:24:22","The main experiment item","yes","FIN__BA__M21__7%3A10%3A17.osexp","C:\Users\ERP Testing Room\Desktop\Joanna\morph21","no","mono","no","18","no","white","no","yes","1080","legacy","26","26","C:/Users/ERP Testing Room/Desktop/Joanna/morph21/subject-157.csv","xpyriment","Kafkaesque Koffka","3.2.5","0","/","NA","NA","NA","NA","space","/","412","NA","NA","NA","NA","76976","412","2","legacy","1024","2","48000","-16","BA_m21","157","odd","NW_S_COMP","YANKODY","1952","176488","173296","174979","78943","NA","NA","NA","NA","164091","173793","NA","172796","NA","172791","174974","1967","176688","NA","NA","173979","1952","1952","174379","172791","1952","173979","176688","morph21_Oliver/Morris","15","11871","27","yes","1280","23"
"300","57.1428571429","57.1428571429","436.178571429","436.178571429","black","no","xpyriment","legacy","legacy","0","202","NA","uniform","76240","1000","0.0131164742917","1","undefined","1","0","27","27","27","0","27","27","27","NA","27","27","0","27","NA","27","27","0","27","NA","27","NA","27","0","0","27","27","0","27","27","28","/","02/04/19 15:24:22","The main experiment item","yes","FIN__BA__M21__7%3A10%3A17.osexp","C:\Users\ERP Testing Room\Desktop\Joanna\morph21","no","mono","no","18","no","white","no","yes","1080","legacy","27","27","C:/Users/ERP Testing Room/Desktop/Joanna/morph21/subject-157.csv","xpyriment","Kafkaesque Koffka","3.2.5","0","/","NA","NA","NA","NA","space","/","342","NA","NA","NA","NA","76976","342","2","legacy","1024","2","48000","-16","BA_m21","157","odd","CW_L","PROFESSOR","1952","179488","177821","174979","78943","NA","NA","NA","NA","179484","178318","NA","177321","NA","177313","179484","1967","179788","NA","NA","178496","1952","1952","178888","177313","1952","178496","179788","morph21_Oliver/Morris","16","12213","28","yes","1280","47"
"400","55.1724137931","55.1724137931","434.275862069","434.275862069","black","no","xpyriment","legacy","legacy","0","204","NA","uniform","71595","1000","0.0139674558279","0","undefined","0","0","28","28","28","0","28","28","28","NA","28","28","0","28","NA","28","28","0","28","NA","28","NA","28","0","0","28","28","0","28","28","29","z","02/04/19 15:24:22","The main experiment item","yes","FIN__BA__M21__7%3A10%3A17.osexp","C:\Users\ERP Testing Room\Desktop\Joanna\morph21","no","mono","no","18","no","white","no","yes","1080","legacy","28","28","C:/Users/ERP Testing Room/Desktop/Joanna/morph21/subject-157.csv","xpyriment","Kafkaesque Koffka","3.2.5","0","/","NA","NA","NA","NA","space","/","381","NA","NA","NA","NA","76976","381","2","legacy","1024","2","48000","-16","BA_m21","157","odd","NW_L_COMP","RIPENGE","1952","182547","180888","174979","78943","NA","NA","NA","NA","179484","181385","NA","180380","NA","180374","182541","1967","182947","NA","NA","181546","1952","1952","181939","180374","1952","181546","182947","morph21_Oliver/Morris","16","12594","29","yes","1280","4"
"200","56.6666666667","56.6666666667","433.8","433.8","black","no","xpyriment","legacy","legacy","0","201","NA","uniform","66914","1000","0.0149445556984","1","undefined","1","0","29","29","29","0","29","29","29","NA","29","29","0","29","NA","29","29","0","29","NA","29","NA","29","0","0","29","29","0","29","29","30","/","02/04/19 15:24:22","The main experiment item","yes","FIN__BA__M21__7%3A10%3A17.osexp","C:\Users\ERP Testing Room\Desktop\Joanna\morph21","no","mono","no","18","no","white","no","yes","1080","legacy","29","29","C:/Users/ERP Testing Room/Desktop/Joanna/morph21/subject-157.csv","xpyriment","Kafkaesque Koffka","3.2.5","0","/","NA","NA","NA","NA","space","/","420","NA","NA","NA","NA","76976","420","2","legacy","1024","2","48000","-16","BA_m21","157","odd","CW_S","CAMPAIGNER","1952","187239","184072","185731","78943","NA","NA","NA","NA","185723","184569","NA","183572","NA","183568","185723","1967","187439","NA","NA","184731","1952","1952","185122","183568","1952","184731","187439","morph21_Oliver/Morris","17","13014","30","yes","1280","15"
"300","54.8387096774","54.8387096774","429.129032258","429.129032258","black","no","xpyriment","legacy","legacy","0","206","NA","uniform","78309","1000","0.0127699242743","0","undefined","0","0","30","30","30","0","30","30","30","NA","30","30","0","30","NA","30","30","0","30","NA","30","NA","30","0","0","30","30","0","30","30","31","z","02/04/19 15:24:22","The main experiment item","yes","FIN__BA__M21__7%3A10%3A17.osexp","C:\Users\ERP Testing Room\Desktop\Joanna\morph21","no","mono","no","18","no","white","no","yes","1080","legacy","30","30","C:/Users/ERP Testing Room/Desktop/Joanna/morph21/subject-157.csv","xpyriment","Kafkaesque Koffka","3.2.5","0","/","NA","NA","NA","NA","space","/","289","NA","NA","NA","NA","76976","289","2","legacy","1024","2","48000","-16","BA_m21","157","odd","NW_L_SIMP","BANDARY","1952","190214","188548","185731","78943","NA","NA","NA","NA","185723","189045","NA","188047","NA","188039","190211","1967","190514","NA","NA","189222","1952","1952","189614","188039","1952","189222","190514","morph21_Oliver/Morris","17","13303","31","yes","1280","3"
"400","56.25","56.25","427.21875","427.21875","black","no","xpyriment","legacy","legacy","0","202","NA","uniform","74903","1000","0.0133506001095","1","undefined","1","0","31","31","31","0","31","31","31","NA","31","31","0","31","NA","31","31","0","31","NA","31","NA","31","0","0","31","31","0","31","31","32","/","02/04/19 15:24:22","The main experiment item","yes","FIN__BA__M21__7%3A10%3A17.osexp","C:\Users\ERP Testing Room\Desktop\Joanna\morph21","no","mono","no","18","no","white","no","yes","1080","legacy","31","31","C:/Users/ERP Testing Room/Desktop/Joanna/morph21/subject-157.csv","xpyriment","Kafkaesque Koffka","3.2.5","0","/","NA","NA","NA","NA","space","/","368","NA","NA","NA","NA","76976","368","2","legacy","1024","2","48000","-16","BA_m21","157","odd","CW_L","WRONGLY","1952","193223","191564","185731","78943","NA","NA","NA","NA","193217","192061","NA","191064","NA","191056","193217","1967","193623","NA","NA","192223","1952","1952","192614","191056","1952","192223","193623","morph21_Oliver/Morris","18","13671","32","yes","1280","37"
"250","57.5757575758","57.5757575758","424.272727273","424.272727273","black","no","xpyriment","legacy","legacy","0","207","NA","uniform","75186","1000","0.0133003484691","1","undefined","1","0","32","32","32","0","32","32","32","NA","32","32","0","32","NA","32","32","0","32","NA","32","NA","32","0","0","32","32","0","32","32","33","/","02/04/19 15:24:22","The main experiment item","yes","FIN__BA__M21__7%3A10%3A17.osexp","C:\Users\ERP Testing Room\Desktop\Joanna\morph21","no","mono","no","18","no","white","no","yes","1080","legacy","32","32","C:/Users/ERP Testing Room/Desktop/Joanna/morph21/subject-157.csv","xpyriment","Kafkaesque Koffka","3.2.5","0","/","NA","NA","NA","NA","space","/","330","NA","NA","NA","NA","76976","330","2","legacy","1024","2","48000","-16","BA_m21","157","odd","FILL_W","SUIT","1952","197856","194714","196348","78943","NA","NA","NA","NA","196343","195212","NA","194214","NA","194203","196343","1967","198106","NA","NA","195348","1952","1952","195748","194203","1952","195348","198106","morph21_Oliver/Morris","19","14001","33","yes","1280","49"
"400","55.8823529412","55.8823529412","421.647058824","421.647058824","black","no","xpyriment","legacy","legacy","0","205","NA","uniform","75543","1000","0.0132374938777","0","undefined","0","0","33","33","33","0","33","33","33","NA","33","33","0","33","NA","33","33","0","33","NA","33","NA","33","0","0","33","33","0","33","33","34","z","02/04/19 15:24:22","The main experiment item","yes","FIN__BA__M21__7%3A10%3A17.osexp","C:\Users\ERP Testing Room\Desktop\Joanna\morph21","no","mono","no","18","no","white","no","yes","1080","legacy","33","33","C:/Users/ERP Testing Room/Desktop/Joanna/morph21/subject-157.csv","xpyriment","Kafkaesque Koffka","3.2.5","0","/","NA","NA","NA","NA","space","/","335","NA","NA","NA","NA","76976","335","2","legacy","1024","2","48000","-16","BA_m21","157","odd","NW_S_SIMP","MEDICALARY","1952","201016","199316","196348","78943","NA","NA","NA","NA","196343","199813","NA","198815","NA","198805","201009","1967","201416","NA","NA","200016","1952","1952","200407","198805","1952","200016","201416","morph21_Oliver/Morris","19","14336","34","yes","1280","18"
"400","57.1428571429","57.1428571429","419","419","black","no","xpyriment","legacy","legacy","0","201","NA","uniform","76517","1000","0.0130689912046","1","undefined","1","0","34","34","34","0","34","34","34","NA","34","34","0","34","NA","34","34","0","34","NA","34","NA","34","0","0","34","34","0","34","34","35","/","02/04/19 15:24:22","The main experiment item","yes","FIN__BA__M21__7%3A10%3A17.osexp","C:\Users\ERP Testing Room\Desktop\Joanna\morph21","no","mono","no","18","no","white","no","yes","1080","legacy","34","34","C:/Users/ERP Testing Room/Desktop/Joanna/morph21/subject-157.csv","xpyriment","Kafkaesque Koffka","3.2.5","0","/","NA","NA","NA","NA","space","/","329","NA","NA","NA","NA","76976","329","2","legacy","1024","2","48000","-16","BA_m21","157","odd","CW_S","DESIGN","1952","204182","202532","196348","78943","NA","NA","NA","NA","204176","203030","NA","202032","NA","202023","204176","1967","204582","NA","NA","203182","1952","1952","203574","202023","1952","203182","204582","morph21_Oliver/Morris","20","14665","35","yes","1280","19"
"400","55.5555555556","55.5555555556","416.361111111","416.361111111","black","no","xpyriment","legacy","legacy","0","208","NA","uniform","72254","1000","0.0138400642179","0","undefined","0","0","35","35","35","0","35","35","35","NA","35","35","0","35","NA","35","35","0","35","NA","35","NA","35","0","0","35","35","0","35","35","36","z","02/04/19 15:24:22","The main experiment item","yes","FIN__BA__M21__7%3A10%3A17.osexp","C:\Users\ERP Testing Room\Desktop\Joanna\morph21","no","mono","no","18","no","white","no","yes","1080","legacy","35","35","C:/Users/ERP Testing Room/Desktop/Joanna/morph21/subject-157.csv","xpyriment","Kafkaesque Koffka","3.2.5","0","/","NA","NA","NA","NA","space","/","324","NA","NA","NA","NA","76976","324","2","legacy","1024","2","48000","-16","BA_m21","157","odd","FILL_NW","HEND","1952","208991","205808","207483","78943","NA","NA","NA","NA","204176","206305","NA","205308","NA","205301","207478","1967","209391","NA","NA","206483","1952","1952","206883","205301","1952","206483","209391","morph21_Oliver/Morris","20","14989","36","yes","1280","28"
"350","54.0540540541","54.0540540541","413.648648649","413.648648649","black","no","xpyriment","legacy","legacy","0","204","NA","uniform","71440","1000","0.0139977603583","0","undefined","0","0","36","36","36","0","36","36","36","NA","36","36","0","36","NA","36","36","0","36","NA","36","NA","36","0","0","36","36","0","36","36","37","z","02/04/19 15:24:22","The main experiment item","yes","FIN__BA__M21__7%3A10%3A17.osexp","C:\Users\ERP Testing Room\Desktop\Joanna\morph21","no","mono","no","18","no","white","no","yes","1080","legacy","36","36","C:/Users/ERP Testing Room/Desktop/Joanna/morph21/subject-157.csv","xpyriment","Kafkaesque Koffka","3.2.5","0","/","NA","NA","NA","NA","space","/","316","NA","NA","NA","NA","76976","316","2","legacy","1024","2","48000","-16","BA_m21","157","odd","NW_L_COMP","AGREELA","1952","212249","210566","207483","78943","NA","NA","NA","NA","204176","211063","NA","210066","NA","210054","212246","1967","212599","NA","NA","211258","1952","1952","211649","210054","1952","211258","212599","morph21_Oliver/Morris","20","15305","37","yes","1280","24"
"400","55.2631578947","55.2631578947","410.973684211","410.973684211","black","no","xpyriment","legacy","legacy","0","207","NA","uniform","73624","1000","0.0135825274367","1","undefined","1","0","37","37","37","0","37","37","37","NA","37","37","0","37","NA","37","37","0","37","NA","37","NA","37","0","0","37","37","0","37","37","38","/","02/04/19 15:24:22","The main experiment item","yes","FIN__BA__M21__7%3A10%3A17.osexp","C:\Users\ERP Testing Room\Desktop\Joanna\morph21","no","mono","no","18","no","white","no","yes","1080","legacy","37","37","C:/Users/ERP Testing Room/Desktop/Joanna/morph21/subject-157.csv","xpyriment","Kafkaesque Koffka","3.2.5","0","/","NA","NA","NA","NA","space","/","312","NA","NA","NA","NA","76976","312","2","legacy","1024","2","48000","-16","BA_m21","157","odd","FILL_W","CEASE","1952","215550","213891","207483","78943","NA","NA","NA","NA","215542","214388","NA","213391","NA","213384","215542","1967","215950","NA","NA","214550","1952","1952","214941","213384","1952","214550","215950","morph21_Oliver/Morris","21","15617","38","yes","1280","18"
"350","53.8461538462","53.8461538462","410.487179487","410.487179487","black","no","xpyriment","legacy","legacy","0","208","NA","uniform","68159","1000","0.0146715767544","0","undefined","0","0","38","38","38","0","38","38","38","NA","38","38","0","38","NA","38","38","0","38","NA","38","NA","38","0","0","38","38","0","38","38","39","z","02/04/19 15:24:22","The main experiment item","yes","FIN__BA__M21__7%3A10%3A17.osexp","C:\Users\ERP Testing Room\Desktop\Joanna\morph21","no","mono","no","18","no","white","no","yes","1080","legacy","38","38","C:/Users/ERP Testing Room/Desktop/Joanna/morph21/subject-157.csv","xpyriment","Kafkaesque Koffka","3.2.5","0","/","NA","NA","NA","NA","space","/","392","NA","NA","NA","NA","76976","392","2","legacy","1024","2","48000","-16","BA_m21","157","odd","FILL_NW","BLANTH","1952","220342","217151","218834","78943","NA","NA","NA","NA","215542","217648","NA","216650","NA","216643","218824","1967","220693","NA","NA","217834","1952","1952","218226","216642","1952","217834","220693","morph21_Oliver/Morris","21","16009","39","yes","1280","3"
"250","52.5","52.5","408.5","408.5","black","no","xpyriment","legacy","legacy","0","205","NA","uniform","72029","1000","0.0138832970054","0","undefined","0","0","39","39","39","0","39","39","39","NA","39","39","0","39","NA","39","39","0","39","NA","39","NA","39","0","0","39","39","0","39","39","40","z","02/04/19 15:24:22","The main experiment item","yes","FIN__BA__M21__7%3A10%3A17.osexp","C:\Users\ERP Testing Room\Desktop\Joanna\morph21","no","mono","no","18","no","white","no","yes","1080","legacy","39","39","C:/Users/ERP Testing Room/Desktop/Joanna/morph21/subject-157.csv","xpyriment","Kafkaesque Koffka","3.2.5","0","/","NA","NA","NA","NA","space","/","331","NA","NA","NA","NA","76976","331","2","legacy","1024","2","48000","-16","BA_m21","157","odd","NW_S_SIMP","DIGORY","1952","223668","221951","218834","78943","NA","NA","NA","NA","215542","222448","NA","221451","NA","221445","223663","1967","223918","NA","NA","222676","1952","1952","223068","221445","1952","222676","223918","morph21_Oliver/Morris","21","16340","40","yes","1280","11"
"300","51.2195121951","51.2195121951","407.902439024","407.902439024","black","no","xpyriment","legacy","legacy","0","201","NA","uniform","64790","1000","0.0154344806297","0","undefined","0","0","40","40","40","0","40","40","40","NA","40","40","0","40","NA","40","40","0","40","NA","40","NA","40","0","0","40","40","0","40","40","41","/","02/04/19 15:24:22","The main experiment item","yes","FIN__BA__M21__7%3A10%3A17.osexp","C:\Users\ERP Testing Room\Desktop\Joanna\morph21","no","mono","no","18","no","white","no","yes","1080","legacy","40","40","C:/Users/ERP Testing Room/Desktop/Joanna/morph21/subject-157.csv","xpyriment","Kafkaesque Koffka","3.2.5","0","z","NA","NA","NA","NA","space","z","384","NA","NA","NA","NA","76976","384","2","legacy","1024","2","48000","-16","BA_m21","157","odd","CW_S","DETECTABLE","1952","226743","225084","218834","78943","NA","NA","NA","NA","215542","225582","NA","224584","NA","224575","226734","1967","227043","NA","NA","225743","1952","1952","226134","224575","1952","225743","227043","morph21_Oliver/Morris","21","16724","41","yes","1280","1"
"400","52.380952381","52.380952381","407.166666667","407.166666667","black","no","xpyriment","legacy","legacy","0","203","NA","uniform","72362","1000","0.0138194079766","1","undefined","1","0","41","41","41","0","41","41","41","NA","41","41","0","41","NA","41","41","0","41","NA","41","NA","41","0","0","41","41","0","41","41","42","z","02/04/19 15:24:22","The main experiment item","yes","FIN__BA__M21__7%3A10%3A17.osexp","C:\Users\ERP Testing Room\Desktop\Joanna\morph21","no","mono","no","18","no","white","no","yes","1080","legacy","41","41","C:/Users/ERP Testing Room/Desktop/Joanna/morph21/subject-157.csv","xpyriment","Kafkaesque Koffka","3.2.5","0","z","NA","NA","NA","NA","space","z","377","NA","NA","NA","NA","76976","377","2","legacy","1024","2","48000","-16","BA_m21","157","odd","NW_S_COMP","ARIDILM","1952","231418","228226","229909","78943","NA","NA","NA","NA","229903","228723","NA","227726","NA","227720","229903","1967","231818","NA","NA","228909","1952","1952","229301","227720","1952","228909","231818","morph21_Oliver/Morris","22","17101","42","yes","1280","9"
"300","51.1627906977","51.1627906977","407.139534884","407.139534884","black","no","xpyriment","legacy","legacy","0","206","NA","uniform","63855","1000","0.0156604807768","0","undefined","0","0","42","42","42","0","42","42","42","NA","42","42","0","42","NA","42","42","0","42","NA","42","NA","42","0","0","42","42","0","42","42","43","z","02/04/19 15:24:22","The main experiment item","yes","FIN__BA__M21__7%3A10%3A17.osexp","C:\Users\ERP Testing Room\Desktop\Joanna\morph21","no","mono","no","18","no","white","no","yes","1080","legacy","42","42","C:/Users/ERP Testing Room/Desktop/Joanna/morph21/subject-157.csv","xpyriment","Kafkaesque Koffka","3.2.5","0","/","NA","NA","NA","NA","space","/","406","NA","NA","NA","NA","76976","406","2","legacy","1024","2","48000","-16","BA_m21","157","odd","NW_L_SIMP","ELBOWISM","1952","234569","232910","229909","78943","NA","NA","NA","NA","229903","233407","NA","232410","NA","232399","234562","1967","234869","NA","NA","233568","1952","1952","233960","232399","1952","233568","234869","morph21_Oliver/Morris","22","17507","43","yes","1280","10"
"350","52.2727272727","52.2727272727","405.886363636","405.886363636","black","no","xpyriment","legacy","legacy","0","202","NA","uniform","73757","1000","0.0135580351695","1","undefined","1","0","43","43","43","0","43","43","43","NA","43","43","0","43","NA","43","43","0","43","NA","43","NA","43","0","0","43","43","0","43","43","44","/","02/04/19 15:24:22","The main experiment item","yes","FIN__BA__M21__7%3A10%3A17.osexp","C:\Users\ERP Testing Room\Desktop\Joanna\morph21","no","mono","no","18","no","white","no","yes","1080","legacy","43","43","C:/Users/ERP Testing Room/Desktop/Joanna/morph21/subject-157.csv","xpyriment","Kafkaesque Koffka","3.2.5","0","/","NA","NA","NA","NA","space","/","352","NA","NA","NA","NA","76976","352","2","legacy","1024","2","48000","-16","BA_m21","157","odd","CW_L","GUARDING","1952","237702","236019","229909","78943","NA","NA","NA","NA","237696","236516","NA","235519","NA","235515","237696","1967","238053","NA","NA","236703","1952","1952","237094","235515","1952","236703","238053","morph21_Oliver/Morris","23","17859","44","yes","1280","26"
"400","53.3333333333","53.3333333333","404.111111111","404.111111111","black","no","xpyriment","legacy","legacy","0","202","NA","uniform","65971","1000","0.015158175562","1","undefined","1","0","44","44","44","0","44","44","44","NA","44","44","0","44","NA","44","44","0","44","NA","44","NA","44","0","0","44","44","0","44","44","45","/","02/04/19 15:24:22","The main experiment item","yes","FIN__BA__M21__7%3A10%3A17.osexp","C:\Users\ERP Testing Room\Desktop\Joanna\morph21","no","mono","no","18","no","white","no","yes","1080","legacy","44","44","C:/Users/ERP Testing Room/Desktop/Joanna/morph21/subject-157.csv","xpyriment","Kafkaesque Koffka","3.2.5","0","/","NA","NA","NA","NA","space","/","326","NA","NA","NA","NA","76976","326","2","legacy","1024","2","48000","-16","BA_m21","157","odd","CW_L","FAITHFUL","1952","242461","239236","240953","78943","NA","NA","NA","NA","240945","239733","NA","238736","NA","238726","240945","1967","242861","NA","NA","239953","1952","1952","240344","238726","1952","239953","242861","morph21_Oliver/Morris","24","18185","45","yes","1280","20"
"250","54.347826087","54.347826087","402.956521739","402.956521739","black","no","xpyriment","legacy","legacy","0","207","NA","uniform","75654","1000","0.0132180717477","1","undefined","1","0","45","45","45","0","45","45","45","NA","45","45","0","45","NA","45","45","0","45","NA","45","NA","45","0","0","45","45","0","45","45","46","/","02/04/19 15:24:22","The main experiment item","yes","FIN__BA__M21__7%3A10%3A17.osexp","C:\Users\ERP Testing Room\Desktop\Joanna\morph21","no","mono","no","18","no","white","no","yes","1080","legacy","45","45","C:/Users/ERP Testing Room/Desktop/Joanna/morph21/subject-157.csv","xpyriment","Kafkaesque Koffka","3.2.5","0","/","NA","NA","NA","NA","space","/","351","NA","NA","NA","NA","76976","351","2","legacy","1024","2","48000","-16","BA_m21","157","odd","FILL_W","TASTE","1952","245719","244053","240953","78943","NA","NA","NA","NA","245716","244550","NA","243545","NA","243540","245716","1967","245970","NA","NA","244720","1952","1952","245119","243540","1952","244719","245970","morph21_Oliver/Morris","25","18536","46","yes","1280","34"
"300","53.1914893617","53.1914893617","400.765957447","400.765957447","black","no","xpyriment","legacy","legacy","0","208","NA","uniform","76952","1000","0.0129951138372","0","undefined","0","0","46","46","46","0","46","46","46","NA","46","46","0","46","NA","46","46","0","46","NA","46","NA","46","0","0","46","46","0","46","46","47","z","02/04/19 15:24:22","The main experiment item","yes","FIN__BA__M21__7%3A10%3A17.osexp","C:\Users\ERP Testing Room\Desktop\Joanna\morph21","no","mono","no","18","no","white","no","yes","1080","legacy","46","46","C:/Users/ERP Testing Room/Desktop/Joanna/morph21/subject-157.csv","xpyriment","Kafkaesque Koffka","3.2.5","0","/","NA","NA","NA","NA","space","/","300","NA","NA","NA","NA","76976","300","2","legacy","1024","2","48000","-16","BA_m21","157","odd","FILL_NW","HEEM","1952","248778","247111","240953","78943","NA","NA","NA","NA","245716","247608","NA","246611","NA","246605","248773","1967","249078","NA","NA","247778","1952","1952","248178","246605","1952","247778","249078","morph21_Oliver/Morris","25","18836","47","yes","1280","27"
"350","54.1666666667","54.1666666667","398.75","398.75","black","no","xpyriment","legacy","legacy","0","202","NA","uniform","71982","1000","0.0138923619794","1","undefined","1","0","47","47","47","0","47","47","47","NA","47","47","0","47","NA","47","47","0","47","NA","47","NA","47","0","0","47","47","0","47","47","48","/","02/04/19 15:24:22","The main experiment item","yes","FIN__BA__M21__7%3A10%3A17.osexp","C:\Users\ERP Testing Room\Desktop\Joanna\morph21","no","mono","no","18","no","white","no","yes","1080","legacy","47","47","C:/Users/ERP Testing Room/Desktop/Joanna/morph21/subject-157.csv","xpyriment","Kafkaesque Koffka","3.2.5","0","/","NA","NA","NA","NA","space","/","304","NA","NA","NA","NA","76976","304","2","legacy","1024","2","48000","-16","BA_m21","157","odd","CW_L","SWIMMER","1952","253371","250186","251862","78943","NA","NA","NA","NA","251854","250684","NA","249686","NA","249676","251854","1967","253721","NA","NA","250862","1952","1952","251253","249676","1952","250861","253721","morph21_Oliver/Morris","26","19140","48","yes","1280","5"
"250","55.1020408163","55.1020408163","396.693877551","396.693877551","black","no","xpyriment","legacy","legacy","0","202","NA","uniform","69634","1000","0.0143608007583","1","undefined","1","0","48","48","48","0","48","48","48","NA","48","48","0","48","NA","48","48","0","48","NA","48","NA","48","0","0","48","48","0","48","48","49","/","02/04/19 15:24:22","The main experiment item","yes","FIN__BA__M21__7%3A10%3A17.osexp","C:\Users\ERP Testing Room\Desktop\Joanna\morph21","no","mono","no","18","no","white","no","yes","1080","legacy","48","48","C:/Users/ERP Testing Room/Desktop/Joanna/morph21/subject-157.csv","xpyriment","Kafkaesque Koffka","3.2.5","0","/","NA","NA","NA","NA","space","/","298","NA","NA","NA","NA","76976","298","2","legacy","1024","2","48000","-16","BA_m21","157","odd","CW_L","EXCITEMENT","1952","256613","254946","251862","78943","NA","NA","NA","NA","256605","255443","NA","254446","NA","254437","256605","1967","256863","NA","NA","255613","1952","1952","256004","254437","1952","255613","256863","morph21_Oliver/Morris","27","19438","49","yes","1280","38"
"400","56","56","395.34","395.34","black","no","xpyriment","legacy","legacy","0","201","NA","uniform","73655","1000","0.0135768108071","1","undefined","1","0","49","49","49","0","49","49","49","NA","49","49","0","49","NA","49","49","0","49","NA","49","NA","49","0","0","49","49","0","49","49","50","/","02/04/19 15:24:22","The main experiment item","yes","FIN__BA__M21__7%3A10%3A17.osexp","C:\Users\ERP Testing Room\Desktop\Joanna\morph21","no","mono","no","18","no","white","no","yes","1080","legacy","49","49","C:/Users/ERP Testing Room/Desktop/Joanna/morph21/subject-157.csv","xpyriment","Kafkaesque Koffka","3.2.5","0","/","NA","NA","NA","NA","space","/","329","NA","NA","NA","NA","76976","329","2","legacy","1024","2","48000","-16","BA_m21","157","odd","CW_S","ALLOWANCE","1952","259654","257996","251862","78943","NA","NA","NA","NA","259644","258493","NA","257496","NA","257485","259644","1967","260055","NA","NA","258654","1952","1952","259046","257485","1952","258654","260055","morph21_Oliver/Morris","28","19767","50","yes","1280","5"
"400","54.9019607843","54.9019607843","394.568627451","394.568627451","black","no","xpyriment","legacy","legacy","0","204","NA","uniform","71235","1000","0.0140380430968","0","undefined","0","0","50","50","50","0","50","50","50","NA","50","50","0","50","NA","50","50","0","50","NA","50","NA","50","0","0","50","50","0","50","50","51","z","02/04/19 15:24:22","The main experiment item","yes","FIN__BA__M21__7%3A10%3A17.osexp","C:\Users\ERP Testing Room\Desktop\Joanna\morph21","no","mono","no","18","no","white","no","yes","1080","legacy","50","50","C:/Users/ERP Testing Room/Desktop/Joanna/morph21/subject-157.csv","xpyriment","Kafkaesque Koffka","3.2.5","0","/","NA","NA","NA","NA","space","/","356","NA","NA","NA","NA","76976","356","2","legacy","1024","2","48000","-16","BA_m21","157","odd","NW_L_COMP","BOIL","1952","264463","261296","262955","78943","NA","NA","NA","NA","259644","261793","NA","260796","NA","260788","262944","1967","264863","NA","NA","261955","1952","1952","262346","260788","1952","261955","264863","morph21_Oliver/Morris","28","20123","51","yes","1280","18"
"200","55.7692307692","55.7692307692","393.096153846","393.096153846","black","no","xpyriment","legacy","legacy","0","207","NA","uniform","69035","1000","0.0144854059535","1","undefined","1","0","51","51","51","0","51","51","51","NA","51","51","0","51","NA","51","51","0","51","NA","51","NA","51","0","0","51","51","0","51","51","52","/","02/04/19 15:24:22","The main experiment item","yes","FIN__BA__M21__7%3A10%3A17.osexp","C:\Users\ERP Testing Room\Desktop\Joanna\morph21","no","mono","no","18","no","white","no","yes","1080","legacy","51","51","C:/Users/ERP Testing Room/Desktop/Joanna/morph21/subject-157.csv","xpyriment","Kafkaesque Koffka","3.2.5","0","/","NA","NA","NA","NA","space","/","318","NA","NA","NA","NA","76976","318","2","legacy","1024","2","48000","-16","BA_m21","157","odd","FILL_W","TAX","1952","267680","265980","262955","78943","NA","NA","NA","NA","267677","266477","NA","265480","NA","265475","267677","1967","267880","NA","NA","266688","1952","1952","267080","265475","1952","266688","267880","morph21_Oliver/Morris","29","20441","52","yes","1280","45"
"350","56.6037735849","56.6037735849","391.20754717","391.20754717","black","no","xpyriment","legacy","legacy","0","207","NA","uniform","78139","1000","0.012797706651","1","undefined","1","0","52","52","52","0","52","52","52","NA","52","52","0","52","NA","52","52","0","52","NA","52","NA","52","0","0","52","52","0","52","52","53","/","02/04/19 15:24:22","The main experiment item","yes","FIN__BA__M21__7%3A10%3A17.osexp","C:\Users\ERP Testing Room\Desktop\Joanna\morph21","no","mono","no","18","no","white","no","yes","1080","legacy","52","52","C:/Users/ERP Testing Room/Desktop/Joanna/morph21/subject-157.csv","xpyriment","Kafkaesque Koffka","3.2.5","0","/","NA","NA","NA","NA","space","/","293","NA","NA","NA","NA","76976","293","2","legacy","1024","2","48000","-16","BA_m21","157","odd","FILL_W","WEIRD","1952","270706","269030","262955","78943","NA","NA","NA","NA","270701","269527","NA","268530","NA","268517","270701","1967","271056","NA","NA","269706","1952","1952","270106","268517","1952","269706","271056","morph21_Oliver/Morris","30","20734","53","yes","1280","2"
"400","57.4074074074","57.4074074074","389.740740741","389.740740741","black","no","xpyriment","legacy","legacy","0","207","NA","uniform","73049","1000","0.0136894413339","1","undefined","1","0","53","53","53","0","53","53","53","NA","53","53","0","53","NA","53","53","0","53","NA","53","NA","53","0","0","53","53","0","53","53","54","/","02/04/19 15:24:22","The main experiment item","yes","FIN__BA__M21__7%3A10%3A17.osexp","C:\Users\ERP Testing Room\Desktop\Joanna\morph21","no","mono","no","18","no","white","no","yes","1080","legacy","53","53","C:/Users/ERP Testing Room/Desktop/Joanna/morph21/subject-157.csv","xpyriment","Kafkaesque Koffka","3.2.5","0","/","NA","NA","NA","NA","space","/","312","NA","NA","NA","NA","76976","312","2","legacy","1024","2","48000","-16","BA_m21","157","odd","FILL_W","DRUNK","1952","275348","272173","273839","78943","NA","NA","NA","NA","273829","272670","NA","271673","NA","271668","273829","1967","275748","NA","NA","272839","1952","1952","273231","271668","1952","272839","275748","morph21_Oliver/Morris","31","21046","54","yes","1280","19"
"400","56.3636363636","56.3636363636","388.836363636","388.836363636","black","no","xpyriment","legacy","legacy","0","205","NA","uniform","74633","1000","0.0133988986105","0","undefined","0","0","54","54","54","0","54","54","54","NA","54","54","0","54","NA","54","54","0","54","NA","54","NA","54","0","0","54","54","0","54","54","55","z","02/04/19 15:24:22","The main experiment item","yes","FIN__BA__M21__7%3A10%3A17.osexp","C:\Users\ERP Testing Room\Desktop\Joanna\morph21","no","mono","no","18","no","white","no","yes","1080","legacy","54","54","C:/Users/ERP Testing Room/Desktop/Joanna/morph21/subject-157.csv","xpyriment","Kafkaesque Koffka","3.2.5","0","/","NA","NA","NA","NA","space","/","340","NA","NA","NA","NA","76976","340","2","legacy","1024","2","48000","-16","BA_m21","157","odd","NW_S_SIMP","ADVERTISELY","1952","278523","276873","273839","78943","NA","NA","NA","NA","273829","277370","NA","276373","NA","276367","278517","1967","278923","NA","NA","277523","1952","1952","277915","276367","1952","277523","278923","morph21_Oliver/Morris","31","21386","55","yes","1280","25"
"250","55.3571428571","55.3571428571","388.517857143","388.517857143","black","no","xpyriment","legacy","legacy","0","203","NA","uniform","59918","1000","0.0166894756167","0","undefined","0","0","55","55","55","0","55","55","55","NA","55","55","0","55","NA","55","55","0","55","NA","55","NA","55","0","0","55","55","0","55","55","56","z","02/04/19 15:24:22","The main experiment item","yes","FIN__BA__M21__7%3A10%3A17.osexp","C:\Users\ERP Testing Room\Desktop\Joanna\morph21","no","mono","no","18","no","white","no","yes","1080","legacy","55","55","C:/Users/ERP Testing Room/Desktop/Joanna/morph21/subject-157.csv","xpyriment","Kafkaesque Koffka","3.2.5","0","/","NA","NA","NA","NA","space","/","371","NA","NA","NA","NA","76976","371","2","legacy","1024","2","48000","-16","BA_m21","157","odd","NW_S_COMP","BRANCHEL","1952","281731","280056","273839","78943","NA","NA","NA","NA","273829","280553","NA","279556","NA","279553","281727","1967","281981","NA","NA","280740","1952","1952","281131","279553","1952","280740","281981","morph21_Oliver/Morris","31","21757","56","yes","1280","16"
"400","54.3859649123","54.3859649123","387.01754386","387.01754386","black","no","xpyriment","legacy","legacy","0","206","NA","uniform","75664","1000","0.0132163248044","0","undefined","0","0","56","56","56","0","56","56","56","NA","56","56","0","56","NA","56","56","0","56","NA","56","NA","56","0","0","56","56","0","56","56","57","z","02/04/19 15:24:22","The main experiment item","yes","FIN__BA__M21__7%3A10%3A17.osexp","C:\Users\ERP Testing Room\Desktop\Joanna\morph21","no","mono","no","18","no","white","no","yes","1080","legacy","56","56","C:/Users/ERP Testing Room/Desktop/Joanna/morph21/subject-157.csv","xpyriment","Kafkaesque Koffka","3.2.5","0","/","NA","NA","NA","NA","space","/","303","NA","NA","NA","NA","76976","303","2","legacy","1024","2","48000","-16","BA_m21","157","odd","NW_L_SIMP","BOGARY","1952","286340","283148","284831","78943","NA","NA","NA","NA","273829","283645","NA","282648","NA","282639","284825","1967","286740","NA","NA","283831","1952","1952","284223","282639","1952","283831","286740","morph21_Oliver/Morris","31","22060","57","yes","1280","2"
"200","53.4482758621","53.4482758621","386.396551724","386.396551724","black","no","xpyriment","legacy","legacy","0","208","NA","uniform","75270","1000","0.0132855055135","0","undefined","0","0","57","57","57","0","57","57","57","NA","57","57","0","57","NA","57","57","0","57","NA","57","NA","57","0","0","57","57","0","57","57","58","z","02/04/19 15:24:22","The main experiment item","yes","FIN__BA__M21__7%3A10%3A17.osexp","C:\Users\ERP Testing Room\Desktop\Joanna\morph21","no","mono","no","18","no","white","no","yes","1080","legacy","57","57","C:/Users/ERP Testing Room/Desktop/Joanna/morph21/subject-157.csv","xpyriment","Kafkaesque Koffka","3.2.5","0","/","NA","NA","NA","NA","space","/","351","NA","NA","NA","NA","76976","351","2","legacy","1024","2","48000","-16","BA_m21","157","odd","FILL_NW","TUEER","1952","289624","287958","284831","78943","NA","NA","NA","NA","273829","288455","NA","287458","NA","287453","289621","1967","289825","NA","NA","288624","1952","1952","289024","287453","1952","288624","289825","morph21_Oliver/Morris","31","22411","58","yes","1280","44"
"250","54.2372881356","54.2372881356","385.559322034","385.559322034","black","no","xpyriment","legacy","legacy","0","201","NA","uniform","78373","1000","0.0127594962551","1","undefined","1","0","58","58","58","0","58","58","58","NA","58","58","0","58","NA","58","58","0","58","NA","58","NA","58","0","0","58","58","0","58","58","59","/","02/04/19 15:24:22","The main experiment item","yes","FIN__BA__M21__7%3A10%3A17.osexp","C:\Users\ERP Testing Room\Desktop\Joanna\morph21","no","mono","no","18","no","white","no","yes","1080","legacy","58","58","C:/Users/ERP Testing Room/Desktop/Joanna/morph21/subject-157.csv","xpyriment","Kafkaesque Koffka","3.2.5","0","/","NA","NA","NA","NA","space","/","337","NA","NA","NA","NA","76976","337","2","legacy","1024","2","48000","-16","BA_m21","157","odd","CW_S","MOSSY","1952","292750","291033","284831","78943","NA","NA","NA","NA","292745","291530","NA","290525","NA","290513","292745","1967","293000","NA","NA","291758","1952","1952","292149","290513","1952","291758","293000","morph21_Oliver/Morris","32","22748","59","yes","1280","47"
"200","53.3333333333","53.3333333333","384.366666667","384.366666667","black","no","xpyriment","legacy","legacy","0","203","NA","uniform","71927","1000","0.0139029849709","0","undefined","0","0","59","59","59","0","59","59","59","NA","59","59","0","59","NA","59","59","0","59","NA","59","NA","59","0","0","59","59","0","59","59","60","z","02/04/19 15:24:22","The main experiment item","yes","FIN__BA__M21__7%3A10%3A17.osexp","C:\Users\ERP Testing Room\Desktop\Joanna\morph21","no","mono","no","18","no","white","no","yes","1080","legacy","59","59","C:/Users/ERP Testing Room/Desktop/Joanna/morph21/subject-157.csv","xpyriment","Kafkaesque Koffka","3.2.5","0","/","NA","NA","NA","NA","space","/","314","NA","NA","NA","NA","76976","314","2","legacy","1024","2","48000","-16","BA_m21","157","odd","NW_S_COMP","ELMILT","1952","297241","294075","295733","78943","NA","NA","NA","NA","292745","294572","NA","293575","NA","293571","295730","1967","297442","NA","NA","294741","1952","1952","295133","293571","1952","294741","297442","morph21_Oliver/Morris","32","23062","60","yes","1280","10"
"350","54.0983606557","54.0983606557","384.016393443","384.016393443","black","no","xpyriment","legacy","legacy","0","201","NA","uniform","78696","1000","0.0127071261563","1","undefined","1","0","60","60","60","0","60","60","60","NA","60","60","0","60","NA","60","60","0","60","NA","60","NA","60","0","0","60","60","0","60","60","61","/","02/04/19 15:24:22","The main experiment item","yes","FIN__BA__M21__7%3A10%3A17.osexp","C:\Users\ERP Testing Room\Desktop\Joanna\morph21","no","mono","no","18","no","white","no","yes","1080","legacy","60","60","C:/Users/ERP Testing Room/Desktop/Joanna/morph21/subject-157.csv","xpyriment","Kafkaesque Koffka","3.2.5","0","/","NA","NA","NA","NA","space","/","363","NA","NA","NA","NA","76976","363","2","legacy","1024","2","48000","-16","BA_m21","157","odd","CW_S","RICHNESS","1952","300275","298608","295733","78943","NA","NA","NA","NA","300270","299105","NA","298108","NA","298102","300270","1967","300625","NA","NA","299275","1952","1952","299675","298102","1952","299275","300625","morph21_Oliver/Morris","33","23425","61","yes","1280","45"
"300","54.8387096774","54.8387096774","385.129032258","385.129032258","black","no","xpyriment","legacy","legacy","0","204","NA","uniform","69333","1000","0.0144231462651","1","undefined","1","0","61","61","61","0","61","61","61","NA","61","61","0","61","NA","61","61","0","61","NA","61","NA","61","0","0","61","61","0","61","61","62","z","02/04/19 15:24:22","The main experiment item","yes","FIN__BA__M21__7%3A10%3A17.osexp","C:\Users\ERP Testing Room\Desktop\Joanna\morph21","no","mono","no","18","no","white","no","yes","1080","legacy","61","61","C:/Users/ERP Testing Room/Desktop/Joanna/morph21/subject-157.csv","xpyriment","Kafkaesque Koffka","3.2.5","0","z","NA","NA","NA","NA","space","z","453","NA","NA","NA","NA","76976","453","2","legacy","1024","2","48000","-16","BA_m21","157","odd","NW_L_COMP","FELLOWOES","1952","303433","301767","295733","78943","NA","NA","NA","NA","303427","302264","NA","301267","NA","301258","303427","1967","303733","NA","NA","302433","1952","1952","302825","301258","1952","302433","303733","morph21_Oliver/Morris","34","23878","62","yes","1280","17"
"250","55.5555555556","55.5555555556","384.841269841","384.841269841","black","no","xpyriment","legacy","legacy","0","201","NA","uniform","66096","1000","0.0151295085936","1","undefined","1","0","62","62","62","0","62","62","62","NA","62","62","0","62","NA","62","62","0","62","NA","62","NA","62","0","0","62","62","0","62","62","63","/","02/04/19 15:24:22","The main experiment item","yes","FIN__BA__M21__7%3A10%3A17.osexp","C:\Users\ERP Testing Room\Desktop\Joanna\morph21","no","mono","no","18","no","white","no","yes","1080","legacy","62","62","C:/Users/ERP Testing Room/Desktop/Joanna/morph21/subject-157.csv","xpyriment","Kafkaesque Koffka","3.2.5","0","/","NA","NA","NA","NA","space","/","367","NA","NA","NA","NA","76976","367","2","legacy","1024","2","48000","-16","BA_m21","157","odd","CW_S","JAILER","1952","308285","305093","306776","78943","NA","NA","NA","NA","306768","305590","NA","304593","NA","304582","306768","1967","308535","NA","NA","305776","1952","1952","306168","304582","1952","305776","308535","morph21_Oliver/Morris","35","24245","63","yes","1280","13"
"200","54.6875","54.6875","384.453125","384.453125","black","no","xpyriment","legacy","legacy","0","208","NA","uniform","76794","1000","0.0130218506654","0","undefined","0","0","63","63","63","0","63","63","63","NA","63","63","0","63","NA","63","63","0","63","NA","63","NA","63","0","0","63","63","0","63","63","64","z","02/04/19 15:24:22","The main experiment item","yes","FIN__BA__M21__7%3A10%3A17.osexp","C:\Users\ERP Testing Room\Desktop\Joanna\morph21","no","mono","no","18","no","white","no","yes","1080","legacy","63","63","C:/Users/ERP Testing Room/Desktop/Joanna/morph21/subject-157.csv","xpyriment","Kafkaesque Koffka","3.2.5","0","/","NA","NA","NA","NA","space","/","360","NA","NA","NA","NA","76976","360","2","legacy","1024","2","48000","-16","BA_m21","157","odd","FILL_NW","BLAYS","1952","311335","309643","306776","78943","NA","NA","NA","NA","306768","310140","NA","309143","NA","309137","311332","1967","311535","NA","NA","310343","1952","1952","310735","309137","1952","310343","311535","morph21_Oliver/Morris","35","24605","64","yes","1280","8"
"200","55.3846153846","55.3846153846","385.8","385.8","black","no","xpyriment","legacy","legacy","0","205","NA","uniform","73526","1000","0.0136006310693","1","undefined","1","0","64","64","64","0","64","64","64","NA","64","64","0","64","NA","64","64","0","64","NA","64","NA","64","0","0","64","64","0","64","64","65","z","02/04/19 15:24:22","The main experiment item","yes","FIN__BA__M21__7%3A10%3A17.osexp","C:\Users\ERP Testing Room\Desktop\Joanna\morph21","no","mono","no","18","no","white","no","yes","1080","legacy","64","64","C:/Users/ERP Testing Room/Desktop/Joanna/morph21/subject-157.csv","xpyriment","Kafkaesque Koffka","3.2.5","0","z","NA","NA","NA","NA","space","z","472","NA","NA","NA","NA","76976","472","2","legacy","1024","2","48000","-16","BA_m21","157","odd","NW_S_SIMP","JAWLY","1952","314343","312668","306776","78943","NA","NA","NA","NA","314336","313165","NA","312168","NA","312158","314336","1967","314543","NA","NA","313343","1952","1952","313735","312158","1952","313343","314543","morph21_Oliver/Morris","36","25077","65","yes","1280","7"
"350","56.0606060606","56.0606060606","385.712121212","385.712121212","black","no","xpyriment","legacy","legacy","0","202","NA","uniform","68546","1000","0.0145887433256","1","undefined","1","0","65","65","65","0","65","65","65","NA","65","65","0","65","NA","65","65","0","65","NA","65","NA","65","0","0","65","65","0","65","65","66","/","02/04/19 15:24:22","The main experiment item","yes","FIN__BA__M21__7%3A10%3A17.osexp","C:\Users\ERP Testing Room\Desktop\Joanna\morph21","no","mono","no","18","no","white","no","yes","1080","legacy","65","65","C:/Users/ERP Testing Room/Desktop/Joanna/morph21/subject-157.csv","xpyriment","Kafkaesque Koffka","3.2.5","0","/","NA","NA","NA","NA","space","/","380","NA","NA","NA","NA","76976","380","2","legacy","1024","2","48000","-16","BA_m21","157","odd","CW_L","PUNCHER","1952","318943","315743","317435","78943","NA","NA","NA","NA","317429","316240","NA","315243","NA","315236","317429","1967","319294","NA","NA","316435","1952","1952","316827","315236","1952","316435","319294","morph21_Oliver/Morris","37","25457","66","yes","1280","1"
"200","55.223880597","55.223880597","385.671641791","385.671641791","black","no","xpyriment","legacy","legacy","0","205","NA","uniform","65987","1000","0.0151545001288","0","undefined","0","0","66","66","66","0","66","66","66","NA","66","66","0","66","NA","66","66","0","66","NA","66","NA","66","0","0","66","66","0","66","66","67","z","02/04/19 15:24:22","The main experiment item","yes","FIN__BA__M21__7%3A10%3A17.osexp","C:\Users\ERP Testing Room\Desktop\Joanna\morph21","no","mono","no","18","no","white","no","yes","1080","legacy","66","66","C:/Users/ERP Testing Room/Desktop/Joanna/morph21/subject-157.csv","xpyriment","Kafkaesque Koffka","3.2.5","0","/","NA","NA","NA","NA","space","/","383","NA","NA","NA","NA","76976","383","2","legacy","1024","2","48000","-16","BA_m21","157","odd","NW_S_SIMP","OPPOSEMENT","1952","322144","320493","317435","78943","NA","NA","NA","NA","317429","320991","NA","319993","NA","319982","322136","1967","322344","NA","NA","321143","1952","1952","321535","319982","1952","321143","322344","morph21_Oliver/Morris","37","25840","67","yes","1280","8"
"400","55.8823529412","55.8823529412","384.544117647","384.544117647","black","no","xpyriment","legacy","legacy","0","207","NA","uniform","80380","1000","0.0124409056979","1","undefined","1","0","67","67","67","0","67","67","67","NA","67","67","0","67","NA","67","67","0","67","NA","67","NA","67","0","0","67","67","0","67","67","68","/","02/04/19 15:24:22","The main experiment item","yes","FIN__BA__M21__7%3A10%3A17.osexp","C:\Users\ERP Testing Room\Desktop\Joanna\morph21","no","mono","no","18","no","white","no","yes","1080","legacy","67","67","C:/Users/ERP Testing Room/Desktop/Joanna/morph21/subject-157.csv","xpyriment","Kafkaesque Koffka","3.2.5","0","/","NA","NA","NA","NA","space","/","309","NA","NA","NA","NA","76976","309","2","legacy","1024","2","48000","-16","BA_m21","157","odd","FILL_W","LITHE","1952","325170","323453","317435","78943","NA","NA","NA","NA","325164","323950","NA","322953","NA","322942","325164","1967","325570","NA","NA","324170","1952","1952","324561","322942","1952","324170","325570","morph21_Oliver/Morris","38","26149","68","yes","1280","23"
"300","56.5217391304","56.5217391304","384.724637681","384.724637681","black","no","xpyriment","legacy","legacy","0","207","NA","uniform","69169","1000","0.0144573436077","1","undefined","1","0","68","68","68","0","68","68","68","NA","68","68","0","68","NA","68","68","0","68","NA","68","NA","68","0","0","68","68","0","68","68","69","/","02/04/19 15:24:22","The main experiment item","yes","FIN__BA__M21__7%3A10%3A17.osexp","C:\Users\ERP Testing Room\Desktop\Joanna\morph21","no","mono","no","18","no","white","no","yes","1080","legacy","68","68","C:/Users/ERP Testing Room/Desktop/Joanna/morph21/subject-157.csv","xpyriment","Kafkaesque Koffka","3.2.5","0","/","NA","NA","NA","NA","space","/","397","NA","NA","NA","NA","76976","397","2","legacy","1024","2","48000","-16","BA_m21","157","odd","FILL_W","BALD","1952","329878","326678","328370","78943","NA","NA","NA","NA","328361","327175","NA","326178","NA","326174","328361","1967","330178","NA","NA","327370","1952","1952","327761","326174","1952","327370","330178","morph21_Oliver/Morris","39","26546","69","yes","1280","3"
"200","57.1428571429","57.1428571429","383.742857143","383.742857143","black","no","xpyriment","legacy","legacy","0","201","NA","uniform","75503","1000","0.0132445068408","1","undefined","1","0","69","69","69","0","69","69","69","NA","69","69","0","69","NA","69","69","0","69","NA","69","NA","69","0","0","69","69","0","69","69","70","/","02/04/19 15:24:22","The main experiment item","yes","FIN__BA__M21__7%3A10%3A17.osexp","C:\Users\ERP Testing Room\Desktop\Joanna\morph21","no","mono","no","18","no","white","no","yes","1080","legacy","69","69","C:/Users/ERP Testing Room/Desktop/Joanna/morph21/subject-157.csv","xpyriment","Kafkaesque Koffka","3.2.5","0","/","NA","NA","NA","NA","space","/","316","NA","NA","NA","NA","76976","316","2","legacy","1024","2","48000","-16","BA_m21","157","odd","CW_S","LISTENER","1952","333003","331295","328370","78943","NA","NA","NA","NA","332998","331792","NA","330786","NA","330782","332998","1967","333203","NA","NA","332003","1952","1952","332403","330782","1952","332003","333203","morph21_Oliver/Morris","40","26862","70","yes","1280","18"
"350","57.7464788732","57.7464788732","383.23943662","383.23943662","black","no","xpyriment","legacy","legacy","0","202","NA","uniform","64636","1000","0.0154712544093","1","undefined","1","0","70","70","70","0","70","70","70","NA","70","70","0","70","NA","70","70","0","70","NA","70","NA","70","0","0","70","70","0","70","70","71","/","02/04/19 15:24:22","The main experiment item","yes","FIN__BA__M21__7%3A10%3A17.osexp","C:\Users\ERP Testing Room\Desktop\Joanna\morph21","no","mono","no","18","no","white","no","yes","1080","legacy","70","70","C:/Users/ERP Testing Room/Desktop/Joanna/morph21/subject-157.csv","xpyriment","Kafkaesque Koffka","3.2.5","0","/","NA","NA","NA","NA","space","/","348","NA","NA","NA","NA","76976","348","2","legacy","1024","2","48000","-16","BA_m21","157","odd","CW_L","BARKER","1952","335970","334303","328370","78943","NA","NA","NA","NA","335966","334800","NA","333803","NA","333793","335966","1967","336320","NA","NA","334978","1952","1952","335370","333793","1952","334978","336320","morph21_Oliver/Morris","41","27210","71","yes","1280","2"
"300","56.9444444444","56.9444444444","382.569444444","382.569444444","black","no","xpyriment","legacy","legacy","0","208","NA","uniform","71826","1000","0.0139225350152","0","undefined","0","0","71","71","71","0","71","71","71","NA","71","71","0","71","NA","71","71","0","71","NA","71","NA","71","0","0","71","71","0","71","71","72","z","02/04/19 15:24:22","The main experiment item","yes","FIN__BA__M21__7%3A10%3A17.osexp","C:\Users\ERP Testing Room\Desktop\Joanna\morph21","no","mono","no","18","no","white","no","yes","1080","legacy","71","71","C:/Users/ERP Testing Room/Desktop/Joanna/morph21/subject-157.csv","xpyriment","Kafkaesque Koffka","3.2.5","0","/","NA","NA","NA","NA","space","/","335","NA","NA","NA","NA","76976","335","2","legacy","1024","2","48000","-16","BA_m21","157","odd","FILL_NW","TREMP","1952","340596","337395","339087","78943","NA","NA","NA","NA","335966","337892","NA","336895","NA","336892","339081","1967","340896","NA","NA","338087","1952","1952","338478","336892","1952","338087","340896","morph21_Oliver/Morris","41","27545","72","yes","1280","20"
"200","57.5342465753","57.5342465753","384.821917808","384.821917808","black","no","xpyriment","legacy","legacy","0","208","NA","uniform","72341","1000","0.0138234196375","1","undefined","1","0","72","72","72","0","72","72","72","NA","72","72","0","72","NA","72","72","0","72","NA","72","NA","72","0","0","72","72","0","72","72","73","z","02/04/19 15:24:22","The main experiment item","yes","FIN__BA__M21__7%3A10%3A17.osexp","C:\Users\ERP Testing Room\Desktop\Joanna\morph21","no","mono","no","18","no","white","no","yes","1080","legacy","72","72","C:/Users/ERP Testing Room/Desktop/Joanna/morph21/subject-157.csv","xpyriment","Kafkaesque Koffka","3.2.5","0","z","NA","NA","NA","NA","space","z","547","NA","NA","NA","NA","76976","547","2","legacy","1024","2","48000","-16","BA_m21","157","odd","FILL_NW","GILN","1952","343780","342130","339087","78943","NA","NA","NA","NA","343772","342627","NA","341630","NA","341624","343772","1967","343980","NA","NA","342780","1952","1952","343171","341624","1952","342780","343980","morph21_Oliver/Morris","42","28092","73","yes","1280","25"
"250","56.7567567568","56.7567567568","385.27027027","385.27027027","black","no","xpyriment","legacy","legacy","0","206","NA","uniform","70313","1000","0.0142221210871","0","undefined","0","0","73","73","73","0","73","73","73","NA","73","73","0","73","NA","73","73","0","73","NA","73","NA","73","0","0","73","73","0","73","73","74","z","02/04/19 15:24:22","The main experiment item","yes","FIN__BA__M21__7%3A10%3A17.osexp","C:\Users\ERP Testing Room\Desktop\Joanna\morph21","no","mono","no","18","no","white","no","yes","1080","legacy","73","73","C:/Users/ERP Testing Room/Desktop/Joanna/morph21/subject-157.csv","xpyriment","Kafkaesque Koffka","3.2.5","0","/","NA","NA","NA","NA","space","/","418","NA","NA","NA","NA","76976","418","2","legacy","1024","2","48000","-16","BA_m21","157","odd","NW_L_SIMP"," DRESSORY","1952","346796","345130","339087","78943","NA","NA","NA","NA","343772","345627","NA","344630","NA","344624","346791","1967","347046","NA","NA","345797","1952","1952","346188","344624","1952","345796","347046","morph21_Oliver/Morris","42","28510","74","yes","1280","21"
"350","57.3333333333","57.3333333333","384.413333333","384.413333333","black","no","xpyriment","legacy","legacy","0","202","NA","uniform","73470","1000","0.0136109976861","undefined","undefined","1","0","74","74","74","0","74","74","74","NA","74","74","0","74","NA","74","74","0","74","NA","74","NA","74","0","0","74","74","0","74","74","75","/","02/04/19 15:24:22","The main experiment item","yes","FIN__BA__M21__7%3A10%3A17.osexp","C:\Users\ERP Testing Room\Desktop\Joanna\morph21","no","mono","no","18","no","white","no","yes","1080","legacy","74","74","C:/Users/ERP Testing Room/Desktop/Joanna/morph21/subject-157.csv","xpyriment","Kafkaesque Koffka","3.2.5","0","space","space","NA","NA","NA","space","/","12230","12230","NA","NA","NA","76976","321","2","legacy","1024","2","48000","-16","BA_m21","157","odd","CW_L","RENTER","1952","351338","348180","349830","78943","351697","NA","NA","NA","349826","348677","NA","347680","NA","347673","349826","1967","363928","NA","NA","348838","1952","1952","349230","347673","1952","348838","351689","morph21_Oliver/Morris","43","28831","75","yes","1280","9"
"300","56.5789473684","56.5789473684","392.368421053","392.368421053","black","no","xpyriment","legacy","legacy","0","205","NA","uniform","54283","1000","0.0184219737303","0","undefined","0","0","75","75","75","0","75","75","75","NA","75","75","0","75","NA","75","75","0","75","NA","75","NA","75","0","0","75","75","0","75","75","76","z","02/04/19 15:24:22","The main experiment item","yes","FIN__BA__M21__7%3A10%3A17.osexp","C:\Users\ERP Testing Room\Desktop\Joanna\morph21","no","mono","no","18","no","white","no","yes","1080","legacy","75","75","C:/Users/ERP Testing Room/Desktop/Joanna/morph21/subject-157.csv","xpyriment","Kafkaesque Koffka","3.2.5","0","None","space","NA","NA","NA","space","None","989","12230","NA","NA","NA","76976","989","2","legacy","1024","2","48000","-16","BA_m21","157","odd","NW_S_SIMP","WINKITY","1952","366740","365040","349830","78943","351697","NA","NA","NA","349826","365537","NA","364540","NA","364529","366729","1967","367040","NA","NA","365740","1952","1952","366132","364529","1952","365740","367040","morph21_Oliver/Morris","43","29820","76","yes","1280","21"
"200","57.1428571429","57.1428571429","390.87012987","390.87012987","black","no","xpyriment","legacy","legacy","0","207","NA","uniform","76055","1000","0.0131483794622","1","undefined","1","0","76","76","76","0","76","76","76","NA","76","76","0","76","NA","76","76","0","76","NA","76","NA","76","0","0","76","76","0","76","76","77","/","02/04/19 15:24:22","The main experiment item","yes","FIN__BA__M21__7%3A10%3A17.osexp","C:\Users\ERP Testing Room\Desktop\Joanna\morph21","no","mono","no","18","no","white","no","yes","1080","legacy","76","76","C:/Users/ERP Testing Room/Desktop/Joanna/morph21/subject-157.csv","xpyriment","Kafkaesque Koffka","3.2.5","0","/","space","NA","NA","NA","space","/","277","12230","NA","NA","NA","76976","277","2","legacy","1024","2","48000","-16","BA_m21","157","odd","FILL_W","STALK","1952","369873","368215","349830","78943","351697","NA","NA","NA","369864","368712","NA","367715","NA","367708","369864","1967","370073","NA","NA","368874","1952","1952","369265","367708","1952","368873","370073","morph21_Oliver/Morris","44","30097","77","yes","1280","27"
"300","57.6923076923","57.6923076923","390.948717949","390.948717949","black","no","xpyriment","legacy","legacy","0","206","NA","uniform","75196","1000","0.0132985797117","1","undefined","1","0","77","77","77","0","77","77","77","NA","77","77","0","77","NA","77","77","0","77","NA","77","NA","77","0","0","77","77","0","77","77","78","z","02/04/19 15:24:22","The main experiment item","yes","FIN__BA__M21__7%3A10%3A17.osexp","C:\Users\ERP Testing Room\Desktop\Joanna\morph21","no","mono","no","18","no","white","no","yes","1080","legacy","77","77","C:/Users/ERP Testing Room/Desktop/Joanna/morph21/subject-157.csv","xpyriment","Kafkaesque Koffka","3.2.5","0","z","space","NA","NA","NA","space","z","397","12230","NA","NA","NA","76976","397","2","legacy","1024","2","48000","-16","BA_m21","157","odd","NW_L_SIMP","BEANISH","1952","374358","371174","372849","78943","351697","NA","NA","NA","372840","371671","NA","370674","NA","370669","372840","1967","374658","NA","NA","371849","1952","1952","372240","370669","1952","371849","374658","morph21_Oliver/Morris","45","30494","78","yes","1280","8"
"350","58.2278481013","58.2278481013","391.46835443","391.46835443","black","no","xpyriment","legacy","legacy","0","202","NA","uniform","72287","1000","0.0138337460401","1","undefined","1","0","78","78","78","0","78","78","78","NA","78","78","0","78","NA","78","78","0","78","NA","78","NA","78","0","0","78","78","0","78","78","79","/","02/04/19 15:24:22","The main experiment item","yes","FIN__BA__M21__7%3A10%3A17.osexp","C:\Users\ERP Testing Room\Desktop\Joanna\morph21","no","mono","no","18","no","white","no","yes","1080","legacy","78","78","C:/Users/ERP Testing Room/Desktop/Joanna/morph21/subject-157.csv","xpyriment","Kafkaesque Koffka","3.2.5","0","/","space","NA","NA","NA","space","/","432","12230","NA","NA","NA","76976","432","2","legacy","1024","2","48000","-16","BA_m21","157","odd","CW_L","BOMBER","1952","377383","375733","372849","78943","351697","NA","NA","NA","377377","376230","NA","375233","NA","375224","377377","1967","377733","NA","NA","376383","1952","1952","376775","375224","1952","376383","377733","morph21_Oliver/Morris","46","30926","79","yes","1280","7"
"350","58.75","58.75","390.3875","390.3875","black","no","xpyriment","legacy","legacy","0","201","NA","uniform","73266","1000","0.0136488958043","1","undefined","1","0","79","79","79","0","79","79","79","NA","79","79","0","79","NA","79","79","0","79","NA","79","NA","79","0","0","79","79","0","79","79","80","/","02/04/19 15:24:22","The main experiment item","yes","FIN__BA__M21__7%3A10%3A17.osexp","C:\Users\ERP Testing Room\Desktop\Joanna\morph21","no","mono","no","18","no","white","no","yes","1080","legacy","79","79","C:/Users/ERP Testing Room/Desktop/Joanna/morph21/subject-157.csv","xpyriment","Kafkaesque Koffka","3.2.5","0","/","space","NA","NA","NA","space","/","305","12230","NA","NA","NA","76976","305","2","legacy","1024","2","48000","-16","BA_m21","157","odd","CW_S","STRANGENESS","1952","380550","378850","372849","78943","351697","NA","NA","NA","380545","379347","NA","378350","NA","378346","380545","1967","380900","NA","NA","379550","1952","1952","379950","378346","1952","379550","380900","morph21_Oliver/Morris","47","31231","80","yes","1280","46"
"300","59.2592592593","59.2592592593","389.925925926","389.925925926","black","no","xpyriment","legacy","legacy","0","208","NA","uniform","75666","1000","0.0132159754711","1","undefined","1","0","80","80","80","0","80","80","80","NA","80","80","0","80","NA","80","80","0","80","NA","80","NA","80","0","0","80","80","0","80","80","81","z","02/04/19 15:24:22","The main experiment item","yes","FIN__BA__M21__7%3A10%3A17.osexp","C:\Users\ERP Testing Room\Desktop\Joanna\morph21","no","mono","no","18","no","white","no","yes","1080","legacy","80","80","C:/Users/ERP Testing Room/Desktop/Joanna/morph21/subject-157.csv","xpyriment","Kafkaesque Koffka","3.2.5","0","z","space","NA","NA","NA","space","z","353","12230","NA","NA","NA","76976","353","2","legacy","1024","2","48000","-16","BA_m21","157","odd","FILL_NW","KEMT","1952","385267","382100","383758","78943","351697","NA","NA","NA","383754","382597","NA","381600","NA","381588","383754","1967","385567","NA","NA","382758","1952","1952","383158","381588","1952","382758","385567","morph21_Oliver/Morris","48","31584","81","yes","1280","32"
"300","59.756097561","59.756097561","389.048780488","389.048780488","black","no","xpyriment","legacy","legacy","0","201","NA","uniform","75459","1000","0.0132522296876","1","undefined","1","0","81","81","81","0","81","81","81","NA","81","81","0","81","NA","81","81","0","81","NA","81","NA","81","0","0","81","81","0","81","81","82","/","02/04/19 15:24:22","The main experiment item","yes","FIN__BA__M21__7%3A10%3A17.osexp","C:\Users\ERP Testing Room\Desktop\Joanna\morph21","no","mono","no","18","no","white","no","yes","1080","legacy","81","81","C:/Users/ERP Testing Room/Desktop/Joanna/morph21/subject-157.csv","xpyriment","Kafkaesque Koffka","3.2.5","0","/","space","NA","NA","NA","space","/","318","12230","NA","NA","NA","76976","318","2","legacy","1024","2","48000","-16","BA_m21","157","odd","CW_S","RISKY","1952","388425","386767","383758","78943","351697","NA","NA","NA","388421","387264","NA","386267","NA","386262","388421","1967","388725","NA","NA","387425","1952","1952","387825","386262","1952","387425","388725","morph21_Oliver/Morris","49","31902","82","yes","1280","50"
"350","60.2409638554","60.2409638554","388.614457831","388.614457831","black","no","xpyriment","legacy","legacy","0","207","NA","uniform","66961","1000","0.0149340660982","1","undefined","1","0","82","82","82","0","82","82","82","NA","82","82","0","82","NA","82","82","0","82","NA","82","NA","82","0","0","82","82","0","82","82","83","/","02/04/19 15:24:22","The main experiment item","yes","FIN__BA__M21__7%3A10%3A17.osexp","C:\Users\ERP Testing Room\Desktop\Joanna\morph21","no","mono","no","18","no","white","no","yes","1080","legacy","82","82","C:/Users/ERP Testing Room/Desktop/Joanna/morph21/subject-157.csv","xpyriment","Kafkaesque Koffka","3.2.5","0","/","space","NA","NA","NA","space","/","353","12230","NA","NA","NA","76976","353","2","legacy","1024","2","48000","-16","BA_m21","157","odd","FILL_W","FOLLOW","1952","391500","389850","383758","78943","351697","NA","NA","NA","391496","390347","NA","389350","NA","389340","391496","1967","391850","NA","NA","390509","1952","1952","390900","389340","1952","390509","391850","morph21_Oliver/Morris","50","32255","83","yes","1280","17"
"350","60.7142857143","60.7142857143","387.654761905","387.654761905","black","no","xpyriment","legacy","legacy","0","201","NA","uniform","75358","1000","0.0132699912418","1","undefined","1","0","83","83","83","0","83","83","83","NA","83","83","0","83","NA","83","83","0","83","NA","83","NA","83","0","0","83","83","0","83","83","84","/","02/04/19 15:24:22","The main experiment item","yes","FIN__BA__M21__7%3A10%3A17.osexp","C:\Users\ERP Testing Room\Desktop\Joanna\morph21","no","mono","no","18","no","white","no","yes","1080","legacy","83","83","C:/Users/ERP Testing Room/Desktop/Joanna/morph21/subject-157.csv","xpyriment","Kafkaesque Koffka","3.2.5","0","/","space","NA","NA","NA","space","/","308","12230","NA","NA","NA","76976","308","2","legacy","1024","2","48000","-16","BA_m21","157","odd","CW_S","SINGER","1952","396152","392976","394643","78943","351697","NA","NA","NA","394636","393474","NA","392476","NA","392469","394636","1967","396502","NA","NA","393643","1952","1952","394035","392469","1952","393643","396502","morph21_Oliver/Morris","51","32563","84","yes","1280","17"
"250","61.1764705882","61.1764705882","388.894117647","388.894117647","black","no","xpyriment","legacy","legacy","0","208","NA","uniform","69818","1000","0.014322953966","1","undefined","1","0","84","84","84","0","84","84","84","NA","84","84","0","84","NA","84","84","0","84","NA","84","NA","84","0","0","84","84","0","84","84","85","z","02/04/19 15:24:22","The main experiment item","yes","FIN__BA__M21__7%3A10%3A17.osexp","C:\Users\ERP Testing Room\Desktop\Joanna\morph21","no","mono","no","18","no","white","no","yes","1080","legacy","84","84","C:/Users/ERP Testing Room/Desktop/Joanna/morph21/subject-157.csv","xpyriment","Kafkaesque Koffka","3.2.5","0","z","space","NA","NA","NA","space","z","493","12230","NA","NA","NA","76976","493","2","legacy","1024","2","48000","-16","BA_m21","157","odd","FILL_NW","PLAODS","1952","399410","397693","394643","78943","351697","NA","NA","NA","399404","398190","NA","397193","NA","397187","399404","1967","399660","NA","NA","398410","1952","1952","398802","397187","1952","398410","399660","morph21_Oliver/Morris","52","33056","85","yes","1280","37"
"350","60.4651162791","60.4651162791","388.348837209","388.348837209","black","no","xpyriment","legacy","legacy","0","205","NA","uniform","71982","1000","0.0138923619794","0","undefined","0","0","85","85","85","0","85","85","85","NA","85","85","0","85","NA","85","85","0","85","NA","85","NA","85","0","0","85","85","0","85","85","86","z","02/04/19 15:24:22","The main experiment item","yes","FIN__BA__M21__7%3A10%3A17.osexp","C:\Users\ERP Testing Room\Desktop\Joanna\morph21","no","mono","no","18","no","white","no","yes","1080","legacy","85","85","C:/Users/ERP Testing Room/Desktop/Joanna/morph21/subject-157.csv","xpyriment","Kafkaesque Koffka","3.2.5","0","/","space","NA","NA","NA","space","/","342","12230","NA","NA","NA","76976","342","2","legacy","1024","2","48000","-16","BA_m21","157","odd","NW_S_SIMP","BASKORY","1952","402585","400885","394643","78943","351697","NA","NA","NA","399404","401382","NA","400385","NA","400377","402582","1967","402935","NA","NA","401593","1952","1952","401985","400377","1952","401593","402935","morph21_Oliver/Morris","52","33398","86","yes","1280","10"
"400","60.9195402299","60.9195402299","387.252873563","387.252873563","black","no","xpyriment","legacy","legacy","0","202","NA","uniform","64429","1000","0.0155209610579","1","undefined","1","0","86","86","86","0","86","86","86","NA","86","86","0","86","NA","86","86","0","86","NA","86","NA","86","0","0","86","86","0","86","86","87","/","02/04/19 15:24:22","The main experiment item","yes","FIN__BA__M21__7%3A10%3A17.osexp","C:\Users\ERP Testing Room\Desktop\Joanna\morph21","no","mono","no","18","no","white","no","yes","1080","legacy","86","86","C:/Users/ERP Testing Room/Desktop/Joanna/morph21/subject-157.csv","xpyriment","Kafkaesque Koffka","3.2.5","0","/","space","NA","NA","NA","space","/","293","12230","NA","NA","NA","76976","293","2","legacy","1024","2","48000","-16","BA_m21","157","odd","CW_L","SHAPELY","1952","407302","404077","405794","78943","351697","NA","NA","NA","405787","404574","NA","403569","NA","403557","405787","1967","407702","NA","NA","404794","1952","1952","405185","403557","1952","404794","407702","morph21_Oliver/Morris","53","33691","87","yes","1280","35"
"250","61.3636363636","61.3636363636","386.477272727","386.477272727","black","no","xpyriment","legacy","legacy","0","201","NA","uniform","73463","1000","0.0136122946245","1","undefined","1","0","87","87","87","0","87","87","87","NA","87","87","0","87","NA","87","87","0","87","NA","87","NA","87","0","0","87","87","0","87","87","88","/","02/04/19 15:24:22","The main experiment item","yes","FIN__BA__M21__7%3A10%3A17.osexp","C:\Users\ERP Testing Room\Desktop\Joanna\morph21","no","mono","no","18","no","white","no","yes","1080","legacy","87","87","C:/Users/ERP Testing Room/Desktop/Joanna/morph21/subject-157.csv","xpyriment","Kafkaesque Koffka","3.2.5","0","/","space","NA","NA","NA","space","/","319","12230","NA","NA","NA","76976","319","2","legacy","1024","2","48000","-16","BA_m21","157","odd","CW_S","TOSSING","1952","410528","408844","405794","78943","351697","NA","NA","NA","410522","409341","NA","408344","NA","408333","410522","1967","410778","NA","NA","409528","1952","1952","409920","408333","1952","409528","410778","morph21_Oliver/Morris","54","34010","88","yes","1280","26"
"350","61.797752809","61.797752809","385.505617978","385.505617978","black","no","xpyriment","legacy","legacy","0","208","NA","uniform","74261","1000","0.0134660185023","1","undefined","1","0","88","88","88","0","88","88","88","NA","88","88","0","88","NA","88","88","0","88","NA","88","NA","88","0","0","88","88","0","88","88","89","z","02/04/19 15:24:22","The main experiment item","yes","FIN__BA__M21__7%3A10%3A17.osexp","C:\Users\ERP Testing Room\Desktop\Joanna\morph21","no","mono","no","18","no","white","no","yes","1080","legacy","88","88","C:/Users/ERP Testing Room/Desktop/Joanna/morph21/subject-157.csv","xpyriment","Kafkaesque Koffka","3.2.5","0","z","space","NA","NA","NA","space","z","300","12230","NA","NA","NA","76976","300","2","legacy","1024","2","48000","-16","BA_m21","157","odd","FILL_NW","DARF","1952","413603","411920","405794","78943","351697","NA","NA","NA","413593","412417","NA","411420","NA","411412","413593","1967","413953","NA","NA","412603","1952","1952","412995","411412","1952","412603","413953","morph21_Oliver/Morris","55","34310","89","yes","1280","10"
"350","62.2222222222","62.2222222222","385.088888889","385.088888889","black","no","xpyriment","legacy","legacy","0","201","NA","uniform","76076","1000","0.0131447499869","1","undefined","1","0","89","89","89","0","89","89","89","NA","89","89","0","89","NA","89","89","0","89","NA","89","NA","89","0","0","89","89","0","89","89","90","/","02/04/19 15:24:22","The main experiment item","yes","FIN__BA__M21__7%3A10%3A17.osexp","C:\Users\ERP Testing Room\Desktop\Joanna\morph21","no","mono","no","18","no","white","no","yes","1080","legacy","89","89","C:/Users/ERP Testing Room/Desktop/Joanna/morph21/subject-157.csv","xpyriment","Kafkaesque Koffka","3.2.5","0","/","space","NA","NA","NA","space","/","348","12230","NA","NA","NA","76976","348","2","legacy","1024","2","48000","-16","BA_m21","157","odd","CW_S","TOASTER","1952","418295","415128","416787","78943","351697","NA","NA","NA","416784","415626","NA","414628","NA","414624","416784","1967","418645","NA","NA","415787","1952","1952","416187","414624","1952","415787","418645","morph21_Oliver/Morris","56","34658","90","yes","1280","10"
