"ITI","acc","accuracy","average_response_time","avg_rt","background","bidi","canvas_backend","clock_backend","color_backend","compensation","cond_trig","condtrigtime","coordinates","coroutines_cycles","coroutines_duration","coroutines_mean_cycle_duration","correct","correct_instructions_1","correct_new_keyboard_response_1","count_BA_m21","count_ITI","count_blank_screen","count_blink_screen","count_block1","count_break1","count_break2","count_break3_1","count_canvas","count_correct_trigger","count_def_chain","count_end_screen","count_fixation_1","count_getting_started","count_inc_counter","count_incorrect_trigger","count_instructions_1","count_logger","count_logscript","count_new_coroutines","count_new_inline_script","count_new_keyboard_response_1","count_reset_counter_prep","count_reset_counter_run","count_responsescreen","count_sequence","count_start_trigger","count_target_present","count_word_trigger","counter","cresp","datetime","description","disable_garbage_collection","experiment_file","experiment_path","font_bold","font_family","font_italic","font_size","font_underline","foreground","form_clicks","fullscreen","height","keyboard_backend","live_row","live_row_block1","logfile","mouse_backend","opensesame_codename","opensesame_version","repeat_cycle","response","response_break1","response_break2","response_break3_1","response_end_screen","response_instructions_1","response_new_keyboard_response_1","response_time","response_time_break1","response_time_break2","response_time_break3_1","response_time_end_screen","response_time_instructions_1","response_time_new_keyboard_response_1","round_decimals","sampler_backend","sound_buf_size","sound_channels","sound_freq","sound_sample_size","start","subject_nr","subject_parity","targ_type","target","time_BA_m21","time_ITI","time_blank_screen","time_blink_screen","time_block1","time_break1","time_break2","time_break3_1","time_canvas","time_correct_trigger","time_def_chain","time_end_screen","time_fixation_1","time_getting_started","time_inc_counter","time_incorrect_trigger","time_instructions_1","time_logger","time_logscript","time_new_inline_script","time_new_keyboard_response_1","time_reset_counter_prep","time_reset_counter_run","time_responsescreen","time_sequence","time_start_trigger","time_target_present","time_word_trigger","title","total_correct","total_response_time","total_responses","uniform_coordinates","width","word_trig"
"400","100","100","726","726","black","no","xpyriment","legacy","legacy","0","201","NA","uniform","63175","1000","0.0158290463","1","undefined","1","0","0","0","0","0","0","0","0","NA","0","0","0","0","NA","0","0","0","0","NA","0","NA","0","0","0","0","0","0","0","0","1","/","07/17/18 15:52:38","The main experiment item","yes","FIN__BA__M21__7%3A10%3A17.osexp","C:\Users\ERP Testing Room\Desktop\Joanna\morph21","no","mono","no","18","no","white","no","yes","1080","legacy","0","0","C:/Users/ERP Testing Room/Desktop/Joanna/morph21/subject-129.csv","xpyriment","Jazzy James","3.1.4","0","/","NA","NA","NA","NA","space","/","726","NA","NA","NA","NA","11886","726","2","legacy","1024","2","48000","-16","BA_m21","129","odd","CW_S","AVOIDABLE","1762","16668","15051","NA","13658","NA","NA","NA","NA","16663","15548","NA","14546","NA","14467","16663","1772","17068","NA","NA","15668","1762","1762","16068","14467","1762","15668","17068","morph21_Oliver/Morris","1","726","1","yes","1280","2"
"350","100","100","751.5","751.5","black","no","xpyriment","legacy","legacy","0","207","NA","uniform","64499","1000","0.0155041163429","1","undefined","1","0","1","1","1","0","1","1","1","NA","1","1","0","1","NA","1","1","0","1","NA","1","NA","1","0","0","1","1","0","1","1","2","/","07/17/18 15:52:38","The main experiment item","yes","FIN__BA__M21__7%3A10%3A17.osexp","C:\Users\ERP Testing Room\Desktop\Joanna\morph21","no","mono","no","18","no","white","no","yes","1080","legacy","1","1","C:/Users/ERP Testing Room/Desktop/Joanna/morph21/subject-129.csv","xpyriment","Jazzy James","3.1.4","0","/","NA","NA","NA","NA","space","/","777","NA","NA","NA","NA","11886","777","2","legacy","1024","2","48000","-16","BA_m21","129","odd","FILL_W","FOLLOW","1762","19968","18385","NA","13658","NA","NA","NA","NA","19963","18882","NA","17885","NA","17882","19963","1772","20318","NA","NA","18968","1762","1762","19368","17882","1762","18968","20318","morph21_Oliver/Morris","2","1503","2","yes","1280","17"
"250","100","100","650.666666667","650.666666667","black","no","xpyriment","legacy","legacy","0","202","NA","uniform","70265","1000","0.0142318366185","1","undefined","1","0","2","2","2","0","2","2","2","NA","2","2","0","2","NA","2","2","0","2","NA","2","NA","2","0","0","2","2","0","2","2","3","/","07/17/18 15:52:38","The main experiment item","yes","FIN__BA__M21__7%3A10%3A17.osexp","C:\Users\ERP Testing Room\Desktop\Joanna\morph21","no","mono","no","18","no","white","no","yes","1080","legacy","2","2","C:/Users/ERP Testing Room/Desktop/Joanna/morph21/subject-129.csv","xpyriment","Jazzy James","3.1.4","0","/","NA","NA","NA","NA","space","/","449","NA","NA","NA","NA","11886","449","2","legacy","1024","2","48000","-16","BA_m21","129","odd","CW_L","FLEXIBLE","1762","24669","21553","23161","13658","NA","NA","NA","NA","23152","22050","NA","21053","NA","21044","23152","1772","24920","NA","NA","22161","1762","1762","22553","21044","1762","22161","24920","morph21_Oliver/Morris","3","1952","3","yes","1280","22"
"350","75","75","735.75","735.75","black","no","xpyriment","legacy","legacy","0","202","NA","uniform","56677","1000","0.0176438414172","0","undefined","0","0","3","3","3","0","3","3","3","NA","3","3","0","3","NA","3","3","0","3","NA","3","NA","3","0","0","3","3","0","3","3","4","/","07/17/18 15:52:38","The main experiment item","yes","FIN__BA__M21__7%3A10%3A17.osexp","C:\Users\ERP Testing Room\Desktop\Joanna\morph21","no","mono","no","18","no","white","no","yes","1080","legacy","3","3","C:/Users/ERP Testing Room/Desktop/Joanna/morph21/subject-129.csv","xpyriment","Jazzy James","3.1.4","0","None","NA","NA","NA","NA","space","None","991","NA","NA","NA","NA","11886","991","2","legacy","1024","2","48000","-16","BA_m21","129","odd","CW_L","BARKER","1762","27719","26119","23161","13658","NA","NA","NA","NA","23152","26617","NA","25619","NA","25615","27711","1772","28070","NA","NA","26719","1762","1762","27111","25615","1762","26719","28070","morph21_Oliver/Morris","3","2943","4","yes","1280","2"
"250","60","60","786.6","786.6","black","no","xpyriment","legacy","legacy","0","201","NA","uniform","56046","1000","0.0178424865289","0","undefined","0","0","4","4","4","0","4","4","4","NA","4","4","0","4","NA","4","4","0","4","NA","4","NA","4","0","0","4","4","0","4","4","5","/","07/17/18 15:52:38","The main experiment item","yes","FIN__BA__M21__7%3A10%3A17.osexp","C:\Users\ERP Testing Room\Desktop\Joanna\morph21","no","mono","no","18","no","white","no","yes","1080","legacy","4","4","C:/Users/ERP Testing Room/Desktop/Joanna/morph21/subject-129.csv","xpyriment","Jazzy James","3.1.4","0","None","NA","NA","NA","NA","space","None","990","NA","NA","NA","NA","11886","990","2","legacy","1024","2","48000","-16","BA_m21","129","odd","CW_S","MILDNESS","1762","30970","29361","23161","13658","NA","NA","NA","NA","23152","29858","NA","28861","NA","28854","30960","1772","31220","NA","NA","29970","1762","1762","30361","28854","1762","29970","31220","morph21_Oliver/Morris","3","3933","5","yes","1280","42"
"250","66.6666666667","66.6666666667","728.5","728.5","black","no","xpyriment","legacy","legacy","0","207","NA","uniform","73935","1000","0.0135253939271","1","undefined","1","0","5","5","5","0","5","5","5","NA","5","5","0","5","NA","5","5","0","5","NA","5","NA","5","0","0","5","5","0","5","5","6","/","07/17/18 15:52:38","The main experiment item","yes","FIN__BA__M21__7%3A10%3A17.osexp","C:\Users\ERP Testing Room\Desktop\Joanna\morph21","no","mono","no","18","no","white","no","yes","1080","legacy","5","5","C:/Users/ERP Testing Room/Desktop/Joanna/morph21/subject-129.csv","xpyriment","Jazzy James","3.1.4","0","/","NA","NA","NA","NA","space","/","438","NA","NA","NA","NA","11886","438","2","legacy","1024","2","48000","-16","BA_m21","129","odd","FILL_W","SOFT","1762","35545","32436","34036","13658","NA","NA","NA","NA","34031","32933","NA","31936","NA","31926","34031","1772","35795","NA","NA","33036","1762","1762","33436","31926","1762","33036","35795","morph21_Oliver/Morris","4","4371","6","yes","1280","43"
"350","71.4285714286","71.4285714286","701.142857143","701.142857143","black","no","xpyriment","legacy","legacy","0","202","NA","uniform","67541","1000","0.0148058216491","1","undefined","1","0","6","6","6","0","6","6","6","NA","6","6","0","6","NA","6","6","0","6","NA","6","NA","6","0","0","6","6","0","6","6","7","/","07/17/18 15:52:38","The main experiment item","yes","FIN__BA__M21__7%3A10%3A17.osexp","C:\Users\ERP Testing Room\Desktop\Joanna\morph21","no","mono","no","18","no","white","no","yes","1080","legacy","6","6","C:/Users/ERP Testing Room/Desktop/Joanna/morph21/subject-129.csv","xpyriment","Jazzy James","3.1.4","0","/","NA","NA","NA","NA","space","/","537","NA","NA","NA","NA","11886","537","2","legacy","1024","2","48000","-16","BA_m21","129","odd","CW_L","PUNCHER","1762","38729","37103","34036","13658","NA","NA","NA","NA","38719","37600","NA","36603","NA","36595","38719","1772","39079","NA","NA","37728","1762","1762","38120","36594","1762","37728","39079","morph21_Oliver/Morris","5","4908","7","yes","1280","1"
"300","75","75","712.125","712.125","black","no","xpyriment","legacy","legacy","0","205","NA","uniform","66828","1000","0.0149637876339","1","undefined","1","0","7","7","7","0","7","7","7","NA","7","7","0","7","NA","7","7","0","7","NA","7","NA","7","0","0","7","7","0","7","7","8","z","07/17/18 15:52:38","The main experiment item","yes","FIN__BA__M21__7%3A10%3A17.osexp","C:\Users\ERP Testing Room\Desktop\Joanna\morph21","no","mono","no","18","no","white","no","yes","1080","legacy","7","7","C:/Users/ERP Testing Room/Desktop/Joanna/morph21/subject-129.csv","xpyriment","Jazzy James","3.1.4","0","z","NA","NA","NA","NA","space","z","789","NA","NA","NA","NA","11886","789","2","legacy","1024","2","48000","-16","BA_m21","129","odd","NW_S_SIMP","WINKITY","1762","42029","40429","34036","13658","NA","NA","NA","NA","42025","40926","NA","39929","NA","39919","42025","1772","42329","NA","NA","41029","1762","1762","41429","39919","1762","41029","42329","morph21_Oliver/Morris","6","5697","8","yes","1280","21"
"400","77.7777777778","77.7777777778","702.333333333","702.333333333","black","no","xpyriment","legacy","legacy","0","207","NA","uniform","66067","1000","0.0151361496662","1","undefined","1","0","8","8","8","0","8","8","8","NA","8","8","0","8","NA","8","8","0","8","NA","8","NA","8","0","0","8","8","0","8","8","9","/","07/17/18 15:52:38","The main experiment item","yes","FIN__BA__M21__7%3A10%3A17.osexp","C:\Users\ERP Testing Room\Desktop\Joanna\morph21","no","mono","no","18","no","white","no","yes","1080","legacy","8","8","C:/Users/ERP Testing Room/Desktop/Joanna/morph21/subject-129.csv","xpyriment","Jazzy James","3.1.4","0","/","NA","NA","NA","NA","space","/","624","NA","NA","NA","NA","11886","624","2","legacy","1024","2","48000","-16","BA_m21","129","odd","FILL_W","DRUNK","1762","46855","43763","45346","13658","NA","NA","NA","NA","45343","44260","NA","43254","NA","43248","45343","1772","47255","NA","NA","44354","1762","1762","44746","43248","1762","44354","47255","morph21_Oliver/Morris","7","6321","9","yes","1280","19"
"350","80","80","713.9","713.9","black","no","xpyriment","legacy","legacy","0","208","NA","uniform","65334","1000","0.0153059662657","1","undefined","1","0","9","9","9","0","9","9","9","NA","9","9","0","9","NA","9","9","0","9","NA","9","NA","9","0","0","9","9","0","9","9","10","z","07/17/18 15:52:38","The main experiment item","yes","FIN__BA__M21__7%3A10%3A17.osexp","C:\Users\ERP Testing Room\Desktop\Joanna\morph21","no","mono","no","18","no","white","no","yes","1080","legacy","9","9","C:/Users/ERP Testing Room/Desktop/Joanna/morph21/subject-129.csv","xpyriment","Jazzy James","3.1.4","0","z","NA","NA","NA","NA","space","z","818","NA","NA","NA","NA","11886","818","2","legacy","1024","2","48000","-16","BA_m21","129","odd","FILL_NW","JADS","1762","50096","48513","45346","13658","NA","NA","NA","NA","50086","49010","NA","48013","NA","48006","50086","1772","50446","NA","NA","49096","1762","1762","49488","48006","1762","49096","50446","morph21_Oliver/Morris","8","7139","10","yes","1280","31"
"250","81.8181818182","81.8181818182","728.181818182","728.181818182","black","no","xpyriment","legacy","legacy","0","205","NA","uniform","55516","1000","0.0180128251315","1","undefined","1","0","10","10","10","0","10","10","10","NA","10","10","0","10","NA","10","10","0","10","NA","10","NA","10","0","0","10","10","0","10","10","11","z","07/17/18 15:52:38","The main experiment item","yes","FIN__BA__M21__7%3A10%3A17.osexp","C:\Users\ERP Testing Room\Desktop\Joanna\morph21","no","mono","no","18","no","white","no","yes","1080","legacy","10","10","C:/Users/ERP Testing Room/Desktop/Joanna/morph21/subject-129.csv","xpyriment","Jazzy James","3.1.4","0","z","NA","NA","NA","NA","space","z","871","NA","NA","NA","NA","11886","871","2","legacy","1024","2","48000","-16","BA_m21","129","odd","NW_S_SIMP","ZOOMFUL","1762","53338","51713","45346","13658","NA","NA","NA","NA","53332","52210","NA","51213","NA","51209","53332","1772","53588","NA","NA","52338","1762","1762","52730","51209","1762","52338","53588","morph21_Oliver/Morris","9","8010","11","yes","1280","19"
"400","83.3333333333","83.3333333333","742.916666667","742.916666667","black","no","xpyriment","legacy","legacy","0","208","NA","uniform","58653","1000","0.0170494262868","1","undefined","1","0","11","11","11","0","11","11","11","NA","11","11","0","11","NA","11","11","0","11","NA","11","NA","11","0","0","11","11","0","11","11","12","z","07/17/18 15:52:38","The main experiment item","yes","FIN__BA__M21__7%3A10%3A17.osexp","C:\Users\ERP Testing Room\Desktop\Joanna\morph21","no","mono","no","18","no","white","no","yes","1080","legacy","11","11","C:/Users/ERP Testing Room/Desktop/Joanna/morph21/subject-129.csv","xpyriment","Jazzy James","3.1.4","0","z","NA","NA","NA","NA","space","z","905","NA","NA","NA","NA","11886","905","2","legacy","1024","2","48000","-16","BA_m21","129","odd","FILL_NW","CORG","1762","58014","54922","56506","13658","NA","NA","NA","NA","56502","55419","NA","54422","NA","54416","56502","1772","58415","NA","NA","55513","1762","1762","55905","54416","1762","55513","58415","morph21_Oliver/Morris","10","8915","12","yes","1280","7"
"400","84.6153846154","84.6153846154","748.153846154","748.153846154","black","no","xpyriment","legacy","legacy","0","207","NA","uniform","65450","1000","0.0152788388083","1","undefined","1","0","12","12","12","0","12","12","12","NA","12","12","0","12","NA","12","12","0","12","NA","12","NA","12","0","0","12","12","0","12","12","13","/","07/17/18 15:52:38","The main experiment item","yes","FIN__BA__M21__7%3A10%3A17.osexp","C:\Users\ERP Testing Room\Desktop\Joanna\morph21","no","mono","no","18","no","white","no","yes","1080","legacy","12","12","C:/Users/ERP Testing Room/Desktop/Joanna/morph21/subject-129.csv","xpyriment","Jazzy James","3.1.4","0","/","NA","NA","NA","NA","space","/","811","NA","NA","NA","NA","11886","811","2","legacy","1024","2","48000","-16","BA_m21","129","odd","FILL_W","STEEP","1762","61231","59623","56506","13658","NA","NA","NA","NA","61227","60120","NA","59123","NA","59114","61227","1772","61631","NA","NA","60231","1762","1762","60631","59114","1762","60231","61631","morph21_Oliver/Morris","11","9726","13","yes","1280","16"
"300","85.7142857143","85.7142857143","762.571428571","762.571428571","black","no","xpyriment","legacy","legacy","0","205","NA","uniform","56241","1000","0.0177806226774","1","undefined","1","0","13","13","13","0","13","13","13","NA","13","13","0","13","NA","13","13","0","13","NA","13","NA","13","0","0","13","13","0","13","13","14","z","07/17/18 15:52:38","The main experiment item","yes","FIN__BA__M21__7%3A10%3A17.osexp","C:\Users\ERP Testing Room\Desktop\Joanna\morph21","no","mono","no","18","no","white","no","yes","1080","legacy","13","13","C:/Users/ERP Testing Room/Desktop/Joanna/morph21/subject-129.csv","xpyriment","Jazzy James","3.1.4","0","z","NA","NA","NA","NA","space","z","950","NA","NA","NA","NA","11886","950","2","legacy","1024","2","48000","-16","BA_m21","129","odd","NW_S_SIMP","HELMETOUS","1762","64540","62940","56506","13658","NA","NA","NA","NA","64536","63437","NA","62440","NA","62433","64536","1772","64840","NA","NA","63540","1762","1762","63940","62433","1762","63540","64840","morph21_Oliver/Morris","12","10676","14","yes","1280","14"
"400","86.6666666667","86.6666666667","764.733333333","764.733333333","black","no","xpyriment","legacy","legacy","0","208","NA","uniform","62196","1000","0.0160782043861","1","undefined","1","0","14","14","14","0","14","14","14","NA","14","14","0","14","NA","14","14","0","14","NA","14","NA","14","0","0","14","14","0","14","14","15","z","07/17/18 15:52:38","The main experiment item","yes","FIN__BA__M21__7%3A10%3A17.osexp","C:\Users\ERP Testing Room\Desktop\Joanna\morph21","no","mono","no","18","no","white","no","yes","1080","legacy","14","14","C:/Users/ERP Testing Room/Desktop/Joanna/morph21/subject-129.csv","xpyriment","Jazzy James","3.1.4","0","z","NA","NA","NA","NA","space","z","795","NA","NA","NA","NA","11886","795","2","legacy","1024","2","48000","-16","BA_m21","129","odd","FILL_NW","DROES","1762","69323","66215","67815","13658","NA","NA","NA","NA","67810","66712","NA","65715","NA","65703","67810","1772","69723","NA","NA","66815","1762","1762","67215","65703","1762","66815","69723","morph21_Oliver/Morris","13","11471","15","yes","1280","17"
"350","87.5","87.5","756.125","756.125","black","no","xpyriment","legacy","legacy","0","202","NA","uniform","66275","1000","0.015088645794","1","undefined","1","0","15","15","15","0","15","15","15","NA","15","15","0","15","NA","15","15","0","15","NA","15","NA","15","0","0","15","15","0","15","15","16","/","07/17/18 15:52:38","The main experiment item","yes","FIN__BA__M21__7%3A10%3A17.osexp","C:\Users\ERP Testing Room\Desktop\Joanna\morph21","no","mono","no","18","no","white","no","yes","1080","legacy","15","15","C:/Users/ERP Testing Room/Desktop/Joanna/morph21/subject-129.csv","xpyriment","Jazzy James","3.1.4","0","/","NA","NA","NA","NA","space","/","627","NA","NA","NA","NA","11886","627","2","legacy","1024","2","48000","-16","BA_m21","129","odd","CW_L","BOMBER","1762","72582","70982","67815","13658","NA","NA","NA","NA","72575","71479","NA","70482","NA","70476","72575","1772","72932","NA","NA","71582","1762","1762","71973","70476","1762","71582","72932","morph21_Oliver/Morris","14","12098","16","yes","1280","7"
"350","88.2352941176","88.2352941176","748.529411765","748.529411765","black","no","xpyriment","legacy","legacy","0","202","NA","uniform","68445","1000","0.0146102710205","1","undefined","1","0","16","16","16","0","16","16","16","NA","16","16","0","16","NA","16","16","0","16","NA","16","NA","16","0","0","16","16","0","16","16","17","/","07/17/18 15:52:38","The main experiment item","yes","FIN__BA__M21__7%3A10%3A17.osexp","C:\Users\ERP Testing Room\Desktop\Joanna\morph21","no","mono","no","18","no","white","no","yes","1080","legacy","16","16","C:/Users/ERP Testing Room/Desktop/Joanna/morph21/subject-129.csv","xpyriment","Jazzy James","3.1.4","0","/","NA","NA","NA","NA","space","/","627","NA","NA","NA","NA","11886","627","2","legacy","1024","2","48000","-16","BA_m21","129","odd","CW_L","GUILELESS","1762","75766","74158","67815","13658","NA","NA","NA","NA","75764","74655","NA","73658","NA","73653","75764","1772","76116","NA","NA","74775","1762","1762","75166","73653","1762","74775","76116","morph21_Oliver/Morris","15","12725","17","yes","1280","31"
"250","88.8888888889","88.8888888889","743.888888889","743.888888889","black","no","xpyriment","legacy","legacy","0","208","NA","uniform","68946","1000","0.0145041046616","1","undefined","1","0","17","17","17","0","17","17","17","NA","17","17","0","17","NA","17","17","0","17","NA","17","NA","17","0","0","17","17","0","17","17","18","z","07/17/18 15:52:38","The main experiment item","yes","FIN__BA__M21__7%3A10%3A17.osexp","C:\Users\ERP Testing Room\Desktop\Joanna\morph21","no","mono","no","18","no","white","no","yes","1080","legacy","17","17","C:/Users/ERP Testing Room/Desktop/Joanna/morph21/subject-129.csv","xpyriment","Jazzy James","3.1.4","0","z","NA","NA","NA","NA","space","z","665","NA","NA","NA","NA","11886","665","2","legacy","1024","2","48000","-16","BA_m21","129","odd","FILL_NW","BUWL","1762","80550","77441","79041","13658","NA","NA","NA","NA","79034","77938","NA","76941","NA","76937","79034","1772","80800","NA","NA","78041","1762","1762","78433","76937","1762","78041","80800","morph21_Oliver/Morris","16","13390","18","yes","1280","9"
"300","89.4736842105","89.4736842105","739.842105263","739.842105263","black","no","xpyriment","legacy","legacy","0","204","NA","uniform","57038","1000","0.0175321715348","1","undefined","1","0","18","18","18","0","18","18","18","NA","18","18","0","18","NA","18","18","0","18","NA","18","NA","18","0","0","18","18","0","18","18","19","z","07/17/18 15:52:38","The main experiment item","yes","FIN__BA__M21__7%3A10%3A17.osexp","C:\Users\ERP Testing Room\Desktop\Joanna\morph21","no","mono","no","18","no","white","no","yes","1080","legacy","18","18","C:/Users/ERP Testing Room/Desktop/Joanna/morph21/subject-129.csv","xpyriment","Jazzy James","3.1.4","0","z","NA","NA","NA","NA","space","z","667","NA","NA","NA","NA","11886","667","2","legacy","1024","2","48000","-16","BA_m21","129","odd","NW_L_COMP","SHEETEL","1762","83783","82158","79041","13658","NA","NA","NA","NA","83776","82655","NA","81658","NA","81652","83776","1772","84083","NA","NA","82783","1762","1762","83175","81652","1762","82783","84083","morph21_Oliver/Morris","17","14057","19","yes","1280","5"
"400","90","90","729.65","729.65","black","no","xpyriment","legacy","legacy","0","202","NA","uniform","57741","1000","0.0173187163367","1","undefined","1","0","19","19","19","0","19","19","19","NA","19","19","0","19","NA","19","19","0","19","NA","19","NA","19","0","0","19","19","0","19","19","20","/","07/17/18 15:52:38","The main experiment item","yes","FIN__BA__M21__7%3A10%3A17.osexp","C:\Users\ERP Testing Room\Desktop\Joanna\morph21","no","mono","no","18","no","white","no","yes","1080","legacy","19","19","C:/Users/ERP Testing Room/Desktop/Joanna/morph21/subject-129.csv","xpyriment","Jazzy James","3.1.4","0","/","NA","NA","NA","NA","space","/","536","NA","NA","NA","NA","11886","536","2","legacy","1024","2","48000","-16","BA_m21","129","odd","CW_L","FAITHFUL","1762","87058","85433","79041","13658","NA","NA","NA","NA","87049","85930","NA","84933","NA","84925","87049","1772","87458","NA","NA","86058","1762","1762","86450","84925","1762","86058","87458","morph21_Oliver/Morris","18","14593","20","yes","1280","20"
"200","90.4761904762","90.4761904762","727.476190476","727.476190476","black","no","xpyriment","legacy","legacy","0","208","NA","uniform","56848","1000","0.0175907683648","1","undefined","1","0","20","20","20","0","20","20","20","NA","20","20","0","20","NA","20","20","0","20","NA","20","NA","20","0","0","20","20","0","20","20","21","z","07/17/18 15:52:38","The main experiment item","yes","FIN__BA__M21__7%3A10%3A17.osexp","C:\Users\ERP Testing Room\Desktop\Joanna\morph21","no","mono","no","18","no","white","no","yes","1080","legacy","20","20","C:/Users/ERP Testing Room/Desktop/Joanna/morph21/subject-129.csv","xpyriment","Jazzy James","3.1.4","0","z","NA","NA","NA","NA","space","z","684","NA","NA","NA","NA","11886","684","2","legacy","1024","2","48000","-16","BA_m21","129","odd","FILL_NW","HESK","1762","91818","88708","90308","13658","NA","NA","NA","NA","90306","89206","NA","88208","NA","88198","90306","1772","92018","NA","NA","89317","1762","1762","89708","88198","1762","89317","92018","morph21_Oliver/Morris","19","15277","21","yes","1280","29"
"400","90.9090909091","90.9090909091","726.181818182","726.181818182","black","no","xpyriment","legacy","legacy","0","203","NA","uniform","67458","1000","0.0148240386611","1","undefined","1","0","21","21","21","0","21","21","21","NA","21","21","0","21","NA","21","21","0","21","NA","21","NA","21","0","0","21","21","0","21","21","22","z","07/17/18 15:52:38","The main experiment item","yes","FIN__BA__M21__7%3A10%3A17.osexp","C:\Users\ERP Testing Room\Desktop\Joanna\morph21","no","mono","no","18","no","white","no","yes","1080","legacy","21","21","C:/Users/ERP Testing Room/Desktop/Joanna/morph21/subject-129.csv","xpyriment","Jazzy James","3.1.4","0","z","NA","NA","NA","NA","space","z","699","NA","NA","NA","NA","11886","699","2","legacy","1024","2","48000","-16","BA_m21","129","odd","NW_S_COMP","TRUENELS","1762","94943","93360","90308","13658","NA","NA","NA","NA","94935","93857","NA","92860","NA","92855","94935","1772","95343","NA","NA","93943","1762","1762","94335","92855","1762","93943","95343","morph21_Oliver/Morris","20","15976","22","yes","1280","15"
"350","91.3043478261","91.3043478261","725.130434783","725.130434783","black","no","xpyriment","legacy","legacy","0","203","NA","uniform","66627","1000","0.0150089303135","1","undefined","1","0","22","22","22","0","22","22","22","NA","22","22","0","22","NA","22","22","0","22","NA","22","NA","22","0","0","22","22","0","22","22","23","z","07/17/18 15:52:38","The main experiment item","yes","FIN__BA__M21__7%3A10%3A17.osexp","C:\Users\ERP Testing Room\Desktop\Joanna\morph21","no","mono","no","18","no","white","no","yes","1080","legacy","22","22","C:/Users/ERP Testing Room/Desktop/Joanna/morph21/subject-129.csv","xpyriment","Jazzy James","3.1.4","0","z","NA","NA","NA","NA","space","z","702","NA","NA","NA","NA","11886","702","2","legacy","1024","2","48000","-16","BA_m21","129","odd","NW_S_COMP","FIENDILM","1762","98276","96693","90308","13658","NA","NA","NA","NA","98268","97190","NA","96193","NA","96187","98268","1772","98627","NA","NA","97276","1762","1762","97668","96187","1762","97276","98627","morph21_Oliver/Morris","21","16678","23","yes","1280","24"
"250","91.6666666667","91.6666666667","729.708333333","729.708333333","black","no","xpyriment","legacy","legacy","0","204","NA","uniform","59216","1000","0.0168873277493","1","undefined","1","0","23","23","23","0","23","23","23","NA","23","23","0","23","NA","23","23","0","23","NA","23","NA","23","0","0","23","23","0","23","23","24","z","07/17/18 15:52:38","The main experiment item","yes","FIN__BA__M21__7%3A10%3A17.osexp","C:\Users\ERP Testing Room\Desktop\Joanna\morph21","no","mono","no","18","no","white","no","yes","1080","legacy","23","23","C:/Users/ERP Testing Room/Desktop/Joanna/morph21/subject-129.csv","xpyriment","Jazzy James","3.1.4","0","z","NA","NA","NA","NA","space","z","835","NA","NA","NA","NA","11886","835","2","legacy","1024","2","48000","-16","BA_m21","129","odd","NW_L_COMP","BREAKIDY","1762","103052","99952","101543","13658","NA","NA","NA","NA","101538","100449","NA","99452","NA","99441","101538","1772","103302","NA","NA","100543","1762","1762","100943","99441","1762","100543","103302","morph21_Oliver/Morris","22","17513","24","yes","1280","23"
"250","92","92","722.84","722.84","black","no","xpyriment","legacy","legacy","0","207","NA","uniform","70535","1000","0.0141773587581","1","undefined","1","0","24","24","24","0","24","24","24","NA","24","24","0","24","NA","24","24","0","24","NA","24","NA","24","0","0","24","24","0","24","24","25","/","07/17/18 15:52:38","The main experiment item","yes","FIN__BA__M21__7%3A10%3A17.osexp","C:\Users\ERP Testing Room\Desktop\Joanna\morph21","no","mono","no","18","no","white","no","yes","1080","legacy","24","24","C:/Users/ERP Testing Room/Desktop/Joanna/morph21/subject-129.csv","xpyriment","Jazzy James","3.1.4","0","/","NA","NA","NA","NA","space","/","558","NA","NA","NA","NA","11886","558","2","legacy","1024","2","48000","-16","BA_m21","129","odd","FILL_W","COOK","1762","106244","104652","101543","13658","NA","NA","NA","NA","106239","105149","NA","104143","NA","104133","106239","1772","106494","NA","NA","105243","1762","1762","105643","104132","1762","105243","106494","morph21_Oliver/Morris","23","18071","25","yes","1280","38"
"350","92.3076923077","92.3076923077","720.307692308","720.307692308","black","no","xpyriment","legacy","legacy","0","208","NA","uniform","68672","1000","0.0145619757689","1","undefined","1","0","25","25","25","0","25","25","25","NA","25","25","0","25","NA","25","25","0","25","NA","25","NA","25","0","0","25","25","0","25","25","26","z","07/17/18 15:52:38","The main experiment item","yes","FIN__BA__M21__7%3A10%3A17.osexp","C:\Users\ERP Testing Room\Desktop\Joanna\morph21","no","mono","no","18","no","white","no","yes","1080","legacy","25","25","C:/Users/ERP Testing Room/Desktop/Joanna/morph21/subject-129.csv","xpyriment","Jazzy James","3.1.4","0","z","NA","NA","NA","NA","space","z","657","NA","NA","NA","NA","11886","657","2","legacy","1024","2","48000","-16","BA_m21","129","odd","FILL_NW","DARF","1762","109361","107777","101543","13658","NA","NA","NA","NA","109358","108274","NA","107277","NA","107268","109358","1772","109711","NA","NA","108369","1762","1762","108761","107268","1762","108369","109711","morph21_Oliver/Morris","24","18728","26","yes","1280","10"
"400","88.8888888889","88.8888888889","730.407407407","730.407407407","black","no","xpyriment","legacy","legacy","0","202","NA","uniform","61032","1000","0.0163848472932","0","undefined","0","0","26","26","26","0","26","26","26","NA","26","26","0","26","NA","26","26","0","26","NA","26","NA","26","0","0","26","26","0","26","26","27","/","07/17/18 15:52:38","The main experiment item","yes","FIN__BA__M21__7%3A10%3A17.osexp","C:\Users\ERP Testing Room\Desktop\Joanna\morph21","no","mono","no","18","no","white","no","yes","1080","legacy","26","26","C:/Users/ERP Testing Room/Desktop/Joanna/morph21/subject-129.csv","xpyriment","Jazzy James","3.1.4","0","None","NA","NA","NA","NA","space","None","993","NA","NA","NA","NA","11886","993","2","legacy","1024","2","48000","-16","BA_m21","129","odd","CW_L","WRONGLY","1762","114212","111095","112703","13658","NA","NA","NA","NA","109358","111592","NA","110586","NA","110578","112696","1772","114612","NA","NA","111703","1762","1762","112095","110578","1762","111703","114612","morph21_Oliver/Morris","24","19721","27","yes","1280","37"
"350","89.2857142857","89.2857142857","724.714285714","724.714285714","black","no","xpyriment","legacy","legacy","0","207","NA","uniform","68343","1000","0.014632076438","1","undefined","1","0","27","27","27","0","27","27","27","NA","27","27","0","27","NA","27","27","0","27","NA","27","NA","27","0","0","27","27","0","27","27","28","/","07/17/18 15:52:38","The main experiment item","yes","FIN__BA__M21__7%3A10%3A17.osexp","C:\Users\ERP Testing Room\Desktop\Joanna\morph21","no","mono","no","18","no","white","no","yes","1080","legacy","27","27","C:/Users/ERP Testing Room/Desktop/Joanna/morph21/subject-129.csv","xpyriment","Jazzy James","3.1.4","0","/","NA","NA","NA","NA","space","/","571","NA","NA","NA","NA","11886","571","2","legacy","1024","2","48000","-16","BA_m21","129","odd","FILL_W","FAINT","1762","117495","115912","112703","13658","NA","NA","NA","NA","117486","116409","NA","115412","NA","115406","117486","1772","117845","NA","NA","116495","1762","1762","116887","115406","1762","116495","117845","morph21_Oliver/Morris","25","20292","28","yes","1280","31"
"300","89.6551724138","89.6551724138","721","721","black","no","xpyriment","legacy","legacy","0","207","NA","uniform","65775","1000","0.0152033447358","1","undefined","1","0","28","28","28","0","28","28","28","NA","28","28","0","28","NA","28","28","0","28","NA","28","NA","28","0","0","28","28","0","28","28","29","/","07/17/18 15:52:38","The main experiment item","yes","FIN__BA__M21__7%3A10%3A17.osexp","C:\Users\ERP Testing Room\Desktop\Joanna\morph21","no","mono","no","18","no","white","no","yes","1080","legacy","28","28","C:/Users/ERP Testing Room/Desktop/Joanna/morph21/subject-129.csv","xpyriment","Jazzy James","3.1.4","0","/","NA","NA","NA","NA","space","/","617","NA","NA","NA","NA","11886","617","2","legacy","1024","2","48000","-16","BA_m21","129","odd","FILL_W","BALD","1762","120737","119153","112703","13658","NA","NA","NA","NA","120727","119651","NA","118653","NA","118649","120727","1772","121037","NA","NA","119737","1762","1762","120128","118649","1762","119737","121037","morph21_Oliver/Morris","26","20909","29","yes","1280","3"
"350","90","90","714.6","714.6","black","no","xpyriment","legacy","legacy","0","201","NA","uniform","73333","1000","0.0136364256201","1","undefined","1","0","29","29","29","0","29","29","29","NA","29","29","0","29","NA","29","29","0","29","NA","29","NA","29","0","0","29","29","0","29","29","30","/","07/17/18 15:52:38","The main experiment item","yes","FIN__BA__M21__7%3A10%3A17.osexp","C:\Users\ERP Testing Room\Desktop\Joanna\morph21","no","mono","no","18","no","white","no","yes","1080","legacy","29","29","C:/Users/ERP Testing Room/Desktop/Joanna/morph21/subject-129.csv","xpyriment","Jazzy James","3.1.4","0","/","NA","NA","NA","NA","space","/","529","NA","NA","NA","NA","11886","529","2","legacy","1024","2","48000","-16","BA_m21","129","odd","CW_S","DULLNESS","1762","125412","122295","123904","13658","NA","NA","NA","NA","123895","122792","NA","121795","NA","121788","123895","1772","125762","NA","NA","122904","1762","1762","123295","121788","1762","122904","125762","morph21_Oliver/Morris","27","21438","30","yes","1280","43"
"300","90.3225806452","90.3225806452","716.193548387","716.193548387","black","no","xpyriment","legacy","legacy","0","206","NA","uniform","71666","1000","0.0139536181732","1","undefined","1","0","30","30","30","0","30","30","30","NA","30","30","0","30","NA","30","30","0","30","NA","30","NA","30","0","0","30","30","0","30","30","31","z","07/17/18 15:52:38","The main experiment item","yes","FIN__BA__M21__7%3A10%3A17.osexp","C:\Users\ERP Testing Room\Desktop\Joanna\morph21","no","mono","no","18","no","white","no","yes","1080","legacy","30","30","C:/Users/ERP Testing Room/Desktop/Joanna/morph21/subject-129.csv","xpyriment","Jazzy James","3.1.4","0","z","NA","NA","NA","NA","space","z","764","NA","NA","NA","NA","11886","764","2","legacy","1024","2","48000","-16","BA_m21","129","odd","NW_L_SIMP","EARIST","1762","128630","127038","123904","13658","NA","NA","NA","NA","128620","127535","NA","126538","NA","126530","128620","1772","128930","NA","NA","127630","1762","1762","128021","126530","1762","127630","128930","morph21_Oliver/Morris","28","22202","31","yes","1280","12"
"200","90.625","90.625","718.53125","718.53125","black","no","xpyriment","legacy","legacy","0","203","NA","uniform","65236","1000","0.0153289594702","1","undefined","1","0","31","31","31","0","31","31","31","NA","31","31","0","31","NA","31","31","0","31","NA","31","NA","31","0","0","31","31","0","31","31","32","z","07/17/18 15:52:38","The main experiment item","yes","FIN__BA__M21__7%3A10%3A17.osexp","C:\Users\ERP Testing Room\Desktop\Joanna\morph21","no","mono","no","18","no","white","no","yes","1080","legacy","31","31","C:/Users/ERP Testing Room/Desktop/Joanna/morph21/subject-129.csv","xpyriment","Jazzy James","3.1.4","0","z","NA","NA","NA","NA","space","z","791","NA","NA","NA","NA","11886","791","2","legacy","1024","2","48000","-16","BA_m21","129","odd","NW_S_COMP","DUMBIDY","1762","131763","130163","123904","13658","NA","NA","NA","NA","131756","130660","NA","129663","NA","129656","131756","1772","131963","NA","NA","130763","1762","1762","131155","129656","1762","130763","131963","morph21_Oliver/Morris","29","22993","32","yes","1280","12"
"400","90.9090909091","90.9090909091","717.303030303","717.303030303","black","no","xpyriment","legacy","legacy","0","208","NA","uniform","73138","1000","0.0136727829582","1","undefined","1","0","32","32","32","0","32","32","32","NA","32","32","0","32","NA","32","32","0","32","NA","32","NA","32","0","0","32","32","0","32","32","33","z","07/17/18 15:52:38","The main experiment item","yes","FIN__BA__M21__7%3A10%3A17.osexp","C:\Users\ERP Testing Room\Desktop\Joanna\morph21","no","mono","no","18","no","white","no","yes","1080","legacy","32","32","C:/Users/ERP Testing Room/Desktop/Joanna/morph21/subject-129.csv","xpyriment","Jazzy James","3.1.4","0","z","NA","NA","NA","NA","space","z","678","NA","NA","NA","NA","11886","678","2","legacy","1024","2","48000","-16","BA_m21","129","odd","FILL_NW","ULNS","1762","136288","133188","134780","13658","NA","NA","NA","NA","134772","133685","NA","132688","NA","132684","134772","1772","136689","NA","NA","133780","1762","1762","134172","132684","1762","133780","136689","morph21_Oliver/Morris","30","23671","33","yes","1280","45"
"250","91.1764705882","91.1764705882","722.794117647","722.794117647","black","no","xpyriment","legacy","legacy","0","203","NA","uniform","62360","1000","0.0160359204618","1","undefined","1","0","33","33","33","0","33","33","33","NA","33","33","0","33","NA","33","33","0","33","NA","33","NA","33","0","0","33","33","0","33","33","34","z","07/17/18 15:52:38","The main experiment item","yes","FIN__BA__M21__7%3A10%3A17.osexp","C:\Users\ERP Testing Room\Desktop\Joanna\morph21","no","mono","no","18","no","white","no","yes","1080","legacy","33","33","C:/Users/ERP Testing Room/Desktop/Joanna/morph21/subject-129.csv","xpyriment","Jazzy James","3.1.4","0","z","NA","NA","NA","NA","space","z","904","NA","NA","NA","NA","11886","904","2","legacy","1024","2","48000","-16","BA_m21","129","odd","NW_S_COMP","BEEREL","1762","139530","137947","134780","13658","NA","NA","NA","NA","139523","138444","NA","137447","NA","137437","139523","1772","139780","NA","NA","138530","1762","1762","138922","137437","1762","138530","139780","morph21_Oliver/Morris","31","24575","34","yes","1280","5"
"300","91.4285714286","91.4285714286","727.828571429","727.828571429","black","no","xpyriment","legacy","legacy","0","204","NA","uniform","56100","1000","0.017825311943","1","undefined","1","0","34","34","34","0","34","34","34","NA","34","34","0","34","NA","34","34","0","34","NA","34","NA","34","0","0","34","34","0","34","34","35","z","07/17/18 15:52:38","The main experiment item","yes","FIN__BA__M21__7%3A10%3A17.osexp","C:\Users\ERP Testing Room\Desktop\Joanna\morph21","no","mono","no","18","no","white","no","yes","1080","legacy","34","34","C:/Users/ERP Testing Room/Desktop/Joanna/morph21/subject-129.csv","xpyriment","Jazzy James","3.1.4","0","z","NA","NA","NA","NA","space","z","899","NA","NA","NA","NA","11886","899","2","legacy","1024","2","48000","-16","BA_m21","129","odd","NW_L_COMP","FELLOWOES","1762","142630","141022","134780","13658","NA","NA","NA","NA","142622","141519","NA","140522","NA","140514","142622","1772","142930","NA","NA","141630","1762","1762","142022","140514","1762","141630","142930","morph21_Oliver/Morris","32","25474","35","yes","1280","17"
"200","91.6666666667","91.6666666667","724.583333333","724.583333333","black","no","xpyriment","legacy","legacy","0","201","NA","uniform","66250","1000","0.0150943396226","1","undefined","1","0","35","35","35","0","35","35","35","NA","35","35","0","35","NA","35","35","0","35","NA","35","NA","35","0","0","35","35","0","35","35","36","/","07/17/18 15:52:38","The main experiment item","yes","FIN__BA__M21__7%3A10%3A17.osexp","C:\Users\ERP Testing Room\Desktop\Joanna\morph21","no","mono","no","18","no","white","no","yes","1080","legacy","35","35","C:/Users/ERP Testing Room/Desktop/Joanna/morph21/subject-129.csv","xpyriment","Jazzy James","3.1.4","0","/","NA","NA","NA","NA","space","/","611","NA","NA","NA","NA","11886","611","2","legacy","1024","2","48000","-16","BA_m21","129","odd","CW_S","LISTENER","1762","147332","144240","145823","13658","NA","NA","NA","NA","145816","144737","NA","143740","NA","143729","145816","1772","147532","NA","NA","144823","1762","1762","145215","143728","1762","144823","147532","morph21_Oliver/Morris","33","26085","36","yes","1280","18"
"400","91.8918918919","91.8918918919","730.189189189","730.189189189","black","no","xpyriment","legacy","legacy","0","204","NA","uniform","62539","1000","0.0159900222261","1","undefined","1","0","36","36","36","0","36","36","36","NA","36","36","0","36","NA","36","36","0","36","NA","36","NA","36","0","0","36","36","0","36","36","37","z","07/17/18 15:52:38","The main experiment item","yes","FIN__BA__M21__7%3A10%3A17.osexp","C:\Users\ERP Testing Room\Desktop\Joanna\morph21","no","mono","no","18","no","white","no","yes","1080","legacy","36","36","C:/Users/ERP Testing Room/Desktop/Joanna/morph21/subject-129.csv","xpyriment","Jazzy James","3.1.4","0","z","NA","NA","NA","NA","space","z","932","NA","NA","NA","NA","11886","932","2","legacy","1024","2","48000","-16","BA_m21","129","odd","NW_L_COMP","PASSMANT","1762","150382","148790","145823","13658","NA","NA","NA","NA","150373","149287","NA","148290","NA","148284","150373","1772","150782","NA","NA","149382","1762","1762","149773","148284","1762","149382","150782","morph21_Oliver/Morris","34","27017","37","yes","1280","14"
"350","89.4736842105","89.4736842105","737.105263158","737.105263158","black","no","xpyriment","legacy","legacy","0","201","NA","uniform","54654","1000","0.0182969224576","0","undefined","0","0","37","37","37","0","37","37","37","NA","37","37","0","37","NA","37","37","0","37","NA","37","NA","37","0","0","37","37","0","37","37","38","/","07/17/18 15:52:38","The main experiment item","yes","FIN__BA__M21__7%3A10%3A17.osexp","C:\Users\ERP Testing Room\Desktop\Joanna\morph21","no","mono","no","18","no","white","no","yes","1080","legacy","37","37","C:/Users/ERP Testing Room/Desktop/Joanna/morph21/subject-129.csv","xpyriment","Jazzy James","3.1.4","0","None","NA","NA","NA","NA","space","None","993","NA","NA","NA","NA","11886","993","2","legacy","1024","2","48000","-16","BA_m21","129","odd","CW_S","STRANGENESS","1762","153782","152215","145823","13658","NA","NA","NA","NA","150373","152712","NA","151715","NA","151712","153775","1772","154132","NA","NA","152782","1762","1762","153174","151712","1762","152782","154132","morph21_Oliver/Morris","34","28010","38","yes","1280","46"
"200","89.7435897436","89.7435897436","733.025641026","733.025641026","black","no","xpyriment","legacy","legacy","0","201","NA","uniform","66870","1000","0.0149543891132","1","undefined","1","0","38","38","38","0","38","38","38","NA","38","38","0","38","NA","38","38","0","38","NA","38","NA","38","0","0","38","38","0","38","38","39","/","07/17/18 15:52:38","The main experiment item","yes","FIN__BA__M21__7%3A10%3A17.osexp","C:\Users\ERP Testing Room\Desktop\Joanna\morph21","no","mono","no","18","no","white","no","yes","1080","legacy","38","38","C:/Users/ERP Testing Room/Desktop/Joanna/morph21/subject-129.csv","xpyriment","Jazzy James","3.1.4","0","/","NA","NA","NA","NA","space","/","578","NA","NA","NA","NA","11886","578","2","legacy","1024","2","48000","-16","BA_m21","129","odd","CW_S","AMUSEMENT","1762","158532","155415","157024","13658","NA","NA","NA","NA","157019","155912","NA","154915","NA","154909","157019","1772","158732","NA","NA","156024","1762","1762","156424","154909","1762","156024","158732","morph21_Oliver/Morris","35","28588","39","yes","1280","38"
"300","90","90","738.975","738.975","black","no","xpyriment","legacy","legacy","0","208","NA","uniform","57939","1000","0.0172595315763","1","undefined","1","0","39","39","39","0","39","39","39","NA","39","39","0","39","NA","39","39","0","39","NA","39","NA","39","0","0","39","39","0","39","39","40","z","07/17/18 15:52:38","The main experiment item","yes","FIN__BA__M21__7%3A10%3A17.osexp","C:\Users\ERP Testing Room\Desktop\Joanna\morph21","no","mono","no","18","no","white","no","yes","1080","legacy","39","39","C:/Users/ERP Testing Room/Desktop/Joanna/morph21/subject-129.csv","xpyriment","Jazzy James","3.1.4","0","z","NA","NA","NA","NA","space","z","971","NA","NA","NA","NA","11886","971","2","legacy","1024","2","48000","-16","BA_m21","129","odd","FILL_NW","TREMP","1762","161600","160007","157024","13658","NA","NA","NA","NA","161590","160504","NA","159507","NA","159497","161590","1772","161900","NA","NA","160599","1762","1762","160992","159497","1762","160599","161900","morph21_Oliver/Morris","36","29559","40","yes","1280","20"
"350","90.243902439","90.243902439","736","736","black","no","xpyriment","legacy","legacy","0","207","NA","uniform","71264","1000","0.0140323304894","1","undefined","1","0","40","40","40","0","40","40","40","NA","40","40","0","40","NA","40","40","0","40","NA","40","NA","40","0","0","40","40","0","40","40","41","/","07/17/18 15:52:38","The main experiment item","yes","FIN__BA__M21__7%3A10%3A17.osexp","C:\Users\ERP Testing Room\Desktop\Joanna\morph21","no","mono","no","18","no","white","no","yes","1080","legacy","40","40","C:/Users/ERP Testing Room/Desktop/Joanna/morph21/subject-129.csv","xpyriment","Jazzy James","3.1.4","0","/","NA","NA","NA","NA","space","/","617","NA","NA","NA","NA","11886","617","2","legacy","1024","2","48000","-16","BA_m21","129","odd","FILL_W","WEIRD","1762","164833","163225","157024","13658","NA","NA","NA","NA","164829","163722","NA","162725","NA","162716","164829","1772","165183","NA","NA","163833","1762","1762","164233","162716","1762","163833","165183","morph21_Oliver/Morris","37","30176","41","yes","1280","2"
"250","90.4761904762","90.4761904762","731.595238095","731.595238095","black","no","xpyriment","legacy","legacy","0","201","NA","uniform","75619","1000","0.0132241896878","1","undefined","1","0","41","41","41","0","41","41","41","NA","41","41","0","41","NA","41","41","0","41","NA","41","NA","41","0","0","41","41","0","41","41","42","/","07/17/18 15:52:38","The main experiment item","yes","FIN__BA__M21__7%3A10%3A17.osexp","C:\Users\ERP Testing Room\Desktop\Joanna\morph21","no","mono","no","18","no","white","no","yes","1080","legacy","41","41","C:/Users/ERP Testing Room/Desktop/Joanna/morph21/subject-129.csv","xpyriment","Jazzy James","3.1.4","0","/","NA","NA","NA","NA","space","/","551","NA","NA","NA","NA","11886","551","2","legacy","1024","2","48000","-16","BA_m21","129","odd","CW_S","SEEKER","1762","169584","166475","168075","13658","NA","NA","NA","NA","168070","166972","NA","165975","NA","165968","168070","1772","169834","NA","NA","167075","1762","1762","167475","165968","1762","167075","169834","morph21_Oliver/Morris","38","30727","42","yes","1280","16"
"350","90.6976744186","90.6976744186","728.604651163","728.604651163","black","no","xpyriment","legacy","legacy","0","207","NA","uniform","71127","1000","0.0140593586121","1","undefined","1","0","42","42","42","0","42","42","42","NA","42","42","0","42","NA","42","42","0","42","NA","42","NA","42","0","0","42","42","0","42","42","43","/","07/17/18 15:52:38","The main experiment item","yes","FIN__BA__M21__7%3A10%3A17.osexp","C:\Users\ERP Testing Room\Desktop\Joanna\morph21","no","mono","no","18","no","white","no","yes","1080","legacy","42","42","C:/Users/ERP Testing Room/Desktop/Joanna/morph21/subject-129.csv","xpyriment","Jazzy James","3.1.4","0","/","NA","NA","NA","NA","space","/","603","NA","NA","NA","NA","11886","603","2","legacy","1024","2","48000","-16","BA_m21","129","odd","FILL_W","BRISK","1762","172759","171167","168075","13658","NA","NA","NA","NA","172752","171664","NA","170667","NA","170656","172752","1772","173109","NA","NA","171759","1762","1762","172150","170656","1762","171759","173109","morph21_Oliver/Morris","39","31330","43","yes","1280","8"
"350","88.6363636364","88.6363636364","734.363636364","734.363636364","black","no","xpyriment","legacy","legacy","0","205","NA","uniform","57398","1000","0.0174222098331","0","undefined","0","0","43","43","43","0","43","43","43","NA","43","43","0","43","NA","43","43","0","43","NA","43","NA","43","0","0","43","43","0","43","43","44","z","07/17/18 15:52:38","The main experiment item","yes","FIN__BA__M21__7%3A10%3A17.osexp","C:\Users\ERP Testing Room\Desktop\Joanna\morph21","no","mono","no","18","no","white","no","yes","1080","legacy","43","43","C:/Users/ERP Testing Room/Desktop/Joanna/morph21/subject-129.csv","xpyriment","Jazzy James","3.1.4","0","/","NA","NA","NA","NA","space","/","982","NA","NA","NA","NA","11886","982","2","legacy","1024","2","48000","-16","BA_m21","129","odd","NW_S_SIMP","ACREMENT","1762","176101","174492","168075","13658","NA","NA","NA","NA","172752","174989","NA","173992","NA","173987","176091","1772","176451","NA","NA","175100","1762","1762","175492","173987","1762","175100","176451","morph21_Oliver/Morris","39","32312","44","yes","1280","16"
"250","88.8888888889","88.8888888889","737.2","737.2","black","no","xpyriment","legacy","legacy","0","205","NA","uniform","57101","1000","0.0175128281466","1","undefined","1","0","44","44","44","0","44","44","44","NA","44","44","0","44","NA","44","44","0","44","NA","44","NA","44","0","0","44","44","0","44","44","45","z","07/17/18 15:52:38","The main experiment item","yes","FIN__BA__M21__7%3A10%3A17.osexp","C:\Users\ERP Testing Room\Desktop\Joanna\morph21","no","mono","no","18","no","white","no","yes","1080","legacy","44","44","C:/Users/ERP Testing Room/Desktop/Joanna/morph21/subject-129.csv","xpyriment","Jazzy James","3.1.4","0","z","NA","NA","NA","NA","space","z","862","NA","NA","NA","NA","11886","862","2","legacy","1024","2","48000","-16","BA_m21","129","odd","NW_S_SIMP","DIGORY","1762","180977","177859","179468","13658","NA","NA","NA","NA","179461","178356","NA","177359","NA","177348","179461","1772","181227","NA","NA","178468","1762","1762","178860","177348","1762","178468","181227","morph21_Oliver/Morris","40","33174","45","yes","1280","11"
"400","89.1304347826","89.1304347826","732.717391304","732.717391304","black","no","xpyriment","legacy","legacy","0","207","NA","uniform","67411","1000","0.0148343742119","1","undefined","1","0","45","45","45","0","45","45","45","NA","45","45","0","45","NA","45","45","0","45","NA","45","NA","45","0","0","45","45","0","45","45","46","/","07/17/18 15:52:38","The main experiment item","yes","FIN__BA__M21__7%3A10%3A17.osexp","C:\Users\ERP Testing Room\Desktop\Joanna\morph21","no","mono","no","18","no","white","no","yes","1080","legacy","45","45","C:/Users/ERP Testing Room/Desktop/Joanna/morph21/subject-129.csv","xpyriment","Jazzy James","3.1.4","0","/","NA","NA","NA","NA","space","/","531","NA","NA","NA","NA","11886","531","2","legacy","1024","2","48000","-16","BA_m21","129","odd","FILL_W","CHIP","1762","184127","182543","179468","13658","NA","NA","NA","NA","184123","183041","NA","182044","NA","182038","184123","1772","184527","NA","NA","183127","1762","1762","183527","182038","1762","183127","184527","morph21_Oliver/Morris","41","33705","46","yes","1280","11"
"300","89.3617021277","89.3617021277","730.829787234","730.829787234","black","no","xpyriment","legacy","legacy","0","204","NA","uniform","60431","1000","0.0165477983154","1","undefined","1","0","46","46","46","0","46","46","46","NA","46","46","0","46","NA","46","46","0","46","NA","46","NA","46","0","0","46","46","0","46","46","47","z","07/17/18 15:52:38","The main experiment item","yes","FIN__BA__M21__7%3A10%3A17.osexp","C:\Users\ERP Testing Room\Desktop\Joanna\morph21","no","mono","no","18","no","white","no","yes","1080","legacy","46","46","C:/Users/ERP Testing Room/Desktop/Joanna/morph21/subject-129.csv","xpyriment","Jazzy James","3.1.4","0","z","NA","NA","NA","NA","space","z","644","NA","NA","NA","NA","11886","644","2","legacy","1024","2","48000","-16","BA_m21","129","odd","NW_L_COMP","IME","1762","187494","185894","179468","13658","NA","NA","NA","NA","187483","186391","NA","185394","NA","185389","187483","1772","187794","NA","NA","186494","1762","1762","186885","185389","1762","186494","187794","morph21_Oliver/Morris","42","34349","47","yes","1280","20"
"400","89.5833333333","89.5833333333","726.25","726.25","black","no","xpyriment","legacy","legacy","0","207","NA","uniform","68341","1000","0.0146325046458","1","undefined","1","0","47","47","47","0","47","47","47","NA","47","47","0","47","NA","47","47","0","47","NA","47","NA","47","0","0","47","47","0","47","47","48","/","07/17/18 15:52:38","The main experiment item","yes","FIN__BA__M21__7%3A10%3A17.osexp","C:\Users\ERP Testing Room\Desktop\Joanna\morph21","no","mono","no","18","no","white","no","yes","1080","legacy","47","47","C:/Users/ERP Testing Room/Desktop/Joanna/morph21/subject-129.csv","xpyriment","Jazzy James","3.1.4","0","/","NA","NA","NA","NA","space","/","511","NA","NA","NA","NA","11886","511","2","legacy","1024","2","48000","-16","BA_m21","129","odd","FILL_W","QUIT","1762","192327","189219","190819","13658","NA","NA","NA","NA","190813","189716","NA","188711","NA","188703","190813","1772","192727","NA","NA","189819","1762","1762","190210","188703","1762","189819","192727","morph21_Oliver/Morris","43","34860","48","yes","1280","21"
"300","89.7959183673","89.7959183673","728.224489796","728.224489796","black","no","xpyriment","legacy","legacy","0","206","NA","uniform","61688","1000","0.016210608222","1","undefined","1","0","48","48","48","0","48","48","48","NA","48","48","0","48","NA","48","48","0","48","NA","48","NA","48","0","0","48","48","0","48","48","49","z","07/17/18 15:52:38","The main experiment item","yes","FIN__BA__M21__7%3A10%3A17.osexp","C:\Users\ERP Testing Room\Desktop\Joanna\morph21","no","mono","no","18","no","white","no","yes","1080","legacy","48","48","C:/Users/ERP Testing Room/Desktop/Joanna/morph21/subject-129.csv","xpyriment","Jazzy James","3.1.4","0","z","NA","NA","NA","NA","space","z","823","NA","NA","NA","NA","11886","823","2","legacy","1024","2","48000","-16","BA_m21","129","odd","NW_L_SIMP","ELBOWISM","1762","195577","193977","190819","13658","NA","NA","NA","NA","195575","194474","NA","193477","NA","193471","195575","1772","195878","NA","NA","194586","1762","1762","194977","193471","1762","194586","195878","morph21_Oliver/Morris","44","35683","49","yes","1280","10"
"350","90","90","724.34","724.34","black","no","xpyriment","legacy","legacy","0","207","NA","uniform","69944","1000","0.0142971520073","1","undefined","1","0","49","49","49","0","49","49","49","NA","49","49","0","49","NA","49","49","0","49","NA","49","NA","49","0","0","49","49","0","49","49","50","/","07/17/18 15:52:38","The main experiment item","yes","FIN__BA__M21__7%3A10%3A17.osexp","C:\Users\ERP Testing Room\Desktop\Joanna\morph21","no","mono","no","18","no","white","no","yes","1080","legacy","49","49","C:/Users/ERP Testing Room/Desktop/Joanna/morph21/subject-129.csv","xpyriment","Jazzy James","3.1.4","0","/","NA","NA","NA","NA","space","/","534","NA","NA","NA","NA","11886","534","2","legacy","1024","2","48000","-16","BA_m21","129","odd","FILL_W","LIFT","1762","198829","197245","190819","13658","NA","NA","NA","NA","198825","197742","NA","196745","NA","196742","198825","1772","199179","NA","NA","197828","1762","1762","198228","196742","1762","197828","199179","morph21_Oliver/Morris","45","36217","50","yes","1280","39"
"250","90.1960784314","90.1960784314","719.254901961","719.254901961","black","no","xpyriment","legacy","legacy","0","207","NA","uniform","62968","1000","0.0158810824546","1","undefined","1","0","50","50","50","0","50","50","50","NA","50","50","0","50","NA","50","50","0","50","NA","50","NA","50","0","0","50","50","0","50","50","51","/","07/17/18 15:52:38","The main experiment item","yes","FIN__BA__M21__7%3A10%3A17.osexp","C:\Users\ERP Testing Room\Desktop\Joanna\morph21","no","mono","no","18","no","white","no","yes","1080","legacy","50","50","C:/Users/ERP Testing Room/Desktop/Joanna/morph21/subject-129.csv","xpyriment","Jazzy James","3.1.4","0","/","NA","NA","NA","NA","space","/","465","NA","NA","NA","NA","11886","465","2","legacy","1024","2","48000","-16","BA_m21","129","odd","FILL_W","SHIP","1762","203637","200512","202129","13658","NA","NA","NA","NA","202125","201009","NA","200012","NA","200002","202125","1772","203887","NA","NA","201129","1762","1762","201529","200002","1762","201129","203887","morph21_Oliver/Morris","46","36682","51","yes","1280","37"
"300","90.3846153846","90.3846153846","721.307692308","721.307692308","black","no","xpyriment","legacy","legacy","0","202","NA","uniform","60661","1000","0.0164850562965","1","undefined","1","0","51","51","51","0","51","51","51","NA","51","51","0","51","NA","51","51","0","51","NA","51","NA","51","0","0","51","51","0","51","51","52","/","07/17/18 15:52:38","The main experiment item","yes","FIN__BA__M21__7%3A10%3A17.osexp","C:\Users\ERP Testing Room\Desktop\Joanna\morph21","no","mono","no","18","no","white","no","yes","1080","legacy","51","51","C:/Users/ERP Testing Room/Desktop/Joanna/morph21/subject-129.csv","xpyriment","Jazzy James","3.1.4","0","/","NA","NA","NA","NA","space","/","826","NA","NA","NA","NA","11886","826","2","legacy","1024","2","48000","-16","BA_m21","129","odd","CW_L","KNOCKER","1762","206704","205121","202129","13658","NA","NA","NA","NA","206700","205618","NA","204621","NA","204613","206700","1772","207004","NA","NA","205704","1762","1762","206104","204613","1762","205704","207004","morph21_Oliver/Morris","47","37508","52","yes","1280","4"
"300","88.679245283","88.679245283","717.811320755","717.811320755","black","no","xpyriment","legacy","legacy","0","206","NA","uniform","72302","1000","0.0138308760477","0","undefined","0","0","52","52","52","0","52","52","52","NA","52","52","0","52","NA","52","52","0","52","NA","52","NA","52","0","0","52","52","0","52","52","53","z","07/17/18 15:52:38","The main experiment item","yes","FIN__BA__M21__7%3A10%3A17.osexp","C:\Users\ERP Testing Room\Desktop\Joanna\morph21","no","mono","no","18","no","white","no","yes","1080","legacy","52","52","C:/Users/ERP Testing Room/Desktop/Joanna/morph21/subject-129.csv","xpyriment","Jazzy James","3.1.4","0","/","NA","NA","NA","NA","space","/","536","NA","NA","NA","NA","11886","536","2","legacy","1024","2","48000","-16","BA_m21","129","odd","NW_L_SIMP","LONGNESS","1762","209946","208329","202129","13658","NA","NA","NA","NA","206700","208826","NA","207829","NA","207822","209937","1772","210246","NA","NA","208946","1762","1762","209337","207822","1762","208946","210246","morph21_Oliver/Morris","47","38044","53","yes","1280","17"
"400","87.037037037","87.037037037","714","714","black","no","xpyriment","legacy","legacy","0","204","NA","uniform","74432","1000","0.0134350816853","0","undefined","0","0","53","53","53","0","53","53","53","NA","53","53","0","53","NA","53","53","0","53","NA","53","NA","53","0","0","53","53","0","53","53","54","z","07/17/18 15:52:38","The main experiment item","yes","FIN__BA__M21__7%3A10%3A17.osexp","C:\Users\ERP Testing Room\Desktop\Joanna\morph21","no","mono","no","18","no","white","no","yes","1080","legacy","53","53","C:/Users/ERP Testing Room/Desktop/Joanna/morph21/subject-129.csv","xpyriment","Jazzy James","3.1.4","0","/","NA","NA","NA","NA","space","/","512","NA","NA","NA","NA","11886","512","2","legacy","1024","2","48000","-16","BA_m21","129","odd","NW_L_COMP","BOIL","1762","214630","211529","213121","13658","NA","NA","NA","NA","206700","212026","NA","211029","NA","211023","213118","1772","215030","NA","NA","212121","1762","1762","212521","211023","1762","212121","215030","morph21_Oliver/Morris","47","38556","54","yes","1280","18"
"250","87.2727272727","87.2727272727","712.072727273","712.072727273","black","no","xpyriment","legacy","legacy","0","202","NA","uniform","73700","1000","0.0135685210312","1","undefined","1","0","54","54","54","0","54","54","54","NA","54","54","0","54","NA","54","54","0","54","NA","54","NA","54","0","0","54","54","0","54","54","55","/","07/17/18 15:52:38","The main experiment item","yes","FIN__BA__M21__7%3A10%3A17.osexp","C:\Users\ERP Testing Room\Desktop\Joanna\morph21","no","mono","no","18","no","white","no","yes","1080","legacy","54","54","C:/Users/ERP Testing Room/Desktop/Joanna/morph21/subject-129.csv","xpyriment","Jazzy James","3.1.4","0","/","NA","NA","NA","NA","space","/","608","NA","NA","NA","NA","11886","608","2","legacy","1024","2","48000","-16","BA_m21","129","odd","CW_L","LAUGHING","1762","217914","216305","213121","13658","NA","NA","NA","NA","217905","216802","NA","215805","NA","215796","217905","1772","218164","NA","NA","216914","1762","1762","217305","215796","1762","216914","218164","morph21_Oliver/Morris","48","39164","55","yes","1280","27"
"250","87.5","87.5","712.410714286","712.410714286","black","no","xpyriment","legacy","legacy","0","207","NA","uniform","66071","1000","0.0151352333096","1","undefined","1","0","55","55","55","0","55","55","55","NA","55","55","0","55","NA","55","55","0","55","NA","55","NA","55","0","0","55","55","0","55","55","56","/","07/17/18 15:52:38","The main experiment item","yes","FIN__BA__M21__7%3A10%3A17.osexp","C:\Users\ERP Testing Room\Desktop\Joanna\morph21","no","mono","no","18","no","white","no","yes","1080","legacy","55","55","C:/Users/ERP Testing Room/Desktop/Joanna/morph21/subject-129.csv","xpyriment","Jazzy James","3.1.4","0","/","NA","NA","NA","NA","space","/","731","NA","NA","NA","NA","11886","731","2","legacy","1024","2","48000","-16","BA_m21","129","odd","FILL_W","SOUGHT","1762","221056","219472","213121","13658","NA","NA","NA","NA","221052","219969","NA","218972","NA","218963","221052","1772","221306","NA","NA","220055","1762","1762","220456","218963","1762","220055","221306","morph21_Oliver/Morris","49","39895","56","yes","1280","40"
"200","87.7192982456","87.7192982456","713.736842105","713.736842105","black","no","xpyriment","legacy","legacy","0","208","NA","uniform","62519","1000","0.0159951374782","1","undefined","1","0","56","56","56","0","56","56","56","NA","56","56","0","56","NA","56","56","0","56","NA","56","NA","56","0","0","56","56","0","56","56","57","z","07/17/18 15:52:38","The main experiment item","yes","FIN__BA__M21__7%3A10%3A17.osexp","C:\Users\ERP Testing Room\Desktop\Joanna\morph21","no","mono","no","18","no","white","no","yes","1080","legacy","56","56","C:/Users/ERP Testing Room/Desktop/Joanna/morph21/subject-129.csv","xpyriment","Jazzy James","3.1.4","0","z","NA","NA","NA","NA","space","z","788","NA","NA","NA","NA","11886","788","2","legacy","1024","2","48000","-16","BA_m21","129","odd","FILL_NW","BLAYS","1762","225731","222622","224222","13658","NA","NA","NA","NA","224216","223119","NA","222122","NA","222113","224216","1772","225931","NA","NA","223222","1762","1762","223614","222113","1762","223222","225931","morph21_Oliver/Morris","50","40683","57","yes","1280","8"
"300","87.9310344828","87.9310344828","710.034482759","710.034482759","black","no","xpyriment","legacy","legacy","0","207","NA","uniform","73797","1000","0.0135506863423","1","undefined","1","0","57","57","57","0","57","57","57","NA","57","57","0","57","NA","57","57","0","57","NA","57","NA","57","0","0","57","57","0","57","57","58","/","07/17/18 15:52:38","The main experiment item","yes","FIN__BA__M21__7%3A10%3A17.osexp","C:\Users\ERP Testing Room\Desktop\Joanna\morph21","no","mono","no","18","no","white","no","yes","1080","legacy","57","57","C:/Users/ERP Testing Room/Desktop/Joanna/morph21/subject-129.csv","xpyriment","Jazzy James","3.1.4","0","/","NA","NA","NA","NA","space","/","499","NA","NA","NA","NA","11886","499","2","legacy","1024","2","48000","-16","BA_m21","129","odd","FILL_W","BAKE","1762","228814","227206","224222","13658","NA","NA","NA","NA","228811","227703","NA","226706","NA","226703","228811","1772","229114","NA","NA","227823","1762","1762","228214","226703","1762","227822","229114","morph21_Oliver/Morris","51","41182","58","yes","1280","29"
"250","88.1355932203","88.1355932203","709.576271186","709.576271186","black","no","xpyriment","legacy","legacy","0","204","NA","uniform","66513","1000","0.0150346548795","1","undefined","1","0","58","58","58","0","58","58","58","NA","58","58","0","58","NA","58","58","0","58","NA","58","NA","58","0","0","58","58","0","58","58","59","z","07/17/18 15:52:38","The main experiment item","yes","FIN__BA__M21__7%3A10%3A17.osexp","C:\Users\ERP Testing Room\Desktop\Joanna\morph21","no","mono","no","18","no","white","no","yes","1080","legacy","58","58","C:/Users/ERP Testing Room/Desktop/Joanna/morph21/subject-129.csv","xpyriment","Jazzy James","3.1.4","0","z","NA","NA","NA","NA","space","z","683","NA","NA","NA","NA","11886","683","2","legacy","1024","2","48000","-16","BA_m21","129","odd","NW_L_COMP","MUDLA","1762","232007","230373","224222","13658","NA","NA","NA","NA","232001","230870","NA","229873","NA","229865","232001","1772","232257","NA","NA","231007","1762","1762","231399","229865","1762","231007","232257","morph21_Oliver/Morris","52","41865","59","yes","1280","12"
"400","88.3333333333","88.3333333333","708.083333333","708.083333333","black","no","xpyriment","legacy","legacy","0","202","NA","uniform","69079","1000","0.0144761794467","1","undefined","1","0","59","59","59","0","59","59","59","NA","59","59","0","59","NA","59","59","0","59","NA","59","NA","59","0","0","59","59","0","59","59","60","/","07/17/18 15:52:38","The main experiment item","yes","FIN__BA__M21__7%3A10%3A17.osexp","C:\Users\ERP Testing Room\Desktop\Joanna\morph21","no","mono","no","18","no","white","no","yes","1080","legacy","59","59","C:/Users/ERP Testing Room/Desktop/Joanna/morph21/subject-129.csv","xpyriment","Jazzy James","3.1.4","0","/","NA","NA","NA","NA","space","/","620","NA","NA","NA","NA","11886","620","2","legacy","1024","2","48000","-16","BA_m21","129","odd","CW_L","BLINDNESS","1762","236682","233565","235174","13658","NA","NA","NA","NA","235167","234063","NA","233065","NA","233058","235167","1772","237082","NA","NA","234174","1762","1762","234565","233058","1762","234174","237082","morph21_Oliver/Morris","53","42485","60","yes","1280","40"
"250","88.5245901639","88.5245901639","708.37704918","708.37704918","black","no","xpyriment","legacy","legacy","0","201","NA","uniform","69562","1000","0.0143756648745","1","undefined","1","0","60","60","60","0","60","60","60","NA","60","60","0","60","NA","60","60","0","60","NA","60","NA","60","0","0","60","60","0","60","60","61","/","07/17/18 15:52:38","The main experiment item","yes","FIN__BA__M21__7%3A10%3A17.osexp","C:\Users\ERP Testing Room\Desktop\Joanna\morph21","no","mono","no","18","no","white","no","yes","1080","legacy","60","60","C:/Users/ERP Testing Room/Desktop/Joanna/morph21/subject-129.csv","xpyriment","Jazzy James","3.1.4","0","/","NA","NA","NA","NA","space","/","726","NA","NA","NA","NA","11886","726","2","legacy","1024","2","48000","-16","BA_m21","129","odd","CW_S","HUGELY","1762","239924","238307","235174","13658","NA","NA","NA","NA","239919","238804","NA","237807","NA","237797","239919","1772","240174","NA","NA","238924","1762","1762","239324","237797","1762","238924","240174","morph21_Oliver/Morris","54","43211","61","yes","1280","35"
"350","88.7096774194","88.7096774194","711.774193548","711.774193548","black","no","xpyriment","legacy","legacy","0","203","NA","uniform","63878","1000","0.0156548420426","1","undefined","1","0","61","61","61","0","61","61","61","NA","61","61","0","61","NA","61","61","0","61","NA","61","NA","61","0","0","61","61","0","61","61","62","z","07/17/18 15:52:38","The main experiment item","yes","FIN__BA__M21__7%3A10%3A17.osexp","C:\Users\ERP Testing Room\Desktop\Joanna\morph21","no","mono","no","18","no","white","no","yes","1080","legacy","61","61","C:/Users/ERP Testing Room/Desktop/Joanna/morph21/subject-129.csv","xpyriment","Jazzy James","3.1.4","0","z","NA","NA","NA","NA","space","z","919","NA","NA","NA","NA","11886","919","2","legacy","1024","2","48000","-16","BA_m21","129","odd","NW_S_COMP","EJECTENGE","1762","243099","241491","235174","13658","NA","NA","NA","NA","243091","241988","NA","240991","NA","240983","243091","1772","243449","NA","NA","242099","1762","1762","242491","240983","1762","242099","243449","morph21_Oliver/Morris","55","44130","62","yes","1280","20"
"400","88.8888888889","88.8888888889","707.793650794","707.793650794","black","no","xpyriment","legacy","legacy","0","207","NA","uniform","75775","1000","0.0131969646981","1","undefined","1","0","62","62","62","0","62","62","62","NA","62","62","0","62","NA","62","62","0","62","NA","62","NA","62","0","0","62","62","0","62","62","63","/","07/17/18 15:52:38","The main experiment item","yes","FIN__BA__M21__7%3A10%3A17.osexp","C:\Users\ERP Testing Room\Desktop\Joanna\morph21","no","mono","no","18","no","white","no","yes","1080","legacy","62","62","C:/Users/ERP Testing Room/Desktop/Joanna/morph21/subject-129.csv","xpyriment","Jazzy James","3.1.4","0","/","NA","NA","NA","NA","space","/","461","NA","NA","NA","NA","11886","461","2","legacy","1024","2","48000","-16","BA_m21","129","odd","FILL_W","EAT","1762","247858","244758","246349","13658","NA","NA","NA","NA","246341","245255","NA","244258","NA","244248","246341","1772","248258","NA","NA","245349","1762","1762","245741","244248","1762","245349","248258","morph21_Oliver/Morris","56","44591","63","yes","1280","25"
"400","89.0625","89.0625","704.65625","704.65625","black","no","xpyriment","legacy","legacy","0","207","NA","uniform","74750","1000","0.0133779264214","1","undefined","1","0","63","63","63","0","63","63","63","NA","63","63","0","63","NA","63","63","0","63","NA","63","NA","63","0","0","63","63","0","63","63","64","/","07/17/18 15:52:38","The main experiment item","yes","FIN__BA__M21__7%3A10%3A17.osexp","C:\Users\ERP Testing Room\Desktop\Joanna\morph21","no","mono","no","18","no","white","no","yes","1080","legacy","63","63","C:/Users/ERP Testing Room/Desktop/Joanna/morph21/subject-129.csv","xpyriment","Jazzy James","3.1.4","0","/","NA","NA","NA","NA","space","/","507","NA","NA","NA","NA","11886","507","2","legacy","1024","2","48000","-16","BA_m21","129","odd","FILL_W","FLIRT","1762","251159","249559","246349","13658","NA","NA","NA","NA","251156","250056","NA","249059","NA","249053","251156","1772","251559","NA","NA","250167","1762","1762","250559","249053","1762","250167","251559","morph21_Oliver/Morris","57","45098","64","yes","1280","1"
"200","89.2307692308","89.2307692308","702.584615385","702.584615385","black","no","xpyriment","legacy","legacy","0","202","NA","uniform","66501","1000","0.0150373678591","1","undefined","1","0","64","64","64","0","64","64","64","NA","64","64","0","64","NA","64","64","0","64","NA","64","NA","64","0","0","64","64","0","64","64","65","/","07/17/18 15:52:38","The main experiment item","yes","FIN__BA__M21__7%3A10%3A17.osexp","C:\Users\ERP Testing Room\Desktop\Joanna\morph21","no","mono","no","18","no","white","no","yes","1080","legacy","64","64","C:/Users/ERP Testing Room/Desktop/Joanna/morph21/subject-129.csv","xpyriment","Jazzy James","3.1.4","0","/","NA","NA","NA","NA","space","/","570","NA","NA","NA","NA","11886","570","2","legacy","1024","2","48000","-16","BA_m21","129","odd","CW_L","SHAMEFUL","1762","254584","252984","246349","13658","NA","NA","NA","NA","254581","253481","NA","252484","NA","252475","254581","1772","254784","NA","NA","253592","1762","1762","253984","252474","1762","253592","254784","morph21_Oliver/Morris","58","45668","65","yes","1280","19"
"400","89.3939393939","89.3939393939","702.151515152","702.151515152","black","no","xpyriment","legacy","legacy","0","208","NA","uniform","65263","1000","0.015322617716","1","undefined","1","0","65","65","65","0","65","65","65","NA","65","65","0","65","NA","65","65","0","65","NA","65","NA","65","0","0","65","65","0","65","65","66","z","07/17/18 15:52:38","The main experiment item","yes","FIN__BA__M21__7%3A10%3A17.osexp","C:\Users\ERP Testing Room\Desktop\Joanna\morph21","no","mono","no","18","no","white","no","yes","1080","legacy","65","65","C:/Users/ERP Testing Room/Desktop/Joanna/morph21/subject-129.csv","xpyriment","Jazzy James","3.1.4","0","z","NA","NA","NA","NA","space","z","674","NA","NA","NA","NA","11886","674","2","legacy","1024","2","48000","-16","BA_m21","129","odd","FILL_NW","BORMS","1762","259284","256192","257776","13658","NA","NA","NA","NA","257772","256689","NA","255692","NA","255682","257772","1772","259684","NA","NA","256784","1762","1762","257176","255682","1762","256784","259684","morph21_Oliver/Morris","59","46342","66","yes","1280","50"
"250","89.552238806","89.552238806","701.970149254","701.970149254","black","no","xpyriment","legacy","legacy","0","208","NA","uniform","59879","1000","0.0167003456972","1","undefined","1","0","66","66","66","0","66","66","66","NA","66","66","0","66","NA","66","66","0","66","NA","66","NA","66","0","0","66","66","0","66","66","67","z","07/17/18 15:52:38","The main experiment item","yes","FIN__BA__M21__7%3A10%3A17.osexp","C:\Users\ERP Testing Room\Desktop\Joanna\morph21","no","mono","no","18","no","white","no","yes","1080","legacy","66","66","C:/Users/ERP Testing Room/Desktop/Joanna/morph21/subject-129.csv","xpyriment","Jazzy James","3.1.4","0","z","NA","NA","NA","NA","space","z","690","NA","NA","NA","NA","11886","690","2","legacy","1024","2","48000","-16","BA_m21","129","odd","FILL_NW","POLT","1762","262576","260976","257776","13658","NA","NA","NA","NA","262572","261473","NA","260476","NA","260472","262572","1772","262826","NA","NA","261576","1762","1762","261976","260472","1762","261576","262826","morph21_Oliver/Morris","60","47032","67","yes","1280","38"
"400","89.7058823529","89.7058823529","704.382352941","704.382352941","black","no","xpyriment","legacy","legacy","0","204","NA","uniform","66187","1001","0.0151238158551","1","undefined","1","0","67","67","67","0","67","67","67","NA","67","67","0","67","NA","67","67","0","67","NA","67","NA","67","0","0","67","67","0","67","67","68","z","07/17/18 15:52:38","The main experiment item","yes","FIN__BA__M21__7%3A10%3A17.osexp","C:\Users\ERP Testing Room\Desktop\Joanna\morph21","no","mono","no","18","no","white","no","yes","1080","legacy","67","67","C:/Users/ERP Testing Room/Desktop/Joanna/morph21/subject-129.csv","xpyriment","Jazzy James","3.1.4","0","z","NA","NA","NA","NA","space","z","866","NA","NA","NA","NA","11886","866","2","legacy","1024","2","48000","-16","BA_m21","129","odd","NW_L_COMP","COLDIDY","1762","265752","264143","257776","13658","NA","NA","NA","NA","265743","264640","NA","263643","NA","263636","265743","1772","266152","NA","NA","264751","1762","1762","265143","263636","1762","264751","266152","morph21_Oliver/Morris","61","47898","68","yes","1280","10"
"250","89.8550724638","89.8550724638","703.333333333","703.333333333","black","no","xpyriment","legacy","legacy","0","207","NA","uniform","66149","1000","0.0151173865062","1","undefined","1","0","68","68","68","0","68","68","68","NA","68","68","0","68","NA","68","68","0","68","NA","68","NA","68","0","0","68","68","0","68","68","69","/","07/17/18 15:52:38","The main experiment item","yes","FIN__BA__M21__7%3A10%3A17.osexp","C:\Users\ERP Testing Room\Desktop\Joanna\morph21","no","mono","no","18","no","white","no","yes","1080","legacy","68","68","C:/Users/ERP Testing Room/Desktop/Joanna/morph21/subject-129.csv","xpyriment","Jazzy James","3.1.4","0","/","NA","NA","NA","NA","space","/","632","NA","NA","NA","NA","11886","632","2","legacy","1024","2","48000","-16","BA_m21","129","odd","FILL_W","SPLICE","1762","270511","267419","269002","13658","NA","NA","NA","NA","268996","267916","NA","266919","NA","266912","268996","1772","270761","NA","NA","268002","1762","1762","268394","266912","1762","268002","270761","morph21_Oliver/Morris","62","48530","69","yes","1280","22"
"350","90","90","702.271428571","702.271428571","black","no","xpyriment","legacy","legacy","0","201","NA","uniform","68545","1000","0.0145889561602","1","undefined","1","0","69","69","69","0","69","69","69","NA","69","69","0","69","NA","69","69","0","69","NA","69","NA","69","0","0","69","69","0","69","69","70","/","07/17/18 15:52:38","The main experiment item","yes","FIN__BA__M21__7%3A10%3A17.osexp","C:\Users\ERP Testing Room\Desktop\Joanna\morph21","no","mono","no","18","no","white","no","yes","1080","legacy","69","69","C:/Users/ERP Testing Room/Desktop/Joanna/morph21/subject-129.csv","xpyriment","Jazzy James","3.1.4","0","/","NA","NA","NA","NA","space","/","629","NA","NA","NA","NA","11886","629","2","legacy","1024","2","48000","-16","BA_m21","129","odd","CW_S","BEARDED","1762","273661","272052","269002","13658","NA","NA","NA","NA","273653","272550","NA","271552","NA","271541","273653","1772","274011","NA","NA","272661","1762","1762","273052","271541","1762","272661","274011","morph21_Oliver/Morris","63","49159","70","yes","1280","8"
"350","90.1408450704","90.1408450704","700.169014085","700.169014085","black","no","xpyriment","legacy","legacy","0","202","NA","uniform","74288","1000","0.0134611242731","1","undefined","1","0","70","70","70","0","70","70","70","NA","70","70","0","70","NA","70","70","0","70","NA","70","NA","70","0","0","70","70","0","70","70","71","/","07/17/18 15:52:38","The main experiment item","yes","FIN__BA__M21__7%3A10%3A17.osexp","C:\Users\ERP Testing Room\Desktop\Joanna\morph21","no","mono","no","18","no","white","no","yes","1080","legacy","70","70","C:/Users/ERP Testing Room/Desktop/Joanna/morph21/subject-129.csv","xpyriment","Jazzy James","3.1.4","0","/","NA","NA","NA","NA","space","/","553","NA","NA","NA","NA","11886","553","2","legacy","1024","2","48000","-16","BA_m21","129","odd","CW_L","SWIMMER","1762","276961","275361","269002","13658","NA","NA","NA","NA","276955","275858","NA","274861","NA","274849","276955","1772","277311","NA","NA","275961","1762","1762","276353","274849","1762","275961","277311","morph21_Oliver/Morris","64","49712","71","yes","1280","5"
"300","90.2777777778","90.2777777778","697.611111111","697.611111111","black","no","xpyriment","legacy","legacy","0","202","NA","uniform","73906","1000","0.0135307011609","1","undefined","1","0","71","71","71","0","71","71","71","NA","71","71","0","71","NA","71","71","0","71","NA","71","NA","71","0","0","71","71","0","71","71","72","/","07/17/18 15:52:38","The main experiment item","yes","FIN__BA__M21__7%3A10%3A17.osexp","C:\Users\ERP Testing Room\Desktop\Joanna\morph21","no","mono","no","18","no","white","no","yes","1080","legacy","71","71","C:/Users/ERP Testing Room/Desktop/Joanna/morph21/subject-129.csv","xpyriment","Jazzy James","3.1.4","0","/","NA","NA","NA","NA","space","/","516","NA","NA","NA","NA","11886","516","2","legacy","1024","2","48000","-16","BA_m21","129","odd","CW_L","MADNESS","1762","281603","278494","280094","13658","NA","NA","NA","NA","280086","278991","NA","277994","NA","277987","280086","1772","281903","NA","NA","279094","1762","1762","279486","277987","1762","279094","281903","morph21_Oliver/Morris","65","50228","72","yes","1280","41"
"400","90.4109589041","90.4109589041","697.246575342","697.246575342","black","no","xpyriment","legacy","legacy","0","207","NA","uniform","66088","1000","0.0151313400315","1","undefined","1","0","72","72","72","0","72","72","72","NA","72","72","0","72","NA","72","72","0","72","NA","72","NA","72","0","0","72","72","0","72","72","73","/","07/17/18 15:52:38","The main experiment item","yes","FIN__BA__M21__7%3A10%3A17.osexp","C:\Users\ERP Testing Room\Desktop\Joanna\morph21","no","mono","no","18","no","white","no","yes","1080","legacy","72","72","C:/Users/ERP Testing Room/Desktop/Joanna/morph21/subject-129.csv","xpyriment","Jazzy James","3.1.4","0","/","NA","NA","NA","NA","space","/","671","NA","NA","NA","NA","11886","671","2","legacy","1024","2","48000","-16","BA_m21","129","odd","FILL_W","CEASE","1762","284779","283195","280094","13658","NA","NA","NA","NA","284774","283692","NA","282695","NA","282690","284774","1772","285179","NA","NA","283779","1762","1762","284179","282690","1762","283779","285179","morph21_Oliver/Morris","66","50899","73","yes","1280","18"
"300","90.5405405405","90.5405405405","695.986486486","695.986486486","black","no","xpyriment","legacy","legacy","0","208","NA","uniform","71438","1000","0.0139981522439","1","undefined","1","0","73","73","73","0","73","73","73","NA","73","73","0","73","NA","73","73","0","73","NA","73","NA","73","0","0","73","73","0","73","73","74","z","07/17/18 15:52:38","The main experiment item","yes","FIN__BA__M21__7%3A10%3A17.osexp","C:\Users\ERP Testing Room\Desktop\Joanna\morph21","no","mono","no","18","no","white","no","yes","1080","legacy","73","73","C:/Users/ERP Testing Room/Desktop/Joanna/morph21/subject-129.csv","xpyriment","Jazzy James","3.1.4","0","z","NA","NA","NA","NA","space","z","604","NA","NA","NA","NA","11886","604","2","legacy","1024","2","48000","-16","BA_m21","129","odd","FILL_NW","VOOFS","1762","288054","286462","280094","13658","NA","NA","NA","NA","288044","286960","NA","285962","NA","285958","288044","1772","288354","NA","NA","287054","1762","1762","287446","285958","1762","287054","288354","morph21_Oliver/Morris","67","51503","74","yes","1280","48"
"400","90.6666666667","90.6666666667","699.133333333","699.133333333","black","no","xpyriment","legacy","legacy","0","204","NA","uniform","57925","1000","0.0172637030643","undefined","undefined","1","0","74","74","74","0","74","74","74","NA","74","74","0","74","NA","74","74","0","74","NA","74","NA","74","0","0","74","74","0","74","74","75","z","07/17/18 15:52:38","The main experiment item","yes","FIN__BA__M21__7%3A10%3A17.osexp","C:\Users\ERP Testing Room\Desktop\Joanna\morph21","no","mono","no","18","no","white","no","yes","1080","legacy","74","74","C:/Users/ERP Testing Room/Desktop/Joanna/morph21/subject-129.csv","xpyriment","Jazzy James","3.1.4","0","space","space","NA","NA","NA","space","z","19704","19704","NA","NA","NA","11886","932","2","legacy","1024","2","48000","-16","BA_m21","129","odd","NW_L_COMP","ANGELITH","1762","292746","289629","291238","13658","293154","NA","NA","NA","291231","290126","NA","289129","NA","289119","291231","1772","312859","NA","NA","290238","1762","1762","290629","289119","1762","290238","293146","morph21_Oliver/Morris","68","52435","75","yes","1280","7"
"250","90.7894736842","90.7894736842","701.460526316","701.460526316","black","no","xpyriment","legacy","legacy","0","208","NA","uniform","63603","1000","0.0157225288115","1","undefined","1","0","75","75","75","0","75","75","75","NA","75","75","0","75","NA","75","75","0","75","NA","75","NA","75","0","0","75","75","0","75","75","76","z","07/17/18 15:52:38","The main experiment item","yes","FIN__BA__M21__7%3A10%3A17.osexp","C:\Users\ERP Testing Room\Desktop\Joanna\morph21","no","mono","no","18","no","white","no","yes","1080","legacy","75","75","C:/Users/ERP Testing Room/Desktop/Joanna/morph21/subject-129.csv","xpyriment","Jazzy James","3.1.4","0","z","space","NA","NA","NA","space","z","876","19704","NA","NA","NA","11886","876","2","legacy","1024","2","48000","-16","BA_m21","129","odd","FILL_NW","PIFTH","1762","315590","313990","291238","13658","293154","NA","NA","NA","315582","314487","NA","313490","NA","313483","315582","1772","315840","NA","NA","314590","1762","1762","314981","313483","1762","314590","315840","morph21_Oliver/Morris","69","53311","76","yes","1280","36"
"300","90.9090909091","90.9090909091","700.883116883","700.883116883","black","no","xpyriment","legacy","legacy","0","208","NA","uniform","75081","1000","0.0133189488686","1","undefined","1","0","76","76","76","0","76","76","76","NA","76","76","0","76","NA","76","76","0","76","NA","76","NA","76","0","0","76","76","0","76","76","77","z","07/17/18 15:52:38","The main experiment item","yes","FIN__BA__M21__7%3A10%3A17.osexp","C:\Users\ERP Testing Room\Desktop\Joanna\morph21","no","mono","no","18","no","white","no","yes","1080","legacy","76","76","C:/Users/ERP Testing Room/Desktop/Joanna/morph21/subject-129.csv","xpyriment","Jazzy James","3.1.4","0","z","space","NA","NA","NA","space","z","657","19704","NA","NA","NA","11886","657","2","legacy","1024","2","48000","-16","BA_m21","129","odd","FILL_NW","DULKS","1762","318674","317090","291238","13658","293154","NA","NA","NA","318671","317587","NA","316590","NA","316579","318671","1772","318974","NA","NA","317681","1762","1762","318073","316579","1762","317681","318974","morph21_Oliver/Morris","70","53968","77","yes","1280","18"
"350","91.0256410256","91.0256410256","699.782051282","699.782051282","black","no","xpyriment","legacy","legacy","0","202","NA","uniform","63993","1000","0.0156267091713","1","undefined","1","0","77","77","77","0","77","77","77","NA","77","77","0","77","NA","77","77","0","77","NA","77","NA","77","0","0","77","77","0","77","77","78","/","07/17/18 15:52:38","The main experiment item","yes","FIN__BA__M21__7%3A10%3A17.osexp","C:\Users\ERP Testing Room\Desktop\Joanna\morph21","no","mono","no","18","no","white","no","yes","1080","legacy","77","77","C:/Users/ERP Testing Room/Desktop/Joanna/morph21/subject-129.csv","xpyriment","Jazzy James","3.1.4","0","/","space","NA","NA","NA","space","/","615","19704","NA","NA","NA","11886","615","2","legacy","1024","2","48000","-16","BA_m21","129","odd","CW_L","EDITOR","1762","323408","320291","321899","13658","293154","NA","NA","NA","321890","320788","NA","319791","NA","319786","321890","1772","323758","NA","NA","320899","1762","1762","321291","319786","1762","320899","323758","morph21_Oliver/Morris","71","54583","78","yes","1280","45"
"400","91.1392405063","91.1392405063","698.936708861","698.936708861","black","no","xpyriment","legacy","legacy","0","201","NA","uniform","61691","1000","0.0162098199089","1","undefined","1","0","78","78","78","0","78","78","78","NA","78","78","0","78","NA","78","78","0","78","NA","78","NA","78","0","0","78","78","0","78","78","79","/","07/17/18 15:52:38","The main experiment item","yes","FIN__BA__M21__7%3A10%3A17.osexp","C:\Users\ERP Testing Room\Desktop\Joanna\morph21","no","mono","no","18","no","white","no","yes","1080","legacy","78","78","C:/Users/ERP Testing Room/Desktop/Joanna/morph21/subject-129.csv","xpyriment","Jazzy James","3.1.4","0","/","space","NA","NA","NA","space","/","633","19704","NA","NA","NA","11886","633","2","legacy","1024","2","48000","-16","BA_m21","129","odd","CW_S","DIETARY","1762","326633","325016","321899","13658","293154","NA","NA","NA","326623","325513","NA","324516","NA","324511","326623","1772","327033","NA","NA","325633","1762","1762","326024","324511","1762","325633","327033","morph21_Oliver/Morris","72","55216","79","yes","1280","6"
"200","91.25","91.25","697.1125","697.1125","black","no","xpyriment","legacy","legacy","0","208","NA","uniform","70687","1000","0.0141468728338","1","undefined","1","0","79","79","79","0","79","79","79","NA","79","79","0","79","NA","79","79","0","79","NA","79","NA","79","0","0","79","79","0","79","79","80","z","07/17/18 15:52:38","The main experiment item","yes","FIN__BA__M21__7%3A10%3A17.osexp","C:\Users\ERP Testing Room\Desktop\Joanna\morph21","no","mono","no","18","no","white","no","yes","1080","legacy","79","79","C:/Users/ERP Testing Room/Desktop/Joanna/morph21/subject-129.csv","xpyriment","Jazzy James","3.1.4","0","z","space","NA","NA","NA","space","z","553","19704","NA","NA","NA","11886","553","2","legacy","1024","2","48000","-16","BA_m21","129","odd","FILL_NW","HOITS","1762","330033","328450","321899","13658","293154","NA","NA","NA","330027","328947","NA","327950","NA","327939","330027","1772","330233","NA","NA","329033","1762","1762","329425","327939","1762","329033","330233","morph21_Oliver/Morris","73","55769","80","yes","1280","30"
"400","91.3580246914","91.3580246914","694.432098765","694.432098765","black","no","xpyriment","legacy","legacy","0","201","NA","uniform","66121","1000","0.0151237882065","1","undefined","1","0","80","80","80","0","80","80","80","NA","80","80","0","80","NA","80","80","0","80","NA","80","NA","80","0","0","80","80","0","80","80","81","/","07/17/18 15:52:38","The main experiment item","yes","FIN__BA__M21__7%3A10%3A17.osexp","C:\Users\ERP Testing Room\Desktop\Joanna\morph21","no","mono","no","18","no","white","no","yes","1080","legacy","80","80","C:/Users/ERP Testing Room/Desktop/Joanna/morph21/subject-129.csv","xpyriment","Jazzy James","3.1.4","0","/","space","NA","NA","NA","space","/","480","19704","NA","NA","NA","11886","480","2","legacy","1024","2","48000","-16","BA_m21","129","odd","CW_S","RAIDER","1762","334575","331458","333066","13658","293154","NA","NA","NA","333060","331955","NA","330958","NA","330949","333060","1772","334975","NA","NA","332066","1762","1762","332458","330949","1762","332066","334975","morph21_Oliver/Morris","74","56249","81","yes","1280","12"
"200","91.4634146341","91.4634146341","693.5","693.5","black","no","xpyriment","legacy","legacy","0","204","NA","uniform","60318","1000","0.0165787990318","1","undefined","1","0","81","81","81","0","81","81","81","NA","81","81","0","81","NA","81","81","0","81","NA","81","NA","81","0","0","81","81","0","81","81","82","z","07/17/18 15:52:38","The main experiment item","yes","FIN__BA__M21__7%3A10%3A17.osexp","C:\Users\ERP Testing Room\Desktop\Joanna\morph21","no","mono","no","18","no","white","no","yes","1080","legacy","81","81","C:/Users/ERP Testing Room/Desktop/Joanna/morph21/subject-129.csv","xpyriment","Jazzy James","3.1.4","0","z","space","NA","NA","NA","space","z","618","19704","NA","NA","NA","11886","618","2","legacy","1024","2","48000","-16","BA_m21","129","odd","NW_L_COMP","GASFIL","1762","337768","336184","333066","13658","293154","NA","NA","NA","337759","336681","NA","335684","NA","335676","337759","1772","337968","NA","NA","336768","1762","1762","337159","335676","1762","336768","337968","morph21_Oliver/Morris","75","56867","82","yes","1280","6"
"250","91.5662650602","91.5662650602","690.397590361","690.397590361","black","no","xpyriment","legacy","legacy","0","207","NA","uniform","73942","1000","0.0135241134944","1","undefined","1","0","82","82","82","0","82","82","82","NA","82","82","0","82","NA","82","82","0","82","NA","82","NA","82","0","0","82","82","0","82","82","83","/","07/17/18 15:52:38","The main experiment item","yes","FIN__BA__M21__7%3A10%3A17.osexp","C:\Users\ERP Testing Room\Desktop\Joanna\morph21","no","mono","no","18","no","white","no","yes","1080","legacy","82","82","C:/Users/ERP Testing Room/Desktop/Joanna/morph21/subject-129.csv","xpyriment","Jazzy James","3.1.4","0","/","space","NA","NA","NA","space","/","436","19704","NA","NA","NA","11886","436","2","legacy","1024","2","48000","-16","BA_m21","129","odd","FILL_W","SLIM","1762","340918","339309","333066","13658","293154","NA","NA","NA","340907","339806","NA","338809","NA","338804","340907","1772","341168","NA","NA","339918","1762","1762","340309","338804","1762","339918","341168","morph21_Oliver/Morris","76","57303","83","yes","1280","6"
"400","91.6666666667","91.6666666667","688.226190476","688.226190476","black","no","xpyriment","legacy","legacy","0","202","NA","uniform","77632","1000","0.0128812860676","1","undefined","1","0","83","83","83","0","83","83","83","NA","83","83","0","83","NA","83","83","0","83","NA","83","NA","83","0","0","83","83","0","83","83","84","/","07/17/18 15:52:38","The main experiment item","yes","FIN__BA__M21__7%3A10%3A17.osexp","C:\Users\ERP Testing Room\Desktop\Joanna\morph21","no","mono","no","18","no","white","no","yes","1080","legacy","83","83","C:/Users/ERP Testing Room/Desktop/Joanna/morph21/subject-129.csv","xpyriment","Jazzy James","3.1.4","0","/","space","NA","NA","NA","space","/","508","19704","NA","NA","NA","11886","508","2","legacy","1024","2","48000","-16","BA_m21","129","odd","CW_L","CONDUCTOR","1762","345626","342518","344118","13658","293154","NA","NA","NA","344114","343015","NA","342018","NA","342013","344114","1772","346027","NA","NA","343118","1762","1762","343518","342013","1762","343118","346027","morph21_Oliver/Morris","77","57811","84","yes","1280","44"
"200","90.5882352941","90.5882352941","690.847058824","690.847058824","black","no","xpyriment","legacy","legacy","0","208","NA","uniform","56532","1000","0.017689096441","0","undefined","0","0","84","84","84","0","84","84","84","NA","84","84","0","84","NA","84","84","0","84","NA","84","NA","84","0","0","84","84","0","84","84","85","z","07/17/18 15:52:38","The main experiment item","yes","FIN__BA__M21__7%3A10%3A17.osexp","C:\Users\ERP Testing Room\Desktop\Joanna\morph21","no","mono","no","18","no","white","no","yes","1080","legacy","84","84","C:/Users/ERP Testing Room/Desktop/Joanna/morph21/subject-129.csv","xpyriment","Jazzy James","3.1.4","0","/","space","NA","NA","NA","space","/","911","19704","NA","NA","NA","11886","911","2","legacy","1024","2","48000","-16","BA_m21","129","odd","FILL_NW","FROT","1762","348826","347243","344118","13658","293154","NA","NA","NA","344114","347740","NA","346743","NA","346737","348824","1772","349026","NA","NA","347835","1762","1762","348226","346737","1762","347835","349026","morph21_Oliver/Morris","77","58722","85","yes","1280","22"
"400","90.6976744186","90.6976744186","688.813953488","688.813953488","black","no","xpyriment","legacy","legacy","0","202","NA","uniform","75555","1000","0.0132353914367","1","undefined","1","0","85","85","85","0","85","85","85","NA","85","85","0","85","NA","85","85","0","85","NA","85","NA","85","0","0","85","85","0","85","85","86","/","07/17/18 15:52:38","The main experiment item","yes","FIN__BA__M21__7%3A10%3A17.osexp","C:\Users\ERP Testing Room\Desktop\Joanna\morph21","no","mono","no","18","no","white","no","yes","1080","legacy","85","85","C:/Users/ERP Testing Room/Desktop/Joanna/morph21/subject-129.csv","xpyriment","Jazzy James","3.1.4","0","/","space","NA","NA","NA","space","/","516","19704","NA","NA","NA","11886","516","2","legacy","1024","2","48000","-16","BA_m21","129","odd","CW_L","CLOUDLESS","1762","351918","350335","344118","13658","293154","NA","NA","NA","351913","350832","NA","349835","NA","349827","351913","1772","352318","NA","NA","350918","1762","1762","351318","349827","1762","350918","352318","morph21_Oliver/Morris","78","59238","86","yes","1280","33"
"350","90.8045977011","90.8045977011","686.114942529","686.114942529","black","no","xpyriment","legacy","legacy","0","202","NA","uniform","72393","1000","0.0138134902546","1","undefined","1","0","86","86","86","0","86","86","86","NA","86","86","0","86","NA","86","86","0","86","NA","86","NA","86","0","0","86","86","0","86","86","87","/","07/17/18 15:52:38","The main experiment item","yes","FIN__BA__M21__7%3A10%3A17.osexp","C:\Users\ERP Testing Room\Desktop\Joanna\morph21","no","mono","no","18","no","white","no","yes","1080","legacy","86","86","C:/Users/ERP Testing Room/Desktop/Joanna/morph21/subject-129.csv","xpyriment","Jazzy James","3.1.4","0","/","space","NA","NA","NA","space","/","454","19704","NA","NA","NA","11886","454","2","legacy","1024","2","48000","-16","BA_m21","129","odd","CW_L","KICKING","1762","356736","353611","355228","13658","293154","NA","NA","NA","355222","354108","NA","353110","NA","353104","355222","1772","357086","NA","NA","354228","1762","1762","354619","353104","1762","354228","357086","morph21_Oliver/Morris","79","59692","87","yes","1280","23"
"300","90.9090909091","90.9090909091","689.159090909","689.159090909","black","no","xpyriment","legacy","legacy","0","205","NA","uniform","58221","1000","0.0171759330826","1","undefined","1","0","87","87","87","0","87","87","87","NA","87","87","0","87","NA","87","87","0","87","NA","87","NA","87","0","0","87","87","0","87","87","88","z","07/17/18 15:52:38","The main experiment item","yes","FIN__BA__M21__7%3A10%3A17.osexp","C:\Users\ERP Testing Room\Desktop\Joanna\morph21","no","mono","no","18","no","white","no","yes","1080","legacy","87","87","C:/Users/ERP Testing Room/Desktop/Joanna/morph21/subject-129.csv","xpyriment","Jazzy James","3.1.4","0","z","space","NA","NA","NA","space","z","954","19704","NA","NA","NA","11886","954","2","legacy","1024","2","48000","-16","BA_m21","129","odd","NW_S_SIMP","YIELDIST","1762","359936","358353","355228","13658","293154","NA","NA","NA","359928","358850","NA","357853","NA","357849","359928","1772","360236","NA","NA","358936","1762","1762","359328","357849","1762","358936","360236","morph21_Oliver/Morris","80","60646","88","yes","1280","20"
"300","89.8876404494","89.8876404494","692.539325843","692.539325843","black","no","xpyriment","legacy","legacy","0","202","NA","uniform","57673","1000","0.0173391361642","0","undefined","0","0","88","88","88","0","88","88","88","NA","88","88","0","88","NA","88","88","0","88","NA","88","NA","88","0","0","88","88","0","88","88","89","/","07/17/18 15:52:38","The main experiment item","yes","FIN__BA__M21__7%3A10%3A17.osexp","C:\Users\ERP Testing Room\Desktop\Joanna\morph21","no","mono","no","18","no","white","no","yes","1080","legacy","88","88","C:/Users/ERP Testing Room/Desktop/Joanna/morph21/subject-129.csv","xpyriment","Jazzy James","3.1.4","0","None","space","NA","NA","NA","space","None","990","19704","NA","NA","NA","11886","990","2","legacy","1024","2","48000","-16","BA_m21","129","odd","CW_L","DAMPISH","1762","363220","361595","355228","13658","293154","NA","NA","NA","359928","362092","NA","361095","NA","361090","363211","1772","363520","NA","NA","362220","1762","1762","362611","361090","1762","362220","363520","morph21_Oliver/Morris","80","61636","89","yes","1280","28"
"400","90","90","690.444444444","690.444444444","black","no","xpyriment","legacy","legacy","0","202","NA","uniform","75119","1000","0.0133122112914","1","undefined","1","0","89","89","89","0","89","89","89","NA","89","89","0","89","NA","89","89","0","89","NA","89","NA","89","0","0","89","89","0","89","89","90","/","07/17/18 15:52:38","The main experiment item","yes","FIN__BA__M21__7%3A10%3A17.osexp","C:\Users\ERP Testing Room\Desktop\Joanna\morph21","no","mono","no","18","no","white","no","yes","1080","legacy","89","89","C:/Users/ERP Testing Room/Desktop/Joanna/morph21/subject-129.csv","xpyriment","Jazzy James","3.1.4","0","/","space","NA","NA","NA","space","/","504","19704","NA","NA","NA","11886","504","2","legacy","1024","2","48000","-16","BA_m21","129","odd","CW_L","SPELLER","1762","367887","364786","366378","13658","293154","NA","NA","NA","366370","365284","NA","364286","NA","364282","366370","1772","368287","NA","NA","365378","1762","1762","365770","364282","1762","365378","368287","morph21_Oliver/Morris","81","62140","90","yes","1280","3"
"250","90.1098901099","90.1098901099","688.923076923","688.923076923","black","no","xpyriment","legacy","legacy","0","201","NA","uniform","71035","1000","0.0140775673964","1","undefined","1","0","90","90","90","0","90","90","90","NA","90","90","0","90","NA","90","90","0","90","NA","90","NA","90","0","0","90","90","0","90","90","91","/","07/17/18 15:52:38","The main experiment item","yes","FIN__BA__M21__7%3A10%3A17.osexp","C:\Users\ERP Testing Room\Desktop\Joanna\morph21","no","mono","no","18","no","white","no","yes","1080","legacy","90","90","C:/Users/ERP Testing Room/Desktop/Joanna/morph21/subject-129.csv","xpyriment","Jazzy James","3.1.4","0","/","space","NA","NA","NA","space","/","552","19704","NA","NA","NA","11886","552","2","legacy","1024","2","48000","-16","BA_m21","129","odd","CW_S","JAILER","1762","371188","369578","366378","13658","293154","NA","NA","NA","371183","370075","NA","369078","NA","369067","371183","1772","371438","NA","NA","370187","1762","1762","370587","369067","1762","370187","371438","morph21_Oliver/Morris","82","62692","91","yes","1280","13"
