"ITI","acc","accuracy","average_response_time","avg_rt","background","bidi","canvas_backend","clock_backend","color_backend","compensation","cond_trig","condtrigtime","coordinates","coroutines_cycles","coroutines_duration","coroutines_mean_cycle_duration","correct","correct_instructions_1","correct_new_keyboard_response_1","count_BA_m21","count_ITI","count_blank_screen","count_blink_screen","count_block1","count_break1","count_break2","count_break3_1","count_canvas","count_correct_trigger","count_def_chain","count_end_screen","count_fixation_1","count_getting_started","count_inc_counter","count_incorrect_trigger","count_instructions_1","count_logger","count_logscript","count_new_coroutines","count_new_inline_script","count_new_keyboard_response_1","count_reset_counter_prep","count_reset_counter_run","count_responsescreen","count_sequence","count_start_trigger","count_target_present","count_word_trigger","counter","cresp","datetime","description","disable_garbage_collection","experiment_file","experiment_path","font_bold","font_family","font_italic","font_size","font_underline","foreground","form_clicks","fullscreen","height","keyboard_backend","live_row","live_row_block1","logfile","mouse_backend","opensesame_codename","opensesame_version","repeat_cycle","response","response_break1","response_break2","response_break3_1","response_end_screen","response_instructions_1","response_new_keyboard_response_1","response_time","response_time_break1","response_time_break2","response_time_break3_1","response_time_end_screen","response_time_instructions_1","response_time_new_keyboard_response_1","round_decimals","sampler_backend","sound_buf_size","sound_channels","sound_freq","sound_sample_size","start","subject_nr","subject_parity","targ_type","target","time_BA_m21","time_ITI","time_blank_screen","time_blink_screen","time_block1","time_break1","time_break2","time_break3_1","time_canvas","time_correct_trigger","time_def_chain","time_end_screen","time_fixation_1","time_getting_started","time_inc_counter","time_incorrect_trigger","time_instructions_1","time_logger","time_logscript","time_new_inline_script","time_new_keyboard_response_1","time_reset_counter_prep","time_reset_counter_run","time_responsescreen","time_sequence","time_start_trigger","time_target_present","time_word_trigger","title","total_correct","total_response_time","total_responses","uniform_coordinates","width","word_trig"
"250","100","100","738","738","black","no","xpyriment","legacy","legacy","0","201","NA","uniform","70069","1000","0.0142716465199","1","undefined","1","0","0","0","0","0","0","0","0","NA","0","0","0","0","NA","0","0","0","0","NA","0","NA","0","0","0","0","0","0","0","0","1","/","10/24/18 16:30:48","The main experiment item","yes","FIN__BA__M21__7%3A10%3A17.osexp","C:\Users\ERP Testing Room\Desktop\Joanna\morph21","no","mono","no","18","no","white","no","yes","1080","legacy","0","0","C:/Users/ERP Testing Room/Desktop/Joanna/morph21/subject-144-2.csv","xpyriment","Jazzy James","3.1.4","0","/","NA","NA","NA","NA","space","/","738","NA","NA","NA","NA","74362","738","2","legacy","1024","2","48000","-16","BA_m21","144","even","CW_S","HARMLESS","1621","78821","77238","NA","75999","NA","NA","NA","NA","78817","77735","NA","76732","NA","76661","78817","1637","79071","NA","NA","77821","1621","1621","78221","76661","1621","77821","79071","morph21_Oliver/Morris","1","738","1","yes","1280","29"
"350","100","100","773","773","black","no","xpyriment","legacy","legacy","0","202","NA","uniform","67457","1000","0.0148242584165","1","undefined","1","0","1","1","1","0","1","1","1","NA","1","1","0","1","NA","1","1","0","1","NA","1","NA","1","0","0","1","1","0","1","1","2","/","10/24/18 16:30:48","The main experiment item","yes","FIN__BA__M21__7%3A10%3A17.osexp","C:\Users\ERP Testing Room\Desktop\Joanna\morph21","no","mono","no","18","no","white","no","yes","1080","legacy","1","1","C:/Users/ERP Testing Room/Desktop/Joanna/morph21/subject-144-2.csv","xpyriment","Jazzy James","3.1.4","0","/","NA","NA","NA","NA","space","/","808","NA","NA","NA","NA","74362","808","2","legacy","1024","2","48000","-16","BA_m21","144","even","CW_L","BARKER","1621","81822","80230","NA","75999","NA","NA","NA","NA","81818","80727","NA","79730","NA","79727","81818","1637","82172","NA","NA","80822","1621","1621","81222","79727","1621","80822","82172","morph21_Oliver/Morris","2","1546","2","yes","1280","2"
"300","100","100","738","738","black","no","xpyriment","legacy","legacy","0","208","NA","uniform","72966","1000","0.0137050132939","1","undefined","1","0","2","2","2","0","2","2","2","NA","2","2","0","2","NA","2","2","0","2","NA","2","NA","2","0","0","2","2","0","2","2","3","z","10/24/18 16:30:48","The main experiment item","yes","FIN__BA__M21__7%3A10%3A17.osexp","C:\Users\ERP Testing Room\Desktop\Joanna\morph21","no","mono","no","18","no","white","no","yes","1080","legacy","2","2","C:/Users/ERP Testing Room/Desktop/Joanna/morph21/subject-144-2.csv","xpyriment","Jazzy James","3.1.4","0","z","NA","NA","NA","NA","space","z","668","NA","NA","NA","NA","74362","668","2","legacy","1024","2","48000","-16","BA_m21","144","even","FILL_NW","DASK","1621","86431","83322","84922","75999","NA","NA","NA","NA","84915","83819","NA","82822","NA","82818","84915","1637","86731","NA","NA","83922","1621","1621","84313","82817","1621","83922","86731","morph21_Oliver/Morris","3","2214","3","yes","1280","12"
"250","100","100","756.5","756.5","black","no","xpyriment","legacy","legacy","0","207","NA","uniform","65493","1000","0.0152688073535","1","undefined","1","0","3","3","3","0","3","3","3","NA","3","3","0","3","NA","3","3","0","3","NA","3","NA","3","0","0","3","3","0","3","3","4","/","10/24/18 16:30:48","The main experiment item","yes","FIN__BA__M21__7%3A10%3A17.osexp","C:\Users\ERP Testing Room\Desktop\Joanna\morph21","no","mono","no","18","no","white","no","yes","1080","legacy","3","3","C:/Users/ERP Testing Room/Desktop/Joanna/morph21/subject-144-2.csv","xpyriment","Jazzy James","3.1.4","0","/","NA","NA","NA","NA","space","/","812","NA","NA","NA","NA","74362","812","2","legacy","1024","2","48000","-16","BA_m21","144","even","FILL_W","SMOKE","1621","89523","87931","84922","75999","NA","NA","NA","NA","89513","88428","NA","87431","NA","87426","89513","1637","89773","NA","NA","88523","1621","1621","88915","87426","1621","88523","89773","morph21_Oliver/Morris","4","3026","4","yes","1280","50"
"250","100","100","759.4","759.4","black","no","xpyriment","legacy","legacy","0","207","NA","uniform","69422","1000","0.0144046555847","1","undefined","1","0","4","4","4","0","4","4","4","NA","4","4","0","4","NA","4","4","0","4","NA","4","NA","4","0","0","4","4","0","4","4","5","/","10/24/18 16:30:48","The main experiment item","yes","FIN__BA__M21__7%3A10%3A17.osexp","C:\Users\ERP Testing Room\Desktop\Joanna\morph21","no","mono","no","18","no","white","no","yes","1080","legacy","4","4","C:/Users/ERP Testing Room/Desktop/Joanna/morph21/subject-144-2.csv","xpyriment","Jazzy James","3.1.4","0","/","NA","NA","NA","NA","space","/","771","NA","NA","NA","NA","74362","771","2","legacy","1024","2","48000","-16","BA_m21","144","even","FILL_W","STARVE","1621","92548","90948","84922","75999","NA","NA","NA","NA","92542","91445","NA","90448","NA","90442","92542","1637","92798","NA","NA","91548","1621","1621","91940","90442","1621","91548","92798","morph21_Oliver/Morris","5","3797","5","yes","1280","15"
"200","100","100","769.333333333","769.333333333","black","no","xpyriment","legacy","legacy","0","201","NA","uniform","68802","1000","0.0145344612075","1","undefined","1","0","5","5","5","0","5","5","5","NA","5","5","0","5","NA","5","5","0","5","NA","5","NA","5","0","0","5","5","0","5","5","6","/","10/24/18 16:30:48","The main experiment item","yes","FIN__BA__M21__7%3A10%3A17.osexp","C:\Users\ERP Testing Room\Desktop\Joanna\morph21","no","mono","no","18","no","white","no","yes","1080","legacy","5","5","C:/Users/ERP Testing Room/Desktop/Joanna/morph21/subject-144-2.csv","xpyriment","Jazzy James","3.1.4","0","/","NA","NA","NA","NA","space","/","819","NA","NA","NA","NA","74362","819","2","legacy","1024","2","48000","-16","BA_m21","144","even","CW_S","AMUSEMENT","1621","97048","93956","95540","75999","NA","NA","NA","NA","95533","94454","NA","93456","NA","93449","95533","1637","97248","NA","NA","94540","1621","1621","94931","93449","1621","94540","97248","morph21_Oliver/Morris","6","4616","6","yes","1280","38"
"350","100","100","756.571428571","756.571428571","black","no","xpyriment","legacy","legacy","0","203","NA","uniform","68149","1000","0.0146737296219","1","undefined","1","0","6","6","6","0","6","6","6","NA","6","6","0","6","NA","6","6","0","6","NA","6","NA","6","0","0","6","6","0","6","6","7","z","10/24/18 16:30:48","The main experiment item","yes","FIN__BA__M21__7%3A10%3A17.osexp","C:\Users\ERP Testing Room\Desktop\Joanna\morph21","no","mono","no","18","no","white","no","yes","1080","legacy","6","6","C:/Users/ERP Testing Room/Desktop/Joanna/morph21/subject-144-2.csv","xpyriment","Jazzy James","3.1.4","0","z","NA","NA","NA","NA","space","z","680","NA","NA","NA","NA","74362","680","2","legacy","1024","2","48000","-16","BA_m21","144","even","NW_S_COMP","PRINCEMANT","1621","99982","98415","95540","75999","NA","NA","NA","NA","99974","98912","NA","97915","NA","97909","99974","1637","100332","NA","NA","98982","1621","1621","99373","97909","1621","98982","100332","morph21_Oliver/Morris","7","5296","7","yes","1280","17"
"250","100","100","751.375","751.375","black","no","xpyriment","legacy","legacy","0","203","NA","uniform","62432","1000","0.0160174269605","1","undefined","1","0","7","7","7","0","7","7","7","NA","7","7","0","7","NA","7","7","0","7","NA","7","NA","7","0","0","7","7","0","7","7","8","z","10/24/18 16:30:48","The main experiment item","yes","FIN__BA__M21__7%3A10%3A17.osexp","C:\Users\ERP Testing Room\Desktop\Joanna\morph21","no","mono","no","18","no","white","no","yes","1080","legacy","7","7","C:/Users/ERP Testing Room/Desktop/Joanna/morph21/subject-144-2.csv","xpyriment","Jazzy James","3.1.4","0","z","NA","NA","NA","NA","space","z","715","NA","NA","NA","NA","74362","715","2","legacy","1024","2","48000","-16","BA_m21","144","even","NW_S_COMP","LIDADY","1621","103115","101515","95540","75999","NA","NA","NA","NA","103105","102012","NA","101015","NA","101007","103105","1637","103365","NA","NA","102115","1621","1621","102507","101007","1621","102115","103365","morph21_Oliver/Morris","8","6011","8","yes","1280","3"
"200","100","100","736.555555556","736.555555556","black","no","xpyriment","legacy","legacy","0","207","NA","uniform","74392","1000","0.0134423056243","1","undefined","1","0","8","8","8","0","8","8","8","NA","8","8","0","8","NA","8","8","0","8","NA","8","NA","8","0","0","8","8","0","8","8","9","/","10/24/18 16:30:48","The main experiment item","yes","FIN__BA__M21__7%3A10%3A17.osexp","C:\Users\ERP Testing Room\Desktop\Joanna\morph21","no","mono","no","18","no","white","no","yes","1080","legacy","8","8","C:/Users/ERP Testing Room/Desktop/Joanna/morph21/subject-144-2.csv","xpyriment","Jazzy James","3.1.4","0","/","NA","NA","NA","NA","space","/","618","NA","NA","NA","NA","74362","618","2","legacy","1024","2","48000","-16","BA_m21","144","even","FILL_W","FLOAT","1621","107650","104541","106141","75999","NA","NA","NA","NA","106136","105038","NA","104041","NA","104032","106136","1637","107850","NA","NA","105141","1621","1621","105541","104032","1621","105141","107850","morph21_Oliver/Morris","9","6629","9","yes","1280","30"
"250","100","100","732.8","732.8","black","no","xpyriment","legacy","legacy","0","201","NA","uniform","69081","1000","0.0144757603393","1","undefined","1","0","9","9","9","0","9","9","9","NA","9","9","0","9","NA","9","9","0","9","NA","9","NA","9","0","0","9","9","0","9","9","10","/","10/24/18 16:30:48","The main experiment item","yes","FIN__BA__M21__7%3A10%3A17.osexp","C:\Users\ERP Testing Room\Desktop\Joanna\morph21","no","mono","no","18","no","white","no","yes","1080","legacy","9","9","C:/Users/ERP Testing Room/Desktop/Joanna/morph21/subject-144-2.csv","xpyriment","Jazzy James","3.1.4","0","/","NA","NA","NA","NA","space","/","699","NA","NA","NA","NA","74362","699","2","legacy","1024","2","48000","-16","BA_m21","144","even","CW_S","JAILER","1621","110708","109100","106141","75999","NA","NA","NA","NA","110700","109597","NA","108600","NA","108590","110700","1637","110958","NA","NA","109708","1621","1621","110100","108590","1621","109708","110958","morph21_Oliver/Morris","10","7328","10","yes","1280","13"
"200","100","100","723.727272727","723.727272727","black","no","xpyriment","legacy","legacy","0","208","NA","uniform","72906","1000","0.0137162922119","1","undefined","1","0","10","10","10","0","10","10","10","NA","10","10","0","10","NA","10","10","0","10","NA","10","NA","10","0","0","10","10","0","10","10","11","z","10/24/18 16:30:48","The main experiment item","yes","FIN__BA__M21__7%3A10%3A17.osexp","C:\Users\ERP Testing Room\Desktop\Joanna\morph21","no","mono","no","18","no","white","no","yes","1080","legacy","10","10","C:/Users/ERP Testing Room/Desktop/Joanna/morph21/subject-144-2.csv","xpyriment","Jazzy James","3.1.4","0","z","NA","NA","NA","NA","space","z","633","NA","NA","NA","NA","74362","633","2","legacy","1024","2","48000","-16","BA_m21","144","even","FILL_NW","HESK","1621","113750","112142","106141","75999","NA","NA","NA","NA","113742","112639","NA","111642","NA","111638","113742","1637","113950","NA","NA","112750","1621","1621","113142","111638","1621","112750","113950","morph21_Oliver/Morris","11","7961","11","yes","1280","29"
"400","91.6666666667","91.6666666667","711.583333333","711.583333333","black","no","xpyriment","legacy","legacy","0","206","NA","uniform","74174","1000","0.0134818130342","0","undefined","0","0","11","11","11","0","11","11","11","NA","11","11","0","11","NA","11","11","0","11","NA","11","NA","11","0","0","11","11","0","11","11","12","z","10/24/18 16:30:48","The main experiment item","yes","FIN__BA__M21__7%3A10%3A17.osexp","C:\Users\ERP Testing Room\Desktop\Joanna\morph21","no","mono","no","18","no","white","no","yes","1080","legacy","11","11","C:/Users/ERP Testing Room/Desktop/Joanna/morph21/subject-144-2.csv","xpyriment","Jazzy James","3.1.4","0","/","NA","NA","NA","NA","space","/","578","NA","NA","NA","NA","74362","578","2","legacy","1024","2","48000","-16","BA_m21","144","even","NW_L_SIMP","BLOODER","1621","118233","115158","116725","75999","NA","NA","NA","NA","113742","115656","NA","114651","NA","114644","116718","1637","118634","NA","NA","115725","1621","1621","116117","114644","1621","115725","118634","morph21_Oliver/Morris","11","8539","12","yes","1280","24"
"200","84.6153846154","84.6153846154","728.692307692","728.692307692","black","no","xpyriment","legacy","legacy","0","201","NA","uniform","60303","1000","0.016582922906","0","undefined","0","0","12","12","12","0","12","12","12","NA","12","12","0","12","NA","12","12","0","12","NA","12","NA","12","0","0","12","12","0","12","12","13","/","10/24/18 16:30:48","The main experiment item","yes","FIN__BA__M21__7%3A10%3A17.osexp","C:\Users\ERP Testing Room\Desktop\Joanna\morph21","no","mono","no","18","no","white","no","yes","1080","legacy","12","12","C:/Users/ERP Testing Room/Desktop/Joanna/morph21/subject-144-2.csv","xpyriment","Jazzy James","3.1.4","0","z","NA","NA","NA","NA","space","z","934","NA","NA","NA","NA","74362","934","2","legacy","1024","2","48000","-16","BA_m21","144","even","CW_S","THRUSTER","1621","121418","119834","116725","75999","NA","NA","NA","NA","113742","120331","NA","119334","NA","119330","121414","1637","121618","NA","NA","120425","1621","1621","120817","119330","1621","120425","121618","morph21_Oliver/Morris","11","9473","13","yes","1280","24"
"400","85.7142857143","85.7142857143","727.428571429","727.428571429","black","no","xpyriment","legacy","legacy","0","205","NA","uniform","71941","1000","0.0139002793956","1","undefined","1","0","13","13","13","0","13","13","13","NA","13","13","0","13","NA","13","13","0","13","NA","13","NA","13","0","0","13","13","0","13","13","14","z","10/24/18 16:30:48","The main experiment item","yes","FIN__BA__M21__7%3A10%3A17.osexp","C:\Users\ERP Testing Room\Desktop\Joanna\morph21","no","mono","no","18","no","white","no","yes","1080","legacy","13","13","C:/Users/ERP Testing Room/Desktop/Joanna/morph21/subject-144-2.csv","xpyriment","Jazzy James","3.1.4","0","z","NA","NA","NA","NA","space","z","711","NA","NA","NA","NA","74362","711","2","legacy","1024","2","48000","-16","BA_m21","144","even","NW_S_SIMP","RAMPIZE","1621","124376","122801","116725","75999","NA","NA","NA","NA","124372","123298","NA","122301","NA","122292","124372","1637","124776","NA","NA","123376","1621","1621","123776","122292","1621","123376","124776","morph21_Oliver/Morris","12","10184","14","yes","1280","6"
"250","86.6666666667","86.6666666667","730.733333333","730.733333333","black","no","xpyriment","legacy","legacy","0","208","NA","uniform","68299","1000","0.0146415028038","1","undefined","1","0","14","14","14","0","14","14","14","NA","14","14","0","14","NA","14","14","0","14","NA","14","NA","14","0","0","14","14","0","14","14","15","z","10/24/18 16:30:48","The main experiment item","yes","FIN__BA__M21__7%3A10%3A17.osexp","C:\Users\ERP Testing Room\Desktop\Joanna\morph21","no","mono","no","18","no","white","no","yes","1080","legacy","14","14","C:/Users/ERP Testing Room/Desktop/Joanna/morph21/subject-144-2.csv","xpyriment","Jazzy James","3.1.4","0","z","NA","NA","NA","NA","space","z","777","NA","NA","NA","NA","74362","777","2","legacy","1024","2","48000","-16","BA_m21","144","even","FILL_NW","PHEEKS","1621","129018","125943","127510","75999","NA","NA","NA","NA","127501","126440","NA","125443","NA","125434","127501","1637","129268","NA","NA","126510","1621","1621","126902","125434","1621","126510","129268","morph21_Oliver/Morris","13","10961","15","yes","1280","35"
"400","81.25","81.25","742.875","742.875","black","no","xpyriment","legacy","legacy","0","201","NA","uniform","64748","1000","0.015444492494","0","undefined","0","0","15","15","15","0","15","15","15","NA","15","15","0","15","NA","15","15","0","15","NA","15","NA","15","0","0","15","15","0","15","15","16","/","10/24/18 16:30:48","The main experiment item","yes","FIN__BA__M21__7%3A10%3A17.osexp","C:\Users\ERP Testing Room\Desktop\Joanna\morph21","no","mono","no","18","no","white","no","yes","1080","legacy","15","15","C:/Users/ERP Testing Room/Desktop/Joanna/morph21/subject-144-2.csv","xpyriment","Jazzy James","3.1.4","0","z","NA","NA","NA","NA","space","z","925","NA","NA","NA","NA","74362","925","2","legacy","1024","2","48000","-16","BA_m21","144","even","CW_S","RAIDER","1621","132002","130435","127510","75999","NA","NA","NA","NA","127501","130932","NA","129935","NA","129927","131998","1637","132402","NA","NA","131002","1621","1621","131402","129927","1621","131002","132402","morph21_Oliver/Morris","13","11886","16","yes","1280","12"
"350","82.3529411765","82.3529411765","734.352941176","734.352941176","black","no","xpyriment","legacy","legacy","0","203","NA","uniform","71045","1000","0.0140755858963","1","undefined","1","0","16","16","16","0","16","16","16","NA","16","16","0","16","NA","16","16","0","16","NA","16","NA","16","0","0","16","16","0","16","16","17","z","10/24/18 16:30:48","The main experiment item","yes","FIN__BA__M21__7%3A10%3A17.osexp","C:\Users\ERP Testing Room\Desktop\Joanna\morph21","no","mono","no","18","no","white","no","yes","1080","legacy","16","16","C:/Users/ERP Testing Room/Desktop/Joanna/morph21/subject-144-2.csv","xpyriment","Jazzy James","3.1.4","0","z","NA","NA","NA","NA","space","z","598","NA","NA","NA","NA","74362","598","2","legacy","1024","2","48000","-16","BA_m21","144","even","NW_S_COMP","WELDIG","1621","135169","133569","127510","75999","NA","NA","NA","NA","135166","134066","NA","133069","NA","133058","135166","1637","135519","NA","NA","134177","1621","1621","134569","133058","1621","134177","135519","morph21_Oliver/Morris","14","12484","17","yes","1280","21"
"250","83.3333333333","83.3333333333","740.222222222","740.222222222","black","no","xpyriment","legacy","legacy","0","207","NA","uniform","57495","1000","0.0173928167667","1","undefined","1","0","17","17","17","0","17","17","17","NA","17","17","0","17","NA","17","17","0","17","NA","17","NA","17","0","0","17","17","0","17","17","18","/","10/24/18 16:30:48","The main experiment item","yes","FIN__BA__M21__7%3A10%3A17.osexp","C:\Users\ERP Testing Room\Desktop\Joanna\morph21","no","mono","no","18","no","white","no","yes","1080","legacy","17","17","C:/Users/ERP Testing Room/Desktop/Joanna/morph21/subject-144-2.csv","xpyriment","Jazzy James","3.1.4","0","/","NA","NA","NA","NA","space","/","840","NA","NA","NA","NA","74362","840","2","legacy","1024","2","48000","-16","BA_m21","144","even","FILL_W","PREACH","1621","139803","136719","138294","75999","NA","NA","NA","NA","138288","137216","NA","136219","NA","136215","138288","1637","140053","NA","NA","137294","1621","1621","137685","136214","1621","137294","140053","morph21_Oliver/Morris","15","13324","18","yes","1280","7"
"350","84.2105263158","84.2105263158","730.052631579","730.052631579","black","no","xpyriment","legacy","legacy","0","206","NA","uniform","78236","1000","0.0127818395623","1","undefined","1","0","18","18","18","0","18","18","18","NA","18","18","0","18","NA","18","18","0","18","NA","18","NA","18","0","0","18","18","0","18","18","19","z","10/24/18 16:30:48","The main experiment item","yes","FIN__BA__M21__7%3A10%3A17.osexp","C:\Users\ERP Testing Room\Desktop\Joanna\morph21","no","mono","no","18","no","white","no","yes","1080","legacy","18","18","C:/Users/ERP Testing Room/Desktop/Joanna/morph21/subject-144-2.csv","xpyriment","Jazzy James","3.1.4","0","z","NA","NA","NA","NA","space","z","547","NA","NA","NA","NA","74362","547","2","legacy","1024","2","48000","-16","BA_m21","144","even","NW_L_SIMP","NUTLY","1621","142812","141220","138294","75999","NA","NA","NA","NA","142806","141717","NA","140720","NA","140710","142806","1637","143162","NA","NA","141812","1621","1621","142203","140710","1621","141811","143162","morph21_Oliver/Morris","16","13871","19","yes","1280","14"
"200","85","85","724.7","724.7","black","no","xpyriment","legacy","legacy","0","207","NA","uniform","73484","1000","0.0136084045507","1","undefined","1","0","19","19","19","0","19","19","19","NA","19","19","0","19","NA","19","19","0","19","NA","19","NA","19","0","0","19","19","0","19","19","20","/","10/24/18 16:30:48","The main experiment item","yes","FIN__BA__M21__7%3A10%3A17.osexp","C:\Users\ERP Testing Room\Desktop\Joanna\morph21","no","mono","no","18","no","white","no","yes","1080","legacy","19","19","C:/Users/ERP Testing Room/Desktop/Joanna/morph21/subject-144-2.csv","xpyriment","Jazzy James","3.1.4","0","/","NA","NA","NA","NA","space","/","623","NA","NA","NA","NA","74362","623","2","legacy","1024","2","48000","-16","BA_m21","144","even","FILL_W","LEGAL","1621","145928","144328","138294","75999","NA","NA","NA","NA","145919","144825","NA","143828","NA","143818","145919","1637","146128","NA","NA","144928","1621","1621","145320","143818","1621","144928","146128","morph21_Oliver/Morris","17","14494","20","yes","1280","35"
"200","85.7142857143","85.7142857143","719.904761905","719.904761905","black","no","xpyriment","legacy","legacy","0","208","NA","uniform","61615","1000","0.0162298141686","1","undefined","1","0","20","20","20","0","20","20","20","NA","20","20","0","20","NA","20","20","0","20","NA","20","NA","20","0","0","20","20","0","20","20","21","z","10/24/18 16:30:48","The main experiment item","yes","FIN__BA__M21__7%3A10%3A17.osexp","C:\Users\ERP Testing Room\Desktop\Joanna\morph21","no","mono","no","18","no","white","no","yes","1080","legacy","20","20","C:/Users/ERP Testing Room/Desktop/Joanna/morph21/subject-144-2.csv","xpyriment","Jazzy James","3.1.4","0","z","NA","NA","NA","NA","space","z","624","NA","NA","NA","NA","74362","624","2","legacy","1024","2","48000","-16","BA_m21","144","even","FILL_NW","GILN","1621","150387","147287","148878","75999","NA","NA","NA","NA","148874","147784","NA","146787","NA","146783","148874","1637","150587","NA","NA","147879","1621","1621","148278","146783","1621","147878","150587","morph21_Oliver/Morris","18","15118","21","yes","1280","25"
"400","86.3636363636","86.3636363636","718.727272727","718.727272727","black","no","xpyriment","legacy","legacy","0","205","NA","uniform","68998","1000","0.0144931737152","1","undefined","1","0","21","21","21","0","21","21","21","NA","21","21","0","21","NA","21","21","0","21","NA","21","NA","21","0","0","21","21","0","21","21","22","z","10/24/18 16:30:48","The main experiment item","yes","FIN__BA__M21__7%3A10%3A17.osexp","C:\Users\ERP Testing Room\Desktop\Joanna\morph21","no","mono","no","18","no","white","no","yes","1080","legacy","21","21","C:/Users/ERP Testing Room/Desktop/Joanna/morph21/subject-144-2.csv","xpyriment","Jazzy James","3.1.4","0","z","NA","NA","NA","NA","space","z","694","NA","NA","NA","NA","74362","694","2","legacy","1024","2","48000","-16","BA_m21","144","even","NW_S_SIMP","MEDICALARY","1621","153337","151770","148878","75999","NA","NA","NA","NA","153334","152267","NA","151270","NA","151264","153334","1637","153737","NA","NA","152345","1621","1621","152737","151264","1621","152345","153737","morph21_Oliver/Morris","19","15812","22","yes","1280","18"
"400","82.6086956522","82.6086956522","715.913043478","715.913043478","black","no","xpyriment","legacy","legacy","0","207","NA","uniform","68860","1000","0.0145222189951","0","undefined","0","0","22","22","22","0","22","22","22","NA","22","22","0","22","NA","22","22","0","22","NA","22","NA","22","0","0","22","22","0","22","22","23","/","10/24/18 16:30:48","The main experiment item","yes","FIN__BA__M21__7%3A10%3A17.osexp","C:\Users\ERP Testing Room\Desktop\Joanna\morph21","no","mono","no","18","no","white","no","yes","1080","legacy","22","22","C:/Users/ERP Testing Room/Desktop/Joanna/morph21/subject-144-2.csv","xpyriment","Jazzy James","3.1.4","0","z","NA","NA","NA","NA","space","z","654","NA","NA","NA","NA","74362","654","2","legacy","1024","2","48000","-16","BA_m21","144","even","FILL_W","STEEP","1621","156521","154937","148878","75999","NA","NA","NA","NA","153334","155434","NA","154437","NA","154427","156516","1637","156922","NA","NA","155520","1621","1621","155920","154427","1621","155520","156922","morph21_Oliver/Morris","19","16466","23","yes","1280","16"
"350","83.3333333333","83.3333333333","711.708333333","711.708333333","black","no","xpyriment","legacy","legacy","0","208","NA","uniform","71405","1000","0.0140046215251","1","undefined","1","0","23","23","23","0","23","23","23","NA","23","23","0","23","NA","23","23","0","23","NA","23","NA","23","0","0","23","23","0","23","23","24","z","10/24/18 16:30:48","The main experiment item","yes","FIN__BA__M21__7%3A10%3A17.osexp","C:\Users\ERP Testing Room\Desktop\Joanna\morph21","no","mono","no","18","no","white","no","yes","1080","legacy","23","23","C:/Users/ERP Testing Room/Desktop/Joanna/morph21/subject-144-2.csv","xpyriment","Jazzy James","3.1.4","0","z","NA","NA","NA","NA","space","z","615","NA","NA","NA","NA","74362","615","2","legacy","1024","2","48000","-16","BA_m21","144","even","FILL_NW","JADS","1621","161188","158105","159680","75999","NA","NA","NA","NA","159674","158602","NA","157605","NA","157600","159674","1637","161539","NA","NA","158680","1621","1621","159072","157600","1621","158680","161539","morph21_Oliver/Morris","20","17081","24","yes","1280","31"
"300","84","84","706.88","706.88","black","no","xpyriment","legacy","legacy","0","204","NA","uniform","74444","1000","0.0134329160174","1","undefined","1","0","24","24","24","0","24","24","24","NA","24","24","0","24","NA","24","24","0","24","NA","24","NA","24","0","0","24","24","0","24","24","25","z","10/24/18 16:30:48","The main experiment item","yes","FIN__BA__M21__7%3A10%3A17.osexp","C:\Users\ERP Testing Room\Desktop\Joanna\morph21","no","mono","no","18","no","white","no","yes","1080","legacy","24","24","C:/Users/ERP Testing Room/Desktop/Joanna/morph21/subject-144-2.csv","xpyriment","Jazzy James","3.1.4","0","z","NA","NA","NA","NA","space","z","591","NA","NA","NA","NA","74362","591","2","legacy","1024","2","48000","-16","BA_m21","144","even","NW_L_COMP","SHEETEL","1621","164280","162705","159680","75999","NA","NA","NA","NA","164275","163202","NA","162205","NA","162201","164275","1637","164580","NA","NA","163280","1621","1621","163680","162201","1621","163280","164580","morph21_Oliver/Morris","21","17672","25","yes","1280","5"
"300","84.6153846154","84.6153846154","701.076923077","701.076923077","black","no","xpyriment","legacy","legacy","0","202","NA","uniform","73420","1000","0.0136202669572","1","undefined","1","0","25","25","25","0","25","25","25","NA","25","25","0","25","NA","25","25","0","25","NA","25","NA","25","0","0","25","25","0","25","25","26","/","10/24/18 16:30:48","The main experiment item","yes","FIN__BA__M21__7%3A10%3A17.osexp","C:\Users\ERP Testing Room\Desktop\Joanna\morph21","no","mono","no","18","no","white","no","yes","1080","legacy","25","25","C:/Users/ERP Testing Room/Desktop/Joanna/morph21/subject-144-2.csv","xpyriment","Jazzy James","3.1.4","0","/","NA","NA","NA","NA","space","/","556","NA","NA","NA","NA","74362","556","2","legacy","1024","2","48000","-16","BA_m21","144","even","CW_L","COMPOSER","1621","167355","165764","159680","75999","NA","NA","NA","NA","167345","166261","NA","165264","NA","165253","167345","1637","167655","NA","NA","166355","1621","1621","166747","165253","1621","166355","167655","morph21_Oliver/Morris","22","18228","26","yes","1280","6"
"250","85.1851851852","85.1851851852","696.111111111","696.111111111","black","no","xpyriment","legacy","legacy","0","207","NA","uniform","72275","1000","0.0138360428917","1","undefined","1","0","26","26","26","0","26","26","26","NA","26","26","0","26","NA","26","26","0","26","NA","26","NA","26","0","0","26","26","0","26","26","27","/","10/24/18 16:30:48","The main experiment item","yes","FIN__BA__M21__7%3A10%3A17.osexp","C:\Users\ERP Testing Room\Desktop\Joanna\morph21","no","mono","no","18","no","white","no","yes","1080","legacy","26","26","C:/Users/ERP Testing Room/Desktop/Joanna/morph21/subject-144-2.csv","xpyriment","Jazzy James","3.1.4","0","/","NA","NA","NA","NA","space","/","567","NA","NA","NA","NA","74362","567","2","legacy","1024","2","48000","-16","BA_m21","144","even","FILL_W","SHIP","1621","171939","168847","170430","75999","NA","NA","NA","NA","170428","169344","NA","168347","NA","168339","170428","1637","172189","NA","NA","169439","1621","1621","169830","168339","1621","169439","172189","morph21_Oliver/Morris","23","18795","27","yes","1280","37"
"200","85.7142857143","85.7142857143","694.464285714","694.464285714","black","no","xpyriment","legacy","legacy","0","203","NA","uniform","75769","1000","0.0131980097401","1","undefined","1","0","27","27","27","0","27","27","27","NA","27","27","0","27","NA","27","27","0","27","NA","27","NA","27","0","0","27","27","0","27","27","28","z","10/24/18 16:30:48","The main experiment item","yes","FIN__BA__M21__7%3A10%3A17.osexp","C:\Users\ERP Testing Room\Desktop\Joanna\morph21","no","mono","no","18","no","white","no","yes","1080","legacy","27","27","C:/Users/ERP Testing Room/Desktop/Joanna/morph21/subject-144-2.csv","xpyriment","Jazzy James","3.1.4","0","z","NA","NA","NA","NA","space","z","650","NA","NA","NA","NA","74362","650","2","legacy","1024","2","48000","-16","BA_m21","144","even","NW_S_COMP","ANTILM","1621","174965","173381","170430","75999","NA","NA","NA","NA","174958","173878","NA","172881","NA","172872","174958","1637","175165","NA","NA","173965","1621","1621","174357","172871","1621","173965","175165","morph21_Oliver/Morris","24","19445","28","yes","1280","8"
"200","86.2068965517","86.2068965517","696.482758621","696.482758621","black","no","xpyriment","legacy","legacy","0","205","NA","uniform","69872","1000","0.014311884589","1","undefined","1","0","28","28","28","0","28","28","28","NA","28","28","0","28","NA","28","28","0","28","NA","28","NA","28","0","0","28","28","0","28","28","29","z","10/24/18 16:30:48","The main experiment item","yes","FIN__BA__M21__7%3A10%3A17.osexp","C:\Users\ERP Testing Room\Desktop\Joanna\morph21","no","mono","no","18","no","white","no","yes","1080","legacy","28","28","C:/Users/ERP Testing Room/Desktop/Joanna/morph21/subject-144-2.csv","xpyriment","Jazzy James","3.1.4","0","z","NA","NA","NA","NA","space","z","753","NA","NA","NA","NA","74362","753","2","legacy","1024","2","48000","-16","BA_m21","144","even","NW_S_SIMP","OPPOSEMENT","1621","177998","176407","170430","75999","NA","NA","NA","NA","177989","176904","NA","175907","NA","175900","177989","1637","178198","NA","NA","176998","1621","1621","177390","175900","1621","176998","178198","morph21_Oliver/Morris","25","20198","29","yes","1280","8"
"350","86.6666666667","86.6666666667","693.8","693.8","black","no","xpyriment","legacy","legacy","0","207","NA","uniform","71132","1000","0.0140583703537","1","undefined","1","0","29","29","29","0","29","29","29","NA","29","29","0","29","NA","29","29","0","29","NA","29","NA","29","0","0","29","29","0","29","29","30","/","10/24/18 16:30:48","The main experiment item","yes","FIN__BA__M21__7%3A10%3A17.osexp","C:\Users\ERP Testing Room\Desktop\Joanna\morph21","no","mono","no","18","no","white","no","yes","1080","legacy","29","29","C:/Users/ERP Testing Room/Desktop/Joanna/morph21/subject-144-2.csv","xpyriment","Jazzy James","3.1.4","0","/","NA","NA","NA","NA","space","/","616","NA","NA","NA","NA","74362","616","2","legacy","1024","2","48000","-16","BA_m21","144","even","FILL_W","GLOOM","1621","182507","179415","180999","75999","NA","NA","NA","NA","180991","179912","NA","178915","NA","178905","180991","1637","182857","NA","NA","179999","1621","1621","180390","178905","1621","179999","182857","morph21_Oliver/Morris","26","20814","30","yes","1280","14"
"200","87.0967741935","87.0967741935","692.161290323","692.161290323","black","no","xpyriment","legacy","legacy","0","208","NA","uniform","75303","1000","0.0132796834123","1","undefined","1","0","30","30","30","0","30","30","30","NA","30","30","0","30","NA","30","30","0","30","NA","30","NA","30","0","0","30","30","0","30","30","31","z","10/24/18 16:30:48","The main experiment item","yes","FIN__BA__M21__7%3A10%3A17.osexp","C:\Users\ERP Testing Room\Desktop\Joanna\morph21","no","mono","no","18","no","white","no","yes","1080","legacy","30","30","C:/Users/ERP Testing Room/Desktop/Joanna/morph21/subject-144-2.csv","xpyriment","Jazzy James","3.1.4","0","z","NA","NA","NA","NA","space","z","643","NA","NA","NA","NA","74362","643","2","legacy","1024","2","48000","-16","BA_m21","144","even","FILL_NW","GAIRS","1621","185740","184149","180999","75999","NA","NA","NA","NA","185737","184646","NA","183649","NA","183642","185737","1637","185940","NA","NA","184740","1621","1621","185140","183642","1621","184740","185940","morph21_Oliver/Morris","27","21457","31","yes","1280","23"
"200","87.5","87.5","685.84375","685.84375","black","no","xpyriment","legacy","legacy","0","205","NA","uniform","69740","1000","0.0143389733295","1","undefined","1","0","31","31","31","0","31","31","31","NA","31","31","0","31","NA","31","31","0","31","NA","31","NA","31","0","0","31","31","0","31","31","32","z","10/24/18 16:30:48","The main experiment item","yes","FIN__BA__M21__7%3A10%3A17.osexp","C:\Users\ERP Testing Room\Desktop\Joanna\morph21","no","mono","no","18","no","white","no","yes","1080","legacy","31","31","C:/Users/ERP Testing Room/Desktop/Joanna/morph21/subject-144-2.csv","xpyriment","Jazzy James","3.1.4","0","z","NA","NA","NA","NA","space","z","490","NA","NA","NA","NA","74362","490","2","legacy","1024","2","48000","-16","BA_m21","144","even","NW_S_SIMP","NULLISH","1621","188741","187149","180999","75999","NA","NA","NA","NA","188731","187646","NA","186649","NA","186641","188731","1637","188941","NA","NA","187741","1621","1621","188132","186641","1621","187740","188941","morph21_Oliver/Morris","28","21947","32","yes","1280","23"
"200","87.8787878788","87.8787878788","682.606060606","682.606060606","black","no","xpyriment","legacy","legacy","0","207","NA","uniform","74919","1000","0.0133477489021","1","undefined","1","0","32","32","32","0","32","32","32","NA","32","32","0","32","NA","32","32","0","32","NA","32","NA","32","0","0","32","32","0","32","32","33","/","10/24/18 16:30:48","The main experiment item","yes","FIN__BA__M21__7%3A10%3A17.osexp","C:\Users\ERP Testing Room\Desktop\Joanna\morph21","no","mono","no","18","no","white","no","yes","1080","legacy","32","32","C:/Users/ERP Testing Room/Desktop/Joanna/morph21/subject-144-2.csv","xpyriment","Jazzy James","3.1.4","0","/","NA","NA","NA","NA","space","/","579","NA","NA","NA","NA","74362","579","2","legacy","1024","2","48000","-16","BA_m21","144","even","FILL_W","STALK","1621","193225","190116","191717","75999","NA","NA","NA","NA","191707","190613","NA","189616","NA","189608","191707","1637","193425","NA","NA","190716","1621","1621","191107","189608","1621","190716","193425","morph21_Oliver/Morris","29","22526","33","yes","1280","27"
"400","88.2352941176","88.2352941176","685.529411765","685.529411765","black","no","xpyriment","legacy","legacy","0","207","NA","uniform","52938","1000","0.0188900222902","1","undefined","1","0","33","33","33","0","33","33","33","NA","33","33","0","33","NA","33","33","0","33","NA","33","NA","33","0","0","33","33","0","33","33","34","/","10/24/18 16:30:48","The main experiment item","yes","FIN__BA__M21__7%3A10%3A17.osexp","C:\Users\ERP Testing Room\Desktop\Joanna\morph21","no","mono","no","18","no","white","no","yes","1080","legacy","33","33","C:/Users/ERP Testing Room/Desktop/Joanna/morph21/subject-144-2.csv","xpyriment","Jazzy James","3.1.4","0","/","NA","NA","NA","NA","space","/","782","NA","NA","NA","NA","74362","782","2","legacy","1024","2","48000","-16","BA_m21","144","even","FILL_W","CRUNCH","1621","196217","194592","191717","75999","NA","NA","NA","NA","196210","195089","NA","194092","NA","194088","196210","1637","196617","NA","NA","195217","1621","1621","195608","194088","1621","195217","196617","morph21_Oliver/Morris","30","23308","34","yes","1280","20"
"250","88.5714285714","88.5714285714","683.257142857","683.257142857","black","no","xpyriment","legacy","legacy","0","204","NA","uniform","73244","1000","0.0136529954672","1","undefined","1","0","34","34","34","0","34","34","34","NA","34","34","0","34","NA","34","34","0","34","NA","34","NA","34","0","0","34","34","0","34","34","35","z","10/24/18 16:30:48","The main experiment item","yes","FIN__BA__M21__7%3A10%3A17.osexp","C:\Users\ERP Testing Room\Desktop\Joanna\morph21","no","mono","no","18","no","white","no","yes","1080","legacy","34","34","C:/Users/ERP Testing Room/Desktop/Joanna/morph21/subject-144-2.csv","xpyriment","Jazzy James","3.1.4","0","z","NA","NA","NA","NA","space","z","606","NA","NA","NA","NA","74362","606","2","legacy","1024","2","48000","-16","BA_m21","144","even","NW_L_COMP","BREAKIDY","1621","199425","197842","191717","75999","NA","NA","NA","NA","199420","198339","NA","197342","NA","197335","199420","1637","199675","NA","NA","198425","1621","1621","198825","197335","1621","198425","199675","morph21_Oliver/Morris","31","23914","35","yes","1280","23"
"400","88.8888888889","88.8888888889","681.5","681.5","black","no","xpyriment","legacy","legacy","0","205","NA","uniform","72474","1000","0.0137980517151","1","undefined","1","0","35","35","35","0","35","35","35","NA","35","35","0","35","NA","35","35","0","35","NA","35","NA","35","0","0","35","35","0","35","35","36","z","10/24/18 16:30:48","The main experiment item","yes","FIN__BA__M21__7%3A10%3A17.osexp","C:\Users\ERP Testing Room\Desktop\Joanna\morph21","no","mono","no","18","no","white","no","yes","1080","legacy","35","35","C:/Users/ERP Testing Room/Desktop/Joanna/morph21/subject-144-2.csv","xpyriment","Jazzy James","3.1.4","0","z","NA","NA","NA","NA","space","z","620","NA","NA","NA","NA","74362","620","2","legacy","1024","2","48000","-16","BA_m21","144","even","NW_S_SIMP","AIDIC","1621","203976","200884","202467","75999","NA","NA","NA","NA","202462","201381","NA","200384","NA","200377","202462","1637","204376","NA","NA","201467","1621","1621","201867","200377","1621","201467","204376","morph21_Oliver/Morris","32","24534","36","yes","1280","4"
"250","86.4864864865","86.4864864865","677.675675676","677.675675676","black","no","xpyriment","legacy","legacy","0","201","NA","uniform","66162","1000","0.0151144161301","0","undefined","0","0","36","36","36","0","36","36","36","NA","36","36","0","36","NA","36","36","0","36","NA","36","NA","36","0","0","36","36","0","36","36","37","/","10/24/18 16:30:48","The main experiment item","yes","FIN__BA__M21__7%3A10%3A17.osexp","C:\Users\ERP Testing Room\Desktop\Joanna\morph21","no","mono","no","18","no","white","no","yes","1080","legacy","36","36","C:/Users/ERP Testing Room/Desktop/Joanna/morph21/subject-144-2.csv","xpyriment","Jazzy James","3.1.4","0","z","NA","NA","NA","NA","space","z","540","NA","NA","NA","NA","74362","540","2","legacy","1024","2","48000","-16","BA_m21","144","even","CW_S","PEAKING","1621","207217","205634","202467","75999","NA","NA","NA","NA","202462","206131","NA","205134","NA","205125","207214","1637","207467","NA","NA","206226","1621","1621","206617","205125","1621","206226","207467","morph21_Oliver/Morris","32","25074","37","yes","1280","28"
"400","86.8421052632","86.8421052632","672.526315789","672.526315789","black","no","xpyriment","legacy","legacy","0","205","NA","uniform","70348","1000","0.0142150452038","1","undefined","1","0","37","37","37","0","37","37","37","NA","37","37","0","37","NA","37","37","0","37","NA","37","NA","37","0","0","37","37","0","37","37","38","z","10/24/18 16:30:48","The main experiment item","yes","FIN__BA__M21__7%3A10%3A17.osexp","C:\Users\ERP Testing Room\Desktop\Joanna\morph21","no","mono","no","18","no","white","no","yes","1080","legacy","37","37","C:/Users/ERP Testing Room/Desktop/Joanna/morph21/subject-144-2.csv","xpyriment","Jazzy James","3.1.4","0","z","NA","NA","NA","NA","space","z","482","NA","NA","NA","NA","74362","482","2","legacy","1024","2","48000","-16","BA_m21","144","even","NW_S_SIMP","URNIST","1621","210293","208693","202467","75999","NA","NA","NA","NA","210290","209191","NA","208192","NA","208188","210290","1637","210694","NA","NA","209293","1621","1621","209693","208188","1621","209293","210694","morph21_Oliver/Morris","33","25556","38","yes","1280","5"
"200","87.1794871795","87.1794871795","673.794871795","673.794871795","black","no","xpyriment","legacy","legacy","0","207","NA","uniform","68232","1000","0.014655879939","1","undefined","1","0","38","38","38","0","38","38","38","NA","38","38","0","38","NA","38","38","0","38","NA","38","NA","38","0","0","38","38","0","38","38","39","/","10/24/18 16:30:48","The main experiment item","yes","FIN__BA__M21__7%3A10%3A17.osexp","C:\Users\ERP Testing Room\Desktop\Joanna\morph21","no","mono","no","18","no","white","no","yes","1080","legacy","38","38","C:/Users/ERP Testing Room/Desktop/Joanna/morph21/subject-144-2.csv","xpyriment","Jazzy James","3.1.4","0","/","NA","NA","NA","NA","space","/","722","NA","NA","NA","NA","74362","722","2","legacy","1024","2","48000","-16","BA_m21","144","even","FILL_W","OLD","1621","214985","211910","213477","75999","NA","NA","NA","NA","213468","212407","NA","211410","NA","211402","213468","1637","215186","NA","NA","212477","1621","1621","212869","211402","1621","212477","215186","morph21_Oliver/Morris","34","26278","39","yes","1280","44"
"200","87.5","87.5","668.35","668.35","black","no","xpyriment","legacy","legacy","0","208","NA","uniform","81122","1000","0.0123271122507","1","undefined","1","0","39","39","39","0","39","39","39","NA","39","39","0","39","NA","39","39","0","39","NA","39","NA","39","0","0","39","39","0","39","39","40","z","10/24/18 16:30:48","The main experiment item","yes","FIN__BA__M21__7%3A10%3A17.osexp","C:\Users\ERP Testing Room\Desktop\Joanna\morph21","no","mono","no","18","no","white","no","yes","1080","legacy","39","39","C:/Users/ERP Testing Room/Desktop/Joanna/morph21/subject-144-2.csv","xpyriment","Jazzy James","3.1.4","0","z","NA","NA","NA","NA","space","z","456","NA","NA","NA","NA","74362","456","2","legacy","1024","2","48000","-16","BA_m21","144","even","FILL_NW","SMADE","1621","217935","216352","213477","75999","NA","NA","NA","NA","217930","216849","NA","215852","NA","215843","217930","1637","218135","NA","NA","216935","1621","1621","217327","215843","1621","216935","218135","morph21_Oliver/Morris","35","26734","40","yes","1280","42"
"250","87.8048780488","87.8048780488","673.365853659","673.365853659","black","no","xpyriment","legacy","legacy","0","206","NA","uniform","66393","1000","0.0150618288073","1","undefined","1","0","40","40","40","0","40","40","40","NA","40","40","0","40","NA","40","40","0","40","NA","40","NA","40","0","0","40","40","0","40","40","41","z","10/24/18 16:30:48","The main experiment item","yes","FIN__BA__M21__7%3A10%3A17.osexp","C:\Users\ERP Testing Room\Desktop\Joanna\morph21","no","mono","no","18","no","white","no","yes","1080","legacy","40","40","C:/Users/ERP Testing Room/Desktop/Joanna/morph21/subject-144-2.csv","xpyriment","Jazzy James","3.1.4","0","z","NA","NA","NA","NA","space","z","874","NA","NA","NA","NA","74362","874","2","legacy","1024","2","48000","-16","BA_m21","144","even","NW_L_SIMP","SMOOTHFUL","1621","220869","219286","213477","75999","NA","NA","NA","NA","220864","219783","NA","218786","NA","218775","220864","1637","221119","NA","NA","219869","1621","1621","220269","218775","1621","219869","221119","morph21_Oliver/Morris","36","27608","41","yes","1280","19"
"350","85.7142857143","85.7142857143","671.166666667","671.166666667","black","no","xpyriment","legacy","legacy","0","201","NA","uniform","73413","1000","0.0136215656628","0","undefined","0","0","41","41","41","0","41","41","41","NA","41","41","0","41","NA","41","41","0","41","NA","41","NA","41","0","0","41","41","0","41","41","42","/","10/24/18 16:30:48","The main experiment item","yes","FIN__BA__M21__7%3A10%3A17.osexp","C:\Users\ERP Testing Room\Desktop\Joanna\morph21","no","mono","no","18","no","white","no","yes","1080","legacy","41","41","C:/Users/ERP Testing Room/Desktop/Joanna/morph21/subject-144-2.csv","xpyriment","Jazzy James","3.1.4","0","z","NA","NA","NA","NA","space","z","581","NA","NA","NA","NA","74362","581","2","legacy","1024","2","48000","-16","BA_m21","144","even","CW_S","DENSELY","1621","225469","222369","223961","75999","NA","NA","NA","NA","220864","222866","NA","221869","NA","221860","223954","1637","225819","NA","NA","222961","1621","1621","223352","221860","1621","222961","225819","morph21_Oliver/Morris","36","28189","42","yes","1280","32"
"200","86.0465116279","86.0465116279","668.11627907","668.11627907","black","no","xpyriment","legacy","legacy","0","203","NA","uniform","77299","1000","0.0129367779661","1","undefined","1","0","42","42","42","0","42","42","42","NA","42","42","0","42","NA","42","42","0","42","NA","42","NA","42","0","0","42","42","0","42","42","43","z","10/24/18 16:30:48","The main experiment item","yes","FIN__BA__M21__7%3A10%3A17.osexp","C:\Users\ERP Testing Room\Desktop\Joanna\morph21","no","mono","no","18","no","white","no","yes","1080","legacy","42","42","C:/Users/ERP Testing Room/Desktop/Joanna/morph21/subject-144-2.csv","xpyriment","Jazzy James","3.1.4","0","z","NA","NA","NA","NA","space","z","540","NA","NA","NA","NA","74362","540","2","legacy","1024","2","48000","-16","BA_m21","144","even","NW_S_COMP","YANKODY","1621","228595","227012","223961","75999","NA","NA","NA","NA","228586","227509","NA","226512","NA","226505","228586","1637","228795","NA","NA","227595","1621","1621","227987","226505","1621","227595","228795","morph21_Oliver/Morris","37","28729","43","yes","1280","23"
"350","86.3636363636","86.3636363636","670.840909091","670.840909091","black","no","xpyriment","legacy","legacy","0","201","NA","uniform","68776","1000","0.0145399557985","1","undefined","1","0","43","43","43","0","43","43","43","NA","43","43","0","43","NA","43","43","0","43","NA","43","NA","43","0","0","43","43","0","43","43","44","/","10/24/18 16:30:48","The main experiment item","yes","FIN__BA__M21__7%3A10%3A17.osexp","C:\Users\ERP Testing Room\Desktop\Joanna\morph21","no","mono","no","18","no","white","no","yes","1080","legacy","43","43","C:/Users/ERP Testing Room/Desktop/Joanna/morph21/subject-144-2.csv","xpyriment","Jazzy James","3.1.4","0","/","NA","NA","NA","NA","space","/","788","NA","NA","NA","NA","74362","788","2","legacy","1024","2","48000","-16","BA_m21","144","even","CW_S","RICHNESS","1621","231587","229995","223961","75999","NA","NA","NA","NA","231581","230492","NA","229495","NA","229487","231581","1637","231937","NA","NA","230587","1621","1621","230979","229487","1621","230587","231937","morph21_Oliver/Morris","38","29517","44","yes","1280","45"
"250","86.6666666667","86.6666666667","668.711111111","668.711111111","black","no","xpyriment","legacy","legacy","0","202","NA","uniform","77619","1000","0.0128834434868","1","undefined","1","0","44","44","44","0","44","44","44","NA","44","44","0","44","NA","44","44","0","44","NA","44","NA","44","0","0","44","44","0","44","44","45","/","10/24/18 16:30:48","The main experiment item","yes","FIN__BA__M21__7%3A10%3A17.osexp","C:\Users\ERP Testing Room\Desktop\Joanna\morph21","no","mono","no","18","no","white","no","yes","1080","legacy","44","44","C:/Users/ERP Testing Room/Desktop/Joanna/morph21/subject-144-2.csv","xpyriment","Jazzy James","3.1.4","0","/","NA","NA","NA","NA","space","/","575","NA","NA","NA","NA","74362","575","2","legacy","1024","2","48000","-16","BA_m21","144","even","CW_L","STRIKER","1621","236204","233129","234695","75999","NA","NA","NA","NA","234691","233626","NA","232629","NA","232620","234691","1637","236454","NA","NA","233704","1621","1621","234095","232620","1621","233704","236454","morph21_Oliver/Morris","39","30092","45","yes","1280","17"
"400","86.9565217391","86.9565217391","668.826086957","668.826086957","black","no","xpyriment","legacy","legacy","0","203","NA","uniform","66912","1000","0.0149450023912","1","undefined","1","0","45","45","45","0","45","45","45","NA","45","45","0","45","NA","45","45","0","45","NA","45","NA","45","0","0","45","45","0","45","45","46","z","10/24/18 16:30:48","The main experiment item","yes","FIN__BA__M21__7%3A10%3A17.osexp","C:\Users\ERP Testing Room\Desktop\Joanna\morph21","no","mono","no","18","no","white","no","yes","1080","legacy","45","45","C:/Users/ERP Testing Room/Desktop/Joanna/morph21/subject-144-2.csv","xpyriment","Jazzy James","3.1.4","0","z","NA","NA","NA","NA","space","z","674","NA","NA","NA","NA","74362","674","2","legacy","1024","2","48000","-16","BA_m21","144","even","NW_S_COMP","ARIDILM","1621","239221","237637","234695","75999","NA","NA","NA","NA","239216","238134","NA","237137","NA","237126","239216","1637","239621","NA","NA","238221","1621","1621","238621","237126","1621","238221","239621","morph21_Oliver/Morris","40","30766","46","yes","1280","9"
"200","87.2340425532","87.2340425532","666.404255319","666.404255319","black","no","xpyriment","legacy","legacy","0","201","NA","uniform","77157","1000","0.0129605868554","1","undefined","1","0","46","46","46","0","46","46","46","NA","46","46","0","46","NA","46","46","0","46","NA","46","NA","46","0","0","46","46","0","46","46","47","/","10/24/18 16:30:48","The main experiment item","yes","FIN__BA__M21__7%3A10%3A17.osexp","C:\Users\ERP Testing Room\Desktop\Joanna\morph21","no","mono","no","18","no","white","no","yes","1080","legacy","46","46","C:/Users/ERP Testing Room/Desktop/Joanna/morph21/subject-144-2.csv","xpyriment","Jazzy James","3.1.4","0","/","NA","NA","NA","NA","space","/","555","NA","NA","NA","NA","74362","555","2","legacy","1024","2","48000","-16","BA_m21","144","even","CW_S","BOLDNESS","1621","242379","240796","234695","75999","NA","NA","NA","NA","242375","241293","NA","240296","NA","240291","242375","1637","242579","NA","NA","241379","1621","1621","241779","240291","1621","241379","242579","morph21_Oliver/Morris","41","31321","47","yes","1280","41"
"350","87.5","87.5","666.416666667","666.416666667","black","no","xpyriment","legacy","legacy","0","202","NA","uniform","73633","1000","0.0135808672742","1","undefined","1","0","47","47","47","0","47","47","47","NA","47","47","0","47","NA","47","47","0","47","NA","47","NA","47","0","0","47","47","0","47","47","48","/","10/24/18 16:30:48","The main experiment item","yes","FIN__BA__M21__7%3A10%3A17.osexp","C:\Users\ERP Testing Room\Desktop\Joanna\morph21","no","mono","no","18","no","white","no","yes","1080","legacy","47","47","C:/Users/ERP Testing Room/Desktop/Joanna/morph21/subject-144-2.csv","xpyriment","Jazzy James","3.1.4","0","/","NA","NA","NA","NA","space","/","667","NA","NA","NA","NA","74362","667","2","legacy","1024","2","48000","-16","BA_m21","144","even","CW_L","PUNCHER","1621","246880","243789","245372","75999","NA","NA","NA","NA","245368","244286","NA","243288","NA","243283","245368","1637","247231","NA","NA","244372","1621","1621","244772","243283","1621","244372","247231","morph21_Oliver/Morris","42","31988","48","yes","1280","1"
"300","87.7551020408","87.7551020408","666.918367347","666.918367347","black","no","xpyriment","legacy","legacy","0","208","NA","uniform","72496","1000","0.0137938644891","1","undefined","1","0","48","48","48","0","48","48","48","NA","48","48","0","48","NA","48","48","0","48","NA","48","NA","48","0","0","48","48","0","48","48","49","z","10/24/18 16:30:48","The main experiment item","yes","FIN__BA__M21__7%3A10%3A17.osexp","C:\Users\ERP Testing Room\Desktop\Joanna\morph21","no","mono","no","18","no","white","no","yes","1080","legacy","48","48","C:/Users/ERP Testing Room/Desktop/Joanna/morph21/subject-144-2.csv","xpyriment","Jazzy James","3.1.4","0","z","NA","NA","NA","NA","space","z","691","NA","NA","NA","NA","74362","691","2","legacy","1024","2","48000","-16","BA_m21","144","even","FILL_NW","HEEM","1621","249955","248389","245372","75999","NA","NA","NA","NA","249953","248886","NA","247889","NA","247883","249953","1637","250256","NA","NA","248964","1621","1621","249355","247883","1621","248964","250256","morph21_Oliver/Morris","43","32679","49","yes","1280","27"
"200","88","88","663.18","663.18","black","no","xpyriment","legacy","legacy","0","205","NA","uniform","76204","1000","0.0131226707259","1","undefined","1","0","49","49","49","0","49","49","49","NA","49","49","0","49","NA","49","49","0","49","NA","49","NA","49","0","0","49","49","0","49","49","50","z","10/24/18 16:30:48","The main experiment item","yes","FIN__BA__M21__7%3A10%3A17.osexp","C:\Users\ERP Testing Room\Desktop\Joanna\morph21","no","mono","no","18","no","white","no","yes","1080","legacy","49","49","C:/Users/ERP Testing Room/Desktop/Joanna/morph21/subject-144-2.csv","xpyriment","Jazzy James","3.1.4","0","z","NA","NA","NA","NA","space","z","480","NA","NA","NA","NA","74362","480","2","legacy","1024","2","48000","-16","BA_m21","144","even","NW_S_SIMP","JAWLY","1621","253047","251472","245372","75999","NA","NA","NA","NA","253040","251969","NA","250972","NA","250963","253040","1637","253247","NA","NA","252047","1621","1621","252439","250963","1621","252047","253247","morph21_Oliver/Morris","44","33159","50","yes","1280","7"
"200","86.2745098039","86.2745098039","659.274509804","659.274509804","black","no","xpyriment","legacy","legacy","0","202","NA","uniform","72993","1000","0.0136999438302","0","undefined","0","0","50","50","50","0","50","50","50","NA","50","50","0","50","NA","50","50","0","50","NA","50","NA","50","0","0","50","50","0","50","50","51","/","10/24/18 16:30:48","The main experiment item","yes","FIN__BA__M21__7%3A10%3A17.osexp","C:\Users\ERP Testing Room\Desktop\Joanna\morph21","no","mono","no","18","no","white","no","yes","1080","legacy","50","50","C:/Users/ERP Testing Room/Desktop/Joanna/morph21/subject-144-2.csv","xpyriment","Jazzy James","3.1.4","0","z","NA","NA","NA","NA","space","z","464","NA","NA","NA","NA","74362","464","2","legacy","1024","2","48000","-16","BA_m21","144","even","CW_L","VERBAL","1621","257556","254431","256047","75999","NA","NA","NA","NA","253040","254928","NA","253931","NA","253922","256038","1637","257756","NA","NA","255047","1621","1621","255439","253922","1621","255047","257756","morph21_Oliver/Morris","44","33623","51","yes","1280","50"
"250","86.5384615385","86.5384615385","658.076923077","658.076923077","black","no","xpyriment","legacy","legacy","0","202","NA","uniform","75201","1000","0.0132976955094","1","undefined","1","0","51","51","51","0","51","51","51","NA","51","51","0","51","NA","51","51","0","51","NA","51","NA","51","0","0","51","51","0","51","51","52","/","10/24/18 16:30:48","The main experiment item","yes","FIN__BA__M21__7%3A10%3A17.osexp","C:\Users\ERP Testing Room\Desktop\Joanna\morph21","no","mono","no","18","no","white","no","yes","1080","legacy","51","51","C:/Users/ERP Testing Room/Desktop/Joanna/morph21/subject-144-2.csv","xpyriment","Jazzy James","3.1.4","0","/","NA","NA","NA","NA","space","/","597","NA","NA","NA","NA","74362","597","2","legacy","1024","2","48000","-16","BA_m21","144","even","CW_L","EXCITEMENT","1621","260514","258931","256047","75999","NA","NA","NA","NA","260508","259428","NA","258431","NA","258421","260508","1637","260764","NA","NA","259514","1621","1621","259906","258421","1621","259514","260764","morph21_Oliver/Morris","45","34220","52","yes","1280","38"
"250","86.7924528302","86.7924528302","656.452830189","656.452830189","black","no","xpyriment","legacy","legacy","0","205","NA","uniform","76086","1000","0.0131430223694","1","undefined","1","0","52","52","52","0","52","52","52","NA","52","52","0","52","NA","52","52","0","52","NA","52","NA","52","0","0","52","52","0","52","52","53","z","10/24/18 16:30:48","The main experiment item","yes","FIN__BA__M21__7%3A10%3A17.osexp","C:\Users\ERP Testing Room\Desktop\Joanna\morph21","no","mono","no","18","no","white","no","yes","1080","legacy","52","52","C:/Users/ERP Testing Room/Desktop/Joanna/morph21/subject-144-2.csv","xpyriment","Jazzy James","3.1.4","0","z","NA","NA","NA","NA","space","z","572","NA","NA","NA","NA","74362","572","2","legacy","1024","2","48000","-16","BA_m21","144","even","NW_S_SIMP","DIGORY","1621","263507","261915","256047","75999","NA","NA","NA","NA","263505","262412","NA","261415","NA","261407","263505","1637","263757","NA","NA","262515","1621","1621","262907","261407","1621","262515","263757","morph21_Oliver/Morris","46","34792","53","yes","1280","11"
"200","87.037037037","87.037037037","654.574074074","654.574074074","black","no","xpyriment","legacy","legacy","0","202","NA","uniform","78678","1000","0.0127100333003","1","undefined","1","0","53","53","53","0","53","53","53","NA","53","53","0","53","NA","53","53","0","53","NA","53","NA","53","0","0","53","53","0","53","53","54","/","10/24/18 16:30:48","The main experiment item","yes","FIN__BA__M21__7%3A10%3A17.osexp","C:\Users\ERP Testing Room\Desktop\Joanna\morph21","no","mono","no","18","no","white","no","yes","1080","legacy","53","53","C:/Users/ERP Testing Room/Desktop/Joanna/morph21/subject-144-2.csv","xpyriment","Jazzy James","3.1.4","0","/","NA","NA","NA","NA","space","/","555","NA","NA","NA","NA","74362","555","2","legacy","1024","2","48000","-16","BA_m21","144","even","CW_L","SHAMEFUL","1621","268024","264932","266516","75999","NA","NA","NA","NA","266511","265429","NA","264432","NA","264423","266511","1637","268224","NA","NA","265516","1621","1621","265916","264423","1621","265516","268224","morph21_Oliver/Morris","47","35347","54","yes","1280","19"
"300","85.4545454545","85.4545454545","654.745454545","654.745454545","black","no","xpyriment","legacy","legacy","0","206","NA","uniform","73108","1000","0.0136783936095","0","undefined","0","0","54","54","54","0","54","54","54","NA","54","54","0","54","NA","54","54","0","54","NA","54","NA","54","0","0","54","54","0","54","54","55","z","10/24/18 16:30:48","The main experiment item","yes","FIN__BA__M21__7%3A10%3A17.osexp","C:\Users\ERP Testing Room\Desktop\Joanna\morph21","no","mono","no","18","no","white","no","yes","1080","legacy","54","54","C:/Users/ERP Testing Room/Desktop/Joanna/morph21/subject-144-2.csv","xpyriment","Jazzy James","3.1.4","0","/","NA","NA","NA","NA","space","/","664","NA","NA","NA","NA","74362","664","2","legacy","1024","2","48000","-16","BA_m21","144","even","NW_L_SIMP","TAXFUL","1621","271007","269424","266516","75999","NA","NA","NA","NA","266511","269921","NA","268924","NA","268912","271000","1637","271307","NA","NA","270007","1621","1621","270399","268912","1621","270007","271307","morph21_Oliver/Morris","47","36011","55","yes","1280","6"
"400","85.7142857143","85.7142857143","652.857142857","652.857142857","black","no","xpyriment","legacy","legacy","0","203","NA","uniform","72859","1000","0.0137251403396","1","undefined","1","0","55","55","55","0","55","55","55","NA","55","55","0","55","NA","55","55","0","55","NA","55","NA","55","0","0","55","55","0","55","55","56","z","10/24/18 16:30:48","The main experiment item","yes","FIN__BA__M21__7%3A10%3A17.osexp","C:\Users\ERP Testing Room\Desktop\Joanna\morph21","no","mono","no","18","no","white","no","yes","1080","legacy","55","55","C:/Users/ERP Testing Room/Desktop/Joanna/morph21/subject-144-2.csv","xpyriment","Jazzy James","3.1.4","0","z","NA","NA","NA","NA","space","z","549","NA","NA","NA","NA","74362","549","2","legacy","1024","2","48000","-16","BA_m21","144","even","NW_S_COMP","ALTARIG","1621","274074","272482","266516","75999","NA","NA","NA","NA","274065","272980","NA","271982","NA","271979","274065","1637","274474","NA","NA","273074","1621","1621","273466","271979","1621","273074","274474","morph21_Oliver/Morris","48","36560","56","yes","1280","7"
"350","85.9649122807","85.9649122807","652.263157895","652.263157895","black","no","xpyriment","legacy","legacy","0","203","NA","uniform","62287","1000","0.0160547144669","1","undefined","1","0","56","56","56","0","56","56","56","NA","56","56","0","56","NA","56","56","0","56","NA","56","NA","56","0","0","56","56","0","56","56","57","z","10/24/18 16:30:48","The main experiment item","yes","FIN__BA__M21__7%3A10%3A17.osexp","C:\Users\ERP Testing Room\Desktop\Joanna\morph21","no","mono","no","18","no","white","no","yes","1080","legacy","56","56","C:/Users/ERP Testing Room/Desktop/Joanna/morph21/subject-144-2.csv","xpyriment","Jazzy James","3.1.4","0","z","NA","NA","NA","NA","space","z","619","NA","NA","NA","NA","74362","619","2","legacy","1024","2","48000","-16","BA_m21","144","even","NW_S_COMP","HEIGHTENGE","1621","278809","275699","277299","75999","NA","NA","NA","NA","277295","276196","NA","275199","NA","275192","277295","1637","279159","NA","NA","276299","1621","1621","276699","275192","1621","276299","279159","morph21_Oliver/Morris","49","37179","57","yes","1280","18"
"300","86.2068965517","86.2068965517","653.034482759","653.034482759","black","no","xpyriment","legacy","legacy","0","207","NA","uniform","71640","1000","0.0139586823004","1","undefined","1","0","57","57","57","0","57","57","57","NA","57","57","0","57","NA","57","57","0","57","NA","57","NA","57","0","0","57","57","0","57","57","58","/","10/24/18 16:30:48","The main experiment item","yes","FIN__BA__M21__7%3A10%3A17.osexp","C:\Users\ERP Testing Room\Desktop\Joanna\morph21","no","mono","no","18","no","white","no","yes","1080","legacy","57","57","C:/Users/ERP Testing Room/Desktop/Joanna/morph21/subject-144-2.csv","xpyriment","Jazzy James","3.1.4","0","/","NA","NA","NA","NA","space","/","697","NA","NA","NA","NA","74362","697","2","legacy","1024","2","48000","-16","BA_m21","144","even","FILL_W","IRON","1621","281942","280359","277299","75999","NA","NA","NA","NA","281932","280856","NA","279859","NA","279850","281932","1637","282242","NA","NA","280942","1621","1621","281334","279850","1621","280942","282242","morph21_Oliver/Morris","50","37876","58","yes","1280","33"
"350","86.4406779661","86.4406779661","652.762711864","652.762711864","black","no","xpyriment","legacy","legacy","0","207","NA","uniform","70094","1000","0.0142665563386","1","undefined","1","0","58","58","58","0","58","58","58","NA","58","58","0","58","NA","58","58","0","58","NA","58","NA","58","0","0","58","58","0","58","58","59","/","10/24/18 16:30:48","The main experiment item","yes","FIN__BA__M21__7%3A10%3A17.osexp","C:\Users\ERP Testing Room\Desktop\Joanna\morph21","no","mono","no","18","no","white","no","yes","1080","legacy","58","58","C:/Users/ERP Testing Room/Desktop/Joanna/morph21/subject-144-2.csv","xpyriment","Jazzy James","3.1.4","0","/","NA","NA","NA","NA","space","/","637","NA","NA","NA","NA","74362","637","2","legacy","1024","2","48000","-16","BA_m21","144","even","FILL_W","WEIRD","1621","285042","283451","277299","75999","NA","NA","NA","NA","285032","283948","NA","282951","NA","282939","285032","1637","285392","NA","NA","284042","1621","1621","284434","282939","1621","284042","285392","morph21_Oliver/Morris","51","38513","59","yes","1280","2"
"400","86.6666666667","86.6666666667","652.95","652.95","black","no","xpyriment","legacy","legacy","0","202","NA","uniform","69514","1000","0.0143855913917","1","undefined","1","0","59","59","59","0","59","59","59","NA","59","59","0","59","NA","59","59","0","59","NA","59","NA","59","0","0","59","59","0","59","59","60","/","10/24/18 16:30:48","The main experiment item","yes","FIN__BA__M21__7%3A10%3A17.osexp","C:\Users\ERP Testing Room\Desktop\Joanna\morph21","no","mono","no","18","no","white","no","yes","1080","legacy","59","59","C:/Users/ERP Testing Room/Desktop/Joanna/morph21/subject-144-2.csv","xpyriment","Jazzy James","3.1.4","0","/","NA","NA","NA","NA","space","/","664","NA","NA","NA","NA","74362","664","2","legacy","1024","2","48000","-16","BA_m21","144","even","CW_L","CLOUDLESS","1621","289659","286567","288151","75999","NA","NA","NA","NA","288148","287065","NA","286067","NA","286060","288148","1637","290059","NA","NA","287159","1621","1621","287551","286060","1621","287159","290059","morph21_Oliver/Morris","52","39177","60","yes","1280","33"
"300","86.8852459016","86.8852459016","654.508196721","654.508196721","black","no","xpyriment","legacy","legacy","0","201","NA","uniform","66741","1000","0.0149832936276","1","undefined","1","0","60","60","60","0","60","60","60","NA","60","60","0","60","NA","60","60","0","60","NA","60","NA","60","0","0","60","60","0","60","60","61","/","10/24/18 16:30:48","The main experiment item","yes","FIN__BA__M21__7%3A10%3A17.osexp","C:\Users\ERP Testing Room\Desktop\Joanna\morph21","no","mono","no","18","no","white","no","yes","1080","legacy","60","60","C:/Users/ERP Testing Room/Desktop/Joanna/morph21/subject-144-2.csv","xpyriment","Jazzy James","3.1.4","0","/","NA","NA","NA","NA","space","/","748","NA","NA","NA","NA","74362","748","2","legacy","1024","2","48000","-16","BA_m21","144","even","CW_S","DETECTABLE","1621","292834","291251","288151","75999","NA","NA","NA","NA","292832","291748","NA","290751","NA","290745","292832","1637","293134","NA","NA","291843","1621","1621","292234","290745","1621","291843","293134","morph21_Oliver/Morris","53","39925","61","yes","1280","1"
"300","87.0967741935","87.0967741935","655.338709677","655.338709677","black","no","xpyriment","legacy","legacy","0","205","NA","uniform","70539","1000","0.0141765548136","1","undefined","1","0","61","61","61","0","61","61","61","NA","61","61","0","61","NA","61","61","0","61","NA","61","NA","61","0","0","61","61","0","61","61","62","z","10/24/18 16:30:48","The main experiment item","yes","FIN__BA__M21__7%3A10%3A17.osexp","C:\Users\ERP Testing Room\Desktop\Joanna\morph21","no","mono","no","18","no","white","no","yes","1080","legacy","61","61","C:/Users/ERP Testing Room/Desktop/Joanna/morph21/subject-144-2.csv","xpyriment","Jazzy James","3.1.4","0","z","NA","NA","NA","NA","space","z","706","NA","NA","NA","NA","74362","706","2","legacy","1024","2","48000","-16","BA_m21","144","even","NW_S_SIMP","YIELDIST","1621","295884","294301","288151","75999","NA","NA","NA","NA","295875","294798","NA","293801","NA","293797","295875","1637","296185","NA","NA","294884","1621","1621","295276","293797","1621","294884","296185","morph21_Oliver/Morris","54","40631","62","yes","1280","20"
"350","87.3015873016","87.3015873016","654.555555556","654.555555556","black","no","xpyriment","legacy","legacy","0","208","NA","uniform","73463","1000","0.0136122946245","1","undefined","1","0","62","62","62","0","62","62","62","NA","62","62","0","62","NA","62","62","0","62","NA","62","NA","62","0","0","62","62","0","62","62","63","z","10/24/18 16:30:48","The main experiment item","yes","FIN__BA__M21__7%3A10%3A17.osexp","C:\Users\ERP Testing Room\Desktop\Joanna\morph21","no","mono","no","18","no","white","no","yes","1080","legacy","62","62","C:/Users/ERP Testing Room/Desktop/Joanna/morph21/subject-144-2.csv","xpyriment","Jazzy James","3.1.4","0","z","NA","NA","NA","NA","space","z","606","NA","NA","NA","NA","74362","606","2","legacy","1024","2","48000","-16","BA_m21","144","even","FILL_NW","DELP","1621","300477","297377","298969","75999","NA","NA","NA","NA","298960","297874","NA","296877","NA","296866","298960","1637","300828","NA","NA","297969","1621","1621","298361","296866","1621","297969","300828","morph21_Oliver/Morris","55","41237","63","yes","1280","14"
"400","85.9375","85.9375","652.921875","652.921875","black","no","xpyriment","legacy","legacy","0","207","NA","uniform","77469","1000","0.0129083891621","0","undefined","0","0","63","63","63","0","63","63","63","NA","63","63","0","63","NA","63","63","0","63","NA","63","NA","63","0","0","63","63","0","63","63","64","/","10/24/18 16:30:48","The main experiment item","yes","FIN__BA__M21__7%3A10%3A17.osexp","C:\Users\ERP Testing Room\Desktop\Joanna\morph21","no","mono","no","18","no","white","no","yes","1080","legacy","63","63","C:/Users/ERP Testing Room/Desktop/Joanna/morph21/subject-144-2.csv","xpyriment","Jazzy James","3.1.4","0","z","NA","NA","NA","NA","space","z","550","NA","NA","NA","NA","74362","550","2","legacy","1024","2","48000","-16","BA_m21","144","even","FILL_W","LITHE","1621","303577","301986","298969","75999","NA","NA","NA","NA","298960","302483","NA","301486","NA","301476","303574","1637","303978","NA","NA","302577","1621","1621","302977","301476","1621","302577","303978","morph21_Oliver/Morris","55","41787","64","yes","1280","23"
"300","84.6153846154","84.6153846154","652.323076923","652.323076923","black","no","xpyriment","legacy","legacy","0","201","NA","uniform","75026","1000","0.0133287127129","0","undefined","0","0","64","64","64","0","64","64","64","NA","64","64","0","64","NA","64","64","0","64","NA","64","NA","64","0","0","64","64","0","64","64","65","/","10/24/18 16:30:48","The main experiment item","yes","FIN__BA__M21__7%3A10%3A17.osexp","C:\Users\ERP Testing Room\Desktop\Joanna\morph21","no","mono","no","18","no","white","no","yes","1080","legacy","64","64","C:/Users/ERP Testing Room/Desktop/Joanna/morph21/subject-144-2.csv","xpyriment","Jazzy James","3.1.4","0","z","NA","NA","NA","NA","space","z","614","NA","NA","NA","NA","74362","614","2","legacy","1024","2","48000","-16","BA_m21","144","even","CW_S","INSISTENT","1621","306761","305169","298969","75999","NA","NA","NA","NA","298960","305666","NA","304669","NA","304666","306756","1637","307061","NA","NA","305761","1621","1621","306161","304665","1621","305761","307061","morph21_Oliver/Morris","55","42401","65","yes","1280","9"
"400","83.3333333333","83.3333333333","657.439393939","657.439393939","black","no","xpyriment","legacy","legacy","0","206","NA","uniform","63146","1000","0.0158363158395","0","undefined","0","0","65","65","65","0","65","65","65","NA","65","65","0","65","NA","65","65","0","65","NA","65","NA","65","0","0","65","65","0","65","65","66","z","10/24/18 16:30:48","The main experiment item","yes","FIN__BA__M21__7%3A10%3A17.osexp","C:\Users\ERP Testing Room\Desktop\Joanna\morph21","no","mono","no","18","no","white","no","yes","1080","legacy","65","65","C:/Users/ERP Testing Room/Desktop/Joanna/morph21/subject-144-2.csv","xpyriment","Jazzy James","3.1.4","0","None","NA","NA","NA","NA","space","None","990","NA","NA","NA","NA","74362","990","2","legacy","1024","2","48000","-16","BA_m21","144","even","NW_L_SIMP","CLASSOUS","1621","311311","308236","309803","75999","NA","NA","NA","NA","298960","308733","NA","307736","NA","307728","309794","1637","311711","NA","NA","308803","1621","1621","309194","307728","1621","308803","311711","morph21_Oliver/Morris","55","43391","66","yes","1280","18"
"300","83.5820895522","83.5820895522","656.582089552","656.582089552","black","no","xpyriment","legacy","legacy","0","208","NA","uniform","66854","1000","0.0149579681096","1","undefined","1","0","66","66","66","0","66","66","66","NA","66","66","0","66","NA","66","66","0","66","NA","66","NA","66","0","0","66","66","0","66","66","67","z","10/24/18 16:30:48","The main experiment item","yes","FIN__BA__M21__7%3A10%3A17.osexp","C:\Users\ERP Testing Room\Desktop\Joanna\morph21","no","mono","no","18","no","white","no","yes","1080","legacy","66","66","C:/Users/ERP Testing Room/Desktop/Joanna/morph21/subject-144-2.csv","xpyriment","Jazzy James","3.1.4","0","z","NA","NA","NA","NA","space","z","600","NA","NA","NA","NA","74362","600","2","legacy","1024","2","48000","-16","BA_m21","144","even","FILL_NW","DULKS","1621","314487","312903","309803","75999","NA","NA","NA","NA","314484","313400","NA","312403","NA","312397","314484","1637","314787","NA","NA","313495","1621","1621","313887","312397","1621","313495","314787","morph21_Oliver/Morris","56","43991","67","yes","1280","18"
"200","83.8235294118","83.8235294118","657.455882353","657.455882353","black","no","xpyriment","legacy","legacy","0","201","NA","uniform","71350","1000","0.0140154169587","1","undefined","1","0","67","67","67","0","67","67","67","NA","67","67","0","67","NA","67","67","0","67","NA","67","NA","67","0","0","67","67","0","67","67","68","/","10/24/18 16:30:48","The main experiment item","yes","FIN__BA__M21__7%3A10%3A17.osexp","C:\Users\ERP Testing Room\Desktop\Joanna\morph21","no","mono","no","18","no","white","no","yes","1080","legacy","67","67","C:/Users/ERP Testing Room/Desktop/Joanna/morph21/subject-144-2.csv","xpyriment","Jazzy James","3.1.4","0","/","NA","NA","NA","NA","space","/","716","NA","NA","NA","NA","74362","716","2","legacy","1024","2","48000","-16","BA_m21","144","even","CW_S","ANGELIC","1621","317579","315971","309803","75999","NA","NA","NA","NA","317574","316468","NA","315471","NA","315465","317574","1637","317779","NA","NA","316579","1621","1621","316979","315465","1621","316579","317779","morph21_Oliver/Morris","57","44707","68","yes","1280","25"
"400","84.0579710145","84.0579710145","656.68115942","656.68115942","black","no","xpyriment","legacy","legacy","0","201","NA","uniform","73825","1000","0.0135455469015","1","undefined","1","0","68","68","68","0","68","68","68","NA","68","68","0","68","NA","68","68","0","68","NA","68","NA","68","0","0","68","68","0","68","68","69","/","10/24/18 16:30:48","The main experiment item","yes","FIN__BA__M21__7%3A10%3A17.osexp","C:\Users\ERP Testing Room\Desktop\Joanna\morph21","no","mono","no","18","no","white","no","yes","1080","legacy","68","68","C:/Users/ERP Testing Room/Desktop/Joanna/morph21/subject-144-2.csv","xpyriment","Jazzy James","3.1.4","0","/","NA","NA","NA","NA","space","/","604","NA","NA","NA","NA","74362","604","2","legacy","1024","2","48000","-16","BA_m21","144","even","CW_S","DESIGN","1621","322071","319004","320563","75999","NA","NA","NA","NA","320560","319501","NA","318504","NA","318497","320560","1637","322471","NA","NA","319571","1621","1621","319963","318497","1621","319571","322471","morph21_Oliver/Morris","58","45311","69","yes","1280","19"
"300","82.8571428571","82.8571428571","658.057142857","658.057142857","black","no","xpyriment","legacy","legacy","0","202","NA","uniform","68214","1000","0.014659747266","0","undefined","0","0","69","69","69","0","69","69","69","NA","69","69","0","69","NA","69","69","0","69","NA","69","NA","69","0","0","69","69","0","69","69","70","/","10/24/18 16:30:48","The main experiment item","yes","FIN__BA__M21__7%3A10%3A17.osexp","C:\Users\ERP Testing Room\Desktop\Joanna\morph21","no","mono","no","18","no","white","no","yes","1080","legacy","69","69","C:/Users/ERP Testing Room/Desktop/Joanna/morph21/subject-144-2.csv","xpyriment","Jazzy James","3.1.4","0","z","NA","NA","NA","NA","space","z","753","NA","NA","NA","NA","74362","753","2","legacy","1024","2","48000","-16","BA_m21","144","even","CW_L","DAMPISH","1621","325254","323654","320563","75999","NA","NA","NA","NA","320560","324151","NA","323154","NA","323144","325245","1637","325554","NA","NA","324254","1621","1621","324646","323143","1621","324254","325554","morph21_Oliver/Morris","58","46064","70","yes","1280","28"
"250","83.0985915493","83.0985915493","657.112676056","657.112676056","black","no","xpyriment","legacy","legacy","0","206","NA","uniform","74554","1000","0.0134130965475","1","undefined","1","0","70","70","70","0","70","70","70","NA","70","70","0","70","NA","70","70","0","70","NA","70","NA","70","0","0","70","70","0","70","70","71","z","10/24/18 16:30:48","The main experiment item","yes","FIN__BA__M21__7%3A10%3A17.osexp","C:\Users\ERP Testing Room\Desktop\Joanna\morph21","no","mono","no","18","no","white","no","yes","1080","legacy","70","70","C:/Users/ERP Testing Room/Desktop/Joanna/morph21/subject-144-2.csv","xpyriment","Jazzy James","3.1.4","0","z","NA","NA","NA","NA","space","z","591","NA","NA","NA","NA","74362","591","2","legacy","1024","2","48000","-16","BA_m21","144","even","NW_L_SIMP","BEARIST","1621","328296","326730","320563","75999","NA","NA","NA","NA","328287","327227","NA","326229","NA","326220","328287","1637","328546","NA","NA","327296","1621","1621","327688","326220","1621","327296","328546","morph21_Oliver/Morris","59","46655","71","yes","1280","25"
"300","83.3333333333","83.3333333333","656.5","656.5","black","no","xpyriment","legacy","legacy","0","201","NA","uniform","73032","1000","0.0136926278891","1","undefined","1","0","71","71","71","0","71","71","71","NA","71","71","0","71","NA","71","71","0","71","NA","71","NA","71","0","0","71","71","0","71","71","72","/","10/24/18 16:30:48","The main experiment item","yes","FIN__BA__M21__7%3A10%3A17.osexp","C:\Users\ERP Testing Room\Desktop\Joanna\morph21","no","mono","no","18","no","white","no","yes","1080","legacy","71","71","C:/Users/ERP Testing Room/Desktop/Joanna/morph21/subject-144-2.csv","xpyriment","Jazzy James","3.1.4","0","/","NA","NA","NA","NA","space","/","613","NA","NA","NA","NA","74362","613","2","legacy","1024","2","48000","-16","BA_m21","144","even","CW_S","MAGICAL","1621","332856","329755","331347","75999","NA","NA","NA","NA","331337","330252","NA","329255","NA","329252","331337","1637","333156","NA","NA","330346","1621","1621","330738","329251","1621","330346","333156","morph21_Oliver/Morris","60","47268","72","yes","1280","4"
"250","83.5616438356","83.5616438356","660.438356164","660.438356164","black","no","xpyriment","legacy","legacy","0","207","NA","uniform","60349","1000","0.0165702828547","1","undefined","1","0","72","72","72","0","72","72","72","NA","72","72","0","72","NA","72","72","0","72","NA","72","NA","72","0","0","72","72","0","72","72","73","/","10/24/18 16:30:48","The main experiment item","yes","FIN__BA__M21__7%3A10%3A17.osexp","C:\Users\ERP Testing Room\Desktop\Joanna\morph21","no","mono","no","18","no","white","no","yes","1080","legacy","72","72","C:/Users/ERP Testing Room/Desktop/Joanna/morph21/subject-144-2.csv","xpyriment","Jazzy James","3.1.4","0","/","NA","NA","NA","NA","space","/","944","NA","NA","NA","NA","74362","944","2","legacy","1024","2","48000","-16","BA_m21","144","even","FILL_W","SPLICE","1621","336023","334431","331347","75999","NA","NA","NA","NA","336016","334928","NA","333931","NA","333924","336016","1637","336273","NA","NA","335023","1621","1621","335414","333924","1621","335023","336273","morph21_Oliver/Morris","61","48212","73","yes","1280","22"
"400","83.7837837838","83.7837837838","659.391891892","659.391891892","black","no","xpyriment","legacy","legacy","0","207","NA","uniform","69586","1000","0.0143707067514","1","undefined","1","0","73","73","73","0","73","73","73","NA","73","73","0","73","NA","73","73","0","73","NA","73","NA","73","0","0","73","73","0","73","73","74","/","10/24/18 16:30:48","The main experiment item","yes","FIN__BA__M21__7%3A10%3A17.osexp","C:\Users\ERP Testing Room\Desktop\Joanna\morph21","no","mono","no","18","no","white","no","yes","1080","legacy","73","73","C:/Users/ERP Testing Room/Desktop/Joanna/morph21/subject-144-2.csv","xpyriment","Jazzy James","3.1.4","0","/","NA","NA","NA","NA","space","/","583","NA","NA","NA","NA","74362","583","2","legacy","1024","2","48000","-16","BA_m21","144","even","FILL_W","EAT","1621","339056","337464","331347","75999","NA","NA","NA","NA","339047","337961","NA","336964","NA","336958","339047","1637","339456","NA","NA","338056","1621","1621","338448","336958","1621","338056","339456","morph21_Oliver/Morris","62","48795","74","yes","1280","25"
"200","84","84","658.173333333","658.173333333","black","no","xpyriment","legacy","legacy","0","204","NA","uniform","75142","1000","0.0133081365947","undefined","undefined","1","0","74","74","74","0","74","74","74","NA","74","74","0","74","NA","74","74","0","74","NA","74","NA","74","0","0","74","74","0","74","74","75","z","10/24/18 16:30:48","The main experiment item","yes","FIN__BA__M21__7%3A10%3A17.osexp","C:\Users\ERP Testing Room\Desktop\Joanna\morph21","no","mono","no","18","no","white","no","yes","1080","legacy","74","74","C:/Users/ERP Testing Room/Desktop/Joanna/morph21/subject-144-2.csv","xpyriment","Jazzy James","3.1.4","0","space","space","NA","NA","NA","space","z","4362","4362","NA","NA","NA","74362","568","2","legacy","1024","2","48000","-16","BA_m21","144","even","NW_L_COMP","FLIPODY","1621","343740","340639","342231","75999","343948","NA","NA","NA","342224","341137","NA","340139","NA","340129","342224","1637","348311","NA","NA","341231","1621","1621","341623","340129","1621","341231","343940","morph21_Oliver/Morris","63","49363","75","yes","1280","16"
"400","82.8947368421","82.8947368421","662.578947368","662.578947368","black","no","xpyriment","legacy","legacy","0","208","NA","uniform","57348","1000","0.017437399735","0","undefined","0","0","75","75","75","0","75","75","75","NA","75","75","0","75","NA","75","75","0","75","NA","75","NA","75","0","0","75","75","0","75","75","76","z","10/24/18 16:30:48","The main experiment item","yes","FIN__BA__M21__7%3A10%3A17.osexp","C:\Users\ERP Testing Room\Desktop\Joanna\morph21","no","mono","no","18","no","white","no","yes","1080","legacy","75","75","C:/Users/ERP Testing Room/Desktop/Joanna/morph21/subject-144-2.csv","xpyriment","Jazzy James","3.1.4","0","None","space","NA","NA","NA","space","None","993","4362","NA","NA","NA","74362","993","2","legacy","1024","2","48000","-16","BA_m21","144","even","FILL_NW","BALFS","1621","351066","349499","342231","75999","343948","NA","NA","NA","342224","349996","NA","348999","NA","348994","351060","1637","351466","NA","NA","350066","1621","1621","350458","348994","1621","350066","351466","morph21_Oliver/Morris","63","50356","76","yes","1280","2"
"350","83.1168831169","83.1168831169","662.376623377","662.376623377","black","no","xpyriment","legacy","legacy","0","201","NA","uniform","73362","1000","0.0136310351408","1","undefined","1","0","76","76","76","0","76","76","76","NA","76","76","0","76","NA","76","76","0","76","NA","76","NA","76","0","0","76","76","0","76","76","77","/","10/24/18 16:30:48","The main experiment item","yes","FIN__BA__M21__7%3A10%3A17.osexp","C:\Users\ERP Testing Room\Desktop\Joanna\morph21","no","mono","no","18","no","white","no","yes","1080","legacy","76","76","C:/Users/ERP Testing Room/Desktop/Joanna/morph21/subject-144-2.csv","xpyriment","Jazzy James","3.1.4","0","/","space","NA","NA","NA","space","/","647","4362","NA","NA","NA","74362","647","2","legacy","1024","2","48000","-16","BA_m21","144","even","CW_S","SINGER","1621","354216","352624","342231","75999","343948","NA","NA","NA","354207","353121","NA","352124","NA","352114","354207","1637","354566","NA","NA","353216","1621","1621","353608","352114","1621","353216","354566","morph21_Oliver/Morris","64","51003","77","yes","1280","17"
"250","83.3333333333","83.3333333333","664.461538462","664.461538462","black","no","xpyriment","legacy","legacy","0","201","NA","uniform","64323","1000","0.0155465385632","1","undefined","1","0","77","77","77","0","77","77","77","NA","77","77","0","77","NA","77","77","0","77","NA","77","NA","77","0","0","77","77","0","77","77","78","/","10/24/18 16:30:48","The main experiment item","yes","FIN__BA__M21__7%3A10%3A17.osexp","C:\Users\ERP Testing Room\Desktop\Joanna\morph21","no","mono","no","18","no","white","no","yes","1080","legacy","77","77","C:/Users/ERP Testing Room/Desktop/Joanna/morph21/subject-144-2.csv","xpyriment","Jazzy James","3.1.4","0","/","space","NA","NA","NA","space","/","825","4362","NA","NA","NA","74362","825","2","legacy","1024","2","48000","-16","BA_m21","144","even","CW_S","NOTICEABLE","1621","358883","355783","357374","75999","343948","NA","NA","NA","357366","356280","NA","355283","NA","355275","357366","1637","359133","NA","NA","356374","1621","1621","356766","355275","1621","356374","359133","morph21_Oliver/Morris","65","51828","78","yes","1280","3"
"200","83.5443037975","83.5443037975","662.379746835","662.379746835","black","no","xpyriment","legacy","legacy","0","208","NA","uniform","79234","1000","0.0126208445869","1","undefined","1","0","78","78","78","0","78","78","78","NA","78","78","0","78","NA","78","78","0","78","NA","78","NA","78","0","0","78","78","0","78","78","79","z","10/24/18 16:30:48","The main experiment item","yes","FIN__BA__M21__7%3A10%3A17.osexp","C:\Users\ERP Testing Room\Desktop\Joanna\morph21","no","mono","no","18","no","white","no","yes","1080","legacy","78","78","C:/Users/ERP Testing Room/Desktop/Joanna/morph21/subject-144-2.csv","xpyriment","Jazzy James","3.1.4","0","z","space","NA","NA","NA","space","z","500","4362","NA","NA","NA","74362","500","2","legacy","1024","2","48000","-16","BA_m21","144","even","FILL_NW","CINDS","1621","361891","360308","357374","75999","343948","NA","NA","NA","361886","360805","NA","359808","NA","359802","361886","1637","362091","NA","NA","360891","1621","1621","361291","359802","1621","360891","362091","morph21_Oliver/Morris","66","52328","79","yes","1280","6"
"250","82.5","82.5","663.3375","663.3375","black","no","xpyriment","legacy","legacy","0","201","NA","uniform","69632","1000","0.0143612132353","0","undefined","0","0","79","79","79","0","79","79","79","NA","79","79","0","79","NA","79","79","0","79","NA","79","NA","79","0","0","79","79","0","79","79","80","/","10/24/18 16:30:48","The main experiment item","yes","FIN__BA__M21__7%3A10%3A17.osexp","C:\Users\ERP Testing Room\Desktop\Joanna\morph21","no","mono","no","18","no","white","no","yes","1080","legacy","79","79","C:/Users/ERP Testing Room/Desktop/Joanna/morph21/subject-144-2.csv","xpyriment","Jazzy James","3.1.4","0","z","space","NA","NA","NA","space","z","739","4362","NA","NA","NA","74362","739","2","legacy","1024","2","48000","-16","BA_m21","144","even","CW_S","MILDNESS","1621","364916","363316","357374","75999","343948","NA","NA","NA","361886","363814","NA","362816","NA","362808","364906","1637","365167","NA","NA","363916","1621","1621","364308","362808","1621","363916","365167","morph21_Oliver/Morris","66","53067","80","yes","1280","42"
"250","82.7160493827","82.7160493827","662.259259259","662.259259259","black","no","xpyriment","legacy","legacy","0","204","NA","uniform","74989","1000","0.0133352891757","1","undefined","1","0","80","80","80","0","80","80","80","NA","80","80","0","80","NA","80","80","0","80","NA","80","NA","80","0","0","80","80","0","80","80","81","z","10/24/18 16:30:48","The main experiment item","yes","FIN__BA__M21__7%3A10%3A17.osexp","C:\Users\ERP Testing Room\Desktop\Joanna\morph21","no","mono","no","18","no","white","no","yes","1080","legacy","80","80","C:/Users/ERP Testing Room/Desktop/Joanna/morph21/subject-144-2.csv","xpyriment","Jazzy James","3.1.4","0","z","space","NA","NA","NA","space","z","576","4362","NA","NA","NA","74362","576","2","legacy","1024","2","48000","-16","BA_m21","144","even","NW_L_COMP","MUDLA","1621","369459","366368","367951","75999","343948","NA","NA","NA","367948","366865","NA","365867","NA","365860","367948","1637","369710","NA","NA","366951","1621","1621","367351","365860","1621","366951","369710","morph21_Oliver/Morris","67","53643","81","yes","1280","12"
"300","82.9268292683","82.9268292683","662.707317073","662.707317073","black","no","xpyriment","legacy","legacy","0","207","NA","uniform","71316","1000","0.0140220988278","1","undefined","1","0","81","81","81","0","81","81","81","NA","81","81","0","81","NA","81","81","0","81","NA","81","NA","81","0","0","81","81","0","81","81","82","/","10/24/18 16:30:48","The main experiment item","yes","FIN__BA__M21__7%3A10%3A17.osexp","C:\Users\ERP Testing Room\Desktop\Joanna\morph21","no","mono","no","18","no","white","no","yes","1080","legacy","81","81","C:/Users/ERP Testing Room/Desktop/Joanna/morph21/subject-144-2.csv","xpyriment","Jazzy James","3.1.4","0","/","space","NA","NA","NA","space","/","699","4362","NA","NA","NA","74362","699","2","legacy","1024","2","48000","-16","BA_m21","144","even","FILL_W","BOX","1621","372484","370918","367951","75999","343948","NA","NA","NA","372475","371415","NA","370418","NA","370407","372475","1637","372785","NA","NA","371484","1621","1621","371876","370407","1621","371484","372785","morph21_Oliver/Morris","68","54342","82","yes","1280","42"
"350","83.1325301205","83.1325301205","663.301204819","663.301204819","black","no","xpyriment","legacy","legacy","0","207","NA","uniform","71931","1000","0.0139022118419","1","undefined","1","0","82","82","82","0","82","82","82","NA","82","82","0","82","NA","82","82","0","82","NA","82","NA","82","0","0","82","82","0","82","82","83","/","10/24/18 16:30:48","The main experiment item","yes","FIN__BA__M21__7%3A10%3A17.osexp","C:\Users\ERP Testing Room\Desktop\Joanna\morph21","no","mono","no","18","no","white","no","yes","1080","legacy","82","82","C:/Users/ERP Testing Room/Desktop/Joanna/morph21/subject-144-2.csv","xpyriment","Jazzy James","3.1.4","0","/","space","NA","NA","NA","space","/","712","4362","NA","NA","NA","74362","712","2","legacy","1024","2","48000","-16","BA_m21","144","even","FILL_W","LEAK","1621","375543","373960","367951","75999","343948","NA","NA","NA","375538","374457","NA","373460","NA","373454","375538","1637","375893","NA","NA","374543","1621","1621","374943","373454","1621","374543","375893","morph21_Oliver/Morris","69","55054","83","yes","1280","9"
"400","83.3333333333","83.3333333333","662.119047619","662.119047619","black","no","xpyriment","legacy","legacy","0","203","NA","uniform","78841","1000","0.0126837559138","1","undefined","1","0","83","83","83","0","83","83","83","NA","83","83","0","83","NA","83","83","0","83","NA","83","NA","83","0","0","83","83","0","83","83","84","z","10/24/18 16:30:48","The main experiment item","yes","FIN__BA__M21__7%3A10%3A17.osexp","C:\Users\ERP Testing Room\Desktop\Joanna\morph21","no","mono","no","18","no","white","no","yes","1080","legacy","83","83","C:/Users/ERP Testing Room/Desktop/Joanna/morph21/subject-144-2.csv","xpyriment","Jazzy James","3.1.4","0","z","space","NA","NA","NA","space","z","564","4362","NA","NA","NA","74362","564","2","legacy","1024","2","48000","-16","BA_m21","144","even","NW_S_COMP","TRUENELS","1621","380160","377085","378651","75999","343948","NA","NA","NA","378645","377582","NA","376585","NA","376581","378645","1637","380560","NA","NA","377651","1621","1621","378043","376581","1621","377651","380560","morph21_Oliver/Morris","70","55618","84","yes","1280","15"
"250","83.5294117647","83.5294117647","662.6","662.6","black","no","xpyriment","legacy","legacy","0","208","NA","uniform","70925","1000","0.0140994007755","1","undefined","1","0","84","84","84","0","84","84","84","NA","84","84","0","84","NA","84","84","0","84","NA","84","NA","84","0","0","84","84","0","84","84","85","z","10/24/18 16:30:48","The main experiment item","yes","FIN__BA__M21__7%3A10%3A17.osexp","C:\Users\ERP Testing Room\Desktop\Joanna\morph21","no","mono","no","18","no","white","no","yes","1080","legacy","84","84","C:/Users/ERP Testing Room/Desktop/Joanna/morph21/subject-144-2.csv","xpyriment","Jazzy James","3.1.4","0","z","space","NA","NA","NA","space","z","703","4362","NA","NA","NA","74362","703","2","legacy","1024","2","48000","-16","BA_m21","144","even","FILL_NW","DOWED","1621","383343","381768","378651","75999","343948","NA","NA","NA","383334","382265","NA","381268","NA","381265","383334","1637","383593","NA","NA","382343","1621","1621","382735","381265","1621","382343","383593","morph21_Oliver/Morris","71","56321","85","yes","1280","16"
"250","83.7209302326","83.7209302326","660.825581395","660.825581395","black","no","xpyriment","legacy","legacy","0","201","NA","uniform","73113","1000","0.0136774581812","1","undefined","1","0","85","85","85","0","85","85","85","NA","85","85","0","85","NA","85","85","0","85","NA","85","NA","85","0","0","85","85","0","85","85","86","/","10/24/18 16:30:48","The main experiment item","yes","FIN__BA__M21__7%3A10%3A17.osexp","C:\Users\ERP Testing Room\Desktop\Joanna\morph21","no","mono","no","18","no","white","no","yes","1080","legacy","85","85","C:/Users/ERP Testing Room/Desktop/Joanna/morph21/subject-144-2.csv","xpyriment","Jazzy James","3.1.4","0","/","space","NA","NA","NA","space","/","510","4362","NA","NA","NA","74362","510","2","legacy","1024","2","48000","-16","BA_m21","144","even","CW_S","COSTLY","1621","386361","384761","378651","75999","343948","NA","NA","NA","386352","385258","NA","384261","NA","384250","386352","1637","386611","NA","NA","385361","1621","1621","385753","384250","1621","385361","386611","morph21_Oliver/Morris","72","56831","86","yes","1280","36"
"400","83.908045977","83.908045977","660.666666667","660.666666667","black","no","xpyriment","legacy","legacy","0","202","NA","uniform","74178","1000","0.0134810860363","1","undefined","1","0","86","86","86","0","86","86","86","NA","86","86","0","86","NA","86","86","0","86","NA","86","NA","86","0","0","86","86","0","86","86","87","/","10/24/18 16:30:48","The main experiment item","yes","FIN__BA__M21__7%3A10%3A17.osexp","C:\Users\ERP Testing Room\Desktop\Joanna\morph21","no","mono","no","18","no","white","no","yes","1080","legacy","86","86","C:/Users/ERP Testing Room/Desktop/Joanna/morph21/subject-144-2.csv","xpyriment","Jazzy James","3.1.4","0","/","space","NA","NA","NA","space","/","647","4362","NA","NA","NA","74362","647","2","legacy","1024","2","48000","-16","BA_m21","144","even","CW_L","FAITHFUL","1621","390836","387769","389328","75999","343948","NA","NA","NA","389325","388266","NA","387269","NA","387266","389325","1637","391236","NA","NA","388336","1621","1621","388728","387266","1621","388336","391236","morph21_Oliver/Morris","73","57478","87","yes","1280","20"
"300","84.0909090909","84.0909090909","659.545454545","659.545454545","black","no","xpyriment","legacy","legacy","0","202","NA","uniform","77699","1000","0.0128701785094","1","undefined","1","0","87","87","87","0","87","87","87","NA","87","87","0","87","NA","87","87","0","87","NA","87","NA","87","0","0","87","87","0","87","87","88","/","10/24/18 16:30:48","The main experiment item","yes","FIN__BA__M21__7%3A10%3A17.osexp","C:\Users\ERP Testing Room\Desktop\Joanna\morph21","no","mono","no","18","no","white","no","yes","1080","legacy","87","87","C:/Users/ERP Testing Room/Desktop/Joanna/morph21/subject-144-2.csv","xpyriment","Jazzy James","3.1.4","0","/","space","NA","NA","NA","space","/","562","4362","NA","NA","NA","74362","562","2","legacy","1024","2","48000","-16","BA_m21","144","even","CW_L","MADNESS","1621","394045","392461","389328","75999","343948","NA","NA","NA","394038","392958","NA","391961","NA","391957","394038","1637","394345","NA","NA","393045","1621","1621","393436","391957","1621","393045","394345","morph21_Oliver/Morris","74","58040","88","yes","1280","41"
"300","84.2696629213","84.2696629213","658.516853933","658.516853933","black","no","xpyriment","legacy","legacy","0","202","NA","uniform","76205","1000","0.0131224985237","1","undefined","1","0","88","88","88","0","88","88","88","NA","88","88","0","88","NA","88","88","0","88","NA","88","NA","88","0","0","88","88","0","88","88","89","/","10/24/18 16:30:48","The main experiment item","yes","FIN__BA__M21__7%3A10%3A17.osexp","C:\Users\ERP Testing Room\Desktop\Joanna\morph21","no","mono","no","18","no","white","no","yes","1080","legacy","88","88","C:/Users/ERP Testing Room/Desktop/Joanna/morph21/subject-144-2.csv","xpyriment","Jazzy James","3.1.4","0","/","space","NA","NA","NA","space","/","568","4362","NA","NA","NA","74362","568","2","legacy","1024","2","48000","-16","BA_m21","144","even","CW_L","DOUBTFUL","1621","397095","395495","389328","75999","343948","NA","NA","NA","397089","395992","NA","394995","NA","394989","397089","1637","397395","NA","NA","396095","1621","1621","396486","394989","1621","396095","397395","morph21_Oliver/Morris","75","58608","89","yes","1280","21"
"400","84.4444444444","84.4444444444","658.022222222","658.022222222","black","no","xpyriment","legacy","legacy","0","208","NA","uniform","75452","1000","0.0132534591528","1","undefined","1","0","89","89","89","0","89","89","89","NA","89","89","0","89","NA","89","89","0","89","NA","89","NA","89","0","0","89","89","0","89","89","90","z","10/24/18 16:30:48","The main experiment item","yes","FIN__BA__M21__7%3A10%3A17.osexp","C:\Users\ERP Testing Room\Desktop\Joanna\morph21","no","mono","no","18","no","white","no","yes","1080","legacy","89","89","C:/Users/ERP Testing Room/Desktop/Joanna/morph21/subject-144-2.csv","xpyriment","Jazzy James","3.1.4","0","z","space","NA","NA","NA","space","z","614","4362","NA","NA","NA","74362","614","2","legacy","1024","2","48000","-16","BA_m21","144","even","FILL_NW","BUTE","1621","401646","398553","400137","75999","343948","NA","NA","NA","400133","399050","NA","398053","NA","398046","400133","1637","402046","NA","NA","399145","1621","1621","399537","398046","1621","399145","402046","morph21_Oliver/Morris","76","59222","90","yes","1280","5"
"300","84.6153846154","84.6153846154","657.648351648","657.648351648","black","no","xpyriment","legacy","legacy","0","208","NA","uniform","57176","1000","0.0174898558836","1","undefined","1","0","90","90","90","0","90","90","90","NA","90","90","0","90","NA","90","90","0","90","NA","90","NA","90","0","0","90","90","0","90","90","91","z","10/24/18 16:30:48","The main experiment item","yes","FIN__BA__M21__7%3A10%3A17.osexp","C:\Users\ERP Testing Room\Desktop\Joanna\morph21","no","mono","no","18","no","white","no","yes","1080","legacy","90","90","C:/Users/ERP Testing Room/Desktop/Joanna/morph21/subject-144-2.csv","xpyriment","Jazzy James","3.1.4","0","z","space","NA","NA","NA","space","z","624","4362","NA","NA","NA","74362","624","2","legacy","1024","2","48000","-16","BA_m21","144","even","FILL_NW","KEMT","1621","404871","403279","400137","75999","343948","NA","NA","NA","404866","403777","NA","402779","NA","402776","404866","1637","405171","NA","NA","403871","1621","1621","404271","402776","1621","403871","405171","morph21_Oliver/Morris","77","59846","91","yes","1280","32"
