"ITI","acc","accuracy","average_response_time","avg_rt","background","bidi","canvas_backend","clock_backend","color_backend","compensation","cond_trig","condtrigtime","coordinates","coroutines_cycles","coroutines_duration","coroutines_mean_cycle_duration","correct","correct_instructions_1","correct_new_keyboard_response_1","count_BA_m21","count_ITI","count_blank_screen","count_blink_screen","count_block1","count_break1","count_break2","count_break3_1","count_canvas","count_correct_trigger","count_def_chain","count_end_screen","count_fixation_1","count_getting_started","count_inc_counter","count_incorrect_trigger","count_instructions_1","count_logger","count_logscript","count_new_coroutines","count_new_inline_script","count_new_keyboard_response_1","count_reset_counter_prep","count_reset_counter_run","count_responsescreen","count_sequence","count_start_trigger","count_target_present","count_word_trigger","counter","cresp","datetime","description","disable_garbage_collection","experiment_file","experiment_path","font_bold","font_family","font_italic","font_size","font_underline","foreground","form_clicks","fullscreen","height","keyboard_backend","live_row","live_row_block1","logfile","mouse_backend","opensesame_codename","opensesame_version","repeat_cycle","response","response_break1","response_break2","response_break3_1","response_end_screen","response_instructions_1","response_new_keyboard_response_1","response_time","response_time_break1","response_time_break2","response_time_break3_1","response_time_end_screen","response_time_instructions_1","response_time_new_keyboard_response_1","round_decimals","sampler_backend","sound_buf_size","sound_channels","sound_freq","sound_sample_size","start","subject_nr","subject_parity","targ_type","target","time_BA_m21","time_ITI","time_blank_screen","time_blink_screen","time_block1","time_break1","time_break2","time_break3_1","time_canvas","time_correct_trigger","time_def_chain","time_end_screen","time_fixation_1","time_getting_started","time_inc_counter","time_incorrect_trigger","time_instructions_1","time_logger","time_logscript","time_new_inline_script","time_new_keyboard_response_1","time_reset_counter_prep","time_reset_counter_run","time_responsescreen","time_sequence","time_start_trigger","time_target_present","time_word_trigger","title","total_correct","total_response_time","total_responses","uniform_coordinates","width","word_trig"
"300","0","0","992","992","black","no","xpyriment","legacy","legacy","0","202","NA","uniform","47833","1000","0.0209060690318","0","undefined","0","0","0","0","0","0","0","0","0","NA","0","0","0","0","NA","0","0","0","0","NA","0","NA","0","0","0","0","0","0","0","0","1","/","02/28/19 15:56:04","The main experiment item","yes","FIN__BA__M21__7%3A10%3A17.osexp","C:\Users\ERP Testing Room\Desktop\Joanna\morph21","no","mono","no","18","no","white","no","yes","1080","legacy","0","0","C:/Users/ERP Testing Room/Desktop/Joanna/morph21/subject-163.csv","xpyriment","Kafkaesque Koffka","3.2.5","0","None","NA","NA","NA","NA","space","None","992","NA","NA","NA","NA","2283492","992","2","legacy","1024","2","48000","-16","BA_m21","163","odd","CW_L","DAMPISH","1965","2288259","2286601","NA","2285466","NA","NA","NA","NA","NA","2287098","NA","2286095","NA","2286026","2288251","1974","2288559","NA","NA","2287259","1965","1965","2287651","2286026","1965","2287259","2288559","morph21_Oliver/Morris","0","992","1","yes","1280","28"
"250","0","0","551.5","551.5","black","no","xpyriment","legacy","legacy","0","204","NA","uniform","79047","1000","0.0126507014814","0","undefined","0","0","1","1","1","0","1","1","1","NA","1","1","0","1","NA","1","1","0","1","NA","1","NA","1","0","0","1","1","0","1","1","2","z","02/28/19 15:56:04","The main experiment item","yes","FIN__BA__M21__7%3A10%3A17.osexp","C:\Users\ERP Testing Room\Desktop\Joanna\morph21","no","mono","no","18","no","white","no","yes","1080","legacy","1","1","C:/Users/ERP Testing Room/Desktop/Joanna/morph21/subject-163.csv","xpyriment","Kafkaesque Koffka","3.2.5","0","/","NA","NA","NA","NA","space","/","111","NA","NA","NA","NA","2283492","111","2","legacy","1024","2","48000","-16","BA_m21","163","odd","NW_L_COMP","FREENELS","1965","2291434","2289759","NA","2285466","NA","NA","NA","NA","NA","2290257","NA","2289259","NA","2289253","2291427","1974","2291684","NA","NA","2290434","1965","1965","2290826","2289253","1965","2290434","2291684","morph21_Oliver/Morris","0","1103","2","yes","1280","15"
"300","0","0","699","699","black","no","xpyriment","legacy","legacy","0","201","NA","uniform","47123","1000","0.0212210597797","0","undefined","0","0","2","2","2","0","2","2","2","NA","2","2","0","2","NA","2","2","0","2","NA","2","NA","2","0","0","2","2","0","2","2","3","/","02/28/19 15:56:04","The main experiment item","yes","FIN__BA__M21__7%3A10%3A17.osexp","C:\Users\ERP Testing Room\Desktop\Joanna\morph21","no","mono","no","18","no","white","no","yes","1080","legacy","2","2","C:/Users/ERP Testing Room/Desktop/Joanna/morph21/subject-163.csv","xpyriment","Kafkaesque Koffka","3.2.5","0","None","NA","NA","NA","NA","space","None","994","NA","NA","NA","NA","2283492","994","2","legacy","1024","2","48000","-16","BA_m21","163","odd","CW_S","DESTROYER","1965","2296093","2292893","2294585","2285466","NA","NA","NA","NA","NA","2293390","NA","2292393","NA","2292384","2294578","1974","2296393","NA","NA","2293584","1965","1965","2293976","2292384","1965","2293584","2296393","morph21_Oliver/Morris","0","2097","3","yes","1280","14"
"200","0","0","771.25","771.25","black","no","xpyriment","legacy","legacy","0","208","NA","uniform","48897","1000","0.0204511524224","0","undefined","0","0","3","3","3","0","3","3","3","NA","3","3","0","3","NA","3","3","0","3","NA","3","NA","3","0","0","3","3","0","3","3","4","z","02/28/19 15:56:04","The main experiment item","yes","FIN__BA__M21__7%3A10%3A17.osexp","C:\Users\ERP Testing Room\Desktop\Joanna\morph21","no","mono","no","18","no","white","no","yes","1080","legacy","3","3","C:/Users/ERP Testing Room/Desktop/Joanna/morph21/subject-163.csv","xpyriment","Kafkaesque Koffka","3.2.5","0","None","NA","NA","NA","NA","space","None","988","NA","NA","NA","NA","2283492","988","2","legacy","1024","2","48000","-16","BA_m21","163","odd","FILL_NW","HESK","1965","2299293","2297593","2294585","2285466","NA","NA","NA","NA","NA","2298090","NA","2297093","NA","2297082","2299289","1974","2299493","NA","NA","2298301","1965","1965","2298693","2297082","1965","2298301","2299493","morph21_Oliver/Morris","0","3085","4","yes","1280","29"
"400","20","20","775","775","black","no","xpyriment","legacy","legacy","0","202","NA","uniform","59199","1000","0.0168921772327","1","undefined","1","0","4","4","4","0","4","4","4","NA","4","4","0","4","NA","4","4","0","4","NA","4","NA","4","0","0","4","4","0","4","4","5","/","02/28/19 15:56:04","The main experiment item","yes","FIN__BA__M21__7%3A10%3A17.osexp","C:\Users\ERP Testing Room\Desktop\Joanna\morph21","no","mono","no","18","no","white","no","yes","1080","legacy","4","4","C:/Users/ERP Testing Room/Desktop/Joanna/morph21/subject-163.csv","xpyriment","Kafkaesque Koffka","3.2.5","0","/","NA","NA","NA","NA","space","/","790","NA","NA","NA","NA","2283492","790","2","legacy","1024","2","48000","-16","BA_m21","163","odd","CW_L","DRYNESS","1965","2302444","2300794","2294585","2285466","NA","NA","NA","NA","2302434","2301291","NA","2300293","NA","2300288","2302434","1974","2302844","NA","NA","2301444","1965","1965","2301836","2300288","1965","2301444","2302844","morph21_Oliver/Morris","1","3875","5","yes","1280","42"
"350","16.6666666667","16.6666666667","812","812","black","no","xpyriment","legacy","legacy","0","203","NA","uniform","48561","1000","0.0205926566586","0","undefined","0","0","5","5","5","0","5","5","5","NA","5","5","0","5","NA","5","5","0","5","NA","5","NA","5","0","0","5","5","0","5","5","6","z","02/28/19 15:56:04","The main experiment item","yes","FIN__BA__M21__7%3A10%3A17.osexp","C:\Users\ERP Testing Room\Desktop\Joanna\morph21","no","mono","no","18","no","white","no","yes","1080","legacy","5","5","C:/Users/ERP Testing Room/Desktop/Joanna/morph21/subject-163.csv","xpyriment","Kafkaesque Koffka","3.2.5","0","None","NA","NA","NA","NA","space","None","997","NA","NA","NA","NA","2283492","997","2","legacy","1024","2","48000","-16","BA_m21","163","odd","NW_S_COMP","HEIGHTENGE","1965","2307128","2303953","2305619","2285466","NA","NA","NA","NA","2302434","2304450","NA","2303453","NA","2303447","2305616","1974","2307478","NA","NA","2304619","1965","1965","2305019","2303447","1965","2304619","2307478","morph21_Oliver/Morris","1","4872","6","yes","1280","18"
"250","28.5714285714","28.5714285714","809.285714286","809.285714286","black","no","xpyriment","legacy","legacy","0","207","NA","uniform","61159","1000","0.016350823264","1","undefined","1","0","6","6","6","0","6","6","6","NA","6","6","0","6","NA","6","6","0","6","NA","6","NA","6","0","0","6","6","0","6","6","7","/","02/28/19 15:56:04","The main experiment item","yes","FIN__BA__M21__7%3A10%3A17.osexp","C:\Users\ERP Testing Room\Desktop\Joanna\morph21","no","mono","no","18","no","white","no","yes","1080","legacy","6","6","C:/Users/ERP Testing Room/Desktop/Joanna/morph21/subject-163.csv","xpyriment","Kafkaesque Koffka","3.2.5","0","/","NA","NA","NA","NA","space","/","793","NA","NA","NA","NA","2283492","793","2","legacy","1024","2","48000","-16","BA_m21","163","odd","FILL_W","FIERCE","1965","2310328","2308653","2305619","2285466","NA","NA","NA","NA","2310320","2309150","NA","2308144","NA","2308134","2310320","1974","2310578","NA","NA","2309328","1965","1965","2309719","2308134","1965","2309328","2310578","morph21_Oliver/Morris","2","5665","7","yes","1280","24"
"350","25","25","832.25","832.25","black","no","xpyriment","legacy","legacy","0","206","NA","uniform","50724","1000","0.0197145335541","0","undefined","0","0","7","7","7","0","7","7","7","NA","7","7","0","7","NA","7","7","0","7","NA","7","NA","7","0","0","7","7","0","7","7","8","z","02/28/19 15:56:04","The main experiment item","yes","FIN__BA__M21__7%3A10%3A17.osexp","C:\Users\ERP Testing Room\Desktop\Joanna\morph21","no","mono","no","18","no","white","no","yes","1080","legacy","7","7","C:/Users/ERP Testing Room/Desktop/Joanna/morph21/subject-163.csv","xpyriment","Kafkaesque Koffka","3.2.5","0","None","NA","NA","NA","NA","space","None","993","NA","NA","NA","NA","2283492","993","2","legacy","1024","2","48000","-16","BA_m21","163","odd","NW_L_SIMP","CRITICANCE","1965","2313520","2311795","2305619","2285466","NA","NA","NA","NA","2310320","2312292","NA","2311295","NA","2311285","2313513","1974","2313870","NA","NA","2312520","1965","1965","2312911","2311285","1965","2312520","2313870","morph21_Oliver/Morris","2","6658","8","yes","1280","22"
"300","22.2222222222","22.2222222222","849.888888889","849.888888889","black","no","xpyriment","legacy","legacy","0","206","NA","uniform","44466","1000","0.02248909279","0","undefined","0","0","8","8","8","0","8","8","8","NA","8","8","0","8","NA","8","8","0","8","NA","8","NA","8","0","0","8","8","0","8","8","9","z","02/28/19 15:56:04","The main experiment item","yes","FIN__BA__M21__7%3A10%3A17.osexp","C:\Users\ERP Testing Room\Desktop\Joanna\morph21","no","mono","no","18","no","white","no","yes","1080","legacy","8","8","C:/Users/ERP Testing Room/Desktop/Joanna/morph21/subject-163.csv","xpyriment","Kafkaesque Koffka","3.2.5","0","None","NA","NA","NA","NA","space","None","991","NA","NA","NA","NA","2283492","991","2","legacy","1024","2","48000","-16","BA_m21","163","odd","NW_L_SIMP","EARIST","1965","2318153","2314995","2316645","2285466","NA","NA","NA","NA","2310320","2315492","NA","2314486","NA","2314480","2316637","1974","2318453","NA","NA","2315645","1965","1965","2316036","2314480","1965","2315645","2318453","morph21_Oliver/Morris","2","7649","9","yes","1280","12"
"350","20","20","864.3","864.3","black","no","xpyriment","legacy","legacy","0","204","NA","uniform","48838","1000","0.0204758589623","0","undefined","0","0","9","9","9","0","9","9","9","NA","9","9","0","9","NA","9","9","0","9","NA","9","NA","9","0","0","9","9","0","9","9","10","z","02/28/19 15:56:04","The main experiment item","yes","FIN__BA__M21__7%3A10%3A17.osexp","C:\Users\ERP Testing Room\Desktop\Joanna\morph21","no","mono","no","18","no","white","no","yes","1080","legacy","9","9","C:/Users/ERP Testing Room/Desktop/Joanna/morph21/subject-163.csv","xpyriment","Kafkaesque Koffka","3.2.5","0","None","NA","NA","NA","NA","space","None","994","NA","NA","NA","NA","2283492","994","2","legacy","1024","2","48000","-16","BA_m21","163","odd","NW_L_COMP","MOUTHIME","1965","2321421","2319729","2316645","2285466","NA","NA","NA","NA","2310320","2320226","NA","2319229","NA","2319221","2321415","1974","2321771","NA","NA","2320421","1965","1965","2320813","2319221","1965","2320421","2321771","morph21_Oliver/Morris","2","8643","10","yes","1280","11"
"300","18.1818181818","18.1818181818","818.272727273","818.272727273","black","no","xpyriment","legacy","legacy","0","206","NA","uniform","77673","1000","0.0128744866298","0","undefined","0","0","10","10","10","0","10","10","10","NA","10","10","0","10","NA","10","10","0","10","NA","10","NA","10","0","0","10","10","0","10","10","11","z","02/28/19 15:56:04","The main experiment item","yes","FIN__BA__M21__7%3A10%3A17.osexp","C:\Users\ERP Testing Room\Desktop\Joanna\morph21","no","mono","no","18","no","white","no","yes","1080","legacy","10","10","C:/Users/ERP Testing Room/Desktop/Joanna/morph21/subject-163.csv","xpyriment","Kafkaesque Koffka","3.2.5","0","/","NA","NA","NA","NA","space","/","358","NA","NA","NA","NA","2283492","358","2","legacy","1024","2","48000","-16","BA_m21","163","odd","NW_L_SIMP","ELBOWISM","1965","2324579","2322913","2316645","2285466","NA","NA","NA","NA","2310320","2323410","NA","2322413","NA","2322404","2324571","1974","2324879","NA","NA","2323579","1965","1965","2323971","2322404","1965","2323579","2324879","morph21_Oliver/Morris","2","9001","11","yes","1280","10"
"350","25","25","825.166666667","825.166666667","black","no","xpyriment","legacy","legacy","0","208","NA","uniform","48272","1000","0.0207159429897","1","undefined","1","0","11","11","11","0","11","11","11","NA","11","11","0","11","NA","11","11","0","11","NA","11","NA","11","0","0","11","11","0","11","11","12","z","02/28/19 15:56:04","The main experiment item","yes","FIN__BA__M21__7%3A10%3A17.osexp","C:\Users\ERP Testing Room\Desktop\Joanna\morph21","no","mono","no","18","no","white","no","yes","1080","legacy","11","11","C:/Users/ERP Testing Room/Desktop/Joanna/morph21/subject-163.csv","xpyriment","Kafkaesque Koffka","3.2.5","0","z","NA","NA","NA","NA","space","z","901","NA","NA","NA","NA","2283492","901","2","legacy","1024","2","48000","-16","BA_m21","163","odd","FILL_NW","BLANTH","1965","2329288","2326096","2327780","2285466","NA","NA","NA","NA","2327776","2326593","NA","2325596","NA","2325586","2327776","1974","2329638","NA","NA","2326788","1965","1965","2327180","2325586","1965","2326788","2329638","morph21_Oliver/Morris","3","9902","12","yes","1280","3"
"400","30.7692307692","30.7692307692","828.692307692","828.692307692","black","no","xpyriment","legacy","legacy","0","207","NA","uniform","56807","1000","0.0176034643618","1","undefined","1","0","12","12","12","0","12","12","12","NA","12","12","0","12","NA","12","12","0","12","NA","12","NA","12","0","0","12","12","0","12","12","13","/","02/28/19 15:56:04","The main experiment item","yes","FIN__BA__M21__7%3A10%3A17.osexp","C:\Users\ERP Testing Room\Desktop\Joanna\morph21","no","mono","no","18","no","white","no","yes","1080","legacy","12","12","C:/Users/ERP Testing Room/Desktop/Joanna/morph21/subject-163.csv","xpyriment","Kafkaesque Koffka","3.2.5","0","/","NA","NA","NA","NA","space","/","871","NA","NA","NA","NA","2283492","871","2","legacy","1024","2","48000","-16","BA_m21","163","odd","FILL_W","QUIT","1965","2332538","2330863","2327780","2285466","NA","NA","NA","NA","2332531","2331360","NA","2330363","NA","2330352","2332531","1974","2332938","NA","NA","2331538","1965","1965","2331930","2330352","1965","2331538","2332938","morph21_Oliver/Morris","4","10773","13","yes","1280","21"
"350","35.7142857143","35.7142857143","818.857142857","818.857142857","black","no","xpyriment","legacy","legacy","0","207","NA","uniform","59498","1000","0.0168072876399","1","undefined","1","0","13","13","13","0","13","13","13","NA","13","13","0","13","NA","13","13","0","13","NA","13","NA","13","0","0","13","13","0","13","13","14","/","02/28/19 15:56:04","The main experiment item","yes","FIN__BA__M21__7%3A10%3A17.osexp","C:\Users\ERP Testing Room\Desktop\Joanna\morph21","no","mono","no","18","no","white","no","yes","1080","legacy","13","13","C:/Users/ERP Testing Room/Desktop/Joanna/morph21/subject-163.csv","xpyriment","Kafkaesque Koffka","3.2.5","0","/","NA","NA","NA","NA","space","/","691","NA","NA","NA","NA","2283492","691","2","legacy","1024","2","48000","-16","BA_m21","163","odd","FILL_W","FOLLOW","1965","2335831","2334180","2327780","2285466","NA","NA","NA","NA","2335827","2334677","NA","2333680","NA","2333674","2335827","1974","2336181","NA","NA","2334838","1965","1965","2335230","2333674","1965","2334838","2336181","morph21_Oliver/Morris","5","11464","14","yes","1280","17"
"300","33.3333333333","33.3333333333","830.6","830.6","black","no","xpyriment","legacy","legacy","0","205","NA","uniform","49961","1000","0.0200156121775","0","undefined","0","0","14","14","14","0","14","14","14","NA","14","14","0","14","NA","14","14","0","14","NA","14","NA","14","0","0","14","14","0","14","14","15","z","02/28/19 15:56:04","The main experiment item","yes","FIN__BA__M21__7%3A10%3A17.osexp","C:\Users\ERP Testing Room\Desktop\Joanna\morph21","no","mono","no","18","no","white","no","yes","1080","legacy","14","14","C:/Users/ERP Testing Room/Desktop/Joanna/morph21/subject-163.csv","xpyriment","Kafkaesque Koffka","3.2.5","0","None","NA","NA","NA","NA","space","None","995","NA","NA","NA","NA","2283492","995","2","legacy","1024","2","48000","-16","BA_m21","163","odd","NW_S_SIMP","SOCKETER","1965","2340540","2337356","2339031","2285466","NA","NA","NA","NA","2335827","2337853","NA","2336856","NA","2336850","2339027","1974","2340840","NA","NA","2338031","1965","1965","2338431","2336850","1965","2338031","2340840","morph21_Oliver/Morris","5","12459","15","yes","1280","1"
"300","31.25","31.25","840.875","840.875","black","no","xpyriment","legacy","legacy","0","205","NA","uniform","48249","1000","0.0207258181517","0","undefined","0","0","15","15","15","0","15","15","15","NA","15","15","0","15","NA","15","15","0","15","NA","15","NA","15","0","0","15","15","0","15","15","16","z","02/28/19 15:56:04","The main experiment item","yes","FIN__BA__M21__7%3A10%3A17.osexp","C:\Users\ERP Testing Room\Desktop\Joanna\morph21","no","mono","no","18","no","white","no","yes","1080","legacy","15","15","C:/Users/ERP Testing Room/Desktop/Joanna/morph21/subject-163.csv","xpyriment","Kafkaesque Koffka","3.2.5","0","None","NA","NA","NA","NA","space","None","995","NA","NA","NA","NA","2283492","995","2","legacy","1024","2","48000","-16","BA_m21","163","odd","NW_S_SIMP","HEIRIC","1965","2343723","2342023","2339031","2285466","NA","NA","NA","NA","2335827","2342520","NA","2341523","NA","2341515","2343718","1974","2344023","NA","NA","2342723","1965","1965","2343123","2341515","1965","2342723","2344023","morph21_Oliver/Morris","5","13454","16","yes","1280","3"
"200","29.4117647059","29.4117647059","850.058823529","850.058823529","black","no","xpyriment","legacy","legacy","0","203","NA","uniform","45994","1000","0.0217419663434","0","undefined","0","0","16","16","16","0","16","16","16","NA","16","16","0","16","NA","16","16","0","16","NA","16","NA","16","0","0","16","16","0","16","16","17","z","02/28/19 15:56:04","The main experiment item","yes","FIN__BA__M21__7%3A10%3A17.osexp","C:\Users\ERP Testing Room\Desktop\Joanna\morph21","no","mono","no","18","no","white","no","yes","1080","legacy","16","16","C:/Users/ERP Testing Room/Desktop/Joanna/morph21/subject-163.csv","xpyriment","Kafkaesque Koffka","3.2.5","0","None","NA","NA","NA","NA","space","None","997","NA","NA","NA","NA","2283492","997","2","legacy","1024","2","48000","-16","BA_m21","163","odd","NW_S_COMP","PILLIME","1965","2346956","2345306","2339031","2285466","NA","NA","NA","NA","2335827","2345804","NA","2344806","NA","2344796","2346953","1974","2347156","NA","NA","2345956","1965","1965","2346356","2344796","1965","2345956","2347156","morph21_Oliver/Morris","5","14451","17","yes","1280","13"
"250","33.3333333333","33.3333333333","834.444444444","834.444444444","black","no","xpyriment","legacy","legacy","0","207","NA","uniform","72297","1000","0.0138318325795","1","undefined","1","0","17","17","17","0","17","17","17","NA","17","17","0","17","NA","17","17","0","17","NA","17","NA","17","0","0","17","17","0","17","17","18","/","02/28/19 15:56:04","The main experiment item","yes","FIN__BA__M21__7%3A10%3A17.osexp","C:\Users\ERP Testing Room\Desktop\Joanna\morph21","no","mono","no","18","no","white","no","yes","1080","legacy","17","17","C:/Users/ERP Testing Room/Desktop/Joanna/morph21/subject-163.csv","xpyriment","Kafkaesque Koffka","3.2.5","0","/","NA","NA","NA","NA","space","/","569","NA","NA","NA","NA","2283492","569","2","legacy","1024","2","48000","-16","BA_m21","163","odd","FILL_W","SUIT","1965","2351548","2348390","2350040","2285466","NA","NA","NA","NA","2350032","2348887","NA","2347882","NA","2347869","2350032","1974","2351799","NA","NA","2349040","1965","1965","2349432","2347869","1965","2349040","2351799","morph21_Oliver/Morris","6","15020","18","yes","1280","49"
"400","36.8421052632","36.8421052632","822.210526316","822.210526316","black","no","xpyriment","legacy","legacy","0","202","NA","uniform","57350","1000","0.0174367916303","1","undefined","1","0","18","18","18","0","18","18","18","NA","18","18","0","18","NA","18","18","0","18","NA","18","NA","18","0","0","18","18","0","18","18","19","/","02/28/19 15:56:04","The main experiment item","yes","FIN__BA__M21__7%3A10%3A17.osexp","C:\Users\ERP Testing Room\Desktop\Joanna\morph21","no","mono","no","18","no","white","no","yes","1080","legacy","18","18","C:/Users/ERP Testing Room/Desktop/Joanna/morph21/subject-163.csv","xpyriment","Kafkaesque Koffka","3.2.5","0","/","NA","NA","NA","NA","space","/","602","NA","NA","NA","NA","2283492","602","2","legacy","1024","2","48000","-16","BA_m21","163","odd","CW_L","CLEANER","1965","2354616","2352957","2350040","2285466","NA","NA","NA","NA","2354607","2353454","NA","2352457","NA","2352448","2354607","1974","2355016","NA","NA","2353616","1965","1965","2354008","2352448","1965","2353616","2355016","morph21_Oliver/Morris","7","15622","19","yes","1280","15"
"350","35","35","830.5","830.5","black","no","xpyriment","legacy","legacy","0","202","NA","uniform","52207","1000","0.0191545195089","0","undefined","0","0","19","19","19","0","19","19","19","NA","19","19","0","19","NA","19","19","0","19","NA","19","NA","19","0","0","19","19","0","19","19","20","/","02/28/19 15:56:04","The main experiment item","yes","FIN__BA__M21__7%3A10%3A17.osexp","C:\Users\ERP Testing Room\Desktop\Joanna\morph21","no","mono","no","18","no","white","no","yes","1080","legacy","19","19","C:/Users/ERP Testing Room/Desktop/Joanna/morph21/subject-163.csv","xpyriment","Kafkaesque Koffka","3.2.5","0","None","NA","NA","NA","NA","space","None","988","NA","NA","NA","NA","2283492","988","2","legacy","1024","2","48000","-16","BA_m21","163","odd","CW_L","BARKER","1965","2357925","2356208","2350040","2285466","NA","NA","NA","NA","2354607","2356705","NA","2355708","NA","2355697","2357913","1974","2358275","NA","NA","2356925","1965","1965","2357316","2355697","1965","2356924","2358275","morph21_Oliver/Morris","7","16610","20","yes","1280","2"
"250","38.0952380952","38.0952380952","825.333333333","825.333333333","black","no","xpyriment","legacy","legacy","0","202","NA","uniform","59367","1000","0.016844374821","1","undefined","1","0","20","20","20","0","20","20","20","NA","20","20","0","20","NA","20","20","0","20","NA","20","NA","20","0","0","20","20","0","20","20","21","/","02/28/19 15:56:04","The main experiment item","yes","FIN__BA__M21__7%3A10%3A17.osexp","C:\Users\ERP Testing Room\Desktop\Joanna\morph21","no","mono","no","18","no","white","no","yes","1080","legacy","20","20","C:/Users/ERP Testing Room/Desktop/Joanna/morph21/subject-163.csv","xpyriment","Kafkaesque Koffka","3.2.5","0","/","NA","NA","NA","NA","space","/","722","NA","NA","NA","NA","2283492","722","2","legacy","1024","2","48000","-16","BA_m21","163","odd","CW_L","EXCITEMENT","1965","2362700","2359500","2361191","2285466","NA","NA","NA","NA","2361185","2359997","NA","2359000","NA","2358991","2361185","1974","2362950","NA","NA","2360191","1965","1965","2360583","2358991","1965","2360191","2362950","morph21_Oliver/Morris","8","17332","21","yes","1280","38"
"300","36.3636363636","36.3636363636","832.772727273","832.772727273","black","no","xpyriment","legacy","legacy","0","203","NA","uniform","51959","1000","0.0192459439173","0","undefined","0","0","21","21","21","0","21","21","21","NA","21","21","0","21","NA","21","21","0","21","NA","21","NA","21","0","0","21","21","0","21","21","22","z","02/28/19 15:56:04","The main experiment item","yes","FIN__BA__M21__7%3A10%3A17.osexp","C:\Users\ERP Testing Room\Desktop\Joanna\morph21","no","mono","no","18","no","white","no","yes","1080","legacy","21","21","C:/Users/ERP Testing Room/Desktop/Joanna/morph21/subject-163.csv","xpyriment","Kafkaesque Koffka","3.2.5","0","None","NA","NA","NA","NA","space","None","989","NA","NA","NA","NA","2283492","989","2","legacy","1024","2","48000","-16","BA_m21","163","odd","NW_S_COMP","FIGEL","1965","2365775","2364050","2361191","2285466","NA","NA","NA","NA","2361185","2364547","NA","2363550","NA","2363538","2365765","1974","2366075","NA","NA","2364775","1965","1965","2365167","2363538","1965","2364775","2366075","morph21_Oliver/Morris","8","18321","22","yes","1280","4"
"350","34.7826086957","34.7826086957","839.652173913","839.652173913","black","no","xpyriment","legacy","legacy","0","208","NA","uniform","48554","1000","0.0205956254891","0","undefined","0","0","22","22","22","0","22","22","22","NA","22","22","0","22","NA","22","22","0","22","NA","22","NA","22","0","0","22","22","0","22","22","23","z","02/28/19 15:56:04","The main experiment item","yes","FIN__BA__M21__7%3A10%3A17.osexp","C:\Users\ERP Testing Room\Desktop\Joanna\morph21","no","mono","no","18","no","white","no","yes","1080","legacy","22","22","C:/Users/ERP Testing Room/Desktop/Joanna/morph21/subject-163.csv","xpyriment","Kafkaesque Koffka","3.2.5","0","None","NA","NA","NA","NA","space","None","991","NA","NA","NA","NA","2283492","991","2","legacy","1024","2","48000","-16","BA_m21","163","odd","FILL_NW","DOADS","1965","2368900","2367250","2361191","2285466","NA","NA","NA","NA","2361185","2367747","NA","2366750","NA","2366740","2368891","1974","2369250","NA","NA","2367900","1965","1965","2368292","2366740","1965","2367900","2369250","morph21_Oliver/Morris","8","19312","23","yes","1280","15"
"400","37.5","37.5","839.25","839.25","black","no","xpyriment","legacy","legacy","0","208","NA","uniform","50175","1000","0.0199302441455","1","undefined","1","0","23","23","23","0","23","23","23","NA","23","23","0","23","NA","23","23","0","23","NA","23","NA","23","0","0","23","23","0","23","23","24","z","02/28/19 15:56:04","The main experiment item","yes","FIN__BA__M21__7%3A10%3A17.osexp","C:\Users\ERP Testing Room\Desktop\Joanna\morph21","no","mono","no","18","no","white","no","yes","1080","legacy","23","23","C:/Users/ERP Testing Room/Desktop/Joanna/morph21/subject-163.csv","xpyriment","Kafkaesque Koffka","3.2.5","0","z","NA","NA","NA","NA","space","z","830","NA","NA","NA","NA","2283492","830","2","legacy","1024","2","48000","-16","BA_m21","163","odd","FILL_NW","CORG","1965","2373576","2370358","2372068","2285466","NA","NA","NA","NA","2372057","2370856","NA","2369858","NA","2369849","2372057","1974","2373976","NA","NA","2371068","1965","1965","2371459","2369849","1965","2371068","2373976","morph21_Oliver/Morris","9","20142","24","yes","1280","7"
"400","36","36","845.44","845.44","black","no","xpyriment","legacy","legacy","0","205","NA","uniform","52595","1000","0.0190132141839","0","undefined","0","0","24","24","24","0","24","24","24","NA","24","24","0","24","NA","24","24","0","24","NA","24","NA","24","0","0","24","24","0","24","24","25","z","02/28/19 15:56:04","The main experiment item","yes","FIN__BA__M21__7%3A10%3A17.osexp","C:\Users\ERP Testing Room\Desktop\Joanna\morph21","no","mono","no","18","no","white","no","yes","1080","legacy","24","24","C:/Users/ERP Testing Room/Desktop/Joanna/morph21/subject-163.csv","xpyriment","Kafkaesque Koffka","3.2.5","0","None","NA","NA","NA","NA","space","None","994","NA","NA","NA","NA","2283492","994","2","legacy","1024","2","48000","-16","BA_m21","163","odd","NW_S_SIMP","AIDIC","1965","2376868","2375210","2372068","2285466","NA","NA","NA","NA","2372057","2375707","NA","2374710","NA","2374698","2376863","1974","2377268","NA","NA","2375868","1965","1965","2376268","2374698","1965","2375868","2377268","morph21_Oliver/Morris","9","21136","25","yes","1280","4"
"300","34.6153846154","34.6153846154","850.461538462","850.461538462","black","no","xpyriment","legacy","legacy","0","206","NA","uniform","46606","1000","0.0214564648329","0","undefined","0","0","25","25","25","0","25","25","25","NA","25","25","0","25","NA","25","25","0","25","NA","25","NA","25","0","0","25","25","0","25","25","26","z","02/28/19 15:56:04","The main experiment item","yes","FIN__BA__M21__7%3A10%3A17.osexp","C:\Users\ERP Testing Room\Desktop\Joanna\morph21","no","mono","no","18","no","white","no","yes","1080","legacy","25","25","C:/Users/ERP Testing Room/Desktop/Joanna/morph21/subject-163.csv","xpyriment","Kafkaesque Koffka","3.2.5","0","/","NA","NA","NA","NA","space","/","976","NA","NA","NA","NA","2283492","976","2","legacy","1024","2","48000","-16","BA_m21","163","odd","NW_L_SIMP","LONGNESS","1965","2380201","2378535","2372068","2285466","NA","NA","NA","NA","2372057","2379032","NA","2378035","NA","2378026","2380193","1974","2380502","NA","NA","2379201","1965","1965","2379593","2378026","1965","2379201","2380502","morph21_Oliver/Morris","9","22112","26","yes","1280","17"
"400","33.3333333333","33.3333333333","855.740740741","855.740740741","black","no","xpyriment","legacy","legacy","0","205","NA","uniform","52843","1000","0.0189239823628","0","undefined","0","0","26","26","26","0","26","26","26","NA","26","26","0","26","NA","26","26","0","26","NA","26","NA","26","0","0","26","26","0","26","26","27","z","02/28/19 15:56:04","The main experiment item","yes","FIN__BA__M21__7%3A10%3A17.osexp","C:\Users\ERP Testing Room\Desktop\Joanna\morph21","no","mono","no","18","no","white","no","yes","1080","legacy","26","26","C:/Users/ERP Testing Room/Desktop/Joanna/morph21/subject-163.csv","xpyriment","Kafkaesque Koffka","3.2.5","0","None","NA","NA","NA","NA","space","None","993","NA","NA","NA","NA","2283492","993","2","legacy","1024","2","48000","-16","BA_m21","163","odd","NW_S_SIMP","MEDICALARY","1965","2384818","2381660","2383310","2285466","NA","NA","NA","NA","2372057","2382157","NA","2381160","NA","2381153","2383303","1974","2385219","NA","NA","2382310","1965","1965","2382702","2381153","1965","2382310","2385219","morph21_Oliver/Morris","9","23105","27","yes","1280","18"
"350","35.7142857143","35.7142857143","853.928571429","853.928571429","black","no","xpyriment","legacy","legacy","0","201","NA","uniform","52659","1000","0.0189901061547","1","undefined","1","0","27","27","27","0","27","27","27","NA","27","27","0","27","NA","27","27","0","27","NA","27","NA","27","0","0","27","27","0","27","27","28","/","02/28/19 15:56:04","The main experiment item","yes","FIN__BA__M21__7%3A10%3A17.osexp","C:\Users\ERP Testing Room\Desktop\Joanna\morph21","no","mono","no","18","no","white","no","yes","1080","legacy","27","27","C:/Users/ERP Testing Room/Desktop/Joanna/morph21/subject-163.csv","xpyriment","Kafkaesque Koffka","3.2.5","0","/","NA","NA","NA","NA","space","/","805","NA","NA","NA","NA","2283492","805","2","legacy","1024","2","48000","-16","BA_m21","163","odd","CW_S","BEARDED","1965","2388069","2386368","2383310","2285466","NA","NA","NA","NA","2388061","2386866","NA","2385868","NA","2385857","2388061","1974","2388419","NA","NA","2387068","1965","1965","2387460","2385857","1965","2387068","2388419","morph21_Oliver/Morris","10","23910","28","yes","1280","8"
"250","37.9310344828","37.9310344828","849.655172414","849.655172414","black","no","xpyriment","legacy","legacy","0","207","NA","uniform","56344","1000","0.0177481186994","1","undefined","1","0","28","28","28","0","28","28","28","NA","28","28","0","28","NA","28","28","0","28","NA","28","NA","28","0","0","28","28","0","28","28","29","/","02/28/19 15:56:04","The main experiment item","yes","FIN__BA__M21__7%3A10%3A17.osexp","C:\Users\ERP Testing Room\Desktop\Joanna\morph21","no","mono","no","18","no","white","no","yes","1080","legacy","28","28","C:/Users/ERP Testing Room/Desktop/Joanna/morph21/subject-163.csv","xpyriment","Kafkaesque Koffka","3.2.5","0","/","NA","NA","NA","NA","space","/","730","NA","NA","NA","NA","2283492","730","2","legacy","1024","2","48000","-16","BA_m21","163","odd","FILL_W","COOK","1965","2391320","2389670","2383310","2285466","NA","NA","NA","NA","2391312","2390167","NA","2389170","NA","2389165","2391312","1974","2391570","NA","NA","2390320","1965","1965","2390711","2389165","1965","2390320","2391570","morph21_Oliver/Morris","11","24640","29","yes","1280","38"
"350","40","40","844.166666667","844.166666667","black","no","xpyriment","legacy","legacy","0","207","NA","uniform","63406","1000","0.015771378103","1","undefined","1","0","29","29","29","0","29","29","29","NA","29","29","0","29","NA","29","29","0","29","NA","29","NA","29","0","0","29","29","0","29","29","30","/","02/28/19 15:56:04","The main experiment item","yes","FIN__BA__M21__7%3A10%3A17.osexp","C:\Users\ERP Testing Room\Desktop\Joanna\morph21","no","mono","no","18","no","white","no","yes","1080","legacy","29","29","C:/Users/ERP Testing Room/Desktop/Joanna/morph21/subject-163.csv","xpyriment","Kafkaesque Koffka","3.2.5","0","/","NA","NA","NA","NA","space","/","685","NA","NA","NA","NA","2283492","685","2","legacy","1024","2","48000","-16","BA_m21","163","odd","FILL_W","BRISK","1965","2395928","2392736","2394420","2285466","NA","NA","NA","NA","2394410","2393233","NA","2392236","NA","2392227","2394410","1974","2396278","NA","NA","2393420","1965","1965","2393811","2392227","1965","2393420","2396278","morph21_Oliver/Morris","12","25325","30","yes","1280","8"
"200","41.935483871","41.935483871","847.161290323","847.161290323","black","no","xpyriment","legacy","legacy","0","208","NA","uniform","52983","1000","0.0188739784459","1","undefined","1","0","30","30","30","0","30","30","30","NA","30","30","0","30","NA","30","30","0","30","NA","30","NA","30","0","0","30","30","0","30","30","31","z","02/28/19 15:56:04","The main experiment item","yes","FIN__BA__M21__7%3A10%3A17.osexp","C:\Users\ERP Testing Room\Desktop\Joanna\morph21","no","mono","no","18","no","white","no","yes","1080","legacy","30","30","C:/Users/ERP Testing Room/Desktop/Joanna/morph21/subject-163.csv","xpyriment","Kafkaesque Koffka","3.2.5","0","z","NA","NA","NA","NA","space","z","937","NA","NA","NA","NA","2283492","937","2","legacy","1024","2","48000","-16","BA_m21","163","odd","FILL_NW","PUCTS","1965","2399120","2397412","2394420","2285466","NA","NA","NA","NA","2399117","2397909","NA","2396912","NA","2396900","2399117","1974","2399320","NA","NA","2398128","1965","1965","2398520","2396900","1965","2398128","2399320","morph21_Oliver/Morris","13","26262","31","yes","1280","40"
"400","40.625","40.625","851.625","851.625","black","no","xpyriment","legacy","legacy","0","208","NA","uniform","53866","1000","0.0185645861954","0","undefined","0","0","31","31","31","0","31","31","31","NA","31","31","0","31","NA","31","31","0","31","NA","31","NA","31","0","0","31","31","0","31","31","32","z","02/28/19 15:56:04","The main experiment item","yes","FIN__BA__M21__7%3A10%3A17.osexp","C:\Users\ERP Testing Room\Desktop\Joanna\morph21","no","mono","no","18","no","white","no","yes","1080","legacy","31","31","C:/Users/ERP Testing Room/Desktop/Joanna/morph21/subject-163.csv","xpyriment","Kafkaesque Koffka","3.2.5","0","None","NA","NA","NA","NA","space","None","990","NA","NA","NA","NA","2283492","990","2","legacy","1024","2","48000","-16","BA_m21","163","odd","FILL_NW","FROES","1965","2402212","2400520","2394420","2285466","NA","NA","NA","NA","2399117","2401017","NA","2400020","NA","2400014","2402202","1974","2402612","NA","NA","2401212","1965","1965","2401603","2400014","1965","2401212","2402612","morph21_Oliver/Morris","13","27252","32","yes","1280","21"
"250","39.3939393939","39.3939393939","855.818181818","855.818181818","black","no","xpyriment","legacy","legacy","0","205","NA","uniform","51990","1000","0.019234468167","0","undefined","0","0","32","32","32","0","32","32","32","NA","32","32","0","32","NA","32","32","0","32","NA","32","NA","32","0","0","32","32","0","32","32","33","z","02/28/19 15:56:04","The main experiment item","yes","FIN__BA__M21__7%3A10%3A17.osexp","C:\Users\ERP Testing Room\Desktop\Joanna\morph21","no","mono","no","18","no","white","no","yes","1080","legacy","32","32","C:/Users/ERP Testing Room/Desktop/Joanna/morph21/subject-163.csv","xpyriment","Kafkaesque Koffka","3.2.5","0","None","NA","NA","NA","NA","space","None","990","NA","NA","NA","NA","2283492","990","2","legacy","1024","2","48000","-16","BA_m21","163","odd","NW_S_SIMP","DIGORY","1965","2406946","2403779","2405437","2285466","NA","NA","NA","NA","2399117","2404276","NA","2403278","NA","2403274","2405427","1974","2407197","NA","NA","2404437","1965","1965","2404829","2403274","1965","2404437","2407197","morph21_Oliver/Morris","13","28242","33","yes","1280","11"
"400","41.1764705882","41.1764705882","851.117647059","851.117647059","black","no","xpyriment","legacy","legacy","0","202","NA","uniform","60714","1000","0.0164706657443","1","undefined","1","0","33","33","33","0","33","33","33","NA","33","33","0","33","NA","33","33","0","33","NA","33","NA","33","0","0","33","33","0","33","33","34","/","02/28/19 15:56:04","The main experiment item","yes","FIN__BA__M21__7%3A10%3A17.osexp","C:\Users\ERP Testing Room\Desktop\Joanna\morph21","no","mono","no","18","no","white","no","yes","1080","legacy","33","33","C:/Users/ERP Testing Room/Desktop/Joanna/morph21/subject-163.csv","xpyriment","Kafkaesque Koffka","3.2.5","0","/","NA","NA","NA","NA","space","/","696","NA","NA","NA","NA","2283492","696","2","legacy","1024","2","48000","-16","BA_m21","163","odd","CW_L","SHAPELY","1965","2409946","2408263","2405437","2285466","NA","NA","NA","NA","2409941","2408760","NA","2407763","NA","2407755","2409941","1974","2410346","NA","NA","2408946","1965","1965","2409346","2407755","1965","2408946","2410346","morph21_Oliver/Morris","14","28938","34","yes","1280","35"
"200","42.8571428571","42.8571428571","852.714285714","852.714285714","black","no","xpyriment","legacy","legacy","0","202","NA","uniform","53485","1000","0.0186968308872","1","undefined","1","0","34","34","34","0","34","34","34","NA","34","34","0","34","NA","34","34","0","34","NA","34","NA","34","0","0","34","34","0","34","34","35","/","02/28/19 15:56:04","The main experiment item","yes","FIN__BA__M21__7%3A10%3A17.osexp","C:\Users\ERP Testing Room\Desktop\Joanna\morph21","no","mono","no","18","no","white","no","yes","1080","legacy","34","34","C:/Users/ERP Testing Room/Desktop/Joanna/morph21/subject-163.csv","xpyriment","Kafkaesque Koffka","3.2.5","0","/","NA","NA","NA","NA","space","/","907","NA","NA","NA","NA","2283492","907","2","legacy","1024","2","48000","-16","BA_m21","163","odd","CW_L","SAILOR","1965","2413238","2411555","2405437","2285466","NA","NA","NA","NA","2413230","2412052","NA","2411047","NA","2411041","2413230","1974","2413438","NA","NA","2412238","1965","1965","2412630","2411041","1965","2412238","2413438","morph21_Oliver/Morris","15","29845","35","yes","1280","43"
"200","44.4444444444","44.4444444444","846.111111111","846.111111111","black","no","xpyriment","legacy","legacy","0","207","NA","uniform","70724","1000","0.0141394717493","1","undefined","1","0","35","35","35","0","35","35","35","NA","35","35","0","35","NA","35","35","0","35","NA","35","NA","35","0","0","35","35","0","35","35","36","/","02/28/19 15:56:04","The main experiment item","yes","FIN__BA__M21__7%3A10%3A17.osexp","C:\Users\ERP Testing Room\Desktop\Joanna\morph21","no","mono","no","18","no","white","no","yes","1080","legacy","35","35","C:/Users/ERP Testing Room/Desktop/Joanna/morph21/subject-163.csv","xpyriment","Kafkaesque Koffka","3.2.5","0","/","NA","NA","NA","NA","space","/","615","NA","NA","NA","NA","2283492","615","2","legacy","1024","2","48000","-16","BA_m21","163","odd","FILL_W","STALK","1965","2417838","2414622","2416330","2285466","NA","NA","NA","NA","2416324","2415119","NA","2414122","NA","2414114","2416324","1974","2418039","NA","NA","2415330","1965","1965","2415722","2414114","1965","2415330","2418039","morph21_Oliver/Morris","16","30460","36","yes","1280","27"
"350","45.9459459459","45.9459459459","841.432432432","841.432432432","black","no","xpyriment","legacy","legacy","0","201","NA","uniform","57336","1000","0.0174410492535","1","undefined","1","0","36","36","36","0","36","36","36","NA","36","36","0","36","NA","36","36","0","36","NA","36","NA","36","0","0","36","36","0","36","36","37","/","02/28/19 15:56:04","The main experiment item","yes","FIN__BA__M21__7%3A10%3A17.osexp","C:\Users\ERP Testing Room\Desktop\Joanna\morph21","no","mono","no","18","no","white","no","yes","1080","legacy","36","36","C:/Users/ERP Testing Room/Desktop/Joanna/morph21/subject-163.csv","xpyriment","Kafkaesque Koffka","3.2.5","0","/","NA","NA","NA","NA","space","/","673","NA","NA","NA","NA","2283492","673","2","legacy","1024","2","48000","-16","BA_m21","163","odd","CW_S","CHILLY","1965","2420872","2419222","2416330","2285466","NA","NA","NA","NA","2420864","2419719","NA","2418714","NA","2418706","2420864","1974","2421222","NA","NA","2419872","1965","1965","2420264","2418706","1965","2419872","2421222","morph21_Oliver/Morris","17","31133","37","yes","1280","48"
"300","44.7368421053","44.7368421053","845.394736842","845.394736842","black","no","xpyriment","legacy","legacy","0","208","NA","uniform","45739","1000","0.0218631802182","0","undefined","0","0","37","37","37","0","37","37","37","NA","37","37","0","37","NA","37","37","0","37","NA","37","NA","37","0","0","37","37","0","37","37","38","z","02/28/19 15:56:04","The main experiment item","yes","FIN__BA__M21__7%3A10%3A17.osexp","C:\Users\ERP Testing Room\Desktop\Joanna\morph21","no","mono","no","18","no","white","no","yes","1080","legacy","37","37","C:/Users/ERP Testing Room/Desktop/Joanna/morph21/subject-163.csv","xpyriment","Kafkaesque Koffka","3.2.5","0","None","NA","NA","NA","NA","space","None","992","NA","NA","NA","NA","2283492","992","2","legacy","1024","2","48000","-16","BA_m21","163","odd","FILL_NW","HEEM","1965","2424240","2422547","2416330","2285466","NA","NA","NA","NA","2420864","2423044","NA","2422047","NA","2422042","2424232","1974","2424540","NA","NA","2423240","1965","1965","2423631","2422042","1965","2423240","2424540","morph21_Oliver/Morris","17","32125","38","yes","1280","27"
"400","43.5897435897","43.5897435897","849.179487179","849.179487179","black","no","xpyriment","legacy","legacy","0","205","NA","uniform","47057","1000","0.0212508234694","0","undefined","0","0","38","38","38","0","38","38","38","NA","38","38","0","38","NA","38","38","0","38","NA","38","NA","38","0","0","38","38","0","38","38","39","z","02/28/19 15:56:04","The main experiment item","yes","FIN__BA__M21__7%3A10%3A17.osexp","C:\Users\ERP Testing Room\Desktop\Joanna\morph21","no","mono","no","18","no","white","no","yes","1080","legacy","38","38","C:/Users/ERP Testing Room/Desktop/Joanna/morph21/subject-163.csv","xpyriment","Kafkaesque Koffka","3.2.5","0","None","NA","NA","NA","NA","space","None","993","NA","NA","NA","NA","2283492","993","2","legacy","1024","2","48000","-16","BA_m21","163","odd","NW_S_SIMP","RAMPIZE","1965","2428873","2425706","2427365","2285466","NA","NA","NA","NA","2420864","2426204","NA","2425206","NA","2425201","2427358","1974","2429273","NA","NA","2426365","1965","1965","2426756","2425200","1965","2426365","2429273","morph21_Oliver/Morris","17","33118","39","yes","1280","6"
"250","45","45","845.625","845.625","black","no","xpyriment","legacy","legacy","0","201","NA","uniform","54135","1000","0.0184723376743","1","undefined","1","0","39","39","39","0","39","39","39","NA","39","39","0","39","NA","39","39","0","39","NA","39","NA","39","0","0","39","39","0","39","39","40","/","02/28/19 15:56:04","The main experiment item","yes","FIN__BA__M21__7%3A10%3A17.osexp","C:\Users\ERP Testing Room\Desktop\Joanna\morph21","no","mono","no","18","no","white","no","yes","1080","legacy","39","39","C:/Users/ERP Testing Room/Desktop/Joanna/morph21/subject-163.csv","xpyriment","Kafkaesque Koffka","3.2.5","0","/","NA","NA","NA","NA","space","/","707","NA","NA","NA","NA","2283492","707","2","legacy","1024","2","48000","-16","BA_m21","163","odd","CW_S","JAILER","1965","2432207","2430507","2427365","2285466","NA","NA","NA","NA","2432202","2431004","NA","2430007","NA","2429998","2432202","1974","2432457","NA","NA","2431207","1965","1965","2431607","2429998","1965","2431207","2432457","morph21_Oliver/Morris","18","33825","40","yes","1280","13"
"250","46.3414634146","46.3414634146","841.634146341","841.634146341","black","no","xpyriment","legacy","legacy","0","207","NA","uniform","59337","1000","0.0168528911135","1","undefined","1","0","40","40","40","0","40","40","40","NA","40","40","0","40","NA","40","40","0","40","NA","40","NA","40","0","0","40","40","0","40","40","41","/","02/28/19 15:56:04","The main experiment item","yes","FIN__BA__M21__7%3A10%3A17.osexp","C:\Users\ERP Testing Room\Desktop\Joanna\morph21","no","mono","no","18","no","white","no","yes","1080","legacy","40","40","C:/Users/ERP Testing Room/Desktop/Joanna/morph21/subject-163.csv","xpyriment","Kafkaesque Koffka","3.2.5","0","/","NA","NA","NA","NA","space","/","682","NA","NA","NA","NA","2283492","682","2","legacy","1024","2","48000","-16","BA_m21","163","odd","FILL_W","PACK","1965","2435423","2433740","2427365","2285466","NA","NA","NA","NA","2435413","2434237","NA","2433240","NA","2433235","2435413","1974","2435674","NA","NA","2434423","1965","1965","2434815","2433235","1965","2434423","2435674","morph21_Oliver/Morris","19","34507","41","yes","1280","41"
"300","47.619047619","47.619047619","837.785714286","837.785714286","black","no","xpyriment","legacy","legacy","0","201","NA","uniform","61393","1000","0.0162885019465","1","undefined","1","0","41","41","41","0","41","41","41","NA","41","41","0","41","NA","41","41","0","41","NA","41","NA","41","0","0","41","41","0","41","41","42","/","02/28/19 15:56:04","The main experiment item","yes","FIN__BA__M21__7%3A10%3A17.osexp","C:\Users\ERP Testing Room\Desktop\Joanna\morph21","no","mono","no","18","no","white","no","yes","1080","legacy","41","41","C:/Users/ERP Testing Room/Desktop/Joanna/morph21/subject-163.csv","xpyriment","Kafkaesque Koffka","3.2.5","0","/","NA","NA","NA","NA","space","/","680","NA","NA","NA","NA","2283492","680","2","legacy","1024","2","48000","-16","BA_m21","163","odd","CW_S","ATTACKER","1965","2439974","2436799","2438465","2285466","NA","NA","NA","NA","2438462","2437296","NA","2436299","NA","2436289","2438462","1974","2440274","NA","NA","2437465","1965","1965","2437865","2436289","1965","2437465","2440274","morph21_Oliver/Morris","20","35187","42","yes","1280","20"
"200","48.8372093023","48.8372093023","837.627906977","837.627906977","black","no","xpyriment","legacy","legacy","0","208","NA","uniform","53138","1000","0.0188189243103","1","undefined","1","0","42","42","42","0","42","42","42","NA","42","42","0","42","NA","42","42","0","42","NA","42","NA","42","0","0","42","42","0","42","42","43","z","02/28/19 15:56:04","The main experiment item","yes","FIN__BA__M21__7%3A10%3A17.osexp","C:\Users\ERP Testing Room\Desktop\Joanna\morph21","no","mono","no","18","no","white","no","yes","1080","legacy","42","42","C:/Users/ERP Testing Room/Desktop/Joanna/morph21/subject-163.csv","xpyriment","Kafkaesque Koffka","3.2.5","0","z","NA","NA","NA","NA","space","z","831","NA","NA","NA","NA","2283492","831","2","legacy","1024","2","48000","-16","BA_m21","163","odd","FILL_NW","SMADE","1965","2443075","2441391","2438465","2285466","NA","NA","NA","NA","2443069","2441889","NA","2440891","NA","2440887","2443069","1974","2443275","NA","NA","2442075","1965","1965","2442466","2440887","1965","2442075","2443275","morph21_Oliver/Morris","21","36018","43","yes","1280","42"
"300","50","50","832.75","832.75","black","no","xpyriment","legacy","legacy","0","207","NA","uniform","59013","1000","0.016945418806","1","undefined","1","0","43","43","43","0","43","43","43","NA","43","43","0","43","NA","43","43","0","43","NA","43","NA","43","0","0","43","43","0","43","43","44","/","02/28/19 15:56:04","The main experiment item","yes","FIN__BA__M21__7%3A10%3A17.osexp","C:\Users\ERP Testing Room\Desktop\Joanna\morph21","no","mono","no","18","no","white","no","yes","1080","legacy","43","43","C:/Users/ERP Testing Room/Desktop/Joanna/morph21/subject-163.csv","xpyriment","Kafkaesque Koffka","3.2.5","0","/","NA","NA","NA","NA","space","/","623","NA","NA","NA","NA","2283492","623","2","legacy","1024","2","48000","-16","BA_m21","163","odd","FILL_W","IRON","1965","2446067","2444408","2438465","2285466","NA","NA","NA","NA","2446062","2444905","NA","2443908","NA","2443899","2446062","1974","2446367","NA","NA","2445075","1965","1965","2445467","2443899","1965","2445075","2446367","morph21_Oliver/Morris","22","36641","44","yes","1280","33"
"200","48.8888888889","48.8888888889","836.355555556","836.355555556","black","no","xpyriment","legacy","legacy","0","208","NA","uniform","47798","1000","0.0209213774635","0","undefined","0","0","44","44","44","0","44","44","44","NA","44","44","0","44","NA","44","44","0","44","NA","44","NA","44","0","0","44","44","0","44","44","45","z","02/28/19 15:56:04","The main experiment item","yes","FIN__BA__M21__7%3A10%3A17.osexp","C:\Users\ERP Testing Room\Desktop\Joanna\morph21","no","mono","no","18","no","white","no","yes","1080","legacy","44","44","C:/Users/ERP Testing Room/Desktop/Joanna/morph21/subject-163.csv","xpyriment","Kafkaesque Koffka","3.2.5","0","None","NA","NA","NA","NA","space","None","995","NA","NA","NA","NA","2283492","995","2","legacy","1024","2","48000","-16","BA_m21","163","odd","FILL_NW","TUEER","1965","2450900","2447708","2449392","2285466","NA","NA","NA","NA","2446062","2448205","NA","2447208","NA","2447197","2449388","1974","2451100","NA","NA","2448392","1965","1965","2448792","2447197","1965","2448392","2451100","morph21_Oliver/Morris","22","37636","45","yes","1280","44"
"350","47.8260869565","47.8260869565","839.804347826","839.804347826","black","no","xpyriment","legacy","legacy","0","202","NA","uniform","46547","1000","0.0214836616753","0","undefined","0","0","45","45","45","0","45","45","45","NA","45","45","0","45","NA","45","45","0","45","NA","45","NA","45","0","0","45","45","0","45","45","46","/","02/28/19 15:56:04","The main experiment item","yes","FIN__BA__M21__7%3A10%3A17.osexp","C:\Users\ERP Testing Room\Desktop\Joanna\morph21","no","mono","no","18","no","white","no","yes","1080","legacy","45","45","C:/Users/ERP Testing Room/Desktop/Joanna/morph21/subject-163.csv","xpyriment","Kafkaesque Koffka","3.2.5","0","None","NA","NA","NA","NA","space","None","995","NA","NA","NA","NA","2283492","995","2","legacy","1024","2","48000","-16","BA_m21","163","odd","CW_L","EDITOR","1965","2454042","2452317","2449392","2285466","NA","NA","NA","NA","2446062","2452814","NA","2451817","NA","2451806","2454037","1974","2454392","NA","NA","2453042","1965","1965","2453442","2451806","1965","2453042","2454392","morph21_Oliver/Morris","22","38631","46","yes","1280","45"
"300","48.9361702128","48.9361702128","836.808510638","836.808510638","black","no","xpyriment","legacy","legacy","0","202","NA","uniform","55029","1000","0.0181722364571","1","undefined","1","0","46","46","46","0","46","46","46","NA","46","46","0","46","NA","46","46","0","46","NA","46","NA","46","0","0","46","46","0","46","46","47","/","02/28/19 15:56:04","The main experiment item","yes","FIN__BA__M21__7%3A10%3A17.osexp","C:\Users\ERP Testing Room\Desktop\Joanna\morph21","no","mono","no","18","no","white","no","yes","1080","legacy","46","46","C:/Users/ERP Testing Room/Desktop/Joanna/morph21/subject-163.csv","xpyriment","Kafkaesque Koffka","3.2.5","0","/","NA","NA","NA","NA","space","/","699","NA","NA","NA","NA","2283492","699","2","legacy","1024","2","48000","-16","BA_m21","163","odd","CW_L","COMPOSER","1965","2457350","2455700","2449392","2285466","NA","NA","NA","NA","2457343","2456197","NA","2455200","NA","2455196","2457343","1974","2457650","NA","NA","2456350","1965","1965","2456742","2455196","1965","2456350","2457650","morph21_Oliver/Morris","23","39330","47","yes","1280","6"
"200","47.9166666667","47.9166666667","839.958333333","839.958333333","black","no","xpyriment","legacy","legacy","0","203","NA","uniform","46820","1000","0.0213583938488","0","undefined","0","0","47","47","47","0","47","47","47","NA","47","47","0","47","NA","47","47","0","47","NA","47","NA","47","0","0","47","47","0","47","47","48","z","02/28/19 15:56:04","The main experiment item","yes","FIN__BA__M21__7%3A10%3A17.osexp","C:\Users\ERP Testing Room\Desktop\Joanna\morph21","no","mono","no","18","no","white","no","yes","1080","legacy","47","47","C:/Users/ERP Testing Room/Desktop/Joanna/morph21/subject-163.csv","xpyriment","Kafkaesque Koffka","3.2.5","0","None","NA","NA","NA","NA","space","None","988","NA","NA","NA","NA","2283492","988","2","legacy","1024","2","48000","-16","BA_m21","163","odd","NW_S_COMP","ADOPTISH","1965","2461952","2458785","2460443","2285466","NA","NA","NA","NA","2457343","2459282","NA","2458285","NA","2458275","2460440","1974","2462152","NA","NA","2459452","1965","1965","2459843","2458275","1965","2459452","2462152","morph21_Oliver/Morris","23","40318","48","yes","1280","19"
"300","48.9795918367","48.9795918367","840.204081633","840.204081633","black","no","xpyriment","legacy","legacy","0","202","NA","uniform","60404","1000","0.0165551950202","1","undefined","1","0","48","48","48","0","48","48","48","NA","48","48","0","48","NA","48","48","0","48","NA","48","NA","48","0","0","48","48","0","48","48","49","/","02/28/19 15:56:04","The main experiment item","yes","FIN__BA__M21__7%3A10%3A17.osexp","C:\Users\ERP Testing Room\Desktop\Joanna\morph21","no","mono","no","18","no","white","no","yes","1080","legacy","48","48","C:/Users/ERP Testing Room/Desktop/Joanna/morph21/subject-163.csv","xpyriment","Kafkaesque Koffka","3.2.5","0","/","NA","NA","NA","NA","space","/","852","NA","NA","NA","NA","2283492","852","2","legacy","1024","2","48000","-16","BA_m21","163","odd","CW_L","DOUBTFUL","1965","2465085","2463360","2460443","2285466","NA","NA","NA","NA","2465078","2463857","NA","2462860","NA","2462849","2465078","1974","2465385","NA","NA","2464085","1965","1965","2464477","2462849","1965","2464085","2465385","morph21_Oliver/Morris","24","41170","49","yes","1280","21"
"300","48","48","841.24","841.24","black","no","xpyriment","legacy","legacy","0","205","NA","uniform","55416","1000","0.0180453298686","0","undefined","0","0","49","49","49","0","49","49","49","NA","49","49","0","49","NA","49","49","0","49","NA","49","NA","49","0","0","49","49","0","49","49","50","z","02/28/19 15:56:04","The main experiment item","yes","FIN__BA__M21__7%3A10%3A17.osexp","C:\Users\ERP Testing Room\Desktop\Joanna\morph21","no","mono","no","18","no","white","no","yes","1080","legacy","49","49","C:/Users/ERP Testing Room/Desktop/Joanna/morph21/subject-163.csv","xpyriment","Kafkaesque Koffka","3.2.5","0","/","NA","NA","NA","NA","space","/","892","NA","NA","NA","NA","2283492","892","2","legacy","1024","2","48000","-16","BA_m21","163","odd","NW_S_SIMP","WINKITY","1965","2468269","2466577","2460443","2285466","NA","NA","NA","NA","2465078","2467074","NA","2466068","NA","2466064","2468258","1974","2468569","NA","NA","2467269","1965","1965","2467660","2466064","1965","2467269","2468569","morph21_Oliver/Morris","24","42062","50","yes","1280","21"
"350","49.0196078431","49.0196078431","837.294117647","837.294117647","black","no","xpyriment","legacy","legacy","0","202","NA","uniform","63590","1000","0.0157257430414","1","undefined","1","0","50","50","50","0","50","50","50","NA","50","50","0","50","NA","50","50","0","50","NA","50","NA","50","0","0","50","50","0","50","50","51","/","02/28/19 15:56:04","The main experiment item","yes","FIN__BA__M21__7%3A10%3A17.osexp","C:\Users\ERP Testing Room\Desktop\Joanna\morph21","no","mono","no","18","no","white","no","yes","1080","legacy","50","50","C:/Users/ERP Testing Room/Desktop/Joanna/morph21/subject-163.csv","xpyriment","Kafkaesque Koffka","3.2.5","0","/","NA","NA","NA","NA","space","/","640","NA","NA","NA","NA","2283492","640","2","legacy","1024","2","48000","-16","BA_m21","163","odd","CW_L","PUNCHER","1965","2472885","2469685","2471377","2285466","NA","NA","NA","NA","2471369","2470182","NA","2469185","NA","2469181","2471369","1974","2473236","NA","NA","2470377","1965","1965","2470769","2469181","1965","2470377","2473236","morph21_Oliver/Morris","25","42702","51","yes","1280","1"
"250","50","50","836.519230769","836.519230769","black","no","xpyriment","legacy","legacy","0","201","NA","uniform","57168","1000","0.0174923033865","1","undefined","1","0","51","51","51","0","51","51","51","NA","51","51","0","51","NA","51","51","0","51","NA","51","NA","51","0","0","51","51","0","51","51","52","/","02/28/19 15:56:04","The main experiment item","yes","FIN__BA__M21__7%3A10%3A17.osexp","C:\Users\ERP Testing Room\Desktop\Joanna\morph21","no","mono","no","18","no","white","no","yes","1080","legacy","51","51","C:/Users/ERP Testing Room/Desktop/Joanna/morph21/subject-163.csv","xpyriment","Kafkaesque Koffka","3.2.5","0","/","NA","NA","NA","NA","space","/","797","NA","NA","NA","NA","2283492","797","2","legacy","1024","2","48000","-16","BA_m21","163","odd","CW_S","NOTICEABLE","1965","2476078","2474385","2471377","2285466","NA","NA","NA","NA","2476068","2474883","NA","2473885","NA","2473877","2476068","1974","2476328","NA","NA","2475077","1965","1965","2475469","2473877","1965","2475077","2476328","morph21_Oliver/Morris","26","43499","52","yes","1280","3"
"250","50.9433962264","50.9433962264","832.509433962","832.509433962","black","no","xpyriment","legacy","legacy","0","201","NA","uniform","64101","1000","0.0156003806493","1","undefined","1","0","52","52","52","0","52","52","52","NA","52","52","0","52","NA","52","52","0","52","NA","52","NA","52","0","0","52","52","0","52","52","53","/","02/28/19 15:56:04","The main experiment item","yes","FIN__BA__M21__7%3A10%3A17.osexp","C:\Users\ERP Testing Room\Desktop\Joanna\morph21","no","mono","no","18","no","white","no","yes","1080","legacy","52","52","C:/Users/ERP Testing Room/Desktop/Joanna/morph21/subject-163.csv","xpyriment","Kafkaesque Koffka","3.2.5","0","/","NA","NA","NA","NA","space","/","624","NA","NA","NA","NA","2283492","624","2","legacy","1024","2","48000","-16","BA_m21","163","odd","CW_S","PLANNER","1965","2479178","2477470","2471377","2285466","NA","NA","NA","NA","2479172","2477967","NA","2476970","NA","2476961","2479172","1974","2479428","NA","NA","2478178","1965","1965","2478570","2476961","1965","2478178","2479428","morph21_Oliver/Morris","27","44123","53","yes","1280","22"
"350","50","50","835.425925926","835.425925926","black","no","xpyriment","legacy","legacy","0","204","NA","uniform","50368","1000","0.0198538754765","0","undefined","0","0","53","53","53","0","53","53","53","NA","53","53","0","53","NA","53","53","0","53","NA","53","NA","53","0","0","53","53","0","53","53","54","z","02/28/19 15:56:04","The main experiment item","yes","FIN__BA__M21__7%3A10%3A17.osexp","C:\Users\ERP Testing Room\Desktop\Joanna\morph21","no","mono","no","18","no","white","no","yes","1080","legacy","53","53","C:/Users/ERP Testing Room/Desktop/Joanna/morph21/subject-163.csv","xpyriment","Kafkaesque Koffka","3.2.5","0","None","NA","NA","NA","NA","space","None","990","NA","NA","NA","NA","2283492","990","2","legacy","1024","2","48000","-16","BA_m21","163","odd","NW_L_COMP","AGREELA","1965","2483812","2480628","2482303","2285466","NA","NA","NA","NA","2479172","2481126","NA","2480128","NA","2480117","2482293","1974","2484162","NA","NA","2481303","1965","1965","2481695","2480117","1965","2481303","2484162","morph21_Oliver/Morris","27","45113","54","yes","1280","24"
"400","50.9090909091","50.9090909091","833.872727273","833.872727273","black","no","xpyriment","legacy","legacy","0","202","NA","uniform","53806","1000","0.0185852878861","1","undefined","1","0","54","54","54","0","54","54","54","NA","54","54","0","54","NA","54","54","0","54","NA","54","NA","54","0","0","54","54","0","54","54","55","/","02/28/19 15:56:04","The main experiment item","yes","FIN__BA__M21__7%3A10%3A17.osexp","C:\Users\ERP Testing Room\Desktop\Joanna\morph21","no","mono","no","18","no","white","no","yes","1080","legacy","54","54","C:/Users/ERP Testing Room/Desktop/Joanna/morph21/subject-163.csv","xpyriment","Kafkaesque Koffka","3.2.5","0","/","NA","NA","NA","NA","space","/","750","NA","NA","NA","NA","2283492","750","2","legacy","1024","2","48000","-16","BA_m21","163","odd","CW_L","STYLISH","1965","2486979","2485279","2482303","2285466","NA","NA","NA","NA","2486971","2485776","NA","2484779","NA","2484772","2486971","1974","2487379","NA","NA","2485979","1965","1965","2486370","2484772","1965","2485979","2487379","morph21_Oliver/Morris","28","45863","55","yes","1280","29"
"300","51.7857142857","51.7857142857","827.696428571","827.696428571","black","no","xpyriment","legacy","legacy","0","202","NA","uniform","59797","1000","0.0167232469856","1","undefined","1","0","55","55","55","0","55","55","55","NA","55","55","0","55","NA","55","55","0","55","NA","55","NA","55","0","0","55","55","0","55","55","56","/","02/28/19 15:56:04","The main experiment item","yes","FIN__BA__M21__7%3A10%3A17.osexp","C:\Users\ERP Testing Room\Desktop\Joanna\morph21","no","mono","no","18","no","white","no","yes","1080","legacy","55","55","C:/Users/ERP Testing Room/Desktop/Joanna/morph21/subject-163.csv","xpyriment","Kafkaesque Koffka","3.2.5","0","/","NA","NA","NA","NA","space","/","488","NA","NA","NA","NA","2283492","488","2","legacy","1024","2","48000","-16","BA_m21","163","odd","CW_L","KNOCKER","1965","2490137","2488462","2482303","2285466","NA","NA","NA","NA","2490128","2488959","NA","2487962","NA","2487954","2490128","1974","2490437","NA","NA","2489137","1965","1965","2489529","2487954","1965","2489137","2490437","morph21_Oliver/Morris","29","46351","56","yes","1280","4"
"250","52.6315789474","52.6315789474","823.543859649","823.543859649","black","no","xpyriment","legacy","legacy","0","202","NA","uniform","65890","1000","0.0151768098346","1","undefined","1","0","56","56","56","0","56","56","56","NA","56","56","0","56","NA","56","56","0","56","NA","56","NA","56","0","0","56","56","0","56","56","57","/","02/28/19 15:56:04","The main experiment item","yes","FIN__BA__M21__7%3A10%3A17.osexp","C:\Users\ERP Testing Room\Desktop\Joanna\morph21","no","mono","no","18","no","white","no","yes","1080","legacy","56","56","C:/Users/ERP Testing Room/Desktop/Joanna/morph21/subject-163.csv","xpyriment","Kafkaesque Koffka","3.2.5","0","/","NA","NA","NA","NA","space","/","591","NA","NA","NA","NA","2283492","591","2","legacy","1024","2","48000","-16","BA_m21","163","odd","CW_L","DREAMER","1965","2494872","2491654","2493363","2285466","NA","NA","NA","NA","2493354","2492151","NA","2491146","NA","2491136","2493354","1974","2495122","NA","NA","2492362","1965","1965","2492754","2491136","1965","2492362","2495122","morph21_Oliver/Morris","30","46942","57","yes","1280","12"
"300","53.4482758621","53.4482758621","815.810344828","815.810344828","black","no","xpyriment","legacy","legacy","0","202","NA","uniform","73962","1000","0.0135204564506","1","undefined","1","0","57","57","57","0","57","57","57","NA","57","57","0","57","NA","57","57","0","57","NA","57","NA","57","0","0","57","57","0","57","57","58","/","02/28/19 15:56:04","The main experiment item","yes","FIN__BA__M21__7%3A10%3A17.osexp","C:\Users\ERP Testing Room\Desktop\Joanna\morph21","no","mono","no","18","no","white","no","yes","1080","legacy","57","57","C:/Users/ERP Testing Room/Desktop/Joanna/morph21/subject-163.csv","xpyriment","Kafkaesque Koffka","3.2.5","0","/","NA","NA","NA","NA","space","/","375","NA","NA","NA","NA","2283492","375","2","legacy","1024","2","48000","-16","BA_m21","163","odd","CW_L","HEATER","1965","2497963","2496263","2493363","2285466","NA","NA","NA","NA","2497957","2496761","NA","2495763","NA","2495752","2497957","1974","2498264","NA","NA","2496963","1965","1965","2497355","2495752","1965","2496963","2498264","morph21_Oliver/Morris","31","47317","58","yes","1280","16"
"400","54.2372881356","54.2372881356","809.677966102","809.677966102","black","no","xpyriment","legacy","legacy","0","202","NA","uniform","68451","1000","0.0146089903727","1","undefined","1","0","58","58","58","0","58","58","58","NA","58","58","0","58","NA","58","58","0","58","NA","58","NA","58","0","0","58","58","0","58","58","59","/","02/28/19 15:56:04","The main experiment item","yes","FIN__BA__M21__7%3A10%3A17.osexp","C:\Users\ERP Testing Room\Desktop\Joanna\morph21","no","mono","no","18","no","white","no","yes","1080","legacy","58","58","C:/Users/ERP Testing Room/Desktop/Joanna/morph21/subject-163.csv","xpyriment","Kafkaesque Koffka","3.2.5","0","/","NA","NA","NA","NA","space","/","454","NA","NA","NA","NA","2283492","454","2","legacy","1024","2","48000","-16","BA_m21","163","odd","CW_L","BLINDNESS","1965","2501139","2499489","2493363","2285466","NA","NA","NA","NA","2501131","2499986","NA","2498989","NA","2498985","2501131","1974","2501539","NA","NA","2500139","1965","1965","2500530","2498985","1965","2500138","2501539","morph21_Oliver/Morris","32","47771","59","yes","1280","40"
"350","55","55","806","806","black","no","xpyriment","legacy","legacy","0","202","NA","uniform","67592","1000","0.0147946502545","1","undefined","1","0","59","59","59","0","59","59","59","NA","59","59","0","59","NA","59","59","0","59","NA","59","NA","59","0","0","59","59","0","59","59","60","/","02/28/19 15:56:04","The main experiment item","yes","FIN__BA__M21__7%3A10%3A17.osexp","C:\Users\ERP Testing Room\Desktop\Joanna\morph21","no","mono","no","18","no","white","no","yes","1080","legacy","59","59","C:/Users/ERP Testing Room/Desktop/Joanna/morph21/subject-163.csv","xpyriment","Kafkaesque Koffka","3.2.5","0","/","NA","NA","NA","NA","space","/","589","NA","NA","NA","NA","2283492","589","2","legacy","1024","2","48000","-16","BA_m21","163","odd","CW_L","JUMPING","1965","2505872","2502664","2504364","2285466","NA","NA","NA","NA","2504360","2503161","NA","2502164","NA","2502153","2504360","1974","2506222","NA","NA","2503372","1965","1965","2503764","2502153","1965","2503372","2506222","morph21_Oliver/Morris","33","48360","60","yes","1280","30"
"350","54.0983606557","54.0983606557","809.081967213","809.081967213","black","no","xpyriment","legacy","legacy","0","204","NA","uniform","49698","1000","0.0201215340658","0","undefined","0","0","60","60","60","0","60","60","60","NA","60","60","0","60","NA","60","60","0","60","NA","60","NA","60","0","0","60","60","0","60","60","61","z","02/28/19 15:56:04","The main experiment item","yes","FIN__BA__M21__7%3A10%3A17.osexp","C:\Users\ERP Testing Room\Desktop\Joanna\morph21","no","mono","no","18","no","white","no","yes","1080","legacy","60","60","C:/Users/ERP Testing Room/Desktop/Joanna/morph21/subject-163.csv","xpyriment","Kafkaesque Koffka","3.2.5","0","None","NA","NA","NA","NA","space","None","994","NA","NA","NA","NA","2283492","994","2","legacy","1024","2","48000","-16","BA_m21","163","odd","NW_L_COMP","INKILM","1965","2509081","2507406","2504364","2285466","NA","NA","NA","NA","2504360","2507903","NA","2506906","NA","2506898","2509076","1974","2509431","NA","NA","2508081","1965","1965","2508481","2506898","1965","2508081","2509431","morph21_Oliver/Morris","33","49354","61","yes","1280","8"
"350","54.8387096774","54.8387096774","808.790322581","808.790322581","black","no","xpyriment","legacy","legacy","0","208","NA","uniform","55351","1000","0.0180665209301","1","undefined","1","0","61","61","61","0","61","61","61","NA","61","61","0","61","NA","61","61","0","61","NA","61","NA","61","0","0","61","61","0","61","61","62","z","02/28/19 15:56:04","The main experiment item","yes","FIN__BA__M21__7%3A10%3A17.osexp","C:\Users\ERP Testing Room\Desktop\Joanna\morph21","no","mono","no","18","no","white","no","yes","1080","legacy","61","61","C:/Users/ERP Testing Room/Desktop/Joanna/morph21/subject-163.csv","xpyriment","Kafkaesque Koffka","3.2.5","0","z","NA","NA","NA","NA","space","z","791","NA","NA","NA","NA","2283492","791","2","legacy","1024","2","48000","-16","BA_m21","163","odd","FILL_NW","KRAISE","1965","2512307","2510632","2504364","2285466","NA","NA","NA","NA","2512300","2511129","NA","2510131","NA","2510123","2512300","1974","2512657","NA","NA","2511307","1965","1965","2511698","2510123","1965","2511307","2512657","morph21_Oliver/Morris","34","50145","62","yes","1280","33"
"400","53.9682539683","53.9682539683","811.682539683","811.682539683","black","no","xpyriment","legacy","legacy","0","204","NA","uniform","52189","1000","0.0191611259078","0","undefined","0","0","62","62","62","0","62","62","62","NA","62","62","0","62","NA","62","62","0","62","NA","62","NA","62","0","0","62","62","0","62","62","63","z","02/28/19 15:56:04","The main experiment item","yes","FIN__BA__M21__7%3A10%3A17.osexp","C:\Users\ERP Testing Room\Desktop\Joanna\morph21","no","mono","no","18","no","white","no","yes","1080","legacy","62","62","C:/Users/ERP Testing Room/Desktop/Joanna/morph21/subject-163.csv","xpyriment","Kafkaesque Koffka","3.2.5","0","None","NA","NA","NA","NA","space","None","991","NA","NA","NA","NA","2283492","991","2","legacy","1024","2","48000","-16","BA_m21","163","odd","NW_L_COMP","COLDIDY","1965","2516932","2513774","2515423","2285466","NA","NA","NA","NA","2512300","2514271","NA","2513274","NA","2513267","2515415","1974","2517332","NA","NA","2514424","1965","1965","2514815","2513267","1965","2514424","2517332","morph21_Oliver/Morris","34","51136","63","yes","1280","10"
"300","53.125","53.125","814.484375","814.484375","black","no","xpyriment","legacy","legacy","0","203","NA","uniform","46274","1000","0.0216104075723","0","undefined","0","0","63","63","63","0","63","63","63","NA","63","63","0","63","NA","63","63","0","63","NA","63","NA","63","0","0","63","63","0","63","63","64","z","02/28/19 15:56:04","The main experiment item","yes","FIN__BA__M21__7%3A10%3A17.osexp","C:\Users\ERP Testing Room\Desktop\Joanna\morph21","no","mono","no","18","no","white","no","yes","1080","legacy","63","63","C:/Users/ERP Testing Room/Desktop/Joanna/morph21/subject-163.csv","xpyriment","Kafkaesque Koffka","3.2.5","0","None","NA","NA","NA","NA","space","None","991","NA","NA","NA","NA","2283492","991","2","legacy","1024","2","48000","-16","BA_m21","163","odd","NW_S_COMP","CURTIDY","1965","2520165","2518482","2515423","2285466","NA","NA","NA","NA","2512300","2518979","NA","2517982","NA","2517977","2520157","1974","2520465","NA","NA","2519165","1965","1965","2519557","2517977","1965","2519165","2520465","morph21_Oliver/Morris","34","52127","64","yes","1280","11"
"350","53.8461538462","53.8461538462","811.738461538","811.738461538","black","no","xpyriment","legacy","legacy","0","202","NA","uniform","57560","1000","0.0173731758165","1","undefined","1","0","64","64","64","0","64","64","64","NA","64","64","0","64","NA","64","64","0","64","NA","64","NA","64","0","0","64","64","0","64","64","65","/","02/28/19 15:56:04","The main experiment item","yes","FIN__BA__M21__7%3A10%3A17.osexp","C:\Users\ERP Testing Room\Desktop\Joanna\morph21","no","mono","no","18","no","white","no","yes","1080","legacy","64","64","C:/Users/ERP Testing Room/Desktop/Joanna/morph21/subject-163.csv","xpyriment","Kafkaesque Koffka","3.2.5","0","/","NA","NA","NA","NA","space","/","636","NA","NA","NA","NA","2283492","636","2","legacy","1024","2","48000","-16","BA_m21","163","odd","CW_L","PAINTER","1965","2523366","2521640","2515423","2285466","NA","NA","NA","NA","2523355","2522138","NA","2521140","NA","2521136","2523355","1974","2523716","NA","NA","2522365","1965","1965","2522757","2521136","1965","2522365","2523716","morph21_Oliver/Morris","35","52763","65","yes","1280","18"
"250","54.5454545455","54.5454545455","813.984848485","813.984848485","black","no","xpyriment","legacy","legacy","0","208","NA","uniform","48140","1000","0.020772746157","1","undefined","1","0","65","65","65","0","65","65","65","NA","65","65","0","65","NA","65","65","0","65","NA","65","NA","65","0","0","65","65","0","65","65","66","z","02/28/19 15:56:04","The main experiment item","yes","FIN__BA__M21__7%3A10%3A17.osexp","C:\Users\ERP Testing Room\Desktop\Joanna\morph21","no","mono","no","18","no","white","no","yes","1080","legacy","65","65","C:/Users/ERP Testing Room/Desktop/Joanna/morph21/subject-163.csv","xpyriment","Kafkaesque Koffka","3.2.5","0","z","NA","NA","NA","NA","space","z","960","NA","NA","NA","NA","2283492","960","2","legacy","1024","2","48000","-16","BA_m21","163","odd","FILL_NW","LOLDS","1965","2527966","2524799","2526457","2285466","NA","NA","NA","NA","2526448","2525296","NA","2524299","NA","2524290","2526448","1974","2528216","NA","NA","2525457","1965","1965","2525849","2524290","1965","2525457","2528216","morph21_Oliver/Morris","36","53723","66","yes","1280","34"
"350","55.223880597","55.223880597","811.970149254","811.970149254","black","no","xpyriment","legacy","legacy","0","201","NA","uniform","65793","1000","0.0151991853237","1","undefined","1","0","66","66","66","0","66","66","66","NA","66","66","0","66","NA","66","66","0","66","NA","66","NA","66","0","0","66","66","0","66","66","67","/","02/28/19 15:56:04","The main experiment item","yes","FIN__BA__M21__7%3A10%3A17.osexp","C:\Users\ERP Testing Room\Desktop\Joanna\morph21","no","mono","no","18","no","white","no","yes","1080","legacy","66","66","C:/Users/ERP Testing Room/Desktop/Joanna/morph21/subject-163.csv","xpyriment","Kafkaesque Koffka","3.2.5","0","/","NA","NA","NA","NA","space","/","679","NA","NA","NA","NA","2283492","679","2","legacy","1024","2","48000","-16","BA_m21","163","odd","CW_S","TOASTER","1965","2531067","2529392","2526457","2285466","NA","NA","NA","NA","2531062","2529889","NA","2528892","NA","2528882","2531062","1974","2531417","NA","NA","2530067","1965","1965","2530467","2528882","1965","2530067","2531417","morph21_Oliver/Morris","37","54402","67","yes","1280","10"
"400","54.4117647059","54.4117647059","811.176470588","811.176470588","black","no","xpyriment","legacy","legacy","0","203","NA","uniform","53438","1000","0.0187132751974","0","undefined","0","0","67","67","67","0","67","67","67","NA","67","67","0","67","NA","67","67","0","67","NA","67","NA","67","0","0","67","67","0","67","67","68","z","02/28/19 15:56:04","The main experiment item","yes","FIN__BA__M21__7%3A10%3A17.osexp","C:\Users\ERP Testing Room\Desktop\Joanna\morph21","no","mono","no","18","no","white","no","yes","1080","legacy","67","67","C:/Users/ERP Testing Room/Desktop/Joanna/morph21/subject-163.csv","xpyriment","Kafkaesque Koffka","3.2.5","0","/","NA","NA","NA","NA","space","/","758","NA","NA","NA","NA","2283492","758","2","legacy","1024","2","48000","-16","BA_m21","163","odd","NW_S_COMP","TRUENELS","1965","2534292","2532609","2526457","2285466","NA","NA","NA","NA","2531062","2533106","NA","2532109","NA","2532101","2534283","1974","2534692","NA","NA","2533292","1965","1965","2533684","2532101","1965","2533292","2534692","morph21_Oliver/Morris","37","55160","68","yes","1280","15"
"250","55.0724637681","55.0724637681","807.115942029","807.115942029","black","no","xpyriment","legacy","legacy","0","202","NA","uniform","70439","1000","0.014196680816","1","undefined","1","0","68","68","68","0","68","68","68","NA","68","68","0","68","NA","68","68","0","68","NA","68","NA","68","0","0","68","68","0","68","68","69","/","02/28/19 15:56:04","The main experiment item","yes","FIN__BA__M21__7%3A10%3A17.osexp","C:\Users\ERP Testing Room\Desktop\Joanna\morph21","no","mono","no","18","no","white","no","yes","1080","legacy","68","68","C:/Users/ERP Testing Room/Desktop/Joanna/morph21/subject-163.csv","xpyriment","Kafkaesque Koffka","3.2.5","0","/","NA","NA","NA","NA","space","/","531","NA","NA","NA","NA","2283492","531","2","legacy","1024","2","48000","-16","BA_m21","163","odd","CW_L","STRIKER","1965","2539034","2535875","2537525","2285466","NA","NA","NA","NA","2537521","2536373","NA","2535375","NA","2535365","2537521","1974","2539284","NA","NA","2536526","1965","1965","2536925","2535365","1965","2536525","2539284","morph21_Oliver/Morris","38","55691","69","yes","1280","17"
"200","55.7142857143","55.7142857143","806.7","806.7","black","no","xpyriment","legacy","legacy","0","208","NA","uniform","61321","1000","0.0163076270772","1","undefined","1","0","69","69","69","0","69","69","69","NA","69","69","0","69","NA","69","69","0","69","NA","69","NA","69","0","0","69","69","0","69","69","70","z","02/28/19 15:56:04","The main experiment item","yes","FIN__BA__M21__7%3A10%3A17.osexp","C:\Users\ERP Testing Room\Desktop\Joanna\morph21","no","mono","no","18","no","white","no","yes","1080","legacy","69","69","C:/Users/ERP Testing Room/Desktop/Joanna/morph21/subject-163.csv","xpyriment","Kafkaesque Koffka","3.2.5","0","z","NA","NA","NA","NA","space","z","778","NA","NA","NA","NA","2283492","778","2","legacy","1024","2","48000","-16","BA_m21","163","odd","FILL_NW","BLAYS","1965","2542167","2540492","2537525","2285466","NA","NA","NA","NA","2542164","2540989","NA","2539992","NA","2539981","2542164","1974","2542367","NA","NA","2541167","1965","1965","2541567","2539981","1965","2541167","2542367","morph21_Oliver/Morris","39","56469","70","yes","1280","8"
"200","56.338028169","56.338028169","807.549295775","807.549295775","black","no","xpyriment","legacy","legacy","0","208","NA","uniform","51158","1000","0.0195472848821","1","undefined","1","0","70","70","70","0","70","70","70","NA","70","70","0","70","NA","70","70","0","70","NA","70","NA","70","0","0","70","70","0","70","70","71","z","02/28/19 15:56:04","The main experiment item","yes","FIN__BA__M21__7%3A10%3A17.osexp","C:\Users\ERP Testing Room\Desktop\Joanna\morph21","no","mono","no","18","no","white","no","yes","1080","legacy","70","70","C:/Users/ERP Testing Room/Desktop/Joanna/morph21/subject-163.csv","xpyriment","Kafkaesque Koffka","3.2.5","0","z","NA","NA","NA","NA","space","z","867","NA","NA","NA","NA","2283492","867","2","legacy","1024","2","48000","-16","BA_m21","163","odd","FILL_NW","GILN","1965","2545142","2543467","2537525","2285466","NA","NA","NA","NA","2545137","2543965","NA","2542967","NA","2542963","2545137","1974","2545343","NA","NA","2544142","1965","1965","2544542","2542963","1965","2544142","2545343","morph21_Oliver/Morris","40","57336","71","yes","1280","25"
"250","55.5555555556","55.5555555556","809.486111111","809.486111111","black","no","xpyriment","legacy","legacy","0","204","NA","uniform","51234","1000","0.0195182886365","0","undefined","0","0","71","71","71","0","71","71","71","NA","71","71","0","71","NA","71","71","0","71","NA","71","NA","71","0","0","71","71","0","71","71","72","z","02/28/19 15:56:04","The main experiment item","yes","FIN__BA__M21__7%3A10%3A17.osexp","C:\Users\ERP Testing Room\Desktop\Joanna\morph21","no","mono","no","18","no","white","no","yes","1080","legacy","71","71","C:/Users/ERP Testing Room/Desktop/Joanna/morph21/subject-163.csv","xpyriment","Kafkaesque Koffka","3.2.5","0","/","NA","NA","NA","NA","space","/","947","NA","NA","NA","NA","2283492","947","2","legacy","1024","2","48000","-16","BA_m21","163","odd","NW_L_COMP","STIRANGE","1965","2549627","2546460","2548119","2285466","NA","NA","NA","NA","2545137","2546957","NA","2545960","NA","2545950","2548114","1974","2549877","NA","NA","2547127","1965","1965","2547519","2545950","1965","2547127","2549877","morph21_Oliver/Morris","40","58283","72","yes","1280","1"
"350","56.1643835616","56.1643835616","811.821917808","811.821917808","black","no","xpyriment","legacy","legacy","0","203","NA","uniform","51266","1000","0.019506105411","1","undefined","1","0","72","72","72","0","72","72","72","NA","72","72","0","72","NA","72","72","0","72","NA","72","NA","72","0","0","72","72","0","72","72","73","z","02/28/19 15:56:04","The main experiment item","yes","FIN__BA__M21__7%3A10%3A17.osexp","C:\Users\ERP Testing Room\Desktop\Joanna\morph21","no","mono","no","18","no","white","no","yes","1080","legacy","72","72","C:/Users/ERP Testing Room/Desktop/Joanna/morph21/subject-163.csv","xpyriment","Kafkaesque Koffka","3.2.5","0","z","NA","NA","NA","NA","space","z","980","NA","NA","NA","NA","2283492","980","2","legacy","1024","2","48000","-16","BA_m21","163","odd","NW_S_COMP","HUMIDOES","1965","2552702","2551044","2548119","2285466","NA","NA","NA","NA","2552697","2551541","NA","2550544","NA","2550532","2552697","1974","2553052","NA","NA","2551702","1965","1965","2552102","2550532","1965","2551702","2553052","morph21_Oliver/Morris","41","59263","73","yes","1280","25"
"250","56.7567567568","56.7567567568","810","810","black","no","xpyriment","legacy","legacy","0","201","NA","uniform","57154","1000","0.0174965881653","1","undefined","1","0","73","73","73","0","73","73","73","NA","73","73","0","73","NA","73","73","0","73","NA","73","NA","73","0","0","73","73","0","73","73","74","/","02/28/19 15:56:04","The main experiment item","yes","FIN__BA__M21__7%3A10%3A17.osexp","C:\Users\ERP Testing Room\Desktop\Joanna\morph21","no","mono","no","18","no","white","no","yes","1080","legacy","73","73","C:/Users/ERP Testing Room/Desktop/Joanna/morph21/subject-163.csv","xpyriment","Kafkaesque Koffka","3.2.5","0","/","NA","NA","NA","NA","space","/","677","NA","NA","NA","NA","2283492","677","2","legacy","1024","2","48000","-16","BA_m21","163","odd","CW_S","PEAKING","1965","2555877","2554227","2548119","2285466","NA","NA","NA","NA","2555869","2554724","NA","2553727","NA","2553721","2555869","1974","2556127","NA","NA","2554877","1965","1965","2555269","2553721","1965","2554877","2556127","morph21_Oliver/Morris","42","59940","74","yes","1280","28"
"300","56","56","812.453333333","812.453333333","black","no","xpyriment","legacy","legacy","0","208","NA","uniform","51706","1000","0.0193401152671","undefined","undefined","0","0","74","74","74","0","74","74","74","NA","74","74","0","74","NA","74","74","0","74","NA","74","NA","74","0","0","74","74","0","74","74","75","z","02/28/19 15:56:04","The main experiment item","yes","FIN__BA__M21__7%3A10%3A17.osexp","C:\Users\ERP Testing Room\Desktop\Joanna\morph21","no","mono","no","18","no","white","no","yes","1080","legacy","74","74","C:/Users/ERP Testing Room/Desktop/Joanna/morph21/subject-163.csv","xpyriment","Kafkaesque Koffka","3.2.5","0","space","space","NA","NA","NA","space","None","11264","11264","NA","NA","NA","2283492","994","2","legacy","1024","2","48000","-16","BA_m21","163","odd","FILL_NW","DULKS","1965","2560461","2557252","2558952","2285466","2560769","NA","NA","NA","2555869","2557749","NA","2556752","NA","2556741","2558946","1974","2572034","NA","NA","2557952","1965","1965","2558344","2556741","1965","2557952","2560761","morph21_Oliver/Morris","42","60934","75","yes","1280","18"
"300","55.2631578947","55.2631578947","814.763157895","814.763157895","black","no","xpyriment","legacy","legacy","0","204","NA","uniform","49488","1000","0.020206918849","0","undefined","0","0","75","75","75","0","75","75","75","NA","75","75","0","75","NA","75","75","0","75","NA","75","NA","75","0","0","75","75","0","75","75","76","z","02/28/19 15:56:04","The main experiment item","yes","FIN__BA__M21__7%3A10%3A17.osexp","C:\Users\ERP Testing Room\Desktop\Joanna\morph21","no","mono","no","18","no","white","no","yes","1080","legacy","75","75","C:/Users/ERP Testing Room/Desktop/Joanna/morph21/subject-163.csv","xpyriment","Kafkaesque Koffka","3.2.5","0","None","space","NA","NA","NA","space","None","988","11264","NA","NA","NA","2283492","988","2","legacy","1024","2","48000","-16","BA_m21","163","odd","NW_L_COMP","ADDMANT","1965","2574804","2573137","2558952","2285466","2560769","NA","NA","NA","2555869","2573634","NA","2572637","NA","2572628","2574793","1974","2575104","NA","NA","2573804","1965","1965","2574196","2572627","1965","2573804","2575104","morph21_Oliver/Morris","42","61922","76","yes","1280","13"
"400","55.8441558442","55.8441558442","812","812","black","no","xpyriment","legacy","legacy","0","207","NA","uniform","68014","1000","0.0147028552945","1","undefined","1","0","76","76","76","0","76","76","76","NA","76","76","0","76","NA","76","76","0","76","NA","76","NA","76","0","0","76","76","0","76","76","77","/","02/28/19 15:56:04","The main experiment item","yes","FIN__BA__M21__7%3A10%3A17.osexp","C:\Users\ERP Testing Room\Desktop\Joanna\morph21","no","mono","no","18","no","white","no","yes","1080","legacy","76","76","C:/Users/ERP Testing Room/Desktop/Joanna/morph21/subject-163.csv","xpyriment","Kafkaesque Koffka","3.2.5","0","/","space","NA","NA","NA","space","/","602","11264","NA","NA","NA","2283492","602","2","legacy","1024","2","48000","-16","BA_m21","163","odd","FILL_W","EAT","1965","2578071","2576371","2558952","2285466","2560769","NA","NA","NA","2578061","2576868","NA","2575871","NA","2575860","2578061","1974","2578471","NA","NA","2577071","1965","1965","2577463","2575860","1965","2577071","2578471","morph21_Oliver/Morris","43","62524","77","yes","1280","25"
"300","56.4102564103","56.4102564103","812.923076923","812.923076923","black","no","xpyriment","legacy","legacy","0","204","NA","uniform","56967","1000","0.0175540225043","1","undefined","1","0","77","77","77","0","77","77","77","NA","77","77","0","77","NA","77","77","0","77","NA","77","NA","77","0","0","77","77","0","77","77","78","z","02/28/19 15:56:04","The main experiment item","yes","FIN__BA__M21__7%3A10%3A17.osexp","C:\Users\ERP Testing Room\Desktop\Joanna\morph21","no","mono","no","18","no","white","no","yes","1080","legacy","77","77","C:/Users/ERP Testing Room/Desktop/Joanna/morph21/subject-163.csv","xpyriment","Kafkaesque Koffka","3.2.5","0","z","space","NA","NA","NA","space","z","884","11264","NA","NA","NA","2283492","884","2","legacy","1024","2","48000","-16","BA_m21","163","odd","NW_L_COMP","KINGILM","1965","2582764","2579596","2581255","2285466","2560769","NA","NA","NA","2581250","2580093","NA","2579096","NA","2579087","2581250","1974","2583064","NA","NA","2580254","1965","1965","2580655","2579087","1965","2580254","2583064","morph21_Oliver/Morris","44","63408","78","yes","1280","19"
"200","56.9620253165","56.9620253165","812.189873418","812.189873418","black","no","xpyriment","legacy","legacy","0","207","NA","uniform","61187","1000","0.0163433409057","1","undefined","1","0","78","78","78","0","78","78","78","NA","78","78","0","78","NA","78","78","0","78","NA","78","NA","78","0","0","78","78","0","78","78","79","/","02/28/19 15:56:04","The main experiment item","yes","FIN__BA__M21__7%3A10%3A17.osexp","C:\Users\ERP Testing Room\Desktop\Joanna\morph21","no","mono","no","18","no","white","no","yes","1080","legacy","78","78","C:/Users/ERP Testing Room/Desktop/Joanna/morph21/subject-163.csv","xpyriment","Kafkaesque Koffka","3.2.5","0","/","space","NA","NA","NA","space","/","755","11264","NA","NA","NA","2283492","755","2","legacy","1024","2","48000","-16","BA_m21","163","odd","FILL_W","FLOAT","1965","2585839","2584189","2581255","2285466","2560769","NA","NA","NA","2585832","2584686","NA","2583689","NA","2583682","2585832","1974","2586039","NA","NA","2584839","1965","1965","2585230","2583682","1965","2584839","2586039","morph21_Oliver/Morris","45","64163","79","yes","1280","30"
"250","57.5","57.5","809.7","809.7","black","no","xpyriment","legacy","legacy","0","201","NA","uniform","56348","1000","0.017746858806","1","undefined","1","0","79","79","79","0","79","79","79","NA","79","79","0","79","NA","79","79","0","79","NA","79","NA","79","0","0","79","79","0","79","79","80","/","02/28/19 15:56:04","The main experiment item","yes","FIN__BA__M21__7%3A10%3A17.osexp","C:\Users\ERP Testing Room\Desktop\Joanna\morph21","no","mono","no","18","no","white","no","yes","1080","legacy","79","79","C:/Users/ERP Testing Room/Desktop/Joanna/morph21/subject-163.csv","xpyriment","Kafkaesque Koffka","3.2.5","0","/","space","NA","NA","NA","space","/","613","11264","NA","NA","NA","2283492","613","2","legacy","1024","2","48000","-16","BA_m21","163","odd","CW_S","AWARENESS","1965","2588989","2587331","2581255","2285466","2560769","NA","NA","NA","2588984","2587828","NA","2586831","NA","2586822","2588984","1974","2589239","NA","NA","2587989","1965","1965","2588389","2586822","1965","2587989","2589239","morph21_Oliver/Morris","46","64776","80","yes","1280","44"
"400","56.7901234568","56.7901234568","811.975308642","811.975308642","black","no","xpyriment","legacy","legacy","0","206","NA","uniform","51592","1000","0.0193828500543","0","undefined","0","0","80","80","80","0","80","80","80","NA","80","80","0","80","NA","80","80","0","80","NA","80","NA","80","0","0","80","80","0","80","80","81","z","02/28/19 15:56:04","The main experiment item","yes","FIN__BA__M21__7%3A10%3A17.osexp","C:\Users\ERP Testing Room\Desktop\Joanna\morph21","no","mono","no","18","no","white","no","yes","1080","legacy","80","80","C:/Users/ERP Testing Room/Desktop/Joanna/morph21/subject-163.csv","xpyriment","Kafkaesque Koffka","3.2.5","0","None","space","NA","NA","NA","space","None","994","11264","NA","NA","NA","2283492","994","2","legacy","1024","2","48000","-16","BA_m21","163","odd","NW_L_SIMP","CLASSOUS","1965","2593606","2590447","2592097","2285466","2560769","NA","NA","NA","2588984","2590944","NA","2589947","NA","2589942","2592092","1974","2594006","NA","NA","2591098","1965","1965","2591489","2589942","1965","2591097","2594006","morph21_Oliver/Morris","46","65770","81","yes","1280","18"
"200","57.3170731707","57.3170731707","813.036585366","813.036585366","black","no","xpyriment","legacy","legacy","0","203","NA","uniform","57697","1000","0.0173319236702","1","undefined","1","0","81","81","81","0","81","81","81","NA","81","81","0","81","NA","81","81","0","81","NA","81","NA","81","0","0","81","81","0","81","81","82","z","02/28/19 15:56:04","The main experiment item","yes","FIN__BA__M21__7%3A10%3A17.osexp","C:\Users\ERP Testing Room\Desktop\Joanna\morph21","no","mono","no","18","no","white","no","yes","1080","legacy","81","81","C:/Users/ERP Testing Room/Desktop/Joanna/morph21/subject-163.csv","xpyriment","Kafkaesque Koffka","3.2.5","0","z","space","NA","NA","NA","space","z","899","11264","NA","NA","NA","2283492","899","2","legacy","1024","2","48000","-16","BA_m21","163","odd","NW_S_COMP","DUMBIDY","1965","2596798","2595131","2592097","2285466","2560769","NA","NA","NA","2596794","2595628","NA","2594623","NA","2594618","2596794","1974","2596998","NA","NA","2595798","1965","1965","2596198","2594618","1965","2595798","2596998","morph21_Oliver/Morris","47","66669","82","yes","1280","12"
"300","57.8313253012","57.8313253012","812.337349398","812.337349398","black","no","xpyriment","legacy","legacy","0","207","NA","uniform","55385","1000","0.0180554301706","1","undefined","1","0","82","82","82","0","82","82","82","NA","82","82","0","82","NA","82","82","0","82","NA","82","NA","82","0","0","82","82","0","82","82","83","/","02/28/19 15:56:04","The main experiment item","yes","FIN__BA__M21__7%3A10%3A17.osexp","C:\Users\ERP Testing Room\Desktop\Joanna\morph21","no","mono","no","18","no","white","no","yes","1080","legacy","82","82","C:/Users/ERP Testing Room/Desktop/Joanna/morph21/subject-163.csv","xpyriment","Kafkaesque Koffka","3.2.5","0","/","space","NA","NA","NA","space","/","755","11264","NA","NA","NA","2283492","755","2","legacy","1024","2","48000","-16","BA_m21","163","odd","FILL_W","BAKE","1965","2599807","2598124","2592097","2285466","2560769","NA","NA","NA","2599798","2598621","NA","2597623","NA","2597613","2599798","1974","2600107","NA","NA","2598807","1965","1965","2599199","2597613","1965","2598807","2600107","morph21_Oliver/Morris","48","67424","83","yes","1280","29"
"400","57.1428571429","57.1428571429","814.476190476","814.476190476","black","no","xpyriment","legacy","legacy","0","202","NA","uniform","46143","1000","0.0216717595302","0","undefined","0","0","83","83","83","0","83","83","83","NA","83","83","0","83","NA","83","83","0","83","NA","83","NA","83","0","0","83","83","0","83","83","84","/","02/28/19 15:56:04","The main experiment item","yes","FIN__BA__M21__7%3A10%3A17.osexp","C:\Users\ERP Testing Room\Desktop\Joanna\morph21","no","mono","no","18","no","white","no","yes","1080","legacy","83","83","C:/Users/ERP Testing Room/Desktop/Joanna/morph21/subject-163.csv","xpyriment","Kafkaesque Koffka","3.2.5","0","None","space","NA","NA","NA","space","None","992","11264","NA","NA","NA","2283492","992","2","legacy","1024","2","48000","-16","BA_m21","163","odd","CW_L","QUIETLY","1965","2604541","2601324","2603032","2285466","2560769","NA","NA","NA","2599798","2601821","NA","2600824","NA","2600813","2603025","1974","2604941","NA","NA","2602032","1965","1965","2602424","2600813","1965","2602032","2604941","morph21_Oliver/Morris","48","68416","84","yes","1280","36"
"300","57.6470588235","57.6470588235","815","815","black","no","xpyriment","legacy","legacy","0","202","NA","uniform","52308","1000","0.0191175346027","1","undefined","1","0","84","84","84","0","84","84","84","NA","84","84","0","84","NA","84","84","0","84","NA","84","NA","84","0","0","84","84","0","84","84","85","/","02/28/19 15:56:04","The main experiment item","yes","FIN__BA__M21__7%3A10%3A17.osexp","C:\Users\ERP Testing Room\Desktop\Joanna\morph21","no","mono","no","18","no","white","no","yes","1080","legacy","84","84","C:/Users/ERP Testing Room/Desktop/Joanna/morph21/subject-163.csv","xpyriment","Kafkaesque Koffka","3.2.5","0","/","space","NA","NA","NA","space","/","859","11264","NA","NA","NA","2283492","859","2","legacy","1024","2","48000","-16","BA_m21","163","odd","CW_L","MADNESS","1965","2607791","2606074","2603032","2285466","2560769","NA","NA","NA","2607782","2606571","NA","2605574","NA","2605563","2607782","1974","2608091","NA","NA","2606791","1965","1965","2607182","2605563","1965","2606791","2608091","morph21_Oliver/Morris","49","69275","85","yes","1280","41"
"250","58.1395348837","58.1395348837","815.511627907","815.511627907","black","no","xpyriment","legacy","legacy","0","203","NA","uniform","50880","1000","0.0196540880503","1","undefined","1","0","85","85","85","0","85","85","85","NA","85","85","0","85","NA","85","85","0","85","NA","85","NA","85","0","0","85","85","0","85","85","86","z","02/28/19 15:56:04","The main experiment item","yes","FIN__BA__M21__7%3A10%3A17.osexp","C:\Users\ERP Testing Room\Desktop\Joanna\morph21","no","mono","no","18","no","white","no","yes","1080","legacy","85","85","C:/Users/ERP Testing Room/Desktop/Joanna/morph21/subject-163.csv","xpyriment","Kafkaesque Koffka","3.2.5","0","z","space","NA","NA","NA","space","z","859","11264","NA","NA","NA","2283492","859","2","legacy","1024","2","48000","-16","BA_m21","163","odd","NW_S_COMP","LIDADY","1965","2610966","2609291","2603032","2285466","2560769","NA","NA","NA","2610961","2609788","NA","2608791","NA","2608779","2610961","1974","2611216","NA","NA","2609966","1965","1965","2610366","2608779","1965","2609966","2611216","morph21_Oliver/Morris","50","70134","86","yes","1280","3"
"300","57.4712643678","57.4712643678","817.574712644","817.574712644","black","no","xpyriment","legacy","legacy","0","204","NA","uniform","50582","1000","0.0197698786129","0","undefined","0","0","86","86","86","0","86","86","86","NA","86","86","0","86","NA","86","86","0","86","NA","86","NA","86","0","0","86","86","0","86","86","87","z","02/28/19 15:56:04","The main experiment item","yes","FIN__BA__M21__7%3A10%3A17.osexp","C:\Users\ERP Testing Room\Desktop\Joanna\morph21","no","mono","no","18","no","white","no","yes","1080","legacy","86","86","C:/Users/ERP Testing Room/Desktop/Joanna/morph21/subject-163.csv","xpyriment","Kafkaesque Koffka","3.2.5","0","None","space","NA","NA","NA","space","None","995","11264","NA","NA","NA","2283492","995","2","legacy","1024","2","48000","-16","BA_m21","163","odd","NW_L_COMP","EMPLOYNELS","1965","2615634","2612466","2614124","2285466","2560769","NA","NA","NA","2610961","2612963","NA","2611966","NA","2611957","2614119","1974","2615934","NA","NA","2613124","1965","1965","2613524","2611957","1965","2613124","2615934","morph21_Oliver/Morris","50","71129","87","yes","1280","21"
"350","57.9545454545","57.9545454545","814.909090909","814.909090909","black","no","xpyriment","legacy","legacy","0","201","NA","uniform","71238","1000","0.0140374519217","1","undefined","1","0","87","87","87","0","87","87","87","NA","87","87","0","87","NA","87","87","0","87","NA","87","NA","87","0","0","87","87","0","87","87","88","/","02/28/19 15:56:04","The main experiment item","yes","FIN__BA__M21__7%3A10%3A17.osexp","C:\Users\ERP Testing Room\Desktop\Joanna\morph21","no","mono","no","18","no","white","no","yes","1080","legacy","87","87","C:/Users/ERP Testing Room/Desktop/Joanna/morph21/subject-163.csv","xpyriment","Kafkaesque Koffka","3.2.5","0","/","space","NA","NA","NA","space","/","583","11264","NA","NA","NA","2283492","583","2","legacy","1024","2","48000","-16","BA_m21","163","odd","CW_S","BOSSY","1965","2618867","2617109","2614124","2285466","2560769","NA","NA","NA","2618861","2617606","NA","2616609","NA","2616600","2618861","1974","2619217","NA","NA","2617867","1965","1965","2618259","2616600","1965","2617867","2619217","morph21_Oliver/Morris","51","71712","88","yes","1280","49"
"350","58.4269662921","58.4269662921","810.719101124","810.719101124","black","no","xpyriment","legacy","legacy","0","202","NA","uniform","65344","1000","0.0153036238981","1","undefined","1","0","88","88","88","0","88","88","88","NA","88","88","0","88","NA","88","88","0","88","NA","88","NA","88","0","0","88","88","0","88","88","89","/","02/28/19 15:56:04","The main experiment item","yes","FIN__BA__M21__7%3A10%3A17.osexp","C:\Users\ERP Testing Room\Desktop\Joanna\morph21","no","mono","no","18","no","white","no","yes","1080","legacy","88","88","C:/Users/ERP Testing Room/Desktop/Joanna/morph21/subject-163.csv","xpyriment","Kafkaesque Koffka","3.2.5","0","/","space","NA","NA","NA","space","/","442","11264","NA","NA","NA","2283492","442","2","legacy","1024","2","48000","-16","BA_m21","163","odd","CW_L","KICKING","1965","2621976","2620317","2614124","2285466","2560769","NA","NA","NA","2621969","2620814","NA","2619817","NA","2619812","2621969","1974","2622326","NA","NA","2620976","1965","1965","2621367","2619812","1965","2620976","2622326","morph21_Oliver/Morris","52","72154","89","yes","1280","23"
