"ITI","acc","accuracy","average_response_time","avg_rt","background","bidi","canvas_backend","clock_backend","color_backend","compensation","cond_trig","condtrigtime","coordinates","coroutines_cycles","coroutines_duration","coroutines_mean_cycle_duration","correct","correct_instructions_1","correct_new_keyboard_response_1","count_BA_m21","count_ITI","count_blank_screen","count_blink_screen","count_block1","count_break1","count_break2","count_break3_1","count_canvas","count_correct_trigger","count_def_chain","count_end_screen","count_fixation_1","count_getting_started","count_inc_counter","count_incorrect_trigger","count_instructions_1","count_logger","count_logscript","count_new_coroutines","count_new_inline_script","count_new_keyboard_response_1","count_reset_counter_prep","count_reset_counter_run","count_responsescreen","count_sequence","count_start_trigger","count_target_present","count_word_trigger","counter","cresp","datetime","description","disable_garbage_collection","experiment_file","experiment_path","font_bold","font_family","font_italic","font_size","font_underline","foreground","form_clicks","fullscreen","height","keyboard_backend","live_row","live_row_block1","logfile","mouse_backend","opensesame_codename","opensesame_version","repeat_cycle","response","response_break1","response_break2","response_break3_1","response_end_screen","response_instructions_1","response_new_keyboard_response_1","response_time","response_time_break1","response_time_break2","response_time_break3_1","response_time_end_screen","response_time_instructions_1","response_time_new_keyboard_response_1","round_decimals","sampler_backend","sound_buf_size","sound_channels","sound_freq","sound_sample_size","start","subject_nr","subject_parity","targ_type","target","time_BA_m21","time_ITI","time_blank_screen","time_blink_screen","time_block1","time_break1","time_break2","time_break3_1","time_canvas","time_correct_trigger","time_def_chain","time_end_screen","time_fixation_1","time_getting_started","time_inc_counter","time_incorrect_trigger","time_instructions_1","time_logger","time_logscript","time_new_inline_script","time_new_keyboard_response_1","time_reset_counter_prep","time_reset_counter_run","time_responsescreen","time_sequence","time_start_trigger","time_target_present","time_word_trigger","title","total_correct","total_response_time","total_responses","uniform_coordinates","width","word_trig"
"300","0","0","989","989","black","no","xpyriment","legacy","legacy","0","208","NA","uniform","50732","1000","0.0197114247418","0","undefined","0","0","0","0","0","0","0","0","0","NA","0","0","0","0","NA","0","0","0","0","NA","0","NA","0","0","0","0","0","0","0","0","1","z","04/23/19 12:43:41","The main experiment item","yes","FIN__BA__M21__7%3A10%3A17.osexp","C:\Users\ERP Testing Room\Desktop\Joanna\morph21","no","mono","no","18","no","white","no","yes","1080","legacy","0","0","C:/Users/ERP Testing Room/Desktop/Joanna/morph21/subject-173.csv","xpyriment","Kafkaesque Koffka","3.2.5","0","None","NA","NA","NA","NA","space","None","989","NA","NA","NA","NA","241241","989","2","legacy","1024","2","48000","-16","BA_m21","173","odd","FILL_NW","VOOFS","1897","246079","244404","NA","243150","NA","NA","NA","NA","NA","244901","NA","243898","NA","243831","246076","1908","246379","NA","NA","245087","1898","1898","245479","243830","1898","245087","246379","morph21_Oliver/Morris","0","989","1","yes","1280","48"
"250","0","0","990","990","black","no","xpyriment","legacy","legacy","0","203","NA","uniform","53351","1000","0.0187437911192","0","undefined","0","0","1","1","1","0","1","1","1","NA","1","1","0","1","NA","1","1","0","1","NA","1","NA","1","0","0","1","1","0","1","1","2","z","04/23/19 12:43:41","The main experiment item","yes","FIN__BA__M21__7%3A10%3A17.osexp","C:\Users\ERP Testing Room\Desktop\Joanna\morph21","no","mono","no","18","no","white","no","yes","1080","legacy","1","1","C:/Users/ERP Testing Room/Desktop/Joanna/morph21/subject-173.csv","xpyriment","Kafkaesque Koffka","3.2.5","0","None","NA","NA","NA","NA","space","None","991","NA","NA","NA","NA","241241","991","2","legacy","1024","2","48000","-16","BA_m21","173","odd","NW_S_COMP","LIDADY","1897","249354","247662","NA","243150","NA","NA","NA","NA","NA","248160","NA","247162","NA","247152","249345","1908","249604","NA","NA","248354","1898","1898","248746","247152","1898","248354","249604","morph21_Oliver/Morris","0","1980","2","yes","1280","3"
"250","0","0","990.666666667","990.666666667","black","no","xpyriment","legacy","legacy","0","201","NA","uniform","51781","1000","0.0193121028949","0","undefined","0","0","2","2","2","0","2","2","2","NA","2","2","0","2","NA","2","2","0","2","NA","2","NA","2","0","0","2","2","0","2","2","3","/","04/23/19 12:43:41","The main experiment item","yes","FIN__BA__M21__7%3A10%3A17.osexp","C:\Users\ERP Testing Room\Desktop\Joanna\morph21","no","mono","no","18","no","white","no","yes","1080","legacy","2","2","C:/Users/ERP Testing Room/Desktop/Joanna/morph21/subject-173.csv","xpyriment","Kafkaesque Koffka","3.2.5","0","None","NA","NA","NA","NA","space","None","992","NA","NA","NA","NA","241241","992","2","legacy","1024","2","48000","-16","BA_m21","173","odd","CW_S","NOTICEABLE","1897","254096","250846","252588","243150","NA","NA","NA","NA","NA","251343","NA","250338","NA","250333","252580","1908","254346","NA","NA","251588","1898","1898","251979","250333","1898","251588","254346","morph21_Oliver/Morris","0","2972","3","yes","1280","3"
"400","25","25","983","983","black","no","xpyriment","legacy","legacy","0","201","NA","uniform","59530","1000","0.0167982529817","1","undefined","1","0","3","3","3","0","3","3","3","NA","3","3","0","3","NA","3","3","0","3","NA","3","NA","3","0","0","3","3","0","3","3","4","/","04/23/19 12:43:41","The main experiment item","yes","FIN__BA__M21__7%3A10%3A17.osexp","C:\Users\ERP Testing Room\Desktop\Joanna\morph21","no","mono","no","18","no","white","no","yes","1080","legacy","3","3","C:/Users/ERP Testing Room/Desktop/Joanna/morph21/subject-173.csv","xpyriment","Kafkaesque Koffka","3.2.5","0","/","NA","NA","NA","NA","space","/","960","NA","NA","NA","NA","241241","960","2","legacy","1024","2","48000","-16","BA_m21","173","odd","CW_S","EFFORTLESS","1897","257213","255488","252588","243150","NA","NA","NA","NA","257206","255985","NA","254979","NA","254972","257206","1908","257613","NA","NA","256213","1898","1898","256604","254972","1898","256213","257613","morph21_Oliver/Morris","1","3932","4","yes","1280","30"
"350","40","40","941.8","941.8","black","no","xpyriment","legacy","legacy","0","207","NA","uniform","55449","1000","0.0180345903443","1","undefined","1","0","4","4","4","0","4","4","4","NA","4","4","0","4","NA","4","4","0","4","NA","4","NA","4","0","0","4","4","0","4","4","5","/","04/23/19 12:43:41","The main experiment item","yes","FIN__BA__M21__7%3A10%3A17.osexp","C:\Users\ERP Testing Room\Desktop\Joanna\morph21","no","mono","no","18","no","white","no","yes","1080","legacy","4","4","C:/Users/ERP Testing Room/Desktop/Joanna/morph21/subject-173.csv","xpyriment","Kafkaesque Koffka","3.2.5","0","/","NA","NA","NA","NA","space","/","777","NA","NA","NA","NA","241241","777","2","legacy","1024","2","48000","-16","BA_m21","173","odd","FILL_W","GLOOM","1897","260556","258839","252588","243150","NA","NA","NA","NA","260549","259336","NA","258338","NA","258328","260549","1908","260906","NA","NA","259556","1898","1898","259947","258328","1898","259556","260906","morph21_Oliver/Morris","2","4709","5","yes","1280","14"
"400","50","50","884.333333333","884.333333333","black","no","xpyriment","legacy","legacy","0","202","NA","uniform","63827","1000","0.0156673508077","1","undefined","1","0","5","5","5","0","5","5","5","NA","5","5","0","5","NA","5","5","0","5","NA","5","NA","5","0","0","5","5","0","5","5","6","/","04/23/19 12:43:41","The main experiment item","yes","FIN__BA__M21__7%3A10%3A17.osexp","C:\Users\ERP Testing Room\Desktop\Joanna\morph21","no","mono","no","18","no","white","no","yes","1080","legacy","5","5","C:/Users/ERP Testing Room/Desktop/Joanna/morph21/subject-173.csv","xpyriment","Kafkaesque Koffka","3.2.5","0","/","NA","NA","NA","NA","space","/","597","NA","NA","NA","NA","241241","597","2","legacy","1024","2","48000","-16","BA_m21","173","odd","CW_L","CLEANER","1897","265381","262206","263872","243150","NA","NA","NA","NA","263869","262703","NA","261706","NA","261696","263869","1908","265781","NA","NA","262872","1898","1898","263272","261696","1898","262872","265781","morph21_Oliver/Morris","3","5306","6","yes","1280","15"
"300","57.1428571429","57.1428571429","851.714285714","851.714285714","black","no","xpyriment","legacy","legacy","0","201","NA","uniform","61668","1000","0.0162158656029","1","undefined","1","0","6","6","6","0","6","6","6","NA","6","6","0","6","NA","6","6","0","6","NA","6","NA","6","0","0","6","6","0","6","6","7","/","04/23/19 12:43:41","The main experiment item","yes","FIN__BA__M21__7%3A10%3A17.osexp","C:\Users\ERP Testing Room\Desktop\Joanna\morph21","no","mono","no","18","no","white","no","yes","1080","legacy","6","6","C:/Users/ERP Testing Room/Desktop/Joanna/morph21/subject-173.csv","xpyriment","Kafkaesque Koffka","3.2.5","0","/","NA","NA","NA","NA","space","/","656","NA","NA","NA","NA","241241","656","2","legacy","1024","2","48000","-16","BA_m21","173","odd","CW_S","BUYER","1897","268581","266906","263872","243150","NA","NA","NA","NA","268573","267403","NA","266406","NA","266398","268573","1908","268881","NA","NA","267581","1898","1898","267973","266398","1898","267581","268881","morph21_Oliver/Morris","4","5962","7","yes","1280","21"
"350","62.5","62.5","819.5","819.5","black","no","xpyriment","legacy","legacy","0","202","NA","uniform","63126","1000","0.0158413332066","1","undefined","1","0","7","7","7","0","7","7","7","NA","7","7","0","7","NA","7","7","0","7","NA","7","NA","7","0","0","7","7","0","7","7","8","/","04/23/19 12:43:41","The main experiment item","yes","FIN__BA__M21__7%3A10%3A17.osexp","C:\Users\ERP Testing Room\Desktop\Joanna\morph21","no","mono","no","18","no","white","no","yes","1080","legacy","7","7","C:/Users/ERP Testing Room/Desktop/Joanna/morph21/subject-173.csv","xpyriment","Kafkaesque Koffka","3.2.5","0","/","NA","NA","NA","NA","space","/","594","NA","NA","NA","NA","241241","594","2","legacy","1024","2","48000","-16","BA_m21","173","odd","CW_L","HUNTER","1897","271714","269998","263872","243150","NA","NA","NA","NA","271711","270495","NA","269498","NA","269489","271711","1908","272065","NA","NA","270723","1898","1898","271114","269489","1898","270723","272065","morph21_Oliver/Morris","5","6556","8","yes","1280","10"
"350","55.5555555556","55.5555555556","839","839","black","no","xpyriment","legacy","legacy","0","202","NA","uniform","55129","1000","0.0181392733407","0","undefined","0","0","8","8","8","0","8","8","8","NA","8","8","0","8","NA","8","8","0","8","NA","8","NA","8","0","0","8","8","0","8","8","9","/","04/23/19 12:43:41","The main experiment item","yes","FIN__BA__M21__7%3A10%3A17.osexp","C:\Users\ERP Testing Room\Desktop\Joanna\morph21","no","mono","no","18","no","white","no","yes","1080","legacy","8","8","C:/Users/ERP Testing Room/Desktop/Joanna/morph21/subject-173.csv","xpyriment","Kafkaesque Koffka","3.2.5","0","None","NA","NA","NA","NA","space","None","995","NA","NA","NA","NA","241241","995","2","legacy","1024","2","48000","-16","BA_m21","173","odd","CW_L","GUILELESS","1897","276441","273231","274931","243150","NA","NA","NA","NA","271711","273728","NA","272731","NA","272722","274926","1908","276791","NA","NA","273931","1898","1898","274331","272722","1898","273931","276791","morph21_Oliver/Morris","5","7551","9","yes","1280","31"
"400","50","50","818.9","818.9","black","no","xpyriment","legacy","legacy","0","208","NA","uniform","68325","1000","0.0146359312111","0","undefined","0","0","9","9","9","0","9","9","9","NA","9","9","0","9","NA","9","9","0","9","NA","9","NA","9","0","0","9","9","0","9","9","10","z","04/23/19 12:43:41","The main experiment item","yes","FIN__BA__M21__7%3A10%3A17.osexp","C:\Users\ERP Testing Room\Desktop\Joanna\morph21","no","mono","no","18","no","white","no","yes","1080","legacy","9","9","C:/Users/ERP Testing Room/Desktop/Joanna/morph21/subject-173.csv","xpyriment","Kafkaesque Koffka","3.2.5","0","/","NA","NA","NA","NA","space","/","638","NA","NA","NA","NA","241241","638","2","legacy","1024","2","48000","-16","BA_m21","173","odd","FILL_NW","VELT","1897","279591","277949","274931","243150","NA","NA","NA","NA","271711","278446","NA","277449","NA","277445","279584","1908","279991","NA","NA","278591","1898","1898","278982","277445","1898","278591","279991","morph21_Oliver/Morris","5","8189","10","yes","1280","46"
"400","54.5454545455","54.5454545455","824.181818182","824.181818182","black","no","xpyriment","legacy","legacy","0","208","NA","uniform","53402","1000","0.0187258904161","1","undefined","1","0","10","10","10","0","10","10","10","NA","10","10","0","10","NA","10","10","0","10","NA","10","NA","10","0","0","10","10","0","10","10","11","z","04/23/19 12:43:41","The main experiment item","yes","FIN__BA__M21__7%3A10%3A17.osexp","C:\Users\ERP Testing Room\Desktop\Joanna\morph21","no","mono","no","18","no","white","no","yes","1080","legacy","10","10","C:/Users/ERP Testing Room/Desktop/Joanna/morph21/subject-173.csv","xpyriment","Kafkaesque Koffka","3.2.5","0","z","NA","NA","NA","NA","space","z","877","NA","NA","NA","NA","241241","877","2","legacy","1024","2","48000","-16","BA_m21","173","odd","FILL_NW","BORMS","1897","282824","281133","274931","243150","NA","NA","NA","NA","282816","281630","NA","280633","NA","280621","282816","1908","283224","NA","NA","281824","1898","1898","282216","280621","1898","281824","283224","morph21_Oliver/Morris","6","9066","11","yes","1280","50"
"250","58.3333333333","58.3333333333","830.916666667","830.916666667","black","no","xpyriment","legacy","legacy","0","206","NA","uniform","51059","1000","0.0195851857655","1","undefined","1","0","11","11","11","0","11","11","11","NA","11","11","0","11","NA","11","11","0","11","NA","11","NA","11","0","0","11","11","0","11","11","12","z","04/23/19 12:43:41","The main experiment item","yes","FIN__BA__M21__7%3A10%3A17.osexp","C:\Users\ERP Testing Room\Desktop\Joanna\morph21","no","mono","no","18","no","white","no","yes","1080","legacy","11","11","C:/Users/ERP Testing Room/Desktop/Joanna/morph21/subject-173.csv","xpyriment","Kafkaesque Koffka","3.2.5","0","z","NA","NA","NA","NA","space","z","905","NA","NA","NA","NA","241241","905","2","legacy","1024","2","48000","-16","BA_m21","173","odd","NW_L_SIMP","BEARIST","1897","287625","284424","286116","243150","NA","NA","NA","NA","286111","284921","NA","283924","NA","283913","286111","1908","287875","NA","NA","285116","1898","1898","285516","283913","1898","285116","287875","morph21_Oliver/Morris","7","9971","12","yes","1280","25"
"300","61.5384615385","61.5384615385","837.615384615","837.615384615","black","no","xpyriment","legacy","legacy","0","206","NA","uniform","54489","1000","0.0183523279928","1","undefined","1","0","12","12","12","0","12","12","12","NA","12","12","0","12","NA","12","12","0","12","NA","12","NA","12","0","0","12","12","0","12","12","13","z","04/23/19 12:43:41","The main experiment item","yes","FIN__BA__M21__7%3A10%3A17.osexp","C:\Users\ERP Testing Room\Desktop\Joanna\morph21","no","mono","no","18","no","white","no","yes","1080","legacy","12","12","C:/Users/ERP Testing Room/Desktop/Joanna/morph21/subject-173.csv","xpyriment","Kafkaesque Koffka","3.2.5","0","z","NA","NA","NA","NA","space","z","918","NA","NA","NA","NA","241241","918","2","legacy","1024","2","48000","-16","BA_m21","173","odd","NW_L_SIMP","BEGENCE","1897","290791","289075","286116","243150","NA","NA","NA","NA","290785","289572","NA","288575","NA","288568","290785","1908","291091","NA","NA","289791","1898","1898","290183","288568","1898","289791","291091","morph21_Oliver/Morris","8","10889","13","yes","1280","4"
"250","57.1428571429","57.1428571429","848.785714286","848.785714286","black","no","xpyriment","legacy","legacy","0","206","NA","uniform","52413","1000","0.0190792360674","0","undefined","0","0","13","13","13","0","13","13","13","NA","13","13","0","13","NA","13","13","0","13","NA","13","NA","13","0","0","13","13","0","13","13","14","z","04/23/19 12:43:41","The main experiment item","yes","FIN__BA__M21__7%3A10%3A17.osexp","C:\Users\ERP Testing Room\Desktop\Joanna\morph21","no","mono","no","18","no","white","no","yes","1080","legacy","13","13","C:/Users/ERP Testing Room/Desktop/Joanna/morph21/subject-173.csv","xpyriment","Kafkaesque Koffka","3.2.5","0","None","NA","NA","NA","NA","space","None","994","NA","NA","NA","NA","241241","994","2","legacy","1024","2","48000","-16","BA_m21","173","odd","NW_L_SIMP","SHOOTMENT","1897","293901","292225","286116","243150","NA","NA","NA","NA","290785","292722","NA","291725","NA","291720","293895","1908","294151","NA","NA","292900","1898","1898","293300","291720","1898","292900","294151","morph21_Oliver/Morris","8","11883","14","yes","1280","16"
"350","53.3333333333","53.3333333333","858.533333333","858.533333333","black","no","xpyriment","legacy","legacy","0","203","NA","uniform","49784","1000","0.0200867748674","0","undefined","0","0","14","14","14","0","14","14","14","NA","14","14","0","14","NA","14","14","0","14","NA","14","NA","14","0","0","14","14","0","14","14","15","z","04/23/19 12:43:41","The main experiment item","yes","FIN__BA__M21__7%3A10%3A17.osexp","C:\Users\ERP Testing Room\Desktop\Joanna\morph21","no","mono","no","18","no","white","no","yes","1080","legacy","14","14","C:/Users/ERP Testing Room/Desktop/Joanna/morph21/subject-173.csv","xpyriment","Kafkaesque Koffka","3.2.5","0","None","NA","NA","NA","NA","space","None","995","NA","NA","NA","NA","241241","995","2","legacy","1024","2","48000","-16","BA_m21","173","odd","NW_S_COMP","WELDIG","1897","298534","295367","297026","243150","NA","NA","NA","NA","290785","295865","NA","294868","NA","294864","297021","1908","298884","NA","NA","296026","1898","1898","296426","294864","1898","296026","298884","morph21_Oliver/Morris","8","12878","15","yes","1280","21"
"250","56.25","56.25","862.25","862.25","black","no","xpyriment","legacy","legacy","0","207","NA","uniform","53788","1000","0.0185915073994","1","undefined","1","0","15","15","15","0","15","15","15","NA","15","15","0","15","NA","15","15","0","15","NA","15","NA","15","0","0","15","15","0","15","15","16","/","04/23/19 12:43:41","The main experiment item","yes","FIN__BA__M21__7%3A10%3A17.osexp","C:\Users\ERP Testing Room\Desktop\Joanna\morph21","no","mono","no","18","no","white","no","yes","1080","legacy","15","15","C:/Users/ERP Testing Room/Desktop/Joanna/morph21/subject-173.csv","xpyriment","Kafkaesque Koffka","3.2.5","0","/","NA","NA","NA","NA","space","/","918","NA","NA","NA","NA","241241","918","2","legacy","1024","2","48000","-16","BA_m21","173","odd","FILL_W","SUIT","1897","301743","300009","297026","243150","NA","NA","NA","NA","301737","300507","NA","299509","NA","299506","301737","1908","301993","NA","NA","300743","1898","1898","301134","299506","1898","300743","301993","morph21_Oliver/Morris","9","13796","16","yes","1280","49"
"350","58.8235294118","58.8235294118","846.705882353","846.705882353","black","no","xpyriment","legacy","legacy","0","202","NA","uniform","65184","1000","0.0153411880216","1","undefined","1","0","16","16","16","0","16","16","16","NA","16","16","0","16","NA","16","16","0","16","NA","16","NA","16","0","0","16","16","0","16","16","17","/","04/23/19 12:43:41","The main experiment item","yes","FIN__BA__M21__7%3A10%3A17.osexp","C:\Users\ERP Testing Room\Desktop\Joanna\morph21","no","mono","no","18","no","white","no","yes","1080","legacy","16","16","C:/Users/ERP Testing Room/Desktop/Joanna/morph21/subject-173.csv","xpyriment","Kafkaesque Koffka","3.2.5","0","/","NA","NA","NA","NA","space","/","598","NA","NA","NA","NA","241241","598","2","legacy","1024","2","48000","-16","BA_m21","173","odd","CW_L","PARKING","1897","304935","303209","297026","243150","NA","NA","NA","NA","304929","303707","NA","302710","NA","302700","304929","1908","305285","NA","NA","303935","1898","1898","304326","302700","1898","303935","305285","morph21_Oliver/Morris","10","14394","17","yes","1280","25"
"250","61.1111111111","61.1111111111","849.444444444","849.444444444","black","no","xpyriment","legacy","legacy","0","202","NA","uniform","57151","1000","0.0174975066053","1","undefined","1","0","17","17","17","0","17","17","17","NA","17","17","0","17","NA","17","17","0","17","NA","17","NA","17","0","0","17","17","0","17","17","18","/","04/23/19 12:43:41","The main experiment item","yes","FIN__BA__M21__7%3A10%3A17.osexp","C:\Users\ERP Testing Room\Desktop\Joanna\morph21","no","mono","no","18","no","white","no","yes","1080","legacy","17","17","C:/Users/ERP Testing Room/Desktop/Joanna/morph21/subject-173.csv","xpyriment","Kafkaesque Koffka","3.2.5","0","/","NA","NA","NA","NA","space","/","896","NA","NA","NA","NA","241241","896","2","legacy","1024","2","48000","-16","BA_m21","173","odd","CW_L","DEAFNESS","1897","309601","306426","308093","243150","NA","NA","NA","NA","308085","306923","NA","305926","NA","305915","308085","1908","309852","NA","NA","307093","1898","1898","307485","305915","1898","307093","309852","morph21_Oliver/Morris","11","15290","18","yes","1280","39"
"200","63.1578947368","63.1578947368","841","841","black","no","xpyriment","legacy","legacy","0","201","NA","uniform","59909","1000","0.0166919828406","1","undefined","1","0","18","18","18","0","18","18","18","NA","18","18","0","18","NA","18","18","0","18","NA","18","NA","18","0","0","18","18","0","18","18","19","/","04/23/19 12:43:41","The main experiment item","yes","FIN__BA__M21__7%3A10%3A17.osexp","C:\Users\ERP Testing Room\Desktop\Joanna\morph21","no","mono","no","18","no","white","no","yes","1080","legacy","18","18","C:/Users/ERP Testing Room/Desktop/Joanna/morph21/subject-173.csv","xpyriment","Kafkaesque Koffka","3.2.5","0","/","NA","NA","NA","NA","space","/","689","NA","NA","NA","NA","241241","689","2","legacy","1024","2","48000","-16","BA_m21","173","odd","CW_S","BOLDNESS","1897","312652","310985","308093","243150","NA","NA","NA","NA","312642","311482","NA","310485","NA","310479","312642","1908","312853","NA","NA","311653","1898","1898","312044","310479","1898","311653","312853","morph21_Oliver/Morris","12","15979","19","yes","1280","41"
"300","60","60","848.35","848.35","black","no","xpyriment","legacy","legacy","0","206","NA","uniform","49561","1000","0.0201771554246","0","undefined","0","0","19","19","19","0","19","19","19","NA","19","19","0","19","NA","19","19","0","19","NA","19","NA","19","0","0","19","19","0","19","19","20","z","04/23/19 12:43:41","The main experiment item","yes","FIN__BA__M21__7%3A10%3A17.osexp","C:\Users\ERP Testing Room\Desktop\Joanna\morph21","no","mono","no","18","no","white","no","yes","1080","legacy","19","19","C:/Users/ERP Testing Room/Desktop/Joanna/morph21/subject-173.csv","xpyriment","Kafkaesque Koffka","3.2.5","0","None","NA","NA","NA","NA","space","None","988","NA","NA","NA","NA","241241","988","2","legacy","1024","2","48000","-16","BA_m21","173","odd","NW_L_SIMP","BANDARY","1897","315703","313994","308093","243150","NA","NA","NA","NA","312642","314491","NA","313494","NA","313490","315699","1908","316003","NA","NA","314711","1898","1898","315103","313490","1898","314711","316003","morph21_Oliver/Morris","12","16967","20","yes","1280","3"
"300","61.9047619048","61.9047619048","840.333333333","840.333333333","black","no","xpyriment","legacy","legacy","0","202","NA","uniform","67002","1000","0.0149249276141","1","undefined","1","0","20","20","20","0","20","20","20","NA","20","20","0","20","NA","20","20","0","20","NA","20","NA","20","0","0","20","20","0","20","20","21","/","04/23/19 12:43:41","The main experiment item","yes","FIN__BA__M21__7%3A10%3A17.osexp","C:\Users\ERP Testing Room\Desktop\Joanna\morph21","no","mono","no","18","no","white","no","yes","1080","legacy","20","20","C:/Users/ERP Testing Room/Desktop/Joanna/morph21/subject-173.csv","xpyriment","Kafkaesque Koffka","3.2.5","0","/","NA","NA","NA","NA","space","/","680","NA","NA","NA","NA","241241","680","2","legacy","1024","2","48000","-16","BA_m21","173","odd","CW_L","PROFESSOR","1897","320378","317203","318869","243150","NA","NA","NA","NA","318862","317700","NA","316703","NA","316692","318862","1908","320678","NA","NA","317869","1898","1898","318261","316691","1898","317869","320678","morph21_Oliver/Morris","13","17647","21","yes","1280","47"
"350","59.0909090909","59.0909090909","847.409090909","847.409090909","black","no","xpyriment","legacy","legacy","0","206","NA","uniform","48688","1000","0.0205389418337","0","undefined","0","0","21","21","21","0","21","21","21","NA","21","21","0","21","NA","21","21","0","21","NA","21","NA","21","0","0","21","21","0","21","21","22","z","04/23/19 12:43:41","The main experiment item","yes","FIN__BA__M21__7%3A10%3A17.osexp","C:\Users\ERP Testing Room\Desktop\Joanna\morph21","no","mono","no","18","no","white","no","yes","1080","legacy","21","21","C:/Users/ERP Testing Room/Desktop/Joanna/morph21/subject-173.csv","xpyriment","Kafkaesque Koffka","3.2.5","0","None","NA","NA","NA","NA","space","None","996","NA","NA","NA","NA","241241","996","2","legacy","1024","2","48000","-16","BA_m21","173","odd","NW_L_SIMP","HABITIC","1897","323478","321770","318869","243150","NA","NA","NA","NA","318862","322267","NA","321270","NA","321265","323475","1908","323828","NA","NA","322478","1898","1898","322878","321265","1898","322478","323828","morph21_Oliver/Morris","13","18643","22","yes","1280","7"
"250","60.8695652174","60.8695652174","846.086956522","846.086956522","black","no","xpyriment","legacy","legacy","0","202","NA","uniform","60232","1000","0.0166024704476","1","undefined","1","0","22","22","22","0","22","22","22","NA","22","22","0","22","NA","22","22","0","22","NA","22","NA","22","0","0","22","22","0","22","22","23","/","04/23/19 12:43:41","The main experiment item","yes","FIN__BA__M21__7%3A10%3A17.osexp","C:\Users\ERP Testing Room\Desktop\Joanna\morph21","no","mono","no","18","no","white","no","yes","1080","legacy","22","22","C:/Users/ERP Testing Room/Desktop/Joanna/morph21/subject-173.csv","xpyriment","Kafkaesque Koffka","3.2.5","0","/","NA","NA","NA","NA","space","/","817","NA","NA","NA","NA","241241","817","2","legacy","1024","2","48000","-16","BA_m21","173","odd","CW_L","LAUGHING","1897","326820","325103","318869","243150","NA","NA","NA","NA","326811","325600","NA","324603","NA","324592","326811","1908","327070","NA","NA","325820","1898","1898","326211","324592","1898","325820","327070","morph21_Oliver/Morris","14","19460","23","yes","1280","27"
"250","58.3333333333","58.3333333333","852.041666667","852.041666667","black","no","xpyriment","legacy","legacy","0","201","NA","uniform","58407","1000","0.0171212354684","0","undefined","0","0","23","23","23","0","23","23","23","NA","23","23","0","23","NA","23","23","0","23","NA","23","NA","23","0","0","23","23","0","23","23","24","/","04/23/19 12:43:41","The main experiment item","yes","FIN__BA__M21__7%3A10%3A17.osexp","C:\Users\ERP Testing Room\Desktop\Joanna\morph21","no","mono","no","18","no","white","no","yes","1080","legacy","23","23","C:/Users/ERP Testing Room/Desktop/Joanna/morph21/subject-173.csv","xpyriment","Kafkaesque Koffka","3.2.5","0","None","NA","NA","NA","NA","space","None","989","NA","NA","NA","NA","241241","989","2","legacy","1024","2","48000","-16","BA_m21","173","odd","CW_S","PEAKING","1897","331504","328303","329996","243150","NA","NA","NA","NA","326811","328800","NA","327803","NA","327797","329985","1908","331755","NA","NA","328996","1898","1898","329388","327797","1898","328996","331755","morph21_Oliver/Morris","14","20449","24","yes","1280","28"
"250","60","60","851.48","851.48","black","no","xpyriment","legacy","legacy","0","208","NA","uniform","55026","1000","0.0181732272017","1","undefined","1","0","24","24","24","0","24","24","24","NA","24","24","0","24","NA","24","24","0","24","NA","24","NA","24","0","0","24","24","0","24","24","25","z","04/23/19 12:43:41","The main experiment item","yes","FIN__BA__M21__7%3A10%3A17.osexp","C:\Users\ERP Testing Room\Desktop\Joanna\morph21","no","mono","no","18","no","white","no","yes","1080","legacy","24","24","C:/Users/ERP Testing Room/Desktop/Joanna/morph21/subject-173.csv","xpyriment","Kafkaesque Koffka","3.2.5","0","z","NA","NA","NA","NA","space","z","838","NA","NA","NA","NA","241241","838","2","legacy","1024","2","48000","-16","BA_m21","173","odd","FILL_NW","PHEEKS","1897","334663","332963","329996","243150","NA","NA","NA","NA","334659","333460","NA","332463","NA","332455","334659","1908","334913","NA","NA","333663","1898","1898","334063","332455","1898","333663","334913","morph21_Oliver/Morris","15","21287","25","yes","1280","35"
"200","61.5384615385","61.5384615385","851.730769231","851.730769231","black","no","xpyriment","legacy","legacy","0","203","NA","uniform","54922","1000","0.0182076399257","1","undefined","1","0","25","25","25","0","25","25","25","NA","25","25","0","25","NA","25","25","0","25","NA","25","NA","25","0","0","25","25","0","25","25","26","z","04/23/19 12:43:41","The main experiment item","yes","FIN__BA__M21__7%3A10%3A17.osexp","C:\Users\ERP Testing Room\Desktop\Joanna\morph21","no","mono","no","18","no","white","no","yes","1080","legacy","25","25","C:/Users/ERP Testing Room/Desktop/Joanna/morph21/subject-173.csv","xpyriment","Kafkaesque Koffka","3.2.5","0","z","NA","NA","NA","NA","space","z","858","NA","NA","NA","NA","241241","858","2","legacy","1024","2","48000","-16","BA_m21","173","odd","NW_S_COMP","DUMBIDY","1897","337771","336088","329996","243150","NA","NA","NA","NA","337765","336585","NA","335588","NA","335577","337765","1908","337971","NA","NA","336771","1898","1898","337163","335577","1898","336771","337971","morph21_Oliver/Morris","16","22145","26","yes","1280","12"
"400","62.962962963","62.962962963","851.333333333","851.333333333","black","no","xpyriment","legacy","legacy","0","205","NA","uniform","57608","1000","0.0173587001805","1","undefined","1","0","26","26","26","0","26","26","26","NA","26","26","0","26","NA","26","26","0","26","NA","26","NA","26","0","0","26","26","0","26","26","27","z","04/23/19 12:43:41","The main experiment item","yes","FIN__BA__M21__7%3A10%3A17.osexp","C:\Users\ERP Testing Room\Desktop\Joanna\morph21","no","mono","no","18","no","white","no","yes","1080","legacy","26","26","C:/Users/ERP Testing Room/Desktop/Joanna/morph21/subject-173.csv","xpyriment","Kafkaesque Koffka","3.2.5","0","z","NA","NA","NA","NA","space","z","841","NA","NA","NA","NA","241241","841","2","legacy","1024","2","48000","-16","BA_m21","173","odd","NW_S_SIMP","AIDIC","1897","342297","339113","340788","243150","NA","NA","NA","NA","340780","339610","NA","338613","NA","338605","340780","1908","342697","NA","NA","339788","1898","1898","340180","338605","1898","339788","342697","morph21_Oliver/Morris","17","22986","27","yes","1280","4"
"200","64.2857142857","64.2857142857","845.25","845.25","black","no","xpyriment","legacy","legacy","0","201","NA","uniform","63305","1000","0.0157965405576","1","undefined","1","0","27","27","27","0","27","27","27","NA","27","27","0","27","NA","27","27","0","27","NA","27","NA","27","0","0","27","27","0","27","27","28","/","04/23/19 12:43:41","The main experiment item","yes","FIN__BA__M21__7%3A10%3A17.osexp","C:\Users\ERP Testing Room\Desktop\Joanna\morph21","no","mono","no","18","no","white","no","yes","1080","legacy","27","27","C:/Users/ERP Testing Room/Desktop/Joanna/morph21/subject-173.csv","xpyriment","Kafkaesque Koffka","3.2.5","0","/","NA","NA","NA","NA","space","/","681","NA","NA","NA","NA","241241","681","2","legacy","1024","2","48000","-16","BA_m21","173","odd","CW_S","LISTENER","1897","345588","343880","340788","243150","NA","NA","NA","NA","345578","344377","NA","343380","NA","343375","345578","1908","345788","NA","NA","344588","1898","1898","344980","343375","1898","344588","345788","morph21_Oliver/Morris","18","23667","28","yes","1280","18"
"250","65.5172413793","65.5172413793","836.827586207","836.827586207","black","no","xpyriment","legacy","legacy","0","207","NA","uniform","59640","1000","0.0167672702884","1","undefined","1","0","28","28","28","0","28","28","28","NA","28","28","0","28","NA","28","28","0","28","NA","28","NA","28","0","0","28","28","0","28","28","29","/","04/23/19 12:43:41","The main experiment item","yes","FIN__BA__M21__7%3A10%3A17.osexp","C:\Users\ERP Testing Room\Desktop\Joanna\morph21","no","mono","no","18","no","white","no","yes","1080","legacy","28","28","C:/Users/ERP Testing Room/Desktop/Joanna/morph21/subject-173.csv","xpyriment","Kafkaesque Koffka","3.2.5","0","/","NA","NA","NA","NA","space","/","601","NA","NA","NA","NA","241241","601","2","legacy","1024","2","48000","-16","BA_m21","173","odd","FILL_W","SOUGHT","1897","348756","347056","340788","243150","NA","NA","NA","NA","348748","347553","NA","346556","NA","346551","348748","1908","349006","NA","NA","347756","1898","1898","348148","346551","1898","347756","349006","morph21_Oliver/Morris","19","24268","29","yes","1280","40"
"200","66.6666666667","66.6666666667","832.8","832.8","black","no","xpyriment","legacy","legacy","0","207","NA","uniform","60367","1000","0.0165653419915","1","undefined","1","0","29","29","29","0","29","29","29","NA","29","29","0","29","NA","29","29","0","29","NA","29","NA","29","0","0","29","29","0","29","29","30","/","04/23/19 12:43:41","The main experiment item","yes","FIN__BA__M21__7%3A10%3A17.osexp","C:\Users\ERP Testing Room\Desktop\Joanna\morph21","no","mono","no","18","no","white","no","yes","1080","legacy","29","29","C:/Users/ERP Testing Room/Desktop/Joanna/morph21/subject-173.csv","xpyriment","Kafkaesque Koffka","3.2.5","0","/","NA","NA","NA","NA","space","/","716","NA","NA","NA","NA","241241","716","2","legacy","1024","2","48000","-16","BA_m21","173","odd","FILL_W","WRECK","1897","353390","350231","351881","243150","NA","NA","NA","NA","351872","350728","NA","349731","NA","349721","351872","1908","353590","NA","NA","350881","1898","1898","351273","349721","1898","350881","353590","morph21_Oliver/Morris","20","24984","30","yes","1280","13"
"300","67.7419354839","67.7419354839","832.451612903","832.451612903","black","no","xpyriment","legacy","legacy","0","208","NA","uniform","50332","1000","0.0198680759755","1","undefined","1","0","30","30","30","0","30","30","30","NA","30","30","0","30","NA","30","30","0","30","NA","30","NA","30","0","0","30","30","0","30","30","31","z","04/23/19 12:43:41","The main experiment item","yes","FIN__BA__M21__7%3A10%3A17.osexp","C:\Users\ERP Testing Room\Desktop\Joanna\morph21","no","mono","no","18","no","white","no","yes","1080","legacy","30","30","C:/Users/ERP Testing Room/Desktop/Joanna/morph21/subject-173.csv","xpyriment","Kafkaesque Koffka","3.2.5","0","z","NA","NA","NA","NA","space","z","822","NA","NA","NA","NA","241241","822","2","legacy","1024","2","48000","-16","BA_m21","173","odd","FILL_NW","TREMP","1897","356406","354765","351881","243150","NA","NA","NA","NA","356403","355262","NA","354265","NA","354261","356403","1908","356707","NA","NA","355415","1898","1898","355806","354261","1898","355415","356707","morph21_Oliver/Morris","21","25806","31","yes","1280","20"
"300","68.75","68.75","829.90625","829.90625","black","no","xpyriment","legacy","legacy","0","201","NA","uniform","57951","1000","0.0172559576194","1","undefined","1","0","31","31","31","0","31","31","31","NA","31","31","0","31","NA","31","31","0","31","NA","31","NA","31","0","0","31","31","0","31","31","32","/","04/23/19 12:43:41","The main experiment item","yes","FIN__BA__M21__7%3A10%3A17.osexp","C:\Users\ERP Testing Room\Desktop\Joanna\morph21","no","mono","no","18","no","white","no","yes","1080","legacy","31","31","C:/Users/ERP Testing Room/Desktop/Joanna/morph21/subject-173.csv","xpyriment","Kafkaesque Koffka","3.2.5","0","/","NA","NA","NA","NA","space","/","751","NA","NA","NA","NA","241241","751","2","legacy","1024","2","48000","-16","BA_m21","173","odd","CW_S","INSISTENT","1897","359582","357898","351881","243150","NA","NA","NA","NA","359577","358395","NA","357398","NA","357390","359577","1908","359882","NA","NA","358582","1898","1898","358981","357390","1898","358581","359882","morph21_Oliver/Morris","22","26557","32","yes","1280","9"
"300","69.696969697","69.696969697","830.181818182","830.181818182","black","no","xpyriment","legacy","legacy","0","203","NA","uniform","54819","1000","0.0182418504533","1","undefined","1","0","32","32","32","0","32","32","32","NA","32","32","0","32","NA","32","32","0","32","NA","32","NA","32","0","0","32","32","0","32","32","33","z","04/23/19 12:43:41","The main experiment item","yes","FIN__BA__M21__7%3A10%3A17.osexp","C:\Users\ERP Testing Room\Desktop\Joanna\morph21","no","mono","no","18","no","white","no","yes","1080","legacy","32","32","C:/Users/ERP Testing Room/Desktop/Joanna/morph21/subject-173.csv","xpyriment","Kafkaesque Koffka","3.2.5","0","z","NA","NA","NA","NA","space","z","839","NA","NA","NA","NA","241241","839","2","legacy","1024","2","48000","-16","BA_m21","173","odd","NW_S_COMP","CURTIDY","1897","364299","361123","362790","243150","NA","NA","NA","NA","362782","361620","NA","360623","NA","360615","362782","1908","364600","NA","NA","361790","1898","1898","362182","360615","1898","361790","364600","morph21_Oliver/Morris","23","27396","33","yes","1280","11"
"350","70.5882352941","70.5882352941","827.029411765","827.029411765","black","no","xpyriment","legacy","legacy","0","208","NA","uniform","59432","1000","0.0168259523489","1","undefined","1","0","33","33","33","0","33","33","33","NA","33","33","0","33","NA","33","33","0","33","NA","33","NA","33","0","0","33","33","0","33","33","34","z","04/23/19 12:43:41","The main experiment item","yes","FIN__BA__M21__7%3A10%3A17.osexp","C:\Users\ERP Testing Room\Desktop\Joanna\morph21","no","mono","no","18","no","white","no","yes","1080","legacy","33","33","C:/Users/ERP Testing Room/Desktop/Joanna/morph21/subject-173.csv","xpyriment","Kafkaesque Koffka","3.2.5","0","z","NA","NA","NA","NA","space","z","723","NA","NA","NA","NA","241241","723","2","legacy","1024","2","48000","-16","BA_m21","173","odd","FILL_NW","DASP","1897","367466","365783","362790","243150","NA","NA","NA","NA","367460","366280","NA","365283","NA","365274","367460","1908","367816","NA","NA","366466","1898","1898","366858","365274","1898","366466","367816","morph21_Oliver/Morris","24","28119","34","yes","1280","13"
"400","68.5714285714","68.5714285714","831.714285714","831.714285714","black","no","xpyriment","legacy","legacy","0","206","NA","uniform","55644","1000","0.0179713895478","0","undefined","0","0","34","34","34","0","34","34","34","NA","34","34","0","34","NA","34","34","0","34","NA","34","NA","34","0","0","34","34","0","34","34","35","z","04/23/19 12:43:41","The main experiment item","yes","FIN__BA__M21__7%3A10%3A17.osexp","C:\Users\ERP Testing Room\Desktop\Joanna\morph21","no","mono","no","18","no","white","no","yes","1080","legacy","34","34","C:/Users/ERP Testing Room/Desktop/Joanna/morph21/subject-173.csv","xpyriment","Kafkaesque Koffka","3.2.5","0","None","NA","NA","NA","NA","space","None","991","NA","NA","NA","NA","241241","991","2","legacy","1024","2","48000","-16","BA_m21","173","odd","NW_L_SIMP","CLASSOUS","1897","370733","369050","362790","243150","NA","NA","NA","NA","367460","369547","NA","368550","NA","368545","370725","1908","371133","NA","NA","369733","1898","1898","370125","368545","1898","369733","371133","morph21_Oliver/Morris","24","29110","35","yes","1280","18"
"200","69.4444444444","69.4444444444","830.777777778","830.777777778","black","no","xpyriment","legacy","legacy","0","201","NA","uniform","62400","1000","0.0160256410256","1","undefined","1","0","35","35","35","0","35","35","35","NA","35","35","0","35","NA","35","35","0","35","NA","35","NA","35","0","0","35","35","0","35","35","36","/","04/23/19 12:43:41","The main experiment item","yes","FIN__BA__M21__7%3A10%3A17.osexp","C:\Users\ERP Testing Room\Desktop\Joanna\morph21","no","mono","no","18","no","white","no","yes","1080","legacy","35","35","C:/Users/ERP Testing Room/Desktop/Joanna/morph21/subject-173.csv","xpyriment","Kafkaesque Koffka","3.2.5","0","/","NA","NA","NA","NA","space","/","798","NA","NA","NA","NA","241241","798","2","legacy","1024","2","48000","-16","BA_m21","173","odd","CW_S","ANGELIC","1897","375467","372275","373958","243150","NA","NA","NA","NA","373955","372772","NA","371766","NA","371756","373955","1908","375667","NA","NA","372967","1898","1898","373358","371756","1898","372967","375667","morph21_Oliver/Morris","25","29908","36","yes","1280","25"
"250","70.2702702703","70.2702702703","829.297297297","829.297297297","black","no","xpyriment","legacy","legacy","0","208","NA","uniform","63862","1000","0.0156587642103","1","undefined","1","0","36","36","36","0","36","36","36","NA","36","36","0","36","NA","36","36","0","36","NA","36","NA","36","0","0","36","36","0","36","36","37","z","04/23/19 12:43:41","The main experiment item","yes","FIN__BA__M21__7%3A10%3A17.osexp","C:\Users\ERP Testing Room\Desktop\Joanna\morph21","no","mono","no","18","no","white","no","yes","1080","legacy","36","36","C:/Users/ERP Testing Room/Desktop/Joanna/morph21/subject-173.csv","xpyriment","Kafkaesque Koffka","3.2.5","0","z","NA","NA","NA","NA","space","z","776","NA","NA","NA","NA","241241","776","2","legacy","1024","2","48000","-16","BA_m21","173","odd","FILL_NW","POLT","1897","378533","376833","373958","243150","NA","NA","NA","NA","378528","377330","NA","376333","NA","376323","378528","1908","378783","NA","NA","377533","1898","1898","377925","376323","1898","377533","378783","morph21_Oliver/Morris","26","30684","37","yes","1280","38"
"400","71.0526315789","71.0526315789","824.447368421","824.447368421","black","no","xpyriment","legacy","legacy","0","207","NA","uniform","58753","1000","0.0170204074686","1","undefined","1","0","37","37","37","0","37","37","37","NA","37","37","0","37","NA","37","37","0","37","NA","37","NA","37","0","0","37","37","0","37","37","38","/","04/23/19 12:43:41","The main experiment item","yes","FIN__BA__M21__7%3A10%3A17.osexp","C:\Users\ERP Testing Room\Desktop\Joanna\morph21","no","mono","no","18","no","white","no","yes","1080","legacy","37","37","C:/Users/ERP Testing Room/Desktop/Joanna/morph21/subject-173.csv","xpyriment","Kafkaesque Koffka","3.2.5","0","/","NA","NA","NA","NA","space","/","645","NA","NA","NA","NA","241241","645","2","legacy","1024","2","48000","-16","BA_m21","173","odd","FILL_W","FLIRT","1897","381626","379959","373958","243150","NA","NA","NA","NA","381618","380456","NA","379458","NA","379454","381618","1908","382026","NA","NA","380625","1898","1898","381017","379454","1898","380625","382026","morph21_Oliver/Morris","27","31329","38","yes","1280","1"
"300","71.7948717949","71.7948717949","817.461538462","817.461538462","black","no","xpyriment","legacy","legacy","0","202","NA","uniform","68013","1000","0.0147030714716","1","undefined","1","0","38","38","38","0","38","38","38","NA","38","38","0","38","NA","38","38","0","38","NA","38","NA","38","0","0","38","38","0","38","38","39","/","04/23/19 12:43:41","The main experiment item","yes","FIN__BA__M21__7%3A10%3A17.osexp","C:\Users\ERP Testing Room\Desktop\Joanna\morph21","no","mono","no","18","no","white","no","yes","1080","legacy","38","38","C:/Users/ERP Testing Room/Desktop/Joanna/morph21/subject-173.csv","xpyriment","Kafkaesque Koffka","3.2.5","0","/","NA","NA","NA","NA","space","/","552","NA","NA","NA","NA","241241","552","2","legacy","1024","2","48000","-16","BA_m21","173","odd","CW_L","COMPOSER","1897","386393","383201","384885","243150","NA","NA","NA","NA","384882","383698","NA","382701","NA","382694","384882","1908","386693","NA","NA","383893","1898","1898","384285","382694","1898","383893","386693","morph21_Oliver/Morris","28","31881","39","yes","1280","6"
"300","72.5","72.5","812.175","812.175","black","no","xpyriment","legacy","legacy","0","202","NA","uniform","63654","1000","0.0157099318189","1","undefined","1","0","39","39","39","0","39","39","39","NA","39","39","0","39","NA","39","39","0","39","NA","39","NA","39","0","0","39","39","0","39","39","40","/","04/23/19 12:43:41","The main experiment item","yes","FIN__BA__M21__7%3A10%3A17.osexp","C:\Users\ERP Testing Room\Desktop\Joanna\morph21","no","mono","no","18","no","white","no","yes","1080","legacy","39","39","C:/Users/ERP Testing Room/Desktop/Joanna/morph21/subject-173.csv","xpyriment","Kafkaesque Koffka","3.2.5","0","/","NA","NA","NA","NA","space","/","606","NA","NA","NA","NA","241241","606","2","legacy","1024","2","48000","-16","BA_m21","173","odd","CW_L","KNOCKER","1897","389526","387835","384885","243150","NA","NA","NA","NA","389524","388332","NA","387335","NA","387332","389524","1908","389827","NA","NA","388535","1898","1898","388926","387332","1898","388535","389827","morph21_Oliver/Morris","29","32487","40","yes","1280","4"
"300","70.7317073171","70.7317073171","816.609756098","816.609756098","black","no","xpyriment","legacy","legacy","0","206","NA","uniform","53707","1000","0.0186195468002","0","undefined","0","0","40","40","40","0","40","40","40","NA","40","40","0","40","NA","40","40","0","40","NA","40","NA","40","0","0","40","40","0","40","40","41","z","04/23/19 12:43:41","The main experiment item","yes","FIN__BA__M21__7%3A10%3A17.osexp","C:\Users\ERP Testing Room\Desktop\Joanna\morph21","no","mono","no","18","no","white","no","yes","1080","legacy","40","40","C:/Users/ERP Testing Room/Desktop/Joanna/morph21/subject-173.csv","xpyriment","Kafkaesque Koffka","3.2.5","0","None","NA","NA","NA","NA","space","None","994","NA","NA","NA","NA","241241","994","2","legacy","1024","2","48000","-16","BA_m21","173","odd","NW_L_SIMP","BEANISH","1897","392685","391002","384885","243150","NA","NA","NA","NA","389524","391499","NA","390502","NA","390493","392680","1908","392985","NA","NA","391685","1898","1898","392085","390493","1898","391685","392985","morph21_Oliver/Morris","29","33481","41","yes","1280","8"
"200","71.4285714286","71.4285714286","812.714285714","812.714285714","black","no","xpyriment","legacy","legacy","0","201","NA","uniform","66191","1000","0.015107794111","1","undefined","1","0","41","41","41","0","41","41","41","NA","41","41","0","41","NA","41","41","0","41","NA","41","NA","41","0","0","41","41","0","41","41","42","/","04/23/19 12:43:41","The main experiment item","yes","FIN__BA__M21__7%3A10%3A17.osexp","C:\Users\ERP Testing Room\Desktop\Joanna\morph21","no","mono","no","18","no","white","no","yes","1080","legacy","41","41","C:/Users/ERP Testing Room/Desktop/Joanna/morph21/subject-173.csv","xpyriment","Kafkaesque Koffka","3.2.5","0","/","NA","NA","NA","NA","space","/","653","NA","NA","NA","NA","241241","653","2","legacy","1024","2","48000","-16","BA_m21","173","odd","CW_S","AMUSEMENT","1897","397277","394077","395768","243150","NA","NA","NA","NA","395763","394574","NA","393577","NA","393571","395763","1908","397477","NA","NA","394768","1898","1898","395160","393571","1898","394768","397477","morph21_Oliver/Morris","30","34134","42","yes","1280","38"
"400","72.0930232558","72.0930232558","809.976744186","809.976744186","black","no","xpyriment","legacy","legacy","0","208","NA","uniform","62871","1000","0.0159055844507","1","undefined","1","0","42","42","42","0","42","42","42","NA","42","42","0","42","NA","42","42","0","42","NA","42","NA","42","0","0","42","42","0","42","42","43","z","04/23/19 12:43:41","The main experiment item","yes","FIN__BA__M21__7%3A10%3A17.osexp","C:\Users\ERP Testing Room\Desktop\Joanna\morph21","no","mono","no","18","no","white","no","yes","1080","legacy","42","42","C:/Users/ERP Testing Room/Desktop/Joanna/morph21/subject-173.csv","xpyriment","Kafkaesque Koffka","3.2.5","0","z","NA","NA","NA","NA","space","z","695","NA","NA","NA","NA","241241","695","2","legacy","1024","2","48000","-16","BA_m21","173","odd","FILL_NW","GIKE","1897","400311","398636","395768","243150","NA","NA","NA","NA","400302","399133","NA","398135","NA","398129","400302","1908","400711","NA","NA","399311","1898","1898","399703","398129","1898","399311","400711","morph21_Oliver/Morris","31","34829","43","yes","1280","24"
"250","72.7272727273","72.7272727273","806.727272727","806.727272727","black","no","xpyriment","legacy","legacy","0","202","NA","uniform","62415","1000","0.0160217896339","1","undefined","1","0","43","43","43","0","43","43","43","NA","43","43","0","43","NA","43","43","0","43","NA","43","NA","43","0","0","43","43","0","43","43","44","/","04/23/19 12:43:41","The main experiment item","yes","FIN__BA__M21__7%3A10%3A17.osexp","C:\Users\ERP Testing Room\Desktop\Joanna\morph21","no","mono","no","18","no","white","no","yes","1080","legacy","43","43","C:/Users/ERP Testing Room/Desktop/Joanna/morph21/subject-173.csv","xpyriment","Kafkaesque Koffka","3.2.5","0","/","NA","NA","NA","NA","space","/","667","NA","NA","NA","NA","241241","667","2","legacy","1024","2","48000","-16","BA_m21","173","odd","CW_L","PUSHER","1897","403770","402045","395768","243150","NA","NA","NA","NA","403761","402542","NA","401545","NA","401537","403761","1908","404020","NA","NA","402770","1898","1898","403161","401537","1898","402770","404020","morph21_Oliver/Morris","32","35496","44","yes","1280","13"
"200","73.3333333333","73.3333333333","802.822222222","802.822222222","black","no","xpyriment","legacy","legacy","0","207","NA","uniform","64582","1000","0.0154841906414","1","undefined","1","0","44","44","44","0","44","44","44","NA","44","44","0","44","NA","44","44","0","44","NA","44","NA","44","0","0","44","44","0","44","44","45","/","04/23/19 12:43:41","The main experiment item","yes","FIN__BA__M21__7%3A10%3A17.osexp","C:\Users\ERP Testing Room\Desktop\Joanna\morph21","no","mono","no","18","no","white","no","yes","1080","legacy","44","44","C:/Users/ERP Testing Room/Desktop/Joanna/morph21/subject-173.csv","xpyriment","Kafkaesque Koffka","3.2.5","0","/","NA","NA","NA","NA","space","/","631","NA","NA","NA","NA","241241","631","2","legacy","1024","2","48000","-16","BA_m21","173","odd","FILL_W","GOLF","1897","408370","405203","406862","243150","NA","NA","NA","NA","406852","405700","NA","404703","NA","404697","406852","1908","408570","NA","NA","405862","1898","1898","406253","404697","1898","405861","408570","morph21_Oliver/Morris","33","36127","45","yes","1280","28"
"350","73.9130434783","73.9130434783","802.152173913","802.152173913","black","no","xpyriment","legacy","legacy","0","204","NA","uniform","61402","1000","0.0162861144588","1","undefined","1","0","45","45","45","0","45","45","45","NA","45","45","0","45","NA","45","45","0","45","NA","45","NA","45","0","0","45","45","0","45","45","46","z","04/23/19 12:43:41","The main experiment item","yes","FIN__BA__M21__7%3A10%3A17.osexp","C:\Users\ERP Testing Room\Desktop\Joanna\morph21","no","mono","no","18","no","white","no","yes","1080","legacy","45","45","C:/Users/ERP Testing Room/Desktop/Joanna/morph21/subject-173.csv","xpyriment","Kafkaesque Koffka","3.2.5","0","z","NA","NA","NA","NA","space","z","772","NA","NA","NA","NA","241241","772","2","legacy","1024","2","48000","-16","BA_m21","173","odd","NW_L_COMP","INKILM","1897","411328","409678","406862","243150","NA","NA","NA","NA","411324","410176","NA","409178","NA","409171","411324","1908","411678","NA","NA","410329","1898","1898","410728","409171","1898","410328","411678","morph21_Oliver/Morris","34","36899","46","yes","1280","8"
"350","74.4680851064","74.4680851064","798.468085106","798.468085106","black","no","xpyriment","legacy","legacy","0","207","NA","uniform","59933","1000","0.0166852985834","1","undefined","1","0","46","46","46","0","46","46","46","NA","46","46","0","46","NA","46","46","0","46","NA","46","NA","46","0","0","46","46","0","46","46","47","/","04/23/19 12:43:41","The main experiment item","yes","FIN__BA__M21__7%3A10%3A17.osexp","C:\Users\ERP Testing Room\Desktop\Joanna\morph21","no","mono","no","18","no","white","no","yes","1080","legacy","46","46","C:/Users/ERP Testing Room/Desktop/Joanna/morph21/subject-173.csv","xpyriment","Kafkaesque Koffka","3.2.5","0","/","NA","NA","NA","NA","space","/","629","NA","NA","NA","NA","241241","629","2","legacy","1024","2","48000","-16","BA_m21","173","odd","FILL_W","FAINT","1897","414520","412804","406862","243150","NA","NA","NA","NA","414511","413301","NA","412304","NA","412299","414511","1908","414870","NA","NA","413520","1898","1898","413912","412299","1898","413520","414870","morph21_Oliver/Morris","35","37528","47","yes","1280","31"
"250","75","75","798.270833333","798.270833333","black","no","xpyriment","legacy","legacy","0","208","NA","uniform","55975","1000","0.0178651183564","1","undefined","1","0","47","47","47","0","47","47","47","NA","47","47","0","47","NA","47","47","0","47","NA","47","NA","47","0","0","47","47","0","47","47","48","z","04/23/19 12:43:41","The main experiment item","yes","FIN__BA__M21__7%3A10%3A17.osexp","C:\Users\ERP Testing Room\Desktop\Joanna\morph21","no","mono","no","18","no","white","no","yes","1080","legacy","47","47","C:/Users/ERP Testing Room/Desktop/Joanna/morph21/subject-173.csv","xpyriment","Kafkaesque Koffka","3.2.5","0","z","NA","NA","NA","NA","space","z","789","NA","NA","NA","NA","241241","789","2","legacy","1024","2","48000","-16","BA_m21","173","odd","FILL_NW","BUWL","1897","419213","416012","417705","243150","NA","NA","NA","NA","417702","416509","NA","415512","NA","415505","417702","1908","419463","NA","NA","416713","1898","1898","417105","415505","1898","416713","419463","morph21_Oliver/Morris","36","38317","48","yes","1280","9"
"250","75.5102040816","75.5102040816","798.734693878","798.734693878","black","no","xpyriment","legacy","legacy","0","204","NA","uniform","59155","1000","0.0169047417801","1","undefined","1","0","48","48","48","0","48","48","48","NA","48","48","0","48","NA","48","48","0","48","NA","48","NA","48","0","0","48","48","0","48","48","49","z","04/23/19 12:43:41","The main experiment item","yes","FIN__BA__M21__7%3A10%3A17.osexp","C:\Users\ERP Testing Room\Desktop\Joanna\morph21","no","mono","no","18","no","white","no","yes","1080","legacy","48","48","C:/Users/ERP Testing Room/Desktop/Joanna/morph21/subject-173.csv","xpyriment","Kafkaesque Koffka","3.2.5","0","z","NA","NA","NA","NA","space","z","821","NA","NA","NA","NA","241241","821","2","legacy","1024","2","48000","-16","BA_m21","173","odd","NW_L_COMP","TRIPADY","1897","422288","420597","417705","243150","NA","NA","NA","NA","422281","421094","NA","420097","NA","420092","422281","1908","422538","NA","NA","421288","1898","1898","421680","420092","1898","421288","422538","morph21_Oliver/Morris","37","39138","49","yes","1280","2"
"300","74","74","802.64","802.64","black","no","xpyriment","legacy","legacy","0","204","NA","uniform","57019","1000","0.0175380136446","0","undefined","0","0","49","49","49","0","49","49","49","NA","49","49","0","49","NA","49","49","0","49","NA","49","NA","49","0","0","49","49","0","49","49","50","z","04/23/19 12:43:41","The main experiment item","yes","FIN__BA__M21__7%3A10%3A17.osexp","C:\Users\ERP Testing Room\Desktop\Joanna\morph21","no","mono","no","18","no","white","no","yes","1080","legacy","49","49","C:/Users/ERP Testing Room/Desktop/Joanna/morph21/subject-173.csv","xpyriment","Kafkaesque Koffka","3.2.5","0","None","NA","NA","NA","NA","space","None","994","NA","NA","NA","NA","241241","994","2","legacy","1024","2","48000","-16","BA_m21","173","odd","NW_L_COMP","FELLOWOES","1897","425397","423738","417705","243150","NA","NA","NA","NA","422281","424235","NA","423238","NA","423227","425391","1908","425697","NA","NA","424397","1898","1898","424788","423227","1898","424397","425697","morph21_Oliver/Morris","37","40132","50","yes","1280","17"
"350","74.5098039216","74.5098039216","798.215686275","798.215686275","black","no","xpyriment","legacy","legacy","0","201","NA","uniform","63644","1000","0.0157124002263","1","undefined","1","0","50","50","50","0","50","50","50","NA","50","50","0","50","NA","50","50","0","50","NA","50","NA","50","0","0","50","50","0","50","50","51","/","04/23/19 12:43:41","The main experiment item","yes","FIN__BA__M21__7%3A10%3A17.osexp","C:\Users\ERP Testing Room\Desktop\Joanna\morph21","no","mono","no","18","no","white","no","yes","1080","legacy","50","50","C:/Users/ERP Testing Room/Desktop/Joanna/morph21/subject-173.csv","xpyriment","Kafkaesque Koffka","3.2.5","0","/","NA","NA","NA","NA","space","/","577","NA","NA","NA","NA","241241","577","2","legacy","1024","2","48000","-16","BA_m21","173","odd","CW_S","TOASTER","1897","430080","426905","428572","243150","NA","NA","NA","NA","428568","427402","NA","426405","NA","426401","428568","1908","430430","NA","NA","427580","1898","1898","427972","426401","1898","427580","430430","morph21_Oliver/Morris","38","40709","51","yes","1280","10"
"400","73.0769230769","73.0769230769","798.75","798.75","black","no","xpyriment","legacy","legacy","0","204","NA","uniform","59975","1000","0.0166736140058","0","undefined","0","0","51","51","51","0","51","51","51","NA","51","51","0","51","NA","51","51","0","51","NA","51","NA","51","0","0","51","51","0","51","51","52","z","04/23/19 12:43:41","The main experiment item","yes","FIN__BA__M21__7%3A10%3A17.osexp","C:\Users\ERP Testing Room\Desktop\Joanna\morph21","no","mono","no","18","no","white","no","yes","1080","legacy","51","51","C:/Users/ERP Testing Room/Desktop/Joanna/morph21/subject-173.csv","xpyriment","Kafkaesque Koffka","3.2.5","0","/","NA","NA","NA","NA","space","/","826","NA","NA","NA","NA","241241","826","2","legacy","1024","2","48000","-16","BA_m21","173","odd","NW_L_COMP","BOIL","1897","433355","431664","428572","243150","NA","NA","NA","NA","428568","432161","NA","431164","NA","431158","433347","1908","433755","NA","NA","432355","1898","1898","432747","431158","1898","432355","433755","morph21_Oliver/Morris","38","41535","52","yes","1280","18"
"250","73.5849056604","73.5849056604","795.886792453","795.886792453","black","no","xpyriment","legacy","legacy","0","201","NA","uniform","62308","1000","0.0160493034602","1","undefined","1","0","52","52","52","0","52","52","52","NA","52","52","0","52","NA","52","52","0","52","NA","52","NA","52","0","0","52","52","0","52","52","53","/","04/23/19 12:43:41","The main experiment item","yes","FIN__BA__M21__7%3A10%3A17.osexp","C:\Users\ERP Testing Room\Desktop\Joanna\morph21","no","mono","no","18","no","white","no","yes","1080","legacy","52","52","C:/Users/ERP Testing Room/Desktop/Joanna/morph21/subject-173.csv","xpyriment","Kafkaesque Koffka","3.2.5","0","/","NA","NA","NA","NA","space","/","647","NA","NA","NA","NA","241241","647","2","legacy","1024","2","48000","-16","BA_m21","173","odd","CW_S","HUGELY","1897","436607","434940","428572","243150","NA","NA","NA","NA","436602","435437","NA","434431","NA","434427","436602","1908","436857","NA","NA","435607","1898","1898","436006","434427","1898","435606","436857","morph21_Oliver/Morris","39","42182","53","yes","1280","35"
"300","74.0740740741","74.0740740741","795.074074074","795.074074074","black","no","xpyriment","legacy","legacy","0","203","NA","uniform","60714","1000","0.0164706657443","1","undefined","1","0","53","53","53","0","53","53","53","NA","53","53","0","53","NA","53","53","0","53","NA","53","NA","53","0","0","53","53","0","53","53","54","z","04/23/19 12:43:41","The main experiment item","yes","FIN__BA__M21__7%3A10%3A17.osexp","C:\Users\ERP Testing Room\Desktop\Joanna\morph21","no","mono","no","18","no","white","no","yes","1080","legacy","53","53","C:/Users/ERP Testing Room/Desktop/Joanna/morph21/subject-173.csv","xpyriment","Kafkaesque Koffka","3.2.5","0","z","NA","NA","NA","NA","space","z","752","NA","NA","NA","NA","241241","752","2","legacy","1024","2","48000","-16","BA_m21","173","odd","NW_S_COMP","FIGEL","1897","441273","438115","439765","243150","NA","NA","NA","NA","439762","438612","NA","437615","NA","437610","439762","1908","441574","NA","NA","438773","1898","1898","439165","437610","1898","438773","441574","morph21_Oliver/Morris","40","42934","54","yes","1280","4"
"300","74.5454545455","74.5454545455","794.509090909","794.509090909","black","no","xpyriment","legacy","legacy","0","204","NA","uniform","61280","1000","0.016318537859","1","undefined","1","0","54","54","54","0","54","54","54","NA","54","54","0","54","NA","54","54","0","54","NA","54","NA","54","0","0","54","54","0","54","54","55","z","04/23/19 12:43:41","The main experiment item","yes","FIN__BA__M21__7%3A10%3A17.osexp","C:\Users\ERP Testing Room\Desktop\Joanna\morph21","no","mono","no","18","no","white","no","yes","1080","legacy","54","54","C:/Users/ERP Testing Room/Desktop/Joanna/morph21/subject-173.csv","xpyriment","Kafkaesque Koffka","3.2.5","0","z","NA","NA","NA","NA","space","z","764","NA","NA","NA","NA","241241","764","2","legacy","1024","2","48000","-16","BA_m21","173","odd","NW_L_COMP","ADDMANT","1897","444465","442757","439765","243150","NA","NA","NA","NA","444456","443254","NA","442257","NA","442251","444456","1908","444765","NA","NA","443465","1898","1898","443857","442251","1898","443465","444765","morph21_Oliver/Morris","41","43698","55","yes","1280","13"
"300","75","75","791.446428571","791.446428571","black","no","xpyriment","legacy","legacy","0","201","NA","uniform","65855","1000","0.0151848758636","1","undefined","1","0","55","55","55","0","55","55","55","NA","55","55","0","55","NA","55","55","0","55","NA","55","NA","55","0","0","55","55","0","55","55","56","/","04/23/19 12:43:41","The main experiment item","yes","FIN__BA__M21__7%3A10%3A17.osexp","C:\Users\ERP Testing Room\Desktop\Joanna\morph21","no","mono","no","18","no","white","no","yes","1080","legacy","55","55","C:/Users/ERP Testing Room/Desktop/Joanna/morph21/subject-173.csv","xpyriment","Kafkaesque Koffka","3.2.5","0","/","NA","NA","NA","NA","space","/","623","NA","NA","NA","NA","241241","623","2","legacy","1024","2","48000","-16","BA_m21","173","odd","CW_S","DESTROYER","1897","447582","445899","439765","243150","NA","NA","NA","NA","447578","446396","NA","445399","NA","445393","447578","1908","447882","NA","NA","446590","1898","1898","446982","445392","1898","446590","447882","morph21_Oliver/Morris","42","44321","56","yes","1280","14"
"300","73.6842105263","73.6842105263","788.210526316","788.210526316","black","no","xpyriment","legacy","legacy","0","208","NA","uniform","68406","1000","0.0146186007075","0","undefined","0","0","56","56","56","0","56","56","56","NA","56","56","0","56","NA","56","56","0","56","NA","56","NA","56","0","0","56","56","0","56","56","57","z","04/23/19 12:43:41","The main experiment item","yes","FIN__BA__M21__7%3A10%3A17.osexp","C:\Users\ERP Testing Room\Desktop\Joanna\morph21","no","mono","no","18","no","white","no","yes","1080","legacy","56","56","C:/Users/ERP Testing Room/Desktop/Joanna/morph21/subject-173.csv","xpyriment","Kafkaesque Koffka","3.2.5","0","/","NA","NA","NA","NA","space","/","607","NA","NA","NA","NA","241241","607","2","legacy","1024","2","48000","-16","BA_m21","173","odd","FILL_NW","SCURE","1897","452300","449057","450790","243150","NA","NA","NA","NA","447578","449554","NA","448557","NA","448547","450781","1908","452600","NA","NA","449790","1898","1898","450182","448547","1898","449790","452600","morph21_Oliver/Morris","42","44928","57","yes","1280","41"
"350","72.4137931034","72.4137931034","791.793103448","791.793103448","black","no","xpyriment","legacy","legacy","0","202","NA","uniform","54331","1000","0.0184056984042","0","undefined","0","0","57","57","57","0","57","57","57","NA","57","57","0","57","NA","57","57","0","57","NA","57","NA","57","0","0","57","57","0","57","57","58","/","04/23/19 12:43:41","The main experiment item","yes","FIN__BA__M21__7%3A10%3A17.osexp","C:\Users\ERP Testing Room\Desktop\Joanna\morph21","no","mono","no","18","no","white","no","yes","1080","legacy","57","57","C:/Users/ERP Testing Room/Desktop/Joanna/morph21/subject-173.csv","xpyriment","Kafkaesque Koffka","3.2.5","0","None","NA","NA","NA","NA","space","None","996","NA","NA","NA","NA","241241","996","2","legacy","1024","2","48000","-16","BA_m21","173","odd","CW_L","KICKING","1897","455375","453692","450790","243150","NA","NA","NA","NA","447578","454189","NA","453192","NA","453183","455371","1908","455725","NA","NA","454375","1898","1898","454775","453183","1898","454375","455725","morph21_Oliver/Morris","42","45924","58","yes","1280","23"
"300","71.186440678","71.186440678","795.152542373","795.152542373","black","no","xpyriment","legacy","legacy","0","205","NA","uniform","51675","1000","0.0193517174649","0","undefined","0","0","58","58","58","0","58","58","58","NA","58","58","0","58","NA","58","58","0","58","NA","58","NA","58","0","0","58","58","0","58","58","59","z","04/23/19 12:43:41","The main experiment item","yes","FIN__BA__M21__7%3A10%3A17.osexp","C:\Users\ERP Testing Room\Desktop\Joanna\morph21","no","mono","no","18","no","white","no","yes","1080","legacy","58","58","C:/Users/ERP Testing Room/Desktop/Joanna/morph21/subject-173.csv","xpyriment","Kafkaesque Koffka","3.2.5","0","None","NA","NA","NA","NA","space","None","990","NA","NA","NA","NA","241241","990","2","legacy","1024","2","48000","-16","BA_m21","173","odd","NW_S_SIMP","SOCKETER","1897","458750","457033","450790","243150","NA","NA","NA","NA","447578","457531","NA","456533","NA","456526","458740","1908","459050","NA","NA","457750","1898","1898","458142","456526","1898","457750","459050","morph21_Oliver/Morris","42","46914","59","yes","1280","1"
"300","70","70","798.383333333","798.383333333","black","no","xpyriment","legacy","legacy","0","205","NA","uniform","48930","1000","0.0204373594932","0","undefined","0","0","59","59","59","0","59","59","59","NA","59","59","0","59","NA","59","59","0","59","NA","59","NA","59","0","0","59","59","0","59","59","60","z","04/23/19 12:43:41","The main experiment item","yes","FIN__BA__M21__7%3A10%3A17.osexp","C:\Users\ERP Testing Room\Desktop\Joanna\morph21","no","mono","no","18","no","white","no","yes","1080","legacy","59","59","C:/Users/ERP Testing Room/Desktop/Joanna/morph21/subject-173.csv","xpyriment","Kafkaesque Koffka","3.2.5","0","None","NA","NA","NA","NA","space","None","989","NA","NA","NA","NA","241241","989","2","legacy","1024","2","48000","-16","BA_m21","173","odd","NW_S_SIMP","HELMETOUS","1897","463492","460267","461984","243150","NA","NA","NA","NA","447578","460764","NA","459759","NA","459754","461973","1908","463792","NA","NA","460984","1898","1898","461375","459754","1898","460984","463792","morph21_Oliver/Morris","42","47903","60","yes","1280","14"
"350","70.4918032787","70.4918032787","796.459016393","796.459016393","black","no","xpyriment","legacy","legacy","0","202","NA","uniform","63165","1000","0.0158315522837","1","undefined","1","0","60","60","60","0","60","60","60","NA","60","60","0","60","NA","60","60","0","60","NA","60","NA","60","0","0","60","60","0","60","60","61","/","04/23/19 12:43:41","The main experiment item","yes","FIN__BA__M21__7%3A10%3A17.osexp","C:\Users\ERP Testing Room\Desktop\Joanna\morph21","no","mono","no","18","no","white","no","yes","1080","legacy","60","60","C:/Users/ERP Testing Room/Desktop/Joanna/morph21/subject-173.csv","xpyriment","Kafkaesque Koffka","3.2.5","0","/","NA","NA","NA","NA","space","/","681","NA","NA","NA","NA","241241","681","2","legacy","1024","2","48000","-16","BA_m21","173","odd","CW_L","BOMBER","1897","466684","464975","461984","243150","NA","NA","NA","NA","466674","465473","NA","464475","NA","464469","466674","1908","467034","NA","NA","465684","1898","1898","466075","464469","1898","465684","467034","morph21_Oliver/Morris","43","48584","61","yes","1280","7"
"400","70.9677419355","70.9677419355","797.370967742","797.370967742","black","no","xpyriment","legacy","legacy","0","201","NA","uniform","58210","1000","0.0171791788353","1","undefined","1","0","61","61","61","0","61","61","61","NA","61","61","0","61","NA","61","61","0","61","NA","61","NA","61","0","0","61","61","0","61","61","62","/","04/23/19 12:43:41","The main experiment item","yes","FIN__BA__M21__7%3A10%3A17.osexp","C:\Users\ERP Testing Room\Desktop\Joanna\morph21","no","mono","no","18","no","white","no","yes","1080","legacy","61","61","C:/Users/ERP Testing Room/Desktop/Joanna/morph21/subject-173.csv","xpyriment","Kafkaesque Koffka","3.2.5","0","/","NA","NA","NA","NA","space","/","853","NA","NA","NA","NA","241241","853","2","legacy","1024","2","48000","-16","BA_m21","173","odd","CW_S","DIETARY","1897","469993","468301","461984","243150","NA","NA","NA","NA","469983","468798","NA","467801","NA","467789","469983","1908","470393","NA","NA","468993","1898","1898","469385","467789","1898","468993","470393","morph21_Oliver/Morris","44","49437","62","yes","1280","6"
"350","69.8412698413","69.8412698413","800.523809524","800.523809524","black","no","xpyriment","legacy","legacy","0","203","NA","uniform","57606","1000","0.0173593028504","0","undefined","0","0","62","62","62","0","62","62","62","NA","62","62","0","62","NA","62","62","0","62","NA","62","NA","62","0","0","62","62","0","62","62","63","z","04/23/19 12:43:41","The main experiment item","yes","FIN__BA__M21__7%3A10%3A17.osexp","C:\Users\ERP Testing Room\Desktop\Joanna\morph21","no","mono","no","18","no","white","no","yes","1080","legacy","62","62","C:/Users/ERP Testing Room/Desktop/Joanna/morph21/subject-173.csv","xpyriment","Kafkaesque Koffka","3.2.5","0","None","NA","NA","NA","NA","space","None","996","NA","NA","NA","NA","241241","996","2","legacy","1024","2","48000","-16","BA_m21","173","odd","NW_S_COMP","FIENDILM","1897","474719","471535","473210","243150","NA","NA","NA","NA","469983","472032","NA","471035","NA","471028","473206","1908","475069","NA","NA","472210","1898","1898","472610","471028","1898","472210","475069","morph21_Oliver/Morris","44","50433","63","yes","1280","24"
"200","70.3125","70.3125","799.75","799.75","black","no","xpyriment","legacy","legacy","0","203","NA","uniform","58180","1000","0.0171880371262","1","undefined","1","0","63","63","63","0","63","63","63","NA","63","63","0","63","NA","63","63","0","63","NA","63","NA","63","0","0","63","63","0","63","63","64","z","04/23/19 12:43:41","The main experiment item","yes","FIN__BA__M21__7%3A10%3A17.osexp","C:\Users\ERP Testing Room\Desktop\Joanna\morph21","no","mono","no","18","no","white","no","yes","1080","legacy","63","63","C:/Users/ERP Testing Room/Desktop/Joanna/morph21/subject-173.csv","xpyriment","Kafkaesque Koffka","3.2.5","0","z","NA","NA","NA","NA","space","z","751","NA","NA","NA","NA","241241","751","2","legacy","1024","2","48000","-16","BA_m21","173","odd","NW_S_COMP","YANKODY","1897","477902","476210","473210","243150","NA","NA","NA","NA","477893","476707","NA","475710","NA","475706","477893","1908","478102","NA","NA","476902","1898","1898","477294","475706","1898","476902","478102","morph21_Oliver/Morris","45","51184","64","yes","1280","23"
"350","69.2307692308","69.2307692308","802.707692308","802.707692308","black","no","xpyriment","legacy","legacy","0","206","NA","uniform","48973","1000","0.0204194147796","0","undefined","0","0","64","64","64","0","64","64","64","NA","64","64","0","64","NA","64","64","0","64","NA","64","NA","64","0","0","64","64","0","64","64","65","z","04/23/19 12:43:41","The main experiment item","yes","FIN__BA__M21__7%3A10%3A17.osexp","C:\Users\ERP Testing Room\Desktop\Joanna\morph21","no","mono","no","18","no","white","no","yes","1080","legacy","64","64","C:/Users/ERP Testing Room/Desktop/Joanna/morph21/subject-173.csv","xpyriment","Kafkaesque Koffka","3.2.5","0","None","NA","NA","NA","NA","space","None","992","NA","NA","NA","NA","241241","992","2","legacy","1024","2","48000","-16","BA_m21","173","odd","NW_L_SIMP","WITCHISH","1897","480977","479277","473210","243150","NA","NA","NA","NA","477893","479774","NA","478777","NA","478768","480969","1908","481327","NA","NA","479977","1898","1898","480369","478768","1898","479977","481327","morph21_Oliver/Morris","45","52176","65","yes","1280","11"
"200","69.696969697","69.696969697","801.439393939","801.439393939","black","no","xpyriment","legacy","legacy","0","207","NA","uniform","62700","1000","0.0159489633174","1","undefined","1","0","65","65","65","0","65","65","65","NA","65","65","0","65","NA","65","65","0","65","NA","65","NA","65","0","0","65","65","0","65","65","66","/","04/23/19 12:43:41","The main experiment item","yes","FIN__BA__M21__7%3A10%3A17.osexp","C:\Users\ERP Testing Room\Desktop\Joanna\morph21","no","mono","no","18","no","white","no","yes","1080","legacy","65","65","C:/Users/ERP Testing Room/Desktop/Joanna/morph21/subject-173.csv","xpyriment","Kafkaesque Koffka","3.2.5","0","/","NA","NA","NA","NA","space","/","719","NA","NA","NA","NA","241241","719","2","legacy","1024","2","48000","-16","BA_m21","173","odd","FILL_W","FLESH","1897","485794","482627","484286","243150","NA","NA","NA","NA","484280","483124","NA","482127","NA","482122","484280","1908","485994","NA","NA","483286","1898","1898","483677","482122","1898","483286","485994","morph21_Oliver/Morris","46","52895","66","yes","1280","32"
"350","70.1492537313","70.1492537313","802.373134328","802.373134328","black","no","xpyriment","legacy","legacy","0","201","NA","uniform","56552","1000","0.0176828405715","1","undefined","1","0","66","66","66","0","66","66","66","NA","66","66","0","66","NA","66","66","0","66","NA","66","NA","66","0","0","66","66","0","66","66","67","/","04/23/19 12:43:41","The main experiment item","yes","FIN__BA__M21__7%3A10%3A17.osexp","C:\Users\ERP Testing Room\Desktop\Joanna\morph21","no","mono","no","18","no","white","no","yes","1080","legacy","66","66","C:/Users/ERP Testing Room/Desktop/Joanna/morph21/subject-173.csv","xpyriment","Kafkaesque Koffka","3.2.5","0","/","NA","NA","NA","NA","space","/","864","NA","NA","NA","NA","241241","864","2","legacy","1024","2","48000","-16","BA_m21","173","odd","CW_S","DULLNESS","1897","488878","487195","484286","243150","NA","NA","NA","NA","488870","487692","NA","486695","NA","486688","488870","1908","489229","NA","NA","487878","1898","1898","488270","486688","1898","487878","489229","morph21_Oliver/Morris","47","53759","67","yes","1280","43"
"400","69.1176470588","69.1176470588","799.338235294","799.338235294","black","no","xpyriment","legacy","legacy","0","204","NA","uniform","61398","1000","0.016287175478","0","undefined","0","0","67","67","67","0","67","67","67","NA","67","67","0","67","NA","67","67","0","67","NA","67","NA","67","0","0","67","67","0","67","67","68","z","04/23/19 12:43:41","The main experiment item","yes","FIN__BA__M21__7%3A10%3A17.osexp","C:\Users\ERP Testing Room\Desktop\Joanna\morph21","no","mono","no","18","no","white","no","yes","1080","legacy","67","67","C:/Users/ERP Testing Room/Desktop/Joanna/morph21/subject-173.csv","xpyriment","Kafkaesque Koffka","3.2.5","0","/","NA","NA","NA","NA","space","/","596","NA","NA","NA","NA","241241","596","2","legacy","1024","2","48000","-16","BA_m21","173","odd","NW_L_COMP","PASSMANT","1897","492129","490412","484286","243150","NA","NA","NA","NA","488870","490909","NA","489912","NA","489901","492124","1908","492529","NA","NA","491137","1898","1898","491529","489901","1898","491137","492529","morph21_Oliver/Morris","47","54355","68","yes","1280","14"
"250","69.5652173913","69.5652173913","798.304347826","798.304347826","black","no","xpyriment","legacy","legacy","0","208","NA","uniform","61812","1000","0.0161780883971","1","undefined","1","0","68","68","68","0","68","68","68","NA","68","68","0","68","NA","68","68","0","68","NA","68","NA","68","0","0","68","68","0","68","68","69","z","04/23/19 12:43:41","The main experiment item","yes","FIN__BA__M21__7%3A10%3A17.osexp","C:\Users\ERP Testing Room\Desktop\Joanna\morph21","no","mono","no","18","no","white","no","yes","1080","legacy","68","68","C:/Users/ERP Testing Room/Desktop/Joanna/morph21/subject-173.csv","xpyriment","Kafkaesque Koffka","3.2.5","0","z","NA","NA","NA","NA","space","z","728","NA","NA","NA","NA","241241","728","2","legacy","1024","2","48000","-16","BA_m21","173","odd","FILL_NW","PLAODS","1897","496937","493712","495429","243150","NA","NA","NA","NA","495418","494209","NA","493212","NA","493205","495418","1908","497187","NA","NA","494429","1898","1898","494820","493205","1898","494429","497187","morph21_Oliver/Morris","48","55083","69","yes","1280","37"
"250","70","70","797.057142857","797.057142857","black","no","xpyriment","legacy","legacy","0","201","NA","uniform","65943","1000","0.0151646118618","1","undefined","1","0","69","69","69","0","69","69","69","NA","69","69","0","69","NA","69","69","0","69","NA","69","NA","69","0","0","69","69","0","69","69","70","/","04/23/19 12:43:41","The main experiment item","yes","FIN__BA__M21__7%3A10%3A17.osexp","C:\Users\ERP Testing Room\Desktop\Joanna\morph21","no","mono","no","18","no","white","no","yes","1080","legacy","69","69","C:/Users/ERP Testing Room/Desktop/Joanna/morph21/subject-173.csv","xpyriment","Kafkaesque Koffka","3.2.5","0","/","NA","NA","NA","NA","space","/","711","NA","NA","NA","NA","241241","711","2","legacy","1024","2","48000","-16","BA_m21","173","odd","CW_S","COSTLY","1897","500062","498404","495429","243150","NA","NA","NA","NA","500058","498901","NA","497904","NA","497897","500058","1908","500312","NA","NA","499062","1898","1898","499462","497897","1898","499062","500312","morph21_Oliver/Morris","49","55794","70","yes","1280","36"
"350","70.4225352113","70.4225352113","793.112676056","793.112676056","black","no","xpyriment","legacy","legacy","0","201","NA","uniform","73795","1000","0.0135510535944","1","undefined","1","0","70","70","70","0","70","70","70","NA","70","70","0","70","NA","70","70","0","70","NA","70","NA","70","0","0","70","70","0","70","70","71","/","04/23/19 12:43:41","The main experiment item","yes","FIN__BA__M21__7%3A10%3A17.osexp","C:\Users\ERP Testing Room\Desktop\Joanna\morph21","no","mono","no","18","no","white","no","yes","1080","legacy","70","70","C:/Users/ERP Testing Room/Desktop/Joanna/morph21/subject-173.csv","xpyriment","Kafkaesque Koffka","3.2.5","0","/","NA","NA","NA","NA","space","/","517","NA","NA","NA","NA","241241","517","2","legacy","1024","2","48000","-16","BA_m21","173","odd","CW_S","DENSELY","1897","503112","501429","495429","243150","NA","NA","NA","NA","503105","501926","NA","500929","NA","500919","503105","1908","503462","NA","NA","502112","1898","1898","502504","500919","1898","502112","503462","morph21_Oliver/Morris","50","56311","71","yes","1280","32"
"350","69.4444444444","69.4444444444","795.916666667","795.916666667","black","no","xpyriment","legacy","legacy","0","201","NA","uniform","52610","1000","0.0190077931952","0","undefined","0","0","71","71","71","0","71","71","71","NA","71","71","0","71","NA","71","71","0","71","NA","71","NA","71","0","0","71","71","0","71","71","72","/","04/23/19 12:43:41","The main experiment item","yes","FIN__BA__M21__7%3A10%3A17.osexp","C:\Users\ERP Testing Room\Desktop\Joanna\morph21","no","mono","no","18","no","white","no","yes","1080","legacy","71","71","C:/Users/ERP Testing Room/Desktop/Joanna/morph21/subject-173.csv","xpyriment","Kafkaesque Koffka","3.2.5","0","None","NA","NA","NA","NA","space","None","995","NA","NA","NA","NA","241241","995","2","legacy","1024","2","48000","-16","BA_m21","173","odd","CW_S","SINGER","1897","507755","504547","506247","243150","NA","NA","NA","NA","503105","505044","NA","504047","NA","504040","506242","1908","508105","NA","NA","505247","1898","1898","505647","504039","1898","505247","508105","morph21_Oliver/Morris","50","57306","72","yes","1280","17"
"350","69.8630136986","69.8630136986","796.849315068","796.849315068","black","no","xpyriment","legacy","legacy","0","202","NA","uniform","58308","1000","0.0171503052754","1","undefined","1","0","72","72","72","0","72","72","72","NA","72","72","0","72","NA","72","72","0","72","NA","72","NA","72","0","0","72","72","0","72","72","73","/","04/23/19 12:43:41","The main experiment item","yes","FIN__BA__M21__7%3A10%3A17.osexp","C:\Users\ERP Testing Room\Desktop\Joanna\morph21","no","mono","no","18","no","white","no","yes","1080","legacy","72","72","C:/Users/ERP Testing Room/Desktop/Joanna/morph21/subject-173.csv","xpyriment","Kafkaesque Koffka","3.2.5","0","/","NA","NA","NA","NA","space","/","864","NA","NA","NA","NA","241241","864","2","legacy","1024","2","48000","-16","BA_m21","173","odd","CW_L","GUARDING","1897","510989","509314","506247","243150","NA","NA","NA","NA","510979","509811","NA","508814","NA","508808","510979","1908","511339","NA","NA","509989","1898","1898","510380","508808","1898","509989","511339","morph21_Oliver/Morris","51","58170","73","yes","1280","26"
"200","70.2702702703","70.2702702703","793.743243243","793.743243243","black","no","xpyriment","legacy","legacy","0","207","NA","uniform","73961","1000","0.0135206392558","1","undefined","1","0","73","73","73","0","73","73","73","NA","73","73","0","73","NA","73","73","0","73","NA","73","NA","73","0","0","73","73","0","73","73","74","/","04/23/19 12:43:41","The main experiment item","yes","FIN__BA__M21__7%3A10%3A17.osexp","C:\Users\ERP Testing Room\Desktop\Joanna\morph21","no","mono","no","18","no","white","no","yes","1080","legacy","73","73","C:/Users/ERP Testing Room/Desktop/Joanna/morph21/subject-173.csv","xpyriment","Kafkaesque Koffka","3.2.5","0","/","NA","NA","NA","NA","space","/","567","NA","NA","NA","NA","241241","567","2","legacy","1024","2","48000","-16","BA_m21","173","odd","FILL_W","LEGAL","1897","514214","512514","506247","243150","NA","NA","NA","NA","514210","513011","NA","512014","NA","512008","514210","1908","514414","NA","NA","513214","1898","1898","513614","512008","1898","513214","514414","morph21_Oliver/Morris","52","58737","74","yes","1280","35"
"350","70.6666666667","70.6666666667","791.2","791.2","black","no","xpyriment","legacy","legacy","0","207","NA","uniform","61513","1000","0.0162567262205","undefined","undefined","1","0","74","74","74","0","74","74","74","NA","74","74","0","74","NA","74","74","0","74","NA","74","NA","74","0","0","74","74","0","74","74","75","/","04/23/19 12:43:41","The main experiment item","yes","FIN__BA__M21__7%3A10%3A17.osexp","C:\Users\ERP Testing Room\Desktop\Joanna\morph21","no","mono","no","18","no","white","no","yes","1080","legacy","74","74","C:/Users/ERP Testing Room/Desktop/Joanna/morph21/subject-173.csv","xpyriment","Kafkaesque Koffka","3.2.5","0","space","space","NA","NA","NA","space","/","31640","31640","NA","NA","NA","241241","603","2","legacy","1024","2","48000","-16","BA_m21","173","odd","FILL_W","LIFT","1897","518822","515606","517314","243150","519181","NA","NA","NA","517311","516103","NA","515106","NA","515098","517311","1908","550822","NA","NA","516322","1898","1898","516714","515098","1898","516322","519173","morph21_Oliver/Morris","53","59340","75","yes","1280","39"
"350","71.0526315789","71.0526315789","791.552631579","791.552631579","black","no","xpyriment","legacy","legacy","0","208","NA","uniform","59101","1000","0.0169201874757","1","undefined","1","0","75","75","75","0","75","75","75","NA","75","75","0","75","NA","75","75","0","75","NA","75","NA","75","0","0","75","75","0","75","75","76","z","04/23/19 12:43:41","The main experiment item","yes","FIN__BA__M21__7%3A10%3A17.osexp","C:\Users\ERP Testing Room\Desktop\Joanna\morph21","no","mono","no","18","no","white","no","yes","1080","legacy","75","75","C:/Users/ERP Testing Room/Desktop/Joanna/morph21/subject-173.csv","xpyriment","Kafkaesque Koffka","3.2.5","0","z","space","NA","NA","NA","space","z","818","31640","NA","NA","NA","241241","818","2","legacy","1024","2","48000","-16","BA_m21","173","odd","FILL_NW","DELP","1897","553659","551934","517314","243150","519181","NA","NA","NA","553653","552431","NA","551434","NA","551426","553653","1908","554009","NA","NA","552659","1898","1898","553051","551426","1898","552659","554009","morph21_Oliver/Morris","54","60158","76","yes","1280","14"
"200","71.4285714286","71.4285714286","790.467532468","790.467532468","black","no","xpyriment","legacy","legacy","0","208","NA","uniform","68459","1000","0.0146072831914","1","undefined","1","0","76","76","76","0","76","76","76","NA","76","76","0","76","NA","76","76","0","76","NA","76","NA","76","0","0","76","76","0","76","76","77","z","04/23/19 12:43:41","The main experiment item","yes","FIN__BA__M21__7%3A10%3A17.osexp","C:\Users\ERP Testing Room\Desktop\Joanna\morph21","no","mono","no","18","no","white","no","yes","1080","legacy","76","76","C:/Users/ERP Testing Room/Desktop/Joanna/morph21/subject-173.csv","xpyriment","Kafkaesque Koffka","3.2.5","0","z","space","NA","NA","NA","space","z","708","31640","NA","NA","NA","241241","708","2","legacy","1024","2","48000","-16","BA_m21","173","odd","FILL_NW","DARM","1897","557002","555293","517314","243150","519181","NA","NA","NA","556993","555790","NA","554793","NA","554786","556993","1908","557202","NA","NA","556002","1898","1898","556394","554786","1898","556002","557202","morph21_Oliver/Morris","55","60866","77","yes","1280","11"
"400","71.7948717949","71.7948717949","786.807692308","786.807692308","black","no","xpyriment","legacy","legacy","0","202","NA","uniform","65222","1000","0.0153322498543","1","undefined","1","0","77","77","77","0","77","77","77","NA","77","77","0","77","NA","77","77","0","77","NA","77","NA","77","0","0","77","77","0","77","77","78","/","04/23/19 12:43:41","The main experiment item","yes","FIN__BA__M21__7%3A10%3A17.osexp","C:\Users\ERP Testing Room\Desktop\Joanna\morph21","no","mono","no","18","no","white","no","yes","1080","legacy","77","77","C:/Users/ERP Testing Room/Desktop/Joanna/morph21/subject-173.csv","xpyriment","Kafkaesque Koffka","3.2.5","0","/","space","NA","NA","NA","space","/","505","31640","NA","NA","NA","241241","505","2","legacy","1024","2","48000","-16","BA_m21","173","odd","CW_L","QUIETLY","1897","561594","558394","560085","243150","519181","NA","NA","NA","560078","558891","NA","557885","NA","557875","560078","1908","561994","NA","NA","559085","1898","1898","559477","557875","1898","559085","561994","morph21_Oliver/Morris","56","61371","78","yes","1280","36"
"200","72.1518987342","72.1518987342","783.670886076","783.670886076","black","no","xpyriment","legacy","legacy","0","201","NA","uniform","67368","1000","0.014843842774","1","undefined","1","0","78","78","78","0","78","78","78","NA","78","78","0","78","NA","78","78","0","78","NA","78","NA","78","0","0","78","78","0","78","78","79","/","04/23/19 12:43:41","The main experiment item","yes","FIN__BA__M21__7%3A10%3A17.osexp","C:\Users\ERP Testing Room\Desktop\Joanna\morph21","no","mono","no","18","no","white","no","yes","1080","legacy","78","78","C:/Users/ERP Testing Room/Desktop/Joanna/morph21/subject-173.csv","xpyriment","Kafkaesque Koffka","3.2.5","0","/","space","NA","NA","NA","space","/","539","31640","NA","NA","NA","241241","539","2","legacy","1024","2","48000","-16","BA_m21","173","odd","CW_S","THRUSTER","1897","564802","563144","560085","243150","519181","NA","NA","NA","564792","563641","NA","562644","NA","562640","564792","1908","565002","NA","NA","563802","1898","1898","564194","562640","1898","563802","565002","morph21_Oliver/Morris","57","61910","79","yes","1280","24"
"350","72.5","72.5","781.175","781.175","black","no","xpyriment","legacy","legacy","0","207","NA","uniform","63844","1000","0.0156631789988","1","undefined","1","0","79","79","79","0","79","79","79","NA","79","79","0","79","NA","79","79","0","79","NA","79","NA","79","0","0","79","79","0","79","79","80","/","04/23/19 12:43:41","The main experiment item","yes","FIN__BA__M21__7%3A10%3A17.osexp","C:\Users\ERP Testing Room\Desktop\Joanna\morph21","no","mono","no","18","no","white","no","yes","1080","legacy","79","79","C:/Users/ERP Testing Room/Desktop/Joanna/morph21/subject-173.csv","xpyriment","Kafkaesque Koffka","3.2.5","0","/","space","NA","NA","NA","space","/","584","31640","NA","NA","NA","241241","584","2","legacy","1024","2","48000","-16","BA_m21","173","odd","FILL_W","LEAK","1897","567869","566136","560085","243150","519181","NA","NA","NA","567859","566633","NA","565628","NA","565620","567859","1908","568219","NA","NA","566869","1898","1898","567261","565620","1898","566869","568219","morph21_Oliver/Morris","58","62494","80","yes","1280","9"
"250","72.8395061728","72.8395061728","780.641975309","780.641975309","black","no","xpyriment","legacy","legacy","0","204","NA","uniform","59854","1000","0.0167073211481","1","undefined","1","0","80","80","80","0","80","80","80","NA","80","80","0","80","NA","80","80","0","80","NA","80","NA","80","0","0","80","80","0","80","80","81","z","04/23/19 12:43:41","The main experiment item","yes","FIN__BA__M21__7%3A10%3A17.osexp","C:\Users\ERP Testing Room\Desktop\Joanna\morph21","no","mono","no","18","no","white","no","yes","1080","legacy","80","80","C:/Users/ERP Testing Room/Desktop/Joanna/morph21/subject-173.csv","xpyriment","Kafkaesque Koffka","3.2.5","0","z","space","NA","NA","NA","space","z","738","31640","NA","NA","NA","241241","738","2","legacy","1024","2","48000","-16","BA_m21","173","odd","NW_L_COMP","BREAKIDY","1897","572511","569336","571003","243150","519181","NA","NA","NA","570997","569833","NA","568836","NA","568825","570997","1908","572761","NA","NA","570003","1898","1898","570394","568825","1898","570003","572761","morph21_Oliver/Morris","59","63232","81","yes","1280","23"
"250","73.1707317073","73.1707317073","777.841463415","777.841463415","black","no","xpyriment","legacy","legacy","0","201","NA","uniform","64165","1000","0.0155848203849","1","undefined","1","0","81","81","81","0","81","81","81","NA","81","81","0","81","NA","81","81","0","81","NA","81","NA","81","0","0","81","81","0","81","81","82","/","04/23/19 12:43:41","The main experiment item","yes","FIN__BA__M21__7%3A10%3A17.osexp","C:\Users\ERP Testing Room\Desktop\Joanna\morph21","no","mono","no","18","no","white","no","yes","1080","legacy","81","81","C:/Users/ERP Testing Room/Desktop/Joanna/morph21/subject-173.csv","xpyriment","Kafkaesque Koffka","3.2.5","0","/","space","NA","NA","NA","space","/","551","31640","NA","NA","NA","241241","551","2","legacy","1024","2","48000","-16","BA_m21","173","odd","CW_S","PLANNER","1897","575679","574004","571003","243150","519181","NA","NA","NA","575672","574501","NA","573504","NA","573492","575672","1908","575929","NA","NA","574679","1898","1898","575070","573492","1898","574679","575929","morph21_Oliver/Morris","60","63783","82","yes","1280","22"
"250","73.4939759036","73.4939759036","777.024096386","777.024096386","black","no","xpyriment","legacy","legacy","0","208","NA","uniform","62552","1000","0.0159866990664","1","undefined","1","0","82","82","82","0","82","82","82","NA","82","82","0","82","NA","82","82","0","82","NA","82","NA","82","0","0","82","82","0","82","82","83","z","04/23/19 12:43:41","The main experiment item","yes","FIN__BA__M21__7%3A10%3A17.osexp","C:\Users\ERP Testing Room\Desktop\Joanna\morph21","no","mono","no","18","no","white","no","yes","1080","legacy","82","82","C:/Users/ERP Testing Room/Desktop/Joanna/morph21/subject-173.csv","xpyriment","Kafkaesque Koffka","3.2.5","0","z","space","NA","NA","NA","space","z","710","31640","NA","NA","NA","241241","710","2","legacy","1024","2","48000","-16","BA_m21","173","odd","FILL_NW","LOLDS","1897","578704","577029","571003","243150","519181","NA","NA","NA","578696","577526","NA","576529","NA","576520","578696","1908","578954","NA","NA","577704","1898","1898","578096","576520","1898","577704","578954","morph21_Oliver/Morris","61","64493","83","yes","1280","34"
"350","73.8095238095","73.8095238095","777.69047619","777.69047619","black","no","xpyriment","legacy","legacy","0","208","NA","uniform","56469","1000","0.0177088313942","1","undefined","1","0","83","83","83","0","83","83","83","NA","83","83","0","83","NA","83","83","0","83","NA","83","NA","83","0","0","83","83","0","83","83","84","z","04/23/19 12:43:41","The main experiment item","yes","FIN__BA__M21__7%3A10%3A17.osexp","C:\Users\ERP Testing Room\Desktop\Joanna\morph21","no","mono","no","18","no","white","no","yes","1080","legacy","83","83","C:/Users/ERP Testing Room/Desktop/Joanna/morph21/subject-173.csv","xpyriment","Kafkaesque Koffka","3.2.5","0","z","space","NA","NA","NA","space","z","833","31640","NA","NA","NA","241241","833","2","legacy","1024","2","48000","-16","BA_m21","173","odd","FILL_NW","DARF","1897","583304","580112","581796","243150","519181","NA","NA","NA","581788","580609","NA","579612","NA","579606","581788","1908","583654","NA","NA","580796","1898","1898","581187","579606","1898","580796","583654","morph21_Oliver/Morris","62","65326","84","yes","1280","10"
"250","74.1176470588","74.1176470588","777.164705882","777.164705882","black","no","xpyriment","legacy","legacy","0","207","NA","uniform","67794","1000","0.0147505678969","1","undefined","1","0","84","84","84","0","84","84","84","NA","84","84","0","84","NA","84","84","0","84","NA","84","NA","84","0","0","84","84","0","84","84","85","/","04/23/19 12:43:41","The main experiment item","yes","FIN__BA__M21__7%3A10%3A17.osexp","C:\Users\ERP Testing Room\Desktop\Joanna\morph21","no","mono","no","18","no","white","no","yes","1080","legacy","84","84","C:/Users/ERP Testing Room/Desktop/Joanna/morph21/subject-173.csv","xpyriment","Kafkaesque Koffka","3.2.5","0","/","space","NA","NA","NA","space","/","733","31640","NA","NA","NA","241241","733","2","legacy","1024","2","48000","-16","BA_m21","173","odd","FILL_W","TASTE","1897","586504","584829","581796","243150","519181","NA","NA","NA","586494","585326","NA","584329","NA","584319","586494","1908","586754","NA","NA","585504","1898","1898","585896","584319","1898","585504","586754","morph21_Oliver/Morris","63","66059","85","yes","1280","34"
"350","74.4186046512","74.4186046512","775.034883721","775.034883721","black","no","xpyriment","legacy","legacy","0","201","NA","uniform","70043","1000","0.0142769441629","1","undefined","1","0","85","85","85","0","85","85","85","NA","85","85","0","85","NA","85","85","0","85","NA","85","NA","85","0","0","85","85","0","85","85","86","/","04/23/19 12:43:41","The main experiment item","yes","FIN__BA__M21__7%3A10%3A17.osexp","C:\Users\ERP Testing Room\Desktop\Joanna\morph21","no","mono","no","18","no","white","no","yes","1080","legacy","85","85","C:/Users/ERP Testing Room/Desktop/Joanna/morph21/subject-173.csv","xpyriment","Kafkaesque Koffka","3.2.5","0","/","space","NA","NA","NA","space","/","594","31640","NA","NA","NA","241241","594","2","legacy","1024","2","48000","-16","BA_m21","173","odd","CW_S","STRANGENESS","1897","589763","588088","581796","243150","519181","NA","NA","NA","589752","588585","NA","587588","NA","587577","589752","1908","590113","NA","NA","588763","1898","1898","589154","587577","1898","588763","590113","morph21_Oliver/Morris","64","66653","86","yes","1280","46"
"250","74.7126436782","74.7126436782","771.816091954","771.816091954","black","no","xpyriment","legacy","legacy","0","202","NA","uniform","76291","1000","0.0131077060204","1","undefined","1","0","86","86","86","0","86","86","86","NA","86","86","0","86","NA","86","86","0","86","NA","86","NA","86","0","0","86","86","0","86","86","87","/","04/23/19 12:43:41","The main experiment item","yes","FIN__BA__M21__7%3A10%3A17.osexp","C:\Users\ERP Testing Room\Desktop\Joanna\morph21","no","mono","no","18","no","white","no","yes","1080","legacy","86","86","C:/Users/ERP Testing Room/Desktop/Joanna/morph21/subject-173.csv","xpyriment","Kafkaesque Koffka","3.2.5","0","/","space","NA","NA","NA","space","/","495","31640","NA","NA","NA","241241","495","2","legacy","1024","2","48000","-16","BA_m21","173","odd","CW_L","EXCITEMENT","1897","594539","591364","593031","243150","519181","NA","NA","NA","593026","591861","NA","590863","NA","590858","593026","1908","594789","NA","NA","592031","1898","1898","592431","590858","1898","592031","594789","morph21_Oliver/Morris","65","67148","87","yes","1280","38"
"400","75","75","768.954545455","768.954545455","black","no","xpyriment","legacy","legacy","0","207","NA","uniform","65203","1000","0.0153367176357","1","undefined","1","0","87","87","87","0","87","87","87","NA","87","87","0","87","NA","87","87","0","87","NA","87","NA","87","0","0","87","87","0","87","87","88","/","04/23/19 12:43:41","The main experiment item","yes","FIN__BA__M21__7%3A10%3A17.osexp","C:\Users\ERP Testing Room\Desktop\Joanna\morph21","no","mono","no","18","no","white","no","yes","1080","legacy","87","87","C:/Users/ERP Testing Room/Desktop/Joanna/morph21/subject-173.csv","xpyriment","Kafkaesque Koffka","3.2.5","0","/","space","NA","NA","NA","space","/","520","31640","NA","NA","NA","241241","520","2","legacy","1024","2","48000","-16","BA_m21","173","odd","FILL_W","CEASE","1897","597789","596056","593031","243150","519181","NA","NA","NA","597783","596553","NA","595556","NA","595551","597783","1908","598189","NA","NA","596789","1898","1898","597181","595551","1898","596789","598189","morph21_Oliver/Morris","66","67668","88","yes","1280","18"
"400","74.1573033708","74.1573033708","768.269662921","768.269662921","black","no","xpyriment","legacy","legacy","0","205","NA","uniform","60749","1000","0.0164611763157","0","undefined","0","0","88","88","88","0","88","88","88","NA","88","88","0","88","NA","88","88","0","88","NA","88","NA","88","0","0","88","88","0","88","88","89","z","04/23/19 12:43:41","The main experiment item","yes","FIN__BA__M21__7%3A10%3A17.osexp","C:\Users\ERP Testing Room\Desktop\Joanna\morph21","no","mono","no","18","no","white","no","yes","1080","legacy","88","88","C:/Users/ERP Testing Room/Desktop/Joanna/morph21/subject-173.csv","xpyriment","Kafkaesque Koffka","3.2.5","0","/","space","NA","NA","NA","space","/","708","31640","NA","NA","NA","241241","708","2","legacy","1024","2","48000","-16","BA_m21","173","odd","NW_S_SIMP","MEDICALARY","1897","601073","599364","593031","243150","519181","NA","NA","NA","597783","599861","NA","598864","NA","598857","601063","1908","601473","NA","NA","600073","1898","1898","600464","598857","1898","600073","601473","morph21_Oliver/Morris","66","68376","89","yes","1280","18"
"200","74.4444444444","74.4444444444","768.666666667","768.666666667","black","no","xpyriment","legacy","legacy","0","203","NA","uniform","54387","1000","0.0183867468329","1","undefined","1","0","89","89","89","0","89","89","89","NA","89","89","0","89","NA","89","89","0","89","NA","89","NA","89","0","0","89","89","0","89","89","90","z","04/23/19 12:43:41","The main experiment item","yes","FIN__BA__M21__7%3A10%3A17.osexp","C:\Users\ERP Testing Room\Desktop\Joanna\morph21","no","mono","no","18","no","white","no","yes","1080","legacy","89","89","C:/Users/ERP Testing Room/Desktop/Joanna/morph21/subject-173.csv","xpyriment","Kafkaesque Koffka","3.2.5","0","z","space","NA","NA","NA","space","z","804","31640","NA","NA","NA","241241","804","2","legacy","1024","2","48000","-16","BA_m21","173","odd","NW_S_COMP","FANFIL","1897","605989","602748","604481","243150","519181","NA","NA","NA","604475","603245","NA","602248","NA","602237","604475","1908","606190","NA","NA","603481","1898","1898","603873","602237","1898","603481","606190","morph21_Oliver/Morris","67","69180","90","yes","1280","6"
