"ITI","acc","accuracy","average_response_time","avg_rt","background","bidi","canvas_backend","clock_backend","color_backend","compensation","cond_trig","condtrigtime","coordinates","coroutines_cycles","coroutines_duration","coroutines_mean_cycle_duration","correct","correct_instructions_1","correct_new_keyboard_response_1","count_AB_m21","count_ITI","count_blank_screen","count_blink_screen","count_block1","count_break1","count_break2","count_break3_1","count_canvas","count_correct_trigger","count_def_chain","count_end_screen","count_fixation_1","count_getting_started","count_inc_counter","count_incorrect_trigger","count_instructions_1","count_logger","count_logscript","count_new_coroutines","count_new_inline_script","count_new_keyboard_response_1","count_reset_counter_prep","count_reset_counter_run","count_responsescreen","count_sequence","count_start_trigger","count_target_present","count_word_trigger","counter","cresp","datetime","description","disable_garbage_collection","experiment_file","experiment_path","font_bold","font_family","font_italic","font_size","font_underline","foreground","form_clicks","fullscreen","height","keyboard_backend","live_row","live_row_block1","logfile","mouse_backend","opensesame_codename","opensesame_version","repeat_cycle","response","response_break1","response_break2","response_break3_1","response_end_screen","response_instructions_1","response_new_keyboard_response_1","response_time","response_time_break1","response_time_break2","response_time_break3_1","response_time_end_screen","response_time_instructions_1","response_time_new_keyboard_response_1","round_decimals","sampler_backend","sound_buf_size","sound_channels","sound_freq","sound_sample_size","start","subject_nr","subject_parity","targ_type","target","time_AB_m21","time_ITI","time_blank_screen","time_blink_screen","time_block1","time_break1","time_break2","time_break3_1","time_canvas","time_correct_trigger","time_def_chain","time_end_screen","time_fixation_1","time_getting_started","time_inc_counter","time_incorrect_trigger","time_instructions_1","time_logger","time_logscript","time_new_inline_script","time_new_keyboard_response_1","time_reset_counter_prep","time_reset_counter_run","time_responsescreen","time_sequence","time_start_trigger","time_target_present","time_word_trigger","title","total_correct","total_response_time","total_responses","uniform_coordinates","width","word_trig"
"200","100","100","717","717","black","no","xpyriment","legacy","legacy","0","201","NA","uniform","63175","1000","0.0158290463","1","undefined","1","0","0","0","0","0","0","0","0","NA","0","0","0","0","NA","0","0","0","0","NA","0","NA","0","0","0","0","0","0","0","0","1","/","01/26/18 13:27:15","The main experiment item","yes","FIN__AB__M21__7%3A10%3A17.osexp","C:\Users\ERP Testing Room\Desktop\Joanna\morph21","no","mono","no","18","no","white","no","yes","1080","legacy","0","0","C:/Users/ERP Testing Room/Desktop/Joanna/morph21/subject-122.csv","xpyriment","Jazzy James","3.1.4","0","/","NA","NA","NA","NA","space","/","717","NA","NA","NA","NA","219062","717","2","legacy","1024","2","48000","-16","AB_m21","122","even","CW_S","ENJOYMENT","1388","223381","221789","NA","220459","NA","NA","NA","NA","223371","222286","NA","221286","NA","221214","223371","1397","223581","NA","NA","222381","1389","1389","222772","221214","1389","222381","223581","morph21_Oliver/Morris","1","717","1","yes","1280","40"
"350","100","100","556","556","black","no","xpyriment","legacy","legacy","0","201","NA","uniform","76550","1000","0.0130633572828","1","undefined","1","0","1","1","1","0","1","1","1","NA","1","1","0","1","NA","1","1","0","1","NA","1","NA","1","0","0","1","1","0","1","1","2","/","01/26/18 13:27:15","The main experiment item","yes","FIN__AB__M21__7%3A10%3A17.osexp","C:\Users\ERP Testing Room\Desktop\Joanna\morph21","no","mono","no","18","no","white","no","yes","1080","legacy","1","1","C:/Users/ERP Testing Room/Desktop/Joanna/morph21/subject-122.csv","xpyriment","Jazzy James","3.1.4","0","/","NA","NA","NA","NA","space","/","395","NA","NA","NA","NA","219062","395","2","legacy","1024","2","48000","-16","AB_m21","122","even","CW_S","DENSELY","1388","226448","224865","NA","220459","NA","NA","NA","NA","226440","225362","NA","224365","NA","224359","226440","1397","226798","NA","NA","225448","1389","1389","225840","224359","1389","225448","226798","morph21_Oliver/Morris","2","1112","2","yes","1280","32"
"200","66.6666666667","66.6666666667","702.333333333","702.333333333","black","no","xpyriment","legacy","legacy","0","203","NA","uniform","60425","1000","0.0165494414564","0","undefined","0","0","2","2","2","0","2","2","2","NA","2","2","0","2","NA","2","2","0","2","NA","2","NA","2","0","0","2","2","0","2","2","3","z","01/26/18 13:27:15","The main experiment item","yes","FIN__AB__M21__7%3A10%3A17.osexp","C:\Users\ERP Testing Room\Desktop\Joanna\morph21","no","mono","no","18","no","white","no","yes","1080","legacy","2","2","C:/Users/ERP Testing Room/Desktop/Joanna/morph21/subject-122.csv","xpyriment","Jazzy James","3.1.4","0","None","NA","NA","NA","NA","space","None","995","NA","NA","NA","NA","219062","995","2","legacy","1024","2","48000","-16","AB_m21","122","even","NW_S_COMP","ADOPTISH","1388","231182","228090","229674","220459","NA","NA","NA","NA","226440","228587","NA","227590","NA","227583","229669","1397","231382","NA","NA","228674","1389","1389","229074","227583","1389","228674","231382","morph21_Oliver/Morris","2","2107","3","yes","1280","19"
"250","75","75","655.5","655.5","black","no","xpyriment","legacy","legacy","0","207","NA","uniform","76020","1000","0.0131544330439","1","undefined","1","0","3","3","3","0","3","3","3","NA","3","3","0","3","NA","3","3","0","3","NA","3","NA","3","0","0","3","3","0","3","3","4","/","01/26/18 13:27:15","The main experiment item","yes","FIN__AB__M21__7%3A10%3A17.osexp","C:\Users\ERP Testing Room\Desktop\Joanna\morph21","no","mono","no","18","no","white","no","yes","1080","legacy","3","3","C:/Users/ERP Testing Room/Desktop/Joanna/morph21/subject-122.csv","xpyriment","Jazzy James","3.1.4","0","/","NA","NA","NA","NA","space","/","515","NA","NA","NA","NA","219062","515","2","legacy","1024","2","48000","-16","AB_m21","122","even","FILL_W","SLIM","1388","234224","232624","229674","220459","NA","NA","NA","NA","234220","233121","NA","232124","NA","232112","234220","1397","234474","NA","NA","233232","1389","1389","233624","232112","1389","233232","234474","morph21_Oliver/Morris","3","2622","4","yes","1280","6"
"200","80","80","671.4","671.4","black","no","xpyriment","legacy","legacy","0","202","NA","uniform","70500","1000","0.0141843971631","1","undefined","1","0","4","4","4","0","4","4","4","NA","4","4","0","4","NA","4","4","0","4","NA","4","NA","4","0","0","4","4","0","4","4","5","/","01/26/18 13:27:15","The main experiment item","yes","FIN__AB__M21__7%3A10%3A17.osexp","C:\Users\ERP Testing Room\Desktop\Joanna\morph21","no","mono","no","18","no","white","no","yes","1080","legacy","4","4","C:/Users/ERP Testing Room/Desktop/Joanna/morph21/subject-122.csv","xpyriment","Jazzy James","3.1.4","0","/","NA","NA","NA","NA","space","/","735","NA","NA","NA","NA","219062","735","2","legacy","1024","2","48000","-16","AB_m21","122","even","CW_L","COLLECTOR","1388","237324","235741","229674","220459","NA","NA","NA","NA","237321","236238","NA","235240","NA","235234","237321","1397","237524","NA","NA","236332","1389","1389","236724","235234","1389","236332","237524","morph21_Oliver/Morris","4","3357","5","yes","1280","46"
"300","66.6666666667","66.6666666667","724.666666667","724.666666667","black","no","xpyriment","legacy","legacy","0","201","NA","uniform","59710","1000","0.0167476134651","0","undefined","0","0","5","5","5","0","5","5","5","NA","5","5","0","5","NA","5","5","0","5","NA","5","NA","5","0","0","5","5","0","5","5","6","/","01/26/18 13:27:15","The main experiment item","yes","FIN__AB__M21__7%3A10%3A17.osexp","C:\Users\ERP Testing Room\Desktop\Joanna\morph21","no","mono","no","18","no","white","no","yes","1080","legacy","5","5","C:/Users/ERP Testing Room/Desktop/Joanna/morph21/subject-122.csv","xpyriment","Jazzy James","3.1.4","0","None","NA","NA","NA","NA","space","None","991","NA","NA","NA","NA","219062","991","2","legacy","1024","2","48000","-16","AB_m21","122","even","CW_S","MAGICAL","1388","241917","238799","240407","220459","NA","NA","NA","NA","237321","239296","NA","238299","NA","238290","240398","1397","242217","NA","NA","239407","1389","1389","239799","238290","1389","239407","242217","morph21_Oliver/Morris","4","4348","6","yes","1280","4"
"250","71.4285714286","71.4285714286","741.571428571","741.571428571","black","no","xpyriment","legacy","legacy","0","208","NA","uniform","68876","1000","0.0145188454614","1","undefined","1","0","6","6","6","0","6","6","6","NA","6","6","0","6","NA","6","6","0","6","NA","6","NA","6","0","0","6","6","0","6","6","7","z","01/26/18 13:27:15","The main experiment item","yes","FIN__AB__M21__7%3A10%3A17.osexp","C:\Users\ERP Testing Room\Desktop\Joanna\morph21","no","mono","no","18","no","white","no","yes","1080","legacy","6","6","C:/Users/ERP Testing Room/Desktop/Joanna/morph21/subject-122.csv","xpyriment","Jazzy James","3.1.4","0","z","NA","NA","NA","NA","space","z","843","NA","NA","NA","NA","219062","843","2","legacy","1024","2","48000","-16","AB_m21","122","even","FILL_NW","PIFTH","1388","245000","243400","240407","220459","NA","NA","NA","NA","244996","243897","NA","242900","NA","242893","244996","1397","245250","NA","NA","244000","1389","1389","244400","242893","1389","244000","245250","morph21_Oliver/Morris","5","5191","7","yes","1280","36"
"250","62.5","62.5","773","773","black","no","xpyriment","legacy","legacy","0","206","NA","uniform","59829","1000","0.0167143024286","0","undefined","0","0","7","7","7","0","7","7","7","NA","7","7","0","7","NA","7","7","0","7","NA","7","NA","7","0","0","7","7","0","7","7","8","z","01/26/18 13:27:15","The main experiment item","yes","FIN__AB__M21__7%3A10%3A17.osexp","C:\Users\ERP Testing Room\Desktop\Joanna\morph21","no","mono","no","18","no","white","no","yes","1080","legacy","7","7","C:/Users/ERP Testing Room/Desktop/Joanna/morph21/subject-122.csv","xpyriment","Jazzy James","3.1.4","0","None","NA","NA","NA","NA","space","None","993","NA","NA","NA","NA","219062","993","2","legacy","1024","2","48000","-16","AB_m21","122","even","NW_L_SIMP","BEARILT","1388","248125","246534","240407","220459","NA","NA","NA","NA","244996","247031","NA","246034","NA","246027","248118","1397","248375","NA","NA","247125","1389","1389","247517","246027","1389","247125","248375","morph21_Oliver/Morris","5","6184","8","yes","1280","25"
"250","66.6666666667","66.6666666667","758.777777778","758.777777778","black","no","xpyriment","legacy","legacy","0","201","NA","uniform","73190","1000","0.0136630687252","1","undefined","1","0","8","8","8","0","8","8","8","NA","8","8","0","8","NA","8","8","0","8","NA","8","NA","8","0","0","8","8","0","8","8","9","/","01/26/18 13:27:15","The main experiment item","yes","FIN__AB__M21__7%3A10%3A17.osexp","C:\Users\ERP Testing Room\Desktop\Joanna\morph21","no","mono","no","18","no","white","no","yes","1080","legacy","8","8","C:/Users/ERP Testing Room/Desktop/Joanna/morph21/subject-122.csv","xpyriment","Jazzy James","3.1.4","0","/","NA","NA","NA","NA","space","/","645","NA","NA","NA","NA","219062","645","2","legacy","1024","2","48000","-16","AB_m21","122","even","CW_S","PLANNER","1388","252651","249559","251142","220459","NA","NA","NA","NA","251137","250056","NA","249059","NA","249055","251137","1397","252901","NA","NA","250142","1389","1389","250542","249055","1389","250142","252901","morph21_Oliver/Morris","6","6829","9","yes","1280","22"
"400","70","70","748.2","748.2","black","no","xpyriment","legacy","legacy","0","201","NA","uniform","74733","1000","0.0133809695851","1","undefined","1","0","9","9","9","0","9","9","9","NA","9","9","0","9","NA","9","9","0","9","NA","9","NA","9","0","0","9","9","0","9","9","10","/","01/26/18 13:27:15","The main experiment item","yes","FIN__AB__M21__7%3A10%3A17.osexp","C:\Users\ERP Testing Room\Desktop\Joanna\morph21","no","mono","no","18","no","white","no","yes","1080","legacy","9","9","C:/Users/ERP Testing Room/Desktop/Joanna/morph21/subject-122.csv","xpyriment","Jazzy James","3.1.4","0","/","NA","NA","NA","NA","space","/","653","NA","NA","NA","NA","219062","653","2","legacy","1024","2","48000","-16","AB_m21","122","even","CW_S","ALLOWANCE","1388","255726","254142","251142","220459","NA","NA","NA","NA","255719","254639","NA","253642","NA","253637","255719","1397","256126","NA","NA","254726","1389","1389","255117","253637","1389","254726","256126","morph21_Oliver/Morris","7","7482","10","yes","1280","5"
"250","72.7272727273","72.7272727273","743.545454545","743.545454545","black","no","xpyriment","legacy","legacy","0","207","NA","uniform","69259","1000","0.0144385567219","1","undefined","1","0","10","10","10","0","10","10","10","NA","10","10","0","10","NA","10","10","0","10","NA","10","NA","10","0","0","10","10","0","10","10","11","/","01/26/18 13:27:15","The main experiment item","yes","FIN__AB__M21__7%3A10%3A17.osexp","C:\Users\ERP Testing Room\Desktop\Joanna\morph21","no","mono","no","18","no","white","no","yes","1080","legacy","10","10","C:/Users/ERP Testing Room/Desktop/Joanna/morph21/subject-122.csv","xpyriment","Jazzy James","3.1.4","0","/","NA","NA","NA","NA","space","/","697","NA","NA","NA","NA","219062","697","2","legacy","1024","2","48000","-16","AB_m21","122","even","FILL_W","PACK","1388","259010","257409","251142","220459","NA","NA","NA","NA","259006","257906","NA","256909","NA","256902","259006","1397","259260","NA","NA","258009","1389","1389","258409","256902","1389","258009","259260","morph21_Oliver/Morris","8","8179","11","yes","1280","41"
"250","75","75","730.583333333","730.583333333","black","no","xpyriment","legacy","legacy","0","202","NA","uniform","69181","1000","0.0144548358653","1","undefined","1","0","11","11","11","0","11","11","11","NA","11","11","0","11","NA","11","11","0","11","NA","11","NA","11","0","0","11","11","0","11","11","12","/","01/26/18 13:27:15","The main experiment item","yes","FIN__AB__M21__7%3A10%3A17.osexp","C:\Users\ERP Testing Room\Desktop\Joanna\morph21","no","mono","no","18","no","white","no","yes","1080","legacy","11","11","C:/Users/ERP Testing Room/Desktop/Joanna/morph21/subject-122.csv","xpyriment","Jazzy James","3.1.4","0","/","NA","NA","NA","NA","space","/","588","NA","NA","NA","NA","219062","588","2","legacy","1024","2","48000","-16","AB_m21","122","even","CW_L","FLEXIBLE","1388","263644","260544","262135","220459","NA","NA","NA","NA","262129","261041","NA","260044","NA","260036","262129","1397","263894","NA","NA","261135","1389","1389","261527","260036","1389","261135","263894","morph21_Oliver/Morris","9","8767","12","yes","1280","22"
"250","76.9230769231","76.9230769231","730.230769231","730.230769231","black","no","xpyriment","legacy","legacy","0","201","NA","uniform","72885","1000","0.0137202442203","1","undefined","1","0","12","12","12","0","12","12","12","NA","12","12","0","12","NA","12","12","0","12","NA","12","NA","12","0","0","12","12","0","12","12","13","/","01/26/18 13:27:15","The main experiment item","yes","FIN__AB__M21__7%3A10%3A17.osexp","C:\Users\ERP Testing Room\Desktop\Joanna\morph21","no","mono","no","18","no","white","no","yes","1080","legacy","12","12","C:/Users/ERP Testing Room/Desktop/Joanna/morph21/subject-122.csv","xpyriment","Jazzy James","3.1.4","0","/","NA","NA","NA","NA","space","/","726","NA","NA","NA","NA","219062","726","2","legacy","1024","2","48000","-16","AB_m21","122","even","CW_S","HUGELY","1388","266677","265094","262135","220459","NA","NA","NA","NA","266671","265591","NA","264594","NA","264583","266671","1397","266927","NA","NA","265677","1389","1389","266069","264583","1389","265677","266927","morph21_Oliver/Morris","10","9493","13","yes","1280","35"
"300","78.5714285714","78.5714285714","733","733","black","no","xpyriment","legacy","legacy","0","201","NA","uniform","72080","1000","0.0138734739179","1","undefined","1","0","13","13","13","0","13","13","13","NA","13","13","0","13","NA","13","13","0","13","NA","13","NA","13","0","0","13","13","0","13","13","14","/","01/26/18 13:27:15","The main experiment item","yes","FIN__AB__M21__7%3A10%3A17.osexp","C:\Users\ERP Testing Room\Desktop\Joanna\morph21","no","mono","no","18","no","white","no","yes","1080","legacy","13","13","C:/Users/ERP Testing Room/Desktop/Joanna/morph21/subject-122.csv","xpyriment","Jazzy James","3.1.4","0","/","NA","NA","NA","NA","space","/","769","NA","NA","NA","NA","219062","769","2","legacy","1024","2","48000","-16","AB_m21","122","even","CW_S","INSISTENT","1388","269794","268169","262135","220459","NA","NA","NA","NA","269787","268666","NA","267661","NA","267650","269787","1397","270094","NA","NA","268794","1389","1389","269186","267650","1389","268794","270094","morph21_Oliver/Morris","11","10262","14","yes","1280","9"
"300","80","80","724.933333333","724.933333333","black","no","xpyriment","legacy","legacy","0","201","NA","uniform","77929","1000","0.0128321934068","1","undefined","1","0","14","14","14","0","14","14","14","NA","14","14","0","14","NA","14","14","0","14","NA","14","NA","14","0","0","14","14","0","14","14","15","/","01/26/18 13:27:15","The main experiment item","yes","FIN__AB__M21__7%3A10%3A17.osexp","C:\Users\ERP Testing Room\Desktop\Joanna\morph21","no","mono","no","18","no","white","no","yes","1080","legacy","14","14","C:/Users/ERP Testing Room/Desktop/Joanna/morph21/subject-122.csv","xpyriment","Jazzy James","3.1.4","0","/","NA","NA","NA","NA","space","/","612","NA","NA","NA","NA","219062","612","2","legacy","1024","2","48000","-16","AB_m21","122","even","CW_S","GUILTY","1388","274419","271327","272911","220459","NA","NA","NA","NA","272902","271825","NA","270827","NA","270817","272902","1397","274719","NA","NA","271911","1389","1389","272302","270817","1389","271911","274719","morph21_Oliver/Morris","12","10874","15","yes","1280","34"
"200","75","75","741.8125","741.8125","black","no","xpyriment","legacy","legacy","0","201","NA","uniform","62117","1000","0.0160986525428","0","undefined","0","0","15","15","15","0","15","15","15","NA","15","15","0","15","NA","15","15","0","15","NA","15","NA","15","0","0","15","15","0","15","15","16","/","01/26/18 13:27:15","The main experiment item","yes","FIN__AB__M21__7%3A10%3A17.osexp","C:\Users\ERP Testing Room\Desktop\Joanna\morph21","no","mono","no","18","no","white","no","yes","1080","legacy","15","15","C:/Users/ERP Testing Room/Desktop/Joanna/morph21/subject-122.csv","xpyriment","Jazzy James","3.1.4","0","None","NA","NA","NA","NA","space","None","995","NA","NA","NA","NA","219062","995","2","legacy","1024","2","48000","-16","AB_m21","122","even","CW_S","CAMPAIGNER","1388","277587","276003","272911","220459","NA","NA","NA","NA","272902","276500","NA","275503","NA","275496","277582","1397","277787","NA","NA","276587","1389","1389","276987","275496","1389","276587","277787","morph21_Oliver/Morris","12","11869","16","yes","1280","15"
"350","76.4705882353","76.4705882353","732.588235294","732.588235294","black","no","xpyriment","legacy","legacy","0","201","NA","uniform","77299","1000","0.0129367779661","1","undefined","1","0","16","16","16","0","16","16","16","NA","16","16","0","16","NA","16","16","0","16","NA","16","NA","16","0","0","16","16","0","16","16","17","/","01/26/18 13:27:15","The main experiment item","yes","FIN__AB__M21__7%3A10%3A17.osexp","C:\Users\ERP Testing Room\Desktop\Joanna\morph21","no","mono","no","18","no","white","no","yes","1080","legacy","16","16","C:/Users/ERP Testing Room/Desktop/Joanna/morph21/subject-122.csv","xpyriment","Jazzy James","3.1.4","0","/","NA","NA","NA","NA","space","/","585","NA","NA","NA","NA","219062","585","2","legacy","1024","2","48000","-16","AB_m21","122","even","CW_S","AMAZEMENT","1388","280570","278987","272911","220459","NA","NA","NA","NA","280564","279484","NA","278487","NA","278478","280564","1397","280920","NA","NA","279570","1389","1389","279962","278478","1389","279570","280920","morph21_Oliver/Morris","13","12454","17","yes","1280","39"
"200","77.7777777778","77.7777777778","744","744","black","no","xpyriment","legacy","legacy","0","205","NA","uniform","63124","1000","0.0158418351182","1","undefined","1","0","17","17","17","0","17","17","17","NA","17","17","0","17","NA","17","17","0","17","NA","17","NA","17","0","0","17","17","0","17","17","18","z","01/26/18 13:27:15","The main experiment item","yes","FIN__AB__M21__7%3A10%3A17.osexp","C:\Users\ERP Testing Room\Desktop\Joanna\morph21","no","mono","no","18","no","white","no","yes","1080","legacy","17","17","C:/Users/ERP Testing Room/Desktop/Joanna/morph21/subject-122.csv","xpyriment","Jazzy James","3.1.4","0","z","NA","NA","NA","NA","space","z","938","NA","NA","NA","NA","219062","938","2","legacy","1024","2","48000","-16","AB_m21","122","even","NW_S_SIMP","THRILLANGE","1388","285221","282096","283712","220459","NA","NA","NA","NA","283709","282593","NA","281596","NA","281590","283709","1397","285421","NA","NA","282721","1389","1389","283112","281590","1389","282721","285421","morph21_Oliver/Morris","14","13392","18","yes","1280","22"
"250","73.6842105263","73.6842105263","745.105263158","745.105263158","black","no","xpyriment","legacy","legacy","0","204","NA","uniform","68199","1000","0.0146629715978","0","undefined","0","0","18","18","18","0","18","18","18","NA","18","18","0","18","NA","18","18","0","18","NA","18","NA","18","0","0","18","18","0","18","18","19","z","01/26/18 13:27:15","The main experiment item","yes","FIN__AB__M21__7%3A10%3A17.osexp","C:\Users\ERP Testing Room\Desktop\Joanna\morph21","no","mono","no","18","no","white","no","yes","1080","legacy","18","18","C:/Users/ERP Testing Room/Desktop/Joanna/morph21/subject-122.csv","xpyriment","Jazzy James","3.1.4","0","/","NA","NA","NA","NA","space","/","765","NA","NA","NA","NA","219062","765","2","legacy","1024","2","48000","-16","AB_m21","122","even","NW_L_COMP","MUDLY","1388","288237","286612","283712","220459","NA","NA","NA","NA","283709","287110","NA","286112","NA","286108","288235","1397","288487","NA","NA","287246","1389","1389","287637","286108","1389","287246","288487","morph21_Oliver/Morris","14","14157","19","yes","1280","12"
"350","75","75","741.65","741.65","black","no","xpyriment","legacy","legacy","0","208","NA","uniform","69135","1000","0.0144644536053","1","undefined","1","0","19","19","19","0","19","19","19","NA","19","19","0","19","NA","19","19","0","19","NA","19","NA","19","0","0","19","19","0","19","19","20","z","01/26/18 13:27:15","The main experiment item","yes","FIN__AB__M21__7%3A10%3A17.osexp","C:\Users\ERP Testing Room\Desktop\Joanna\morph21","no","mono","no","18","no","white","no","yes","1080","legacy","19","19","C:/Users/ERP Testing Room/Desktop/Joanna/morph21/subject-122.csv","xpyriment","Jazzy James","3.1.4","0","z","NA","NA","NA","NA","space","z","676","NA","NA","NA","NA","219062","676","2","legacy","1024","2","48000","-16","AB_m21","122","even","FILL_NW","DASP","1388","291263","289679","283712","220459","NA","NA","NA","NA","291260","290176","NA","289179","NA","289170","291260","1397","291613","NA","NA","290271","1389","1389","290663","289170","1389","290271","291613","morph21_Oliver/Morris","15","14833","20","yes","1280","13"
"350","76.1904761905","76.1904761905","744.238095238","744.238095238","black","no","xpyriment","legacy","legacy","0","206","NA","uniform","66274","1000","0.0150888734647","1","undefined","1","0","20","20","20","0","20","20","20","NA","20","20","0","20","NA","20","20","0","20","NA","20","NA","20","0","0","20","20","0","20","20","21","z","01/26/18 13:27:15","The main experiment item","yes","FIN__AB__M21__7%3A10%3A17.osexp","C:\Users\ERP Testing Room\Desktop\Joanna\morph21","no","mono","no","18","no","white","no","yes","1080","legacy","20","20","C:/Users/ERP Testing Room/Desktop/Joanna/morph21/subject-122.csv","xpyriment","Jazzy James","3.1.4","0","z","NA","NA","NA","NA","space","z","796","NA","NA","NA","NA","219062","796","2","legacy","1024","2","48000","-16","AB_m21","122","even","NW_L_SIMP","PICKENGE","1388","295972","292854","294464","220459","NA","NA","NA","NA","294458","293351","NA","292354","NA","292347","294458","1397","296322","NA","NA","293463","1389","1389","293855","292347","1389","293463","296322","morph21_Oliver/Morris","16","15629","21","yes","1280","5"
"400","72.7272727273","72.7272727273","755.363636364","755.363636364","black","no","xpyriment","legacy","legacy","0","203","NA","uniform","64308","1000","0.0155501648317","0","undefined","0","0","21","21","21","0","21","21","21","NA","21","21","0","21","NA","21","21","0","21","NA","21","NA","21","0","0","21","21","0","21","21","22","z","01/26/18 13:27:15","The main experiment item","yes","FIN__AB__M21__7%3A10%3A17.osexp","C:\Users\ERP Testing Room\Desktop\Joanna\morph21","no","mono","no","18","no","white","no","yes","1080","legacy","21","21","C:/Users/ERP Testing Room/Desktop/Joanna/morph21/subject-122.csv","xpyriment","Jazzy James","3.1.4","0","None","NA","NA","NA","NA","space","None","989","NA","NA","NA","NA","219062","989","2","legacy","1024","2","48000","-16","AB_m21","122","even","NW_S_COMP","TRUENESS","1388","299131","297539","294464","220459","NA","NA","NA","NA","294458","298036","NA","297039","NA","297028","299121","1397","299531","NA","NA","298131","1389","1389","298522","297028","1389","298130","299531","morph21_Oliver/Morris","16","16618","22","yes","1280","15"
"200","73.9130434783","73.9130434783","746.869565217","746.869565217","black","no","xpyriment","legacy","legacy","0","207","NA","uniform","72464","1000","0.0137999558401","1","undefined","1","0","22","22","22","0","22","22","22","NA","22","22","0","22","NA","22","22","0","22","NA","22","NA","22","0","0","22","22","0","22","22","23","/","01/26/18 13:27:15","The main experiment item","yes","FIN__AB__M21__7%3A10%3A17.osexp","C:\Users\ERP Testing Room\Desktop\Joanna\morph21","no","mono","no","18","no","white","no","yes","1080","legacy","22","22","C:/Users/ERP Testing Room/Desktop/Joanna/morph21/subject-122.csv","xpyriment","Jazzy James","3.1.4","0","/","NA","NA","NA","NA","space","/","560","NA","NA","NA","NA","219062","560","2","legacy","1024","2","48000","-16","AB_m21","122","even","FILL_W","TAX","1388","302331","300731","294464","220459","NA","NA","NA","NA","302325","301228","NA","300231","NA","300224","302325","1397","302531","NA","NA","301331","1389","1389","301722","300224","1389","301331","302531","morph21_Oliver/Morris","17","17178","23","yes","1280","45"
"350","75","75","741.625","741.625","black","no","xpyriment","legacy","legacy","0","208","NA","uniform","78211","1000","0.0127859252535","1","undefined","1","0","23","23","23","0","23","23","23","NA","23","23","0","23","NA","23","23","0","23","NA","23","NA","23","0","0","23","23","0","23","23","24","z","01/26/18 13:27:15","The main experiment item","yes","FIN__AB__M21__7%3A10%3A17.osexp","C:\Users\ERP Testing Room\Desktop\Joanna\morph21","no","mono","no","18","no","white","no","yes","1080","legacy","23","23","C:/Users/ERP Testing Room/Desktop/Joanna/morph21/subject-122.csv","xpyriment","Jazzy James","3.1.4","0","z","NA","NA","NA","NA","space","z","621","NA","NA","NA","NA","219062","621","2","legacy","1024","2","48000","-16","AB_m21","122","even","FILL_NW","JADS","1388","306906","303814","305398","220459","NA","NA","NA","NA","305390","304311","NA","303314","NA","303304","305390","1397","307256","NA","NA","304398","1389","1389","304789","303303","1389","304397","307256","morph21_Oliver/Morris","18","17799","24","yes","1280","31"
"300","76","76","735.88","735.88","black","no","xpyriment","legacy","legacy","0","208","NA","uniform","76405","1000","0.0130881486814","1","undefined","1","0","24","24","24","0","24","24","24","NA","24","24","0","24","NA","24","24","0","24","NA","24","NA","24","0","0","24","24","0","24","24","25","z","01/26/18 13:27:15","The main experiment item","yes","FIN__AB__M21__7%3A10%3A17.osexp","C:\Users\ERP Testing Room\Desktop\Joanna\morph21","no","mono","no","18","no","white","no","yes","1080","legacy","24","24","C:/Users/ERP Testing Room/Desktop/Joanna/morph21/subject-122.csv","xpyriment","Jazzy James","3.1.4","0","z","NA","NA","NA","NA","space","z","598","NA","NA","NA","NA","219062","598","2","legacy","1024","2","48000","-16","AB_m21","122","even","FILL_NW","KEMT","1388","310148","308531","305398","220459","NA","NA","NA","NA","310141","309028","NA","308031","NA","308024","310141","1397","310448","NA","NA","309148","1389","1389","309539","308023","1389","309148","310448","morph21_Oliver/Morris","19","18397","25","yes","1280","32"
"200","73.0769230769","73.0769230769","745.615384615","745.615384615","black","no","xpyriment","legacy","legacy","0","207","NA","uniform","62724","1000","0.0159428607869","0","undefined","0","0","25","25","25","0","25","25","25","NA","25","25","0","25","NA","25","25","0","25","NA","25","NA","25","0","0","25","25","0","25","25","26","/","01/26/18 13:27:15","The main experiment item","yes","FIN__AB__M21__7%3A10%3A17.osexp","C:\Users\ERP Testing Room\Desktop\Joanna\morph21","no","mono","no","18","no","white","no","yes","1080","legacy","25","25","C:/Users/ERP Testing Room/Desktop/Joanna/morph21/subject-122.csv","xpyriment","Jazzy James","3.1.4","0","None","NA","NA","NA","NA","space","None","989","NA","NA","NA","NA","219062","989","2","legacy","1024","2","48000","-16","AB_m21","122","even","FILL_W","BRASS","1388","313307","311707","305398","220459","NA","NA","NA","NA","310141","312204","NA","311207","NA","311197","313297","1397","313507","NA","NA","312307","1389","1389","312699","311197","1389","312307","313507","morph21_Oliver/Morris","19","19386","26","yes","1280","10"
"250","70.3703703704","70.3703703704","754.851851852","754.851851852","black","no","xpyriment","legacy","legacy","0","207","NA","uniform","61719","1000","0.0162024660153","0","undefined","0","0","26","26","26","0","26","26","26","NA","26","26","0","26","NA","26","26","0","26","NA","26","NA","26","0","0","26","26","0","26","26","27","/","01/26/18 13:27:15","The main experiment item","yes","FIN__AB__M21__7%3A10%3A17.osexp","C:\Users\ERP Testing Room\Desktop\Joanna\morph21","no","mono","no","18","no","white","no","yes","1080","legacy","26","26","C:/Users/ERP Testing Room/Desktop/Joanna/morph21/subject-122.csv","xpyriment","Jazzy James","3.1.4","0","None","NA","NA","NA","NA","space","None","995","NA","NA","NA","NA","219062","995","2","legacy","1024","2","48000","-16","AB_m21","122","even","FILL_W","PREACH","1388","317982","314857","316474","220459","NA","NA","NA","NA","310141","315354","NA","314357","NA","314348","316470","1397","318233","NA","NA","315474","1389","1389","315874","314348","1389","315474","318233","morph21_Oliver/Morris","19","20381","27","yes","1280","7"
"400","67.8571428571","67.8571428571","753.75","753.75","black","no","xpyriment","legacy","legacy","0","201","NA","uniform","73131","1000","0.0136740916985","0","undefined","0","0","27","27","27","0","27","27","27","NA","27","27","0","27","NA","27","27","0","27","NA","27","NA","27","0","0","27","27","0","27","27","28","/","01/26/18 13:27:15","The main experiment item","yes","FIN__AB__M21__7%3A10%3A17.osexp","C:\Users\ERP Testing Room\Desktop\Joanna\morph21","no","mono","no","18","no","white","no","yes","1080","legacy","27","27","C:/Users/ERP Testing Room/Desktop/Joanna/morph21/subject-122.csv","xpyriment","Jazzy James","3.1.4","0","z","NA","NA","NA","NA","space","z","724","NA","NA","NA","NA","219062","724","2","legacy","1024","2","48000","-16","AB_m21","122","even","CW_S","EFFORTLESS","1388","320999","319416","316474","220459","NA","NA","NA","NA","310141","319913","NA","318916","NA","318908","320993","1397","321399","NA","NA","319999","1389","1389","320391","318908","1389","319999","321399","morph21_Oliver/Morris","19","21105","28","yes","1280","30"
"200","65.5172413793","65.5172413793","762.068965517","762.068965517","black","no","xpyriment","legacy","legacy","0","208","NA","uniform","64053","1000","0.0156120712535","0","undefined","0","0","28","28","28","0","28","28","28","NA","28","28","0","28","NA","28","28","0","28","NA","28","NA","28","0","0","28","28","0","28","28","29","z","01/26/18 13:27:15","The main experiment item","yes","FIN__AB__M21__7%3A10%3A17.osexp","C:\Users\ERP Testing Room\Desktop\Joanna\morph21","no","mono","no","18","no","white","no","yes","1080","legacy","28","28","C:/Users/ERP Testing Room/Desktop/Joanna/morph21/subject-122.csv","xpyriment","Jazzy James","3.1.4","0","None","NA","NA","NA","NA","space","None","995","NA","NA","NA","NA","219062","995","2","legacy","1024","2","48000","-16","AB_m21","122","even","FILL_NW","SMADE","1388","324341","322733","316474","220459","NA","NA","NA","NA","310141","323230","NA","322233","NA","322227","324337","1397","324541","NA","NA","323341","1389","1389","323741","322227","1389","323341","324541","morph21_Oliver/Morris","19","22100","29","yes","1280","42"
"400","66.6666666667","66.6666666667","756.533333333","756.533333333","black","no","xpyriment","legacy","legacy","0","202","NA","uniform","78235","1000","0.0127820029399","1","undefined","1","0","29","29","29","0","29","29","29","NA","29","29","0","29","NA","29","29","0","29","NA","29","NA","29","0","0","29","29","0","29","29","30","/","01/26/18 13:27:15","The main experiment item","yes","FIN__AB__M21__7%3A10%3A17.osexp","C:\Users\ERP Testing Room\Desktop\Joanna\morph21","no","mono","no","18","no","white","no","yes","1080","legacy","29","29","C:/Users/ERP Testing Room/Desktop/Joanna/morph21/subject-122.csv","xpyriment","Jazzy James","3.1.4","0","/","NA","NA","NA","NA","space","/","596","NA","NA","NA","NA","219062","596","2","legacy","1024","2","48000","-16","AB_m21","122","even","CW_L","CLEANER","1388","328876","325758","327366","220459","NA","NA","NA","NA","327356","326255","NA","325258","NA","325249","327356","1397","329276","NA","NA","326366","1389","1389","326758","325249","1389","326366","329276","morph21_Oliver/Morris","20","22696","30","yes","1280","15"
"350","67.7419354839","67.7419354839","758.483870968","758.483870968","black","no","xpyriment","legacy","legacy","0","201","NA","uniform","70773","1000","0.0141296822234","1","undefined","1","0","30","30","30","0","30","30","30","NA","30","30","0","30","NA","30","30","0","30","NA","30","NA","30","0","0","30","30","0","30","30","31","/","01/26/18 13:27:15","The main experiment item","yes","FIN__AB__M21__7%3A10%3A17.osexp","C:\Users\ERP Testing Room\Desktop\Joanna\morph21","no","mono","no","18","no","white","no","yes","1080","legacy","30","30","C:/Users/ERP Testing Room/Desktop/Joanna/morph21/subject-122.csv","xpyriment","Jazzy James","3.1.4","0","/","NA","NA","NA","NA","space","/","817","NA","NA","NA","NA","219062","817","2","legacy","1024","2","48000","-16","AB_m21","122","even","CW_S","CHILLY","1388","332042","330459","327366","220459","NA","NA","NA","NA","332035","330956","NA","329959","NA","329950","332035","1397","332392","NA","NA","331042","1389","1389","331434","329950","1389","331042","332392","morph21_Oliver/Morris","21","23513","31","yes","1280","48"
"250","68.75","68.75","752.15625","752.15625","black","no","xpyriment","legacy","legacy","0","202","NA","uniform","69670","1000","0.014353380221","1","undefined","1","0","31","31","31","0","31","31","31","NA","31","31","0","31","NA","31","31","0","31","NA","31","NA","31","0","0","31","31","0","31","31","32","/","01/26/18 13:27:15","The main experiment item","yes","FIN__AB__M21__7%3A10%3A17.osexp","C:\Users\ERP Testing Room\Desktop\Joanna\morph21","no","mono","no","18","no","white","no","yes","1080","legacy","31","31","C:/Users/ERP Testing Room/Desktop/Joanna/morph21/subject-122.csv","xpyriment","Jazzy James","3.1.4","0","/","NA","NA","NA","NA","space","/","556","NA","NA","NA","NA","219062","556","2","legacy","1024","2","48000","-16","AB_m21","122","even","CW_L","CREAMY","1388","335167","333567","327366","220459","NA","NA","NA","NA","335161","334065","NA","333067","NA","333060","335161","1397","335418","NA","NA","334167","1389","1389","334559","333060","1389","334167","335418","morph21_Oliver/Morris","22","24069","32","yes","1280","49"
"300","66.6666666667","66.6666666667","756.424242424","756.424242424","black","no","xpyriment","legacy","legacy","0","204","NA","uniform","68045","1000","0.014696156955","0","undefined","0","0","32","32","32","0","32","32","32","NA","32","32","0","32","NA","32","32","0","32","NA","32","NA","32","0","0","32","32","0","32","32","33","z","01/26/18 13:27:15","The main experiment item","yes","FIN__AB__M21__7%3A10%3A17.osexp","C:\Users\ERP Testing Room\Desktop\Joanna\morph21","no","mono","no","18","no","white","no","yes","1080","legacy","32","32","C:/Users/ERP Testing Room/Desktop/Joanna/morph21/subject-122.csv","xpyriment","Jazzy James","3.1.4","0","/","NA","NA","NA","NA","space","/","893","NA","NA","NA","NA","219062","893","2","legacy","1024","2","48000","-16","AB_m21","122","even","NW_L_COMP","SHEETER","1388","339818","336693","338309","220459","NA","NA","NA","NA","335161","337190","NA","336193","NA","336182","338307","1397","340118","NA","NA","337318","1389","1389","337709","336182","1389","337318","340118","morph21_Oliver/Morris","22","24962","33","yes","1280","5"
"250","67.6470588235","67.6470588235","749.823529412","749.823529412","black","no","xpyriment","legacy","legacy","0","207","NA","uniform","72901","1000","0.0137172329598","1","undefined","1","0","33","33","33","0","33","33","33","NA","33","33","0","33","NA","33","33","0","33","NA","33","NA","33","0","0","33","33","0","33","33","34","/","01/26/18 13:27:15","The main experiment item","yes","FIN__AB__M21__7%3A10%3A17.osexp","C:\Users\ERP Testing Room\Desktop\Joanna\morph21","no","mono","no","18","no","white","no","yes","1080","legacy","33","33","C:/Users/ERP Testing Room/Desktop/Joanna/morph21/subject-122.csv","xpyriment","Jazzy James","3.1.4","0","/","NA","NA","NA","NA","space","/","532","NA","NA","NA","NA","219062","532","2","legacy","1024","2","48000","-16","AB_m21","122","even","FILL_W","SOFT","1388","342951","341368","338309","220459","NA","NA","NA","NA","342941","341865","NA","340868","NA","340861","342941","1397","343201","NA","NA","341951","1389","1389","342343","340861","1389","341951","343201","morph21_Oliver/Morris","23","25494","34","yes","1280","43"
"300","68.5714285714","68.5714285714","754.314285714","754.314285714","black","no","xpyriment","legacy","legacy","0","205","NA","uniform","65140","1000","0.0153515505066","1","undefined","1","0","34","34","34","0","34","34","34","NA","34","34","0","34","NA","34","34","0","34","NA","34","NA","34","0","0","34","34","0","34","34","35","z","01/26/18 13:27:15","The main experiment item","yes","FIN__AB__M21__7%3A10%3A17.osexp","C:\Users\ERP Testing Room\Desktop\Joanna\morph21","no","mono","no","18","no","white","no","yes","1080","legacy","34","34","C:/Users/ERP Testing Room/Desktop/Joanna/morph21/subject-122.csv","xpyriment","Jazzy James","3.1.4","0","z","NA","NA","NA","NA","space","z","907","NA","NA","NA","NA","219062","907","2","legacy","1024","2","48000","-16","AB_m21","122","even","NW_S_SIMP","WINKIDY","1388","346151","344551","338309","220459","NA","NA","NA","NA","346148","345048","NA","344051","NA","344044","346148","1397","346451","NA","NA","345151","1389","1389","345551","344043","1389","345151","346451","morph21_Oliver/Morris","24","26401","35","yes","1280","21"
"200","69.4444444444","69.4444444444","752.083333333","752.083333333","black","no","xpyriment","legacy","legacy","0","201","NA","uniform","73246","1000","0.0136526226688","1","undefined","1","0","35","35","35","0","35","35","35","NA","35","35","0","35","NA","35","35","0","35","NA","35","NA","35","0","0","35","35","0","35","35","36","/","01/26/18 13:27:15","The main experiment item","yes","FIN__AB__M21__7%3A10%3A17.osexp","C:\Users\ERP Testing Room\Desktop\Joanna\morph21","no","mono","no","18","no","white","no","yes","1080","legacy","35","35","C:/Users/ERP Testing Room/Desktop/Joanna/morph21/subject-122.csv","xpyriment","Jazzy James","3.1.4","0","/","NA","NA","NA","NA","space","/","674","NA","NA","NA","NA","219062","674","2","legacy","1024","2","48000","-16","AB_m21","122","even","CW_S","ANGELIC","1388","350861","347736","349352","220459","NA","NA","NA","NA","349349","348233","NA","347227","NA","347217","349349","1397","351061","NA","NA","348361","1389","1389","348752","347217","1389","348361","351061","morph21_Oliver/Morris","25","27075","36","yes","1280","25"
"200","70.2702702703","70.2702702703","753.351351351","753.351351351","black","no","xpyriment","legacy","legacy","0","206","NA","uniform","65146","1000","0.0153501366162","1","undefined","1","0","36","36","36","0","36","36","36","NA","36","36","0","36","NA","36","36","0","36","NA","36","NA","36","0","0","36","36","0","36","36","37","z","01/26/18 13:27:15","The main experiment item","yes","FIN__AB__M21__7%3A10%3A17.osexp","C:\Users\ERP Testing Room\Desktop\Joanna\morph21","no","mono","no","18","no","white","no","yes","1080","legacy","36","36","C:/Users/ERP Testing Room/Desktop/Joanna/morph21/subject-122.csv","xpyriment","Jazzy James","3.1.4","0","z","NA","NA","NA","NA","space","z","799","NA","NA","NA","NA","219062","799","2","legacy","1024","2","48000","-16","AB_m21","122","even","NW_L_SIMP","TOWERLA","1388","353828","352244","349352","220459","NA","NA","NA","NA","353824","352741","NA","351744","NA","351735","353824","1397","354028","NA","NA","352836","1389","1389","353228","351735","1389","352836","354028","morph21_Oliver/Morris","26","27874","37","yes","1280","15"
"350","71.0526315789","71.0526315789","747.421052632","747.421052632","black","no","xpyriment","legacy","legacy","0","202","NA","uniform","77832","1000","0.0128481858362","1","undefined","1","0","37","37","37","0","37","37","37","NA","37","37","0","37","NA","37","37","0","37","NA","37","NA","37","0","0","37","37","0","37","37","38","/","01/26/18 13:27:15","The main experiment item","yes","FIN__AB__M21__7%3A10%3A17.osexp","C:\Users\ERP Testing Room\Desktop\Joanna\morph21","no","mono","no","18","no","white","no","yes","1080","legacy","37","37","C:/Users/ERP Testing Room/Desktop/Joanna/morph21/subject-122.csv","xpyriment","Jazzy James","3.1.4","0","/","NA","NA","NA","NA","space","/","528","NA","NA","NA","NA","219062","528","2","legacy","1024","2","48000","-16","AB_m21","122","even","CW_L","PAINTER","1388","356819","355228","349352","220459","NA","NA","NA","NA","356810","355725","NA","354728","NA","354718","356810","1397","357169","NA","NA","355819","1389","1389","356211","354718","1389","355819","357169","morph21_Oliver/Morris","27","28402","38","yes","1280","18"
"200","71.7948717949","71.7948717949","741.230769231","741.230769231","black","no","xpyriment","legacy","legacy","0","207","NA","uniform","79125","1000","0.0126382306477","1","undefined","1","0","38","38","38","0","38","38","38","NA","38","38","0","38","NA","38","38","0","38","NA","38","NA","38","0","0","38","38","0","38","38","39","/","01/26/18 13:27:15","The main experiment item","yes","FIN__AB__M21__7%3A10%3A17.osexp","C:\Users\ERP Testing Room\Desktop\Joanna\morph21","no","mono","no","18","no","white","no","yes","1080","legacy","38","38","C:/Users/ERP Testing Room/Desktop/Joanna/morph21/subject-122.csv","xpyriment","Jazzy James","3.1.4","0","/","NA","NA","NA","NA","space","/","506","NA","NA","NA","NA","219062","506","2","legacy","1024","2","48000","-16","AB_m21","122","even","FILL_W","STALK","1388","361470","358369","359961","220459","NA","NA","NA","NA","359958","358867","NA","357870","NA","357859","359958","1397","361670","NA","NA","358969","1389","1389","359361","357859","1389","358969","361670","morph21_Oliver/Morris","28","28908","39","yes","1280","27"
"200","72.5","72.5","741.35","741.35","black","no","xpyriment","legacy","legacy","0","203","NA","uniform","69992","1000","0.0142873471254","1","undefined","1","0","39","39","39","0","39","39","39","NA","39","39","0","39","NA","39","39","0","39","NA","39","NA","39","0","0","39","39","0","39","39","40","z","01/26/18 13:27:15","The main experiment item","yes","FIN__AB__M21__7%3A10%3A17.osexp","C:\Users\ERP Testing Room\Desktop\Joanna\morph21","no","mono","no","18","no","white","no","yes","1080","legacy","39","39","C:/Users/ERP Testing Room/Desktop/Joanna/morph21/subject-122.csv","xpyriment","Jazzy James","3.1.4","0","z","NA","NA","NA","NA","space","z","746","NA","NA","NA","NA","219062","746","2","legacy","1024","2","48000","-16","AB_m21","122","even","NW_S_COMP","YANKORY","1388","364562","362970","359961","220459","NA","NA","NA","NA","364554","363467","NA","362470","NA","362463","364554","1397","364762","NA","NA","363561","1389","1389","363954","362463","1389","363561","364762","morph21_Oliver/Morris","29","29654","40","yes","1280","23"
"400","73.1707317073","73.1707317073","738.317073171","738.317073171","black","no","xpyriment","legacy","legacy","0","205","NA","uniform","70841","1000","0.0141161191965","1","undefined","1","0","40","40","40","0","40","40","40","NA","40","40","0","40","NA","40","40","0","40","NA","40","NA","40","0","0","40","40","0","40","40","41","z","01/26/18 13:27:15","The main experiment item","yes","FIN__AB__M21__7%3A10%3A17.osexp","C:\Users\ERP Testing Room\Desktop\Joanna\morph21","no","mono","no","18","no","white","no","yes","1080","legacy","40","40","C:/Users/ERP Testing Room/Desktop/Joanna/morph21/subject-122.csv","xpyriment","Jazzy James","3.1.4","0","z","NA","NA","NA","NA","space","z","617","NA","NA","NA","NA","219062","617","2","legacy","1024","2","48000","-16","AB_m21","122","even","NW_S_SIMP","AIDIG","1388","367546","365937","359961","220459","NA","NA","NA","NA","367540","366435","NA","365438","NA","365433","367540","1397","367946","NA","NA","366546","1389","1389","366938","365433","1389","366546","367946","morph21_Oliver/Morris","30","30271","41","yes","1280","4"
"200","71.4285714286","71.4285714286","743.380952381","743.380952381","black","no","xpyriment","legacy","legacy","0","203","NA","uniform","63735","1000","0.0156899662666","0","undefined","0","0","41","41","41","0","41","41","41","NA","41","41","0","41","NA","41","41","0","41","NA","41","NA","41","0","0","41","41","0","41","41","42","z","01/26/18 13:27:15","The main experiment item","yes","FIN__AB__M21__7%3A10%3A17.osexp","C:\Users\ERP Testing Room\Desktop\Joanna\morph21","no","mono","no","18","no","white","no","yes","1080","legacy","41","41","C:/Users/ERP Testing Room/Desktop/Joanna/morph21/subject-122.csv","xpyriment","Jazzy James","3.1.4","0","/","NA","NA","NA","NA","space","/","951","NA","NA","NA","NA","219062","951","2","legacy","1024","2","48000","-16","AB_m21","122","even","NW_S_COMP","FANFUL","1388","372296","369179","370788","220459","NA","NA","NA","NA","367540","369676","NA","368679","NA","368669","370781","1397","372496","NA","NA","369788","1389","1389","370179","368669","1389","369788","372496","morph21_Oliver/Morris","30","31222","42","yes","1280","6"
"350","72.0930232558","72.0930232558","741.720930233","741.720930233","black","no","xpyriment","legacy","legacy","0","205","NA","uniform","73249","1000","0.0136520635094","1","undefined","1","0","42","42","42","0","42","42","42","NA","42","42","0","42","NA","42","42","0","42","NA","42","NA","42","0","0","42","42","0","42","42","43","z","01/26/18 13:27:15","The main experiment item","yes","FIN__AB__M21__7%3A10%3A17.osexp","C:\Users\ERP Testing Room\Desktop\Joanna\morph21","no","mono","no","18","no","white","no","yes","1080","legacy","42","42","C:/Users/ERP Testing Room/Desktop/Joanna/morph21/subject-122.csv","xpyriment","Jazzy James","3.1.4","0","z","NA","NA","NA","NA","space","z","672","NA","NA","NA","NA","219062","672","2","legacy","1024","2","48000","-16","AB_m21","122","even","NW_S_SIMP","ACREMANT","1388","375371","373738","370788","220459","NA","NA","NA","NA","375362","374235","NA","373238","NA","373232","375362","1397","375721","NA","NA","374371","1389","1389","374763","373232","1389","374371","375721","morph21_Oliver/Morris","31","31894","43","yes","1280","16"
"300","72.7272727273","72.7272727273","741.954545455","741.954545455","black","no","xpyriment","legacy","legacy","0","205","NA","uniform","68252","1000","0.0146515853015","1","undefined","1","0","43","43","43","0","43","43","43","NA","43","43","0","43","NA","43","43","0","43","NA","43","NA","43","0","0","43","43","0","43","43","44","z","01/26/18 13:27:15","The main experiment item","yes","FIN__AB__M21__7%3A10%3A17.osexp","C:\Users\ERP Testing Room\Desktop\Joanna\morph21","no","mono","no","18","no","white","no","yes","1080","legacy","43","43","C:/Users/ERP Testing Room/Desktop/Joanna/morph21/subject-122.csv","xpyriment","Jazzy James","3.1.4","0","z","NA","NA","NA","NA","space","z","752","NA","NA","NA","NA","219062","752","2","legacy","1024","2","48000","-16","AB_m21","122","even","NW_S_SIMP","NEXTNELS","1388","378546","376921","370788","220459","NA","NA","NA","NA","378544","377418","NA","376421","NA","376413","378544","1397","378846","NA","NA","377555","1389","1389","377946","376413","1389","377555","378846","morph21_Oliver/Morris","32","32646","44","yes","1280","9"
"350","73.3333333333","73.3333333333","737.244444444","737.244444444","black","no","xpyriment","legacy","legacy","0","207","NA","uniform","80306","1000","0.012452369686","1","undefined","1","0","44","44","44","0","44","44","44","NA","44","44","0","44","NA","44","44","0","44","NA","44","NA","44","0","0","44","44","0","44","44","45","/","01/26/18 13:27:15","The main experiment item","yes","FIN__AB__M21__7%3A10%3A17.osexp","C:\Users\ERP Testing Room\Desktop\Joanna\morph21","no","mono","no","18","no","white","no","yes","1080","legacy","44","44","C:/Users/ERP Testing Room/Desktop/Joanna/morph21/subject-122.csv","xpyriment","Jazzy James","3.1.4","0","/","NA","NA","NA","NA","space","/","530","NA","NA","NA","NA","219062","530","2","legacy","1024","2","48000","-16","AB_m21","122","even","FILL_W","LEAK","1388","383214","380096","381706","220459","NA","NA","NA","NA","381697","380594","NA","379596","NA","379590","381697","1397","383564","NA","NA","380705","1389","1389","381096","379589","1389","380705","383564","morph21_Oliver/Morris","33","33176","45","yes","1280","9"
"350","73.9130434783","73.9130434783","737.152173913","737.152173913","black","no","xpyriment","legacy","legacy","0","206","NA","uniform","70952","1000","0.0140940354042","1","undefined","1","0","45","45","45","0","45","45","45","NA","45","45","0","45","NA","45","45","0","45","NA","45","NA","45","0","0","45","45","0","45","45","46","z","01/26/18 13:27:15","The main experiment item","yes","FIN__AB__M21__7%3A10%3A17.osexp","C:\Users\ERP Testing Room\Desktop\Joanna\morph21","no","mono","no","18","no","white","no","yes","1080","legacy","45","45","C:/Users/ERP Testing Room/Desktop/Joanna/morph21/subject-122.csv","xpyriment","Jazzy James","3.1.4","0","z","NA","NA","NA","NA","space","z","733","NA","NA","NA","NA","219062","733","2","legacy","1024","2","48000","-16","AB_m21","122","even","NW_L_SIMP","NUTLA","1388","386398","384814","381706","220459","NA","NA","NA","NA","386393","385311","NA","384314","NA","384309","386393","1397","386748","NA","NA","385398","1389","1389","385798","384309","1389","385398","386748","morph21_Oliver/Morris","34","33909","46","yes","1280","14"
"250","74.4680851064","74.4680851064","733.659574468","733.659574468","black","no","xpyriment","legacy","legacy","0","207","NA","uniform","69414","1000","0.0144063157288","1","undefined","1","0","46","46","46","0","46","46","46","NA","46","46","0","46","NA","46","46","0","46","NA","46","NA","46","0","0","46","46","0","46","46","47","/","01/26/18 13:27:15","The main experiment item","yes","FIN__AB__M21__7%3A10%3A17.osexp","C:\Users\ERP Testing Room\Desktop\Joanna\morph21","no","mono","no","18","no","white","no","yes","1080","legacy","46","46","C:/Users/ERP Testing Room/Desktop/Joanna/morph21/subject-122.csv","xpyriment","Jazzy James","3.1.4","0","/","NA","NA","NA","NA","space","/","573","NA","NA","NA","NA","219062","573","2","legacy","1024","2","48000","-16","AB_m21","122","even","FILL_W","STARVE","1388","389589","387973","381706","220459","NA","NA","NA","NA","389582","388470","NA","387464","NA","387460","389582","1397","389840","NA","NA","388590","1389","1389","388981","387460","1389","388589","389840","morph21_Oliver/Morris","35","34482","47","yes","1280","15"
"300","75","75","730.8125","730.8125","black","no","xpyriment","legacy","legacy","0","202","NA","uniform","75451","1000","0.0132536348093","1","undefined","1","0","47","47","47","0","47","47","47","NA","47","47","0","47","NA","47","47","0","47","NA","47","NA","47","0","0","47","47","0","47","47","48","/","01/26/18 13:27:15","The main experiment item","yes","FIN__AB__M21__7%3A10%3A17.osexp","C:\Users\ERP Testing Room\Desktop\Joanna\morph21","no","mono","no","18","no","white","no","yes","1080","legacy","47","47","C:/Users/ERP Testing Room/Desktop/Joanna/morph21/subject-122.csv","xpyriment","Jazzy James","3.1.4","0","/","NA","NA","NA","NA","space","/","597","NA","NA","NA","NA","219062","597","2","legacy","1024","2","48000","-16","AB_m21","122","even","CW_L","KNOCKER","1388","394115","391023","392606","220459","NA","NA","NA","NA","392602","391520","NA","390523","NA","390518","392602","1397","394415","NA","NA","391606","1389","1389","392006","390517","1389","391606","394415","morph21_Oliver/Morris","36","35079","48","yes","1280","4"
"200","75.5102040816","75.5102040816","731.265306122","731.265306122","black","no","xpyriment","legacy","legacy","0","208","NA","uniform","70686","1000","0.0141470729706","1","undefined","1","0","48","48","48","0","48","48","48","NA","48","48","0","48","NA","48","48","0","48","NA","48","NA","48","0","0","48","48","0","48","48","49","z","01/26/18 13:27:15","The main experiment item","yes","FIN__AB__M21__7%3A10%3A17.osexp","C:\Users\ERP Testing Room\Desktop\Joanna\morph21","no","mono","no","18","no","white","no","yes","1080","legacy","48","48","C:/Users/ERP Testing Room/Desktop/Joanna/morph21/subject-122.csv","xpyriment","Jazzy James","3.1.4","0","z","NA","NA","NA","NA","space","z","753","NA","NA","NA","NA","219062","753","2","legacy","1024","2","48000","-16","AB_m21","122","even","FILL_NW","BLAYS","1388","397298","395681","392606","220459","NA","NA","NA","NA","397293","396179","NA","395181","NA","395171","397293","1397","397498","NA","NA","396298","1389","1389","396698","395171","1389","396298","397498","morph21_Oliver/Morris","37","35832","49","yes","1280","8"
"200","76","76","728.36","728.36","black","no","xpyriment","legacy","legacy","0","201","NA","uniform","76105","1000","0.0131397411471","1","undefined","1","0","49","49","49","0","49","49","49","NA","49","49","0","49","NA","49","49","0","49","NA","49","NA","49","0","0","49","49","0","49","49","50","/","01/26/18 13:27:15","The main experiment item","yes","FIN__AB__M21__7%3A10%3A17.osexp","C:\Users\ERP Testing Room\Desktop\Joanna\morph21","no","mono","no","18","no","white","no","yes","1080","legacy","49","49","C:/Users/ERP Testing Room/Desktop/Joanna/morph21/subject-122.csv","xpyriment","Jazzy James","3.1.4","0","/","NA","NA","NA","NA","space","/","586","NA","NA","NA","NA","219062","586","2","legacy","1024","2","48000","-16","AB_m21","122","even","CW_S","AMUSEMENT","1388","400441","398824","392606","220459","NA","NA","NA","NA","400438","399321","NA","398323","NA","398321","400438","1397","400641","NA","NA","399449","1389","1389","399841","398320","1389","399449","400641","morph21_Oliver/Morris","38","36418","50","yes","1280","38"
"200","76.4705882353","76.4705882353","728.039215686","728.039215686","black","no","xpyriment","legacy","legacy","0","203","NA","uniform","66668","1000","0.014999700006","1","undefined","1","0","50","50","50","0","50","50","50","NA","50","50","0","50","NA","50","50","0","50","NA","50","NA","50","0","0","50","50","0","50","50","51","z","01/26/18 13:27:15","The main experiment item","yes","FIN__AB__M21__7%3A10%3A17.osexp","C:\Users\ERP Testing Room\Desktop\Joanna\morph21","no","mono","no","18","no","white","no","yes","1080","legacy","50","50","C:/Users/ERP Testing Room/Desktop/Joanna/morph21/subject-122.csv","xpyriment","Jazzy James","3.1.4","0","z","NA","NA","NA","NA","space","z","712","NA","NA","NA","NA","219062","712","2","legacy","1024","2","48000","-16","AB_m21","122","even","NW_S_COMP","ANTISM","1388","405008","401916","403499","220459","NA","NA","NA","NA","403493","402413","NA","401416","NA","401411","403493","1397","405208","NA","NA","402499","1389","1389","402891","401411","1389","402499","405208","morph21_Oliver/Morris","39","37130","51","yes","1280","8"
"400","75","75","733.057692308","733.057692308","black","no","xpyriment","legacy","legacy","0","203","NA","uniform","60171","1000","0.0166193016569","0","undefined","0","0","51","51","51","0","51","51","51","NA","51","51","0","51","NA","51","51","0","51","NA","51","NA","51","0","0","51","51","0","51","51","52","z","01/26/18 13:27:15","The main experiment item","yes","FIN__AB__M21__7%3A10%3A17.osexp","C:\Users\ERP Testing Room\Desktop\Joanna\morph21","no","mono","no","18","no","white","no","yes","1080","legacy","51","51","C:/Users/ERP Testing Room/Desktop/Joanna/morph21/subject-122.csv","xpyriment","Jazzy James","3.1.4","0","None","NA","NA","NA","NA","space","None","989","NA","NA","NA","NA","219062","989","2","legacy","1024","2","48000","-16","AB_m21","122","even","NW_S_COMP","ALTARIC","1388","408033","406416","403499","220459","NA","NA","NA","NA","403493","406913","NA","405916","NA","405910","408022","1397","408433","NA","NA","407033","1389","1389","407425","405910","1389","407033","408433","morph21_Oliver/Morris","39","38119","52","yes","1280","7"
"200","75.4716981132","75.4716981132","729.886792453","729.886792453","black","no","xpyriment","legacy","legacy","0","205","NA","uniform","67872","1000","0.0147336162188","1","undefined","1","0","52","52","52","0","52","52","52","NA","52","52","0","52","NA","52","52","0","52","NA","52","NA","52","0","0","52","52","0","52","52","53","z","01/26/18 13:27:15","The main experiment item","yes","FIN__AB__M21__7%3A10%3A17.osexp","C:\Users\ERP Testing Room\Desktop\Joanna\morph21","no","mono","no","18","no","white","no","yes","1080","legacy","52","52","C:/Users/ERP Testing Room/Desktop/Joanna/morph21/subject-122.csv","xpyriment","Jazzy James","3.1.4","0","z","NA","NA","NA","NA","space","z","565","NA","NA","NA","NA","219062","565","2","legacy","1024","2","48000","-16","AB_m21","122","even","NW_S_SIMP","JAWLA","1388","411366","409741","403499","220459","NA","NA","NA","NA","411357","410239","NA","409241","NA","409238","411357","1397","411566","NA","NA","410366","1389","1389","410758","409237","1389","410366","411566","morph21_Oliver/Morris","40","38684","53","yes","1280","7"
"350","75.9259259259","75.9259259259","727.666666667","727.666666667","black","no","xpyriment","legacy","legacy","0","204","NA","uniform","71439","1000","0.0139979562984","1","undefined","1","0","53","53","53","0","53","53","53","NA","53","53","0","53","NA","53","53","0","53","NA","53","NA","53","0","0","53","53","0","53","53","54","z","01/26/18 13:27:15","The main experiment item","yes","FIN__AB__M21__7%3A10%3A17.osexp","C:\Users\ERP Testing Room\Desktop\Joanna\morph21","no","mono","no","18","no","white","no","yes","1080","legacy","53","53","C:/Users/ERP Testing Room/Desktop/Joanna/morph21/subject-122.csv","xpyriment","Jazzy James","3.1.4","0","z","NA","NA","NA","NA","space","z","610","NA","NA","NA","NA","219062","610","2","legacy","1024","2","48000","-16","AB_m21","122","even","NW_L_COMP","INKISM","1388","415925","412800","414417","220459","NA","NA","NA","NA","414407","413297","NA","412300","NA","412295","414407","1397","416275","NA","NA","413417","1389","1389","413808","412295","1389","413417","416275","morph21_Oliver/Morris","41","39294","54","yes","1280","8"
"350","76.3636363636","76.3636363636","729.527272727","729.527272727","black","no","xpyriment","legacy","legacy","0","201","NA","uniform","60324","1000","0.0165771500564","1","undefined","1","0","54","54","54","0","54","54","54","NA","54","54","0","54","NA","54","54","0","54","NA","54","NA","54","0","0","54","54","0","54","54","55","/","01/26/18 13:27:15","The main experiment item","yes","FIN__AB__M21__7%3A10%3A17.osexp","C:\Users\ERP Testing Room\Desktop\Joanna\morph21","no","mono","no","18","no","white","no","yes","1080","legacy","54","54","C:/Users/ERP Testing Room/Desktop/Joanna/morph21/subject-122.csv","xpyriment","Jazzy James","3.1.4","0","/","NA","NA","NA","NA","space","/","830","NA","NA","NA","NA","219062","830","2","legacy","1024","2","48000","-16","AB_m21","122","even","CW_S","TOASTER","1388","419101","417518","414417","220459","NA","NA","NA","NA","419094","418015","NA","417009","NA","416999","419094","1397","419451","NA","NA","418101","1389","1389","418493","416998","1389","418101","419451","morph21_Oliver/Morris","42","40124","55","yes","1280","10"
"300","76.7857142857","76.7857142857","727.196428571","727.196428571","black","no","xpyriment","legacy","legacy","0","205","NA","uniform","73274","1000","0.0136474056282","1","undefined","1","0","55","55","55","0","55","55","55","NA","55","55","0","55","NA","55","55","0","55","NA","55","NA","55","0","0","55","55","0","55","55","56","z","01/26/18 13:27:15","The main experiment item","yes","FIN__AB__M21__7%3A10%3A17.osexp","C:\Users\ERP Testing Room\Desktop\Joanna\morph21","no","mono","no","18","no","white","no","yes","1080","legacy","55","55","C:/Users/ERP Testing Room/Desktop/Joanna/morph21/subject-122.csv","xpyriment","Jazzy James","3.1.4","0","z","NA","NA","NA","NA","space","z","599","NA","NA","NA","NA","219062","599","2","legacy","1024","2","48000","-16","AB_m21","122","even","NW_S_SIMP","BOLTOES","1388","422276","420693","414417","220459","NA","NA","NA","NA","422273","421190","NA","420193","NA","420185","422273","1397","422576","NA","NA","421276","1389","1389","421676","420184","1389","421276","422576","morph21_Oliver/Morris","43","40723","56","yes","1280","13"
"350","77.1929824561","77.1929824561","722.912280702","722.912280702","black","no","xpyriment","legacy","legacy","0","207","NA","uniform","75245","1000","0.013289919596","1","undefined","1","0","56","56","56","0","56","56","56","NA","56","56","0","56","NA","56","56","0","56","NA","56","NA","56","0","0","56","56","0","56","56","57","/","01/26/18 13:27:15","The main experiment item","yes","FIN__AB__M21__7%3A10%3A17.osexp","C:\Users\ERP Testing Room\Desktop\Joanna\morph21","no","mono","no","18","no","white","no","yes","1080","legacy","56","56","C:/Users/ERP Testing Room/Desktop/Joanna/morph21/subject-122.csv","xpyriment","Jazzy James","3.1.4","0","/","NA","NA","NA","NA","space","/","483","NA","NA","NA","NA","219062","483","2","legacy","1024","2","48000","-16","AB_m21","122","even","FILL_W","WEIRD","1388","426885","423776","425376","220459","NA","NA","NA","NA","425373","424273","NA","423276","NA","423271","425373","1397","427235","NA","NA","424376","1389","1389","424776","423271","1389","424376","427235","morph21_Oliver/Morris","44","41206","57","yes","1280","2"
"400","77.5862068966","77.5862068966","721.965517241","721.965517241","black","no","xpyriment","legacy","legacy","0","202","NA","uniform","70748","1000","0.0141346751852","1","undefined","1","0","57","57","57","0","57","57","57","NA","57","57","0","57","NA","57","57","0","57","NA","57","NA","57","0","0","57","57","0","57","57","58","/","01/26/18 13:27:15","The main experiment item","yes","FIN__AB__M21__7%3A10%3A17.osexp","C:\Users\ERP Testing Room\Desktop\Joanna\morph21","no","mono","no","18","no","white","no","yes","1080","legacy","57","57","C:/Users/ERP Testing Room/Desktop/Joanna/morph21/subject-122.csv","xpyriment","Jazzy James","3.1.4","0","/","NA","NA","NA","NA","space","/","668","NA","NA","NA","NA","219062","668","2","legacy","1024","2","48000","-16","AB_m21","122","even","CW_L","DRYNESS","1388","430135","428518","425376","220459","NA","NA","NA","NA","430131","429015","NA","428018","NA","428015","430131","1397","430535","NA","NA","429135","1389","1389","429535","428015","1389","429135","430535","morph21_Oliver/Morris","45","41874","58","yes","1280","42"
"300","77.9661016949","77.9661016949","719.949152542","719.949152542","black","no","xpyriment","legacy","legacy","0","202","NA","uniform","76936","1000","0.0129978163669","1","undefined","1","0","58","58","58","0","58","58","58","NA","58","58","0","58","NA","58","58","0","58","NA","58","NA","58","0","0","58","58","0","58","58","59","/","01/26/18 13:27:15","The main experiment item","yes","FIN__AB__M21__7%3A10%3A17.osexp","C:\Users\ERP Testing Room\Desktop\Joanna\morph21","no","mono","no","18","no","white","no","yes","1080","legacy","58","58","C:/Users/ERP Testing Room/Desktop/Joanna/morph21/subject-122.csv","xpyriment","Jazzy James","3.1.4","0","/","NA","NA","NA","NA","space","/","603","NA","NA","NA","NA","219062","603","2","legacy","1024","2","48000","-16","AB_m21","122","even","CW_L","DAMPISH","1388","433343","431752","425376","220459","NA","NA","NA","NA","433337","432249","NA","431252","NA","431242","433337","1397","433643","NA","NA","432343","1389","1389","432735","431242","1389","432343","433643","morph21_Oliver/Morris","46","42477","59","yes","1280","28"
"400","78.3333333333","78.3333333333","717.1","717.1","black","no","xpyriment","legacy","legacy","0","202","NA","uniform","74436","1000","0.0134343597184","1","undefined","1","0","59","59","59","0","59","59","59","NA","59","59","0","59","NA","59","59","0","59","NA","59","NA","59","0","0","59","59","0","59","59","60","/","01/26/18 13:27:15","The main experiment item","yes","FIN__AB__M21__7%3A10%3A17.osexp","C:\Users\ERP Testing Room\Desktop\Joanna\morph21","no","mono","no","18","no","white","no","yes","1080","legacy","59","59","C:/Users/ERP Testing Room/Desktop/Joanna/morph21/subject-122.csv","xpyriment","Jazzy James","3.1.4","0","/","NA","NA","NA","NA","space","/","549","NA","NA","NA","NA","219062","549","2","legacy","1024","2","48000","-16","AB_m21","122","even","CW_L","QUIETLY","1388","437995","434878","436486","220459","NA","NA","NA","NA","436481","435375","NA","434378","NA","434372","436481","1397","438395","NA","NA","435486","1389","1389","435886","434371","1389","435486","438395","morph21_Oliver/Morris","47","43026","60","yes","1280","36"
"400","78.6885245902","78.6885245902","714.540983607","714.540983607","black","no","xpyriment","legacy","legacy","0","208","NA","uniform","78699","1000","0.0127066417616","1","undefined","1","0","60","60","60","0","60","60","60","NA","60","60","0","60","NA","60","60","0","60","NA","60","NA","60","0","0","60","60","0","60","60","61","z","01/26/18 13:27:15","The main experiment item","yes","FIN__AB__M21__7%3A10%3A17.osexp","C:\Users\ERP Testing Room\Desktop\Joanna\morph21","no","mono","no","18","no","white","no","yes","1080","legacy","60","60","C:/Users/ERP Testing Room/Desktop/Joanna/morph21/subject-122.csv","xpyriment","Jazzy James","3.1.4","0","z","NA","NA","NA","NA","space","z","561","NA","NA","NA","NA","219062","561","2","legacy","1024","2","48000","-16","AB_m21","122","even","FILL_NW","BALFS","1388","441186","439603","436486","220459","NA","NA","NA","NA","441180","440100","NA","439103","NA","439100","441180","1397","441586","NA","NA","440186","1389","1389","440578","439100","1389","440186","441586","morph21_Oliver/Morris","48","43587","61","yes","1280","2"
"250","79.0322580645","79.0322580645","713.419354839","713.419354839","black","no","xpyriment","legacy","legacy","0","203","NA","uniform","76849","1000","0.0130125310674","1","undefined","1","0","61","61","61","0","61","61","61","NA","61","61","0","61","NA","61","61","0","61","NA","61","NA","61","0","0","61","61","0","61","61","62","z","01/26/18 13:27:15","The main experiment item","yes","FIN__AB__M21__7%3A10%3A17.osexp","C:\Users\ERP Testing Room\Desktop\Joanna\morph21","no","mono","no","18","no","white","no","yes","1080","legacy","61","61","C:/Users/ERP Testing Room/Desktop/Joanna/morph21/subject-122.csv","xpyriment","Jazzy James","3.1.4","0","z","NA","NA","NA","NA","space","z","645","NA","NA","NA","NA","219062","645","2","legacy","1024","2","48000","-16","AB_m21","122","even","NW_S_COMP","LIDARY","1388","444478","442878","436486","220459","NA","NA","NA","NA","444474","443375","NA","442378","NA","442369","444474","1397","444728","NA","NA","443478","1389","1389","443878","442369","1389","443478","444728","morph21_Oliver/Morris","49","44232","62","yes","1280","3"
"350","79.3650793651","79.3650793651","713.079365079","713.079365079","black","no","xpyriment","legacy","legacy","0","208","NA","uniform","74074","1000","0.0135000135","1","undefined","1","0","62","62","62","0","62","62","62","NA","62","62","0","62","NA","62","62","0","62","NA","62","NA","62","0","0","62","62","0","62","62","63","z","01/26/18 13:27:15","The main experiment item","yes","FIN__AB__M21__7%3A10%3A17.osexp","C:\Users\ERP Testing Room\Desktop\Joanna\morph21","no","mono","no","18","no","white","no","yes","1080","legacy","62","62","C:/Users/ERP Testing Room/Desktop/Joanna/morph21/subject-122.csv","xpyriment","Jazzy James","3.1.4","0","z","NA","NA","NA","NA","space","z","692","NA","NA","NA","NA","219062","692","2","legacy","1024","2","48000","-16","AB_m21","122","even","FILL_NW","KRAISE","1388","449012","445912","447503","220459","NA","NA","NA","NA","447498","446409","NA","445412","NA","445407","447498","1397","449362","NA","NA","446503","1389","1389","446895","445407","1389","446503","449362","morph21_Oliver/Morris","50","44924","63","yes","1280","33"
"350","79.6875","79.6875","710.203125","710.203125","black","no","xpyriment","legacy","legacy","0","202","NA","uniform","73052","1000","0.0136888791546","1","undefined","1","0","63","63","63","0","63","63","63","NA","63","63","0","63","NA","63","63","0","63","NA","63","NA","63","0","0","63","63","0","63","63","64","/","01/26/18 13:27:15","The main experiment item","yes","FIN__AB__M21__7%3A10%3A17.osexp","C:\Users\ERP Testing Room\Desktop\Joanna\morph21","no","mono","no","18","no","white","no","yes","1080","legacy","63","63","C:/Users/ERP Testing Room/Desktop/Joanna/morph21/subject-122.csv","xpyriment","Jazzy James","3.1.4","0","/","NA","NA","NA","NA","space","/","529","NA","NA","NA","NA","219062","529","2","legacy","1024","2","48000","-16","AB_m21","122","even","CW_L","PUNCHER","1388","452146","450545","447503","220459","NA","NA","NA","NA","452142","451042","NA","450045","NA","450037","452142","1397","452496","NA","NA","451146","1389","1389","451546","450037","1389","451146","452496","morph21_Oliver/Morris","51","45453","64","yes","1280","1"
"400","78.4615384615","78.4615384615","705.215384615","705.215384615","black","no","xpyriment","legacy","legacy","0","208","NA","uniform","78212","1000","0.0127857617757","0","undefined","0","0","64","64","64","0","64","64","64","NA","64","64","0","64","NA","64","64","0","64","NA","64","NA","64","0","0","64","64","0","64","64","65","z","01/26/18 13:27:15","The main experiment item","yes","FIN__AB__M21__7%3A10%3A17.osexp","C:\Users\ERP Testing Room\Desktop\Joanna\morph21","no","mono","no","18","no","white","no","yes","1080","legacy","64","64","C:/Users/ERP Testing Room/Desktop/Joanna/morph21/subject-122.csv","xpyriment","Jazzy James","3.1.4","0","/","NA","NA","NA","NA","space","/","386","NA","NA","NA","NA","219062","386","2","legacy","1024","2","48000","-16","AB_m21","122","even","FILL_NW","SOISE","1388","455305","453721","447503","220459","NA","NA","NA","NA","452142","454218","NA","453221","NA","453217","455301","1397","455705","NA","NA","454305","1389","1389","454705","453217","1389","454305","455705","morph21_Oliver/Morris","51","45839","65","yes","1280","43"
"200","78.7878787879","78.7878787879","703.227272727","703.227272727","black","no","xpyriment","legacy","legacy","0","204","NA","uniform","77396","1000","0.0129205643703","1","undefined","1","0","65","65","65","0","65","65","65","NA","65","65","0","65","NA","65","65","0","65","NA","65","NA","65","0","0","65","65","0","65","65","66","z","01/26/18 13:27:15","The main experiment item","yes","FIN__AB__M21__7%3A10%3A17.osexp","C:\Users\ERP Testing Room\Desktop\Joanna\morph21","no","mono","no","18","no","white","no","yes","1080","legacy","65","65","C:/Users/ERP Testing Room/Desktop/Joanna/morph21/subject-122.csv","xpyriment","Jazzy James","3.1.4","0","z","NA","NA","NA","NA","space","z","574","NA","NA","NA","NA","219062","574","2","legacy","1024","2","48000","-16","AB_m21","122","even","NW_L_COMP","PITCHORY","1388","460113","457013","458605","220459","NA","NA","NA","NA","458600","457510","NA","456513","NA","456504","458600","1397","460313","NA","NA","457605","1389","1389","458005","456504","1389","457605","460313","morph21_Oliver/Morris","52","46413","66","yes","1280","25"
"200","77.6119402985","77.6119402985","707.567164179","707.567164179","black","no","xpyriment","legacy","legacy","0","203","NA","uniform","62694","1000","0.01595048968","0","undefined","0","0","66","66","66","0","66","66","66","NA","66","66","0","66","NA","66","66","0","66","NA","66","NA","66","0","0","66","66","0","66","66","67","z","01/26/18 13:27:15","The main experiment item","yes","FIN__AB__M21__7%3A10%3A17.osexp","C:\Users\ERP Testing Room\Desktop\Joanna\morph21","no","mono","no","18","no","white","no","yes","1080","legacy","66","66","C:/Users/ERP Testing Room/Desktop/Joanna/morph21/subject-122.csv","xpyriment","Jazzy James","3.1.4","0","None","NA","NA","NA","NA","space","None","994","NA","NA","NA","NA","219062","994","2","legacy","1024","2","48000","-16","AB_m21","122","even","NW_S_COMP","HAPPENANCE","1388","463113","461530","458605","220459","NA","NA","NA","NA","458600","462027","NA","461030","NA","461022","463107","1397","463313","NA","NA","462113","1389","1389","462505","461022","1389","462113","463313","morph21_Oliver/Morris","52","47407","67","yes","1280","2"
"300","76.4705882353","76.4705882353","704.102941176","704.102941176","black","no","xpyriment","legacy","legacy","0","204","NA","uniform","81687","1000","0.0122418499884","0","undefined","0","0","67","67","67","0","67","67","67","NA","67","67","0","67","NA","67","67","0","67","NA","67","NA","67","0","0","67","67","0","67","67","68","z","01/26/18 13:27:15","The main experiment item","yes","FIN__AB__M21__7%3A10%3A17.osexp","C:\Users\ERP Testing Room\Desktop\Joanna\morph21","no","mono","no","18","no","white","no","yes","1080","legacy","67","67","C:/Users/ERP Testing Room/Desktop/Joanna/morph21/subject-122.csv","xpyriment","Jazzy James","3.1.4","0","/","NA","NA","NA","NA","space","/","472","NA","NA","NA","NA","219062","472","2","legacy","1024","2","48000","-16","AB_m21","122","even","NW_L_COMP","EMPLOYNESS","1388","466139","464513","458605","220459","NA","NA","NA","NA","458600","465011","NA","464013","NA","464010","466128","1397","466439","NA","NA","465139","1389","1389","465530","464009","1389","465138","466439","morph21_Oliver/Morris","52","47879","68","yes","1280","21"
"250","76.8115942029","76.8115942029","705.826086957","705.826086957","black","no","xpyriment","legacy","legacy","0","203","NA","uniform","63467","1000","0.0157562197678","1","undefined","1","0","68","68","68","0","68","68","68","NA","68","68","0","68","NA","68","68","0","68","NA","68","NA","68","0","0","68","68","0","68","68","69","z","01/26/18 13:27:15","The main experiment item","yes","FIN__AB__M21__7%3A10%3A17.osexp","C:\Users\ERP Testing Room\Desktop\Joanna\morph21","no","mono","no","18","no","white","no","yes","1080","legacy","68","68","C:/Users/ERP Testing Room/Desktop/Joanna/morph21/subject-122.csv","xpyriment","Jazzy James","3.1.4","0","z","NA","NA","NA","NA","space","z","823","NA","NA","NA","NA","219062","823","2","legacy","1024","2","48000","-16","AB_m21","122","even","NW_S_COMP","TREASONIZE","1388","470865","467739","469356","220459","NA","NA","NA","NA","469352","468236","NA","467239","NA","467229","469352","1397","471115","NA","NA","468364","1389","1389","468756","467229","1389","468364","471115","morph21_Oliver/Morris","53","48702","69","yes","1280","14"
"350","75.7142857143","75.7142857143","702.714285714","702.714285714","black","no","xpyriment","legacy","legacy","0","204","NA","uniform","73126","1000","0.0136750266663","0","undefined","0","0","69","69","69","0","69","69","69","NA","69","69","0","69","NA","69","69","0","69","NA","69","NA","69","0","0","69","69","0","69","69","70","z","01/26/18 13:27:15","The main experiment item","yes","FIN__AB__M21__7%3A10%3A17.osexp","C:\Users\ERP Testing Room\Desktop\Joanna\morph21","no","mono","no","18","no","white","no","yes","1080","legacy","69","69","C:/Users/ERP Testing Room/Desktop/Joanna/morph21/subject-122.csv","xpyriment","Jazzy James","3.1.4","0","/","NA","NA","NA","NA","space","/","488","NA","NA","NA","NA","219062","488","2","legacy","1024","2","48000","-16","AB_m21","122","even","NW_L_COMP","AGREELY","1388","473923","472340","469356","220459","NA","NA","NA","NA","469352","472837","NA","471840","NA","471830","473918","1397","474273","NA","NA","472923","1389","1389","473323","471830","1389","472923","474273","morph21_Oliver/Morris","53","49190","70","yes","1280","24"
"350","76.0563380282","76.0563380282","702.084507042","702.084507042","black","no","xpyriment","legacy","legacy","0","206","NA","uniform","73552","1000","0.0135958233631","1","undefined","1","0","70","70","70","0","70","70","70","NA","70","70","0","70","NA","70","70","0","70","NA","70","NA","70","0","0","70","70","0","70","70","71","z","01/26/18 13:27:15","The main experiment item","yes","FIN__AB__M21__7%3A10%3A17.osexp","C:\Users\ERP Testing Room\Desktop\Joanna\morph21","no","mono","no","18","no","white","no","yes","1080","legacy","70","70","C:/Users/ERP Testing Room/Desktop/Joanna/morph21/subject-122.csv","xpyriment","Jazzy James","3.1.4","0","z","NA","NA","NA","NA","space","z","658","NA","NA","NA","NA","219062","658","2","legacy","1024","2","48000","-16","AB_m21","122","even","NW_L_SIMP","WITCHITH","1388","477073","475465","469356","220459","NA","NA","NA","NA","477066","475962","NA","474965","NA","474961","477066","1397","477423","NA","NA","476073","1389","1389","476465","474961","1389","476073","477423","morph21_Oliver/Morris","54","49848","71","yes","1280","11"
"350","76.3888888889","76.3888888889","703.319444444","703.319444444","black","no","xpyriment","legacy","legacy","0","203","NA","uniform","69574","1000","0.0143731853853","1","undefined","1","0","71","71","71","0","71","71","71","NA","71","71","0","71","NA","71","71","0","71","NA","71","NA","71","0","0","71","71","0","71","71","72","z","01/26/18 13:27:15","The main experiment item","yes","FIN__AB__M21__7%3A10%3A17.osexp","C:\Users\ERP Testing Room\Desktop\Joanna\morph21","no","mono","no","18","no","white","no","yes","1080","legacy","71","71","C:/Users/ERP Testing Room/Desktop/Joanna/morph21/subject-122.csv","xpyriment","Jazzy James","3.1.4","0","z","NA","NA","NA","NA","space","z","791","NA","NA","NA","NA","219062","791","2","legacy","1024","2","48000","-16","AB_m21","122","even","NW_S_COMP","DEBTISH","1388","481840","478707","480332","220459","NA","NA","NA","NA","480325","479204","NA","478207","NA","478201","480325","1397","482190","NA","NA","479332","1389","1389","479723","478201","1389","479332","482190","morph21_Oliver/Morris","55","50639","72","yes","1280","22"
"300","76.7123287671","76.7123287671","703.520547945","703.520547945","black","no","xpyriment","legacy","legacy","0","206","NA","uniform","74563","1000","0.0134114775425","1","undefined","1","0","72","72","72","0","72","72","72","NA","72","72","0","72","NA","72","72","0","72","NA","72","NA","72","0","0","72","72","0","72","72","73","z","01/26/18 13:27:15","The main experiment item","yes","FIN__AB__M21__7%3A10%3A17.osexp","C:\Users\ERP Testing Room\Desktop\Joanna\morph21","no","mono","no","18","no","white","no","yes","1080","legacy","72","72","C:/Users/ERP Testing Room/Desktop/Joanna/morph21/subject-122.csv","xpyriment","Jazzy James","3.1.4","0","z","NA","NA","NA","NA","space","z","718","NA","NA","NA","NA","219062","718","2","legacy","1024","2","48000","-16","AB_m21","122","even","NW_L_SIMP","BANDADY","1388","484949","483374","480332","220459","NA","NA","NA","NA","484945","483871","NA","482874","NA","482869","484945","1397","485249","NA","NA","483949","1389","1389","484349","482869","1389","483949","485249","morph21_Oliver/Morris","56","51357","73","yes","1280","3"
"300","77.027027027","77.027027027","702.932432432","702.932432432","black","no","xpyriment","legacy","legacy","0","203","NA","uniform","70016","1000","0.0142824497258","1","undefined","1","0","73","73","73","0","73","73","73","NA","73","73","0","73","NA","73","73","0","73","NA","73","NA","73","0","0","73","73","0","73","73","74","z","01/26/18 13:27:15","The main experiment item","yes","FIN__AB__M21__7%3A10%3A17.osexp","C:\Users\ERP Testing Room\Desktop\Joanna\morph21","no","mono","no","18","no","white","no","yes","1080","legacy","73","73","C:/Users/ERP Testing Room/Desktop/Joanna/morph21/subject-122.csv","xpyriment","Jazzy James","3.1.4","0","z","NA","NA","NA","NA","space","z","660","NA","NA","NA","NA","219062","660","2","legacy","1024","2","48000","-16","AB_m21","122","even","NW_S_COMP","FIGER","1388","488183","486591","480332","220459","NA","NA","NA","NA","488178","487088","NA","486091","NA","486084","488178","1397","488483","NA","NA","487183","1389","1389","487583","486084","1389","487183","488483","morph21_Oliver/Morris","57","52017","74","yes","1280","4"
"300","76","76","706.12","706.12","black","no","xpyriment","legacy","legacy","0","204","NA","uniform","66504","1000","0.0150366895224","undefined","undefined","0","0","74","74","74","0","74","74","74","NA","74","74","0","74","NA","74","74","0","74","NA","74","NA","74","0","0","74","74","0","74","74","75","z","01/26/18 13:27:15","The main experiment item","yes","FIN__AB__M21__7%3A10%3A17.osexp","C:\Users\ERP Testing Room\Desktop\Joanna\morph21","no","mono","no","18","no","white","no","yes","1080","legacy","74","74","C:/Users/ERP Testing Room/Desktop/Joanna/morph21/subject-122.csv","xpyriment","Jazzy James","3.1.4","0","space","space","NA","NA","NA","space","/","181085","181085","NA","NA","NA","219062","942","2","legacy","1024","2","48000","-16","AB_m21","122","even","NW_L_COMP","FELLOWOUS","1388","492833","489708","491325","220459","493142","NA","NA","NA","488178","490205","NA","489208","NA","489199","491319","1397","674228","NA","NA","490325","1389","1389","490717","489199","1389","490325","493134","morph21_Oliver/Morris","57","52959","75","yes","1280","17"
"200","75","75","703.578947368","703.578947368","black","no","xpyriment","legacy","legacy","0","208","NA","uniform","74976","1000","0.0133376013658","0","undefined","0","0","75","75","75","0","75","75","75","NA","75","75","0","75","NA","75","75","0","75","NA","75","NA","75","0","0","75","75","0","75","75","76","z","01/26/18 13:27:15","The main experiment item","yes","FIN__AB__M21__7%3A10%3A17.osexp","C:\Users\ERP Testing Room\Desktop\Joanna\morph21","no","mono","no","18","no","white","no","yes","1080","legacy","75","75","C:/Users/ERP Testing Room/Desktop/Joanna/morph21/subject-122.csv","xpyriment","Jazzy James","3.1.4","0","/","space","NA","NA","NA","space","/","513","181085","NA","NA","NA","219062","513","2","legacy","1024","2","48000","-16","AB_m21","122","even","FILL_NW","FROT","1388","677018","675435","491325","220459","493142","NA","NA","NA","488178","675932","NA","674935","NA","674930","677012","1397","677218","NA","NA","676018","1389","1389","676410","674930","1389","676018","677218","morph21_Oliver/Morris","57","53472","76","yes","1280","22"
"350","75.3246753247","75.3246753247","702.311688312","702.311688312","black","no","xpyriment","legacy","legacy","0","205","NA","uniform","68242","1000","0.0146537323056","1","undefined","1","0","76","76","76","0","76","76","76","NA","76","76","0","76","NA","76","76","0","76","NA","76","NA","76","0","0","76","76","0","76","76","77","z","01/26/18 13:27:15","The main experiment item","yes","FIN__AB__M21__7%3A10%3A17.osexp","C:\Users\ERP Testing Room\Desktop\Joanna\morph21","no","mono","no","18","no","white","no","yes","1080","legacy","76","76","C:/Users/ERP Testing Room/Desktop/Joanna/morph21/subject-122.csv","xpyriment","Jazzy James","3.1.4","0","z","space","NA","NA","NA","space","z","606","181085","NA","NA","NA","219062","606","2","legacy","1024","2","48000","-16","AB_m21","122","even","NW_S_SIMP","BASKODY","1388","680094","678511","491325","220459","493142","NA","NA","NA","680091","679008","NA","678010","NA","678006","680091","1397","680444","NA","NA","679102","1389","1389","679494","678006","1389","679102","680444","morph21_Oliver/Morris","58","54078","77","yes","1280","10"
"200","75.641025641","75.641025641","701.692307692","701.692307692","black","no","xpyriment","legacy","legacy","0","207","NA","uniform","74319","1000","0.0134555093583","1","undefined","1","0","77","77","77","0","77","77","77","NA","77","77","0","77","NA","77","77","0","77","NA","77","NA","77","0","0","77","77","0","77","77","78","/","01/26/18 13:27:15","The main experiment item","yes","FIN__AB__M21__7%3A10%3A17.osexp","C:\Users\ERP Testing Room\Desktop\Joanna\morph21","no","mono","no","18","no","white","no","yes","1080","legacy","77","77","C:/Users/ERP Testing Room/Desktop/Joanna/morph21/subject-122.csv","xpyriment","Jazzy James","3.1.4","0","/","space","NA","NA","NA","space","/","654","181085","NA","NA","NA","219062","654","2","legacy","1024","2","48000","-16","AB_m21","122","even","FILL_W","BLEAK","1388","684786","681694","683278","220459","493142","NA","NA","NA","683272","682191","NA","681194","NA","681185","683272","1397","684986","NA","NA","682277","1389","1389","682669","681185","1389","682277","684986","morph21_Oliver/Morris","59","54732","78","yes","1280","5"
"350","75.9493670886","75.9493670886","698.987341772","698.987341772","black","no","xpyriment","legacy","legacy","0","202","NA","uniform","74721","1000","0.0133831185343","1","undefined","1","0","78","78","78","0","78","78","78","NA","78","78","0","78","NA","78","78","0","78","NA","78","NA","78","0","0","78","78","0","78","78","79","/","01/26/18 13:27:15","The main experiment item","yes","FIN__AB__M21__7%3A10%3A17.osexp","C:\Users\ERP Testing Room\Desktop\Joanna\morph21","no","mono","no","18","no","white","no","yes","1080","legacy","78","78","C:/Users/ERP Testing Room/Desktop/Joanna/morph21/subject-122.csv","xpyriment","Jazzy James","3.1.4","0","/","space","NA","NA","NA","space","/","488","181085","NA","NA","NA","219062","488","2","legacy","1024","2","48000","-16","AB_m21","122","even","CW_L","HUNTER","1388","687803","686219","683278","220459","493142","NA","NA","NA","687800","686716","NA","685719","NA","685714","687800","1397","688153","NA","NA","686811","1389","1389","687203","685714","1389","686811","688153","morph21_Oliver/Morris","60","55220","79","yes","1280","10"
"400","76.25","76.25","696.375","696.375","black","no","xpyriment","legacy","legacy","0","202","NA","uniform","76040","1000","0.013150973172","1","undefined","1","0","79","79","79","0","79","79","79","NA","79","79","0","79","NA","79","79","0","79","NA","79","NA","79","0","0","79","79","0","79","79","80","/","01/26/18 13:27:15","The main experiment item","yes","FIN__AB__M21__7%3A10%3A17.osexp","C:\Users\ERP Testing Room\Desktop\Joanna\morph21","no","mono","no","18","no","white","no","yes","1080","legacy","79","79","C:/Users/ERP Testing Room/Desktop/Joanna/morph21/subject-122.csv","xpyriment","Jazzy James","3.1.4","0","/","space","NA","NA","NA","space","/","490","181085","NA","NA","NA","219062","490","2","legacy","1024","2","48000","-16","AB_m21","122","even","CW_L","FAITHFUL","1388","690970","689386","683278","220459","493142","NA","NA","NA","690966","689883","NA","688886","NA","688882","690966","1397","691370","NA","NA","689969","1389","1389","690369","688882","1389","689969","691370","morph21_Oliver/Morris","61","55710","80","yes","1280","20"
"300","76.5432098765","76.5432098765","697.172839506","697.172839506","black","no","xpyriment","legacy","legacy","0","204","NA","uniform","64930","1000","0.0154012012937","1","undefined","1","0","80","80","80","0","80","80","80","NA","80","80","0","80","NA","80","80","0","80","NA","80","NA","80","0","0","80","80","0","80","80","81","z","01/26/18 13:27:15","The main experiment item","yes","FIN__AB__M21__7%3A10%3A17.osexp","C:\Users\ERP Testing Room\Desktop\Joanna\morph21","no","mono","no","18","no","white","no","yes","1080","legacy","80","80","C:/Users/ERP Testing Room/Desktop/Joanna/morph21/subject-122.csv","xpyriment","Jazzy James","3.1.4","0","z","space","NA","NA","NA","space","z","761","181085","NA","NA","NA","219062","761","2","legacy","1024","2","48000","-16","AB_m21","122","even","NW_L_COMP","NORTHIZE","1388","695670","692578","694161","220459","493142","NA","NA","NA","694158","693075","NA","692078","NA","692066","694158","1397","695970","NA","NA","693170","1389","1389","693561","692066","1389","693170","695970","morph21_Oliver/Morris","62","56471","81","yes","1280","20"
"250","76.8292682927","76.8292682927","698.475609756","698.475609756","black","no","xpyriment","legacy","legacy","0","206","NA","uniform","67206","1000","0.0148796238431","1","undefined","1","0","81","81","81","0","81","81","81","NA","81","81","0","81","NA","81","81","0","81","NA","81","NA","81","0","0","81","81","0","81","81","82","z","01/26/18 13:27:15","The main experiment item","yes","FIN__AB__M21__7%3A10%3A17.osexp","C:\Users\ERP Testing Room\Desktop\Joanna\morph21","no","mono","no","18","no","white","no","yes","1080","legacy","81","81","C:/Users/ERP Testing Room/Desktop/Joanna/morph21/subject-122.csv","xpyriment","Jazzy James","3.1.4","0","z","space","NA","NA","NA","space","z","804","181085","NA","NA","NA","219062","804","2","legacy","1024","2","48000","-16","AB_m21","122","even","NW_L_SIMP"," DRESSODY","1388","698871","697263","694161","220459","493142","NA","NA","NA","698863","697760","NA","696762","NA","696756","698863","1397","699121","NA","NA","697871","1389","1389","698262","696756","1389","697871","699121","morph21_Oliver/Morris","63","57275","82","yes","1280","21"
"400","77.1084337349","77.1084337349","697.518072289","697.518072289","black","no","xpyriment","legacy","legacy","0","201","NA","uniform","69363","1000","0.0144169081499","1","undefined","1","0","82","82","82","0","82","82","82","NA","82","82","0","82","NA","82","82","0","82","NA","82","NA","82","0","0","82","82","0","82","82","83","/","01/26/18 13:27:15","The main experiment item","yes","FIN__AB__M21__7%3A10%3A17.osexp","C:\Users\ERP Testing Room\Desktop\Joanna\morph21","no","mono","no","18","no","white","no","yes","1080","legacy","82","82","C:/Users/ERP Testing Room/Desktop/Joanna/morph21/subject-122.csv","xpyriment","Jazzy James","3.1.4","0","/","space","NA","NA","NA","space","/","619","181085","NA","NA","NA","219062","619","2","legacy","1024","2","48000","-16","AB_m21","122","even","CW_S","DIETARY","1388","702088","700504","694161","220459","493142","NA","NA","NA","702083","701001","NA","700004","NA","699997","702083","1397","702488","NA","NA","701088","1389","1389","701488","699997","1389","701088","702488","morph21_Oliver/Morris","64","57894","83","yes","1280","6"
"300","77.380952381","77.380952381","696.464285714","696.464285714","black","no","xpyriment","legacy","legacy","0","201","NA","uniform","72898","1000","0.0137177974704","1","undefined","1","0","83","83","83","0","83","83","83","NA","83","83","0","83","NA","83","83","0","83","NA","83","NA","83","0","0","83","83","0","83","83","84","/","01/26/18 13:27:15","The main experiment item","yes","FIN__AB__M21__7%3A10%3A17.osexp","C:\Users\ERP Testing Room\Desktop\Joanna\morph21","no","mono","no","18","no","white","no","yes","1080","legacy","83","83","C:/Users/ERP Testing Room/Desktop/Joanna/morph21/subject-122.csv","xpyriment","Jazzy James","3.1.4","0","/","space","NA","NA","NA","space","/","609","181085","NA","NA","NA","219062","609","2","legacy","1024","2","48000","-16","AB_m21","122","even","CW_S","DESTROYER","1388","706855","703746","705346","220459","493142","NA","NA","NA","705342","704243","NA","703246","NA","703235","705342","1397","707155","NA","NA","704346","1389","1389","704746","703235","1389","704346","707155","morph21_Oliver/Morris","65","58503","84","yes","1280","14"
"400","77.6470588235","77.6470588235","696.164705882","696.164705882","black","no","xpyriment","legacy","legacy","0","208","NA","uniform","69468","1000","0.0143951171763","1","undefined","1","0","84","84","84","0","84","84","84","NA","84","84","0","84","NA","84","84","0","84","NA","84","NA","84","0","0","84","84","0","84","84","85","z","01/26/18 13:27:15","The main experiment item","yes","FIN__AB__M21__7%3A10%3A17.osexp","C:\Users\ERP Testing Room\Desktop\Joanna\morph21","no","mono","no","18","no","white","no","yes","1080","legacy","84","84","C:/Users/ERP Testing Room/Desktop/Joanna/morph21/subject-122.csv","xpyriment","Jazzy James","3.1.4","0","z","space","NA","NA","NA","space","z","671","181085","NA","NA","NA","219062","671","2","legacy","1024","2","48000","-16","AB_m21","122","even","FILL_NW","GIKE","1388","709980","708396","705346","220459","493142","NA","NA","NA","709971","708893","NA","707896","NA","707893","709971","1397","710380","NA","NA","708980","1389","1389","709371","707893","1389","708980","710380","morph21_Oliver/Morris","66","59174","85","yes","1280","24"
"350","76.7441860465","76.7441860465","699.61627907","699.61627907","black","no","xpyriment","legacy","legacy","0","203","NA","uniform","63795","1000","0.0156752096559","0","undefined","0","0","85","85","85","0","85","85","85","NA","85","85","0","85","NA","85","85","0","85","NA","85","NA","85","0","0","85","85","0","85","85","86","z","01/26/18 13:27:15","The main experiment item","yes","FIN__AB__M21__7%3A10%3A17.osexp","C:\Users\ERP Testing Room\Desktop\Joanna\morph21","no","mono","no","18","no","white","no","yes","1080","legacy","85","85","C:/Users/ERP Testing Room/Desktop/Joanna/morph21/subject-122.csv","xpyriment","Jazzy James","3.1.4","0","None","space","NA","NA","NA","space","None","993","181085","NA","NA","NA","219062","993","2","legacy","1024","2","48000","-16","AB_m21","122","even","NW_S_COMP","FIENDISM","1388","713246","711655","705346","220459","493142","NA","NA","NA","709971","712152","NA","711155","NA","711143","713239","1397","713597","NA","NA","712246","1389","1389","712638","711143","1389","712246","713597","morph21_Oliver/Morris","66","60167","86","yes","1280","24"
"400","75.8620689655","75.8620689655","698.045977011","698.045977011","black","no","xpyriment","legacy","legacy","0","208","NA","uniform","76441","1000","0.0130819847987","0","undefined","0","0","86","86","86","0","86","86","86","NA","86","86","0","86","NA","86","86","0","86","NA","86","NA","86","0","0","86","86","0","86","86","87","z","01/26/18 13:27:15","The main experiment item","yes","FIN__AB__M21__7%3A10%3A17.osexp","C:\Users\ERP Testing Room\Desktop\Joanna\morph21","no","mono","no","18","no","white","no","yes","1080","legacy","86","86","C:/Users/ERP Testing Room/Desktop/Joanna/morph21/subject-122.csv","xpyriment","Jazzy James","3.1.4","0","/","space","NA","NA","NA","space","/","563","181085","NA","NA","NA","219062","563","2","legacy","1024","2","48000","-16","AB_m21","122","even","FILL_NW","VELT","1388","717998","714906","716489","220459","493142","NA","NA","NA","709971","715403","NA","714406","NA","714394","716483","1397","718398","NA","NA","715489","1389","1389","715881","714394","1389","715489","718398","morph21_Oliver/Morris","66","60730","87","yes","1280","46"
"350","76.1363636364","76.1363636364","697.784090909","697.784090909","black","no","xpyriment","legacy","legacy","0","202","NA","uniform","67976","1000","0.0147110744969","1","undefined","1","0","87","87","87","0","87","87","87","NA","87","87","0","87","NA","87","87","0","87","NA","87","NA","87","0","0","87","87","0","87","87","88","/","01/26/18 13:27:15","The main experiment item","yes","FIN__AB__M21__7%3A10%3A17.osexp","C:\Users\ERP Testing Room\Desktop\Joanna\morph21","no","mono","no","18","no","white","no","yes","1080","legacy","87","87","C:/Users/ERP Testing Room/Desktop/Joanna/morph21/subject-122.csv","xpyriment","Jazzy James","3.1.4","0","/","space","NA","NA","NA","space","/","675","181085","NA","NA","NA","219062","675","2","legacy","1024","2","48000","-16","AB_m21","122","even","CW_L","BARKER","1388","721265","719681","716489","220459","493142","NA","NA","NA","721258","720178","NA","719181","NA","719176","721258","1397","721615","NA","NA","720264","1389","1389","720656","719176","1389","720264","721615","morph21_Oliver/Morris","67","61405","88","yes","1280","2"
"250","76.404494382","76.404494382","697.617977528","697.617977528","black","no","xpyriment","legacy","legacy","0","201","NA","uniform","73655","1000","0.0135768108071","1","undefined","1","0","88","88","88","0","88","88","88","NA","88","88","0","88","NA","88","88","0","88","NA","88","NA","88","0","0","88","88","0","88","88","89","/","01/26/18 13:27:15","The main experiment item","yes","FIN__AB__M21__7%3A10%3A17.osexp","C:\Users\ERP Testing Room\Desktop\Joanna\morph21","no","mono","no","18","no","white","no","yes","1080","legacy","88","88","C:/Users/ERP Testing Room/Desktop/Joanna/morph21/subject-122.csv","xpyriment","Jazzy James","3.1.4","0","/","space","NA","NA","NA","space","/","683","181085","NA","NA","NA","219062","683","2","legacy","1024","2","48000","-16","AB_m21","122","even","CW_S","TOSSING","1388","724448","722865","716489","220459","493142","NA","NA","NA","724442","723362","NA","722365","NA","722357","724442","1397","724698","NA","NA","723448","1389","1389","723840","722357","1389","723448","724698","morph21_Oliver/Morris","68","62088","89","yes","1280","26"
"200","76.6666666667","76.6666666667","700.377777778","700.377777778","black","no","xpyriment","legacy","legacy","0","208","NA","uniform","67082","1000","0.0149071285889","1","undefined","1","0","89","89","89","0","89","89","89","NA","89","89","0","89","NA","89","89","0","89","NA","89","NA","89","0","0","89","89","0","89","89","90","z","01/26/18 13:27:15","The main experiment item","yes","FIN__AB__M21__7%3A10%3A17.osexp","C:\Users\ERP Testing Room\Desktop\Joanna\morph21","no","mono","no","18","no","white","no","yes","1080","legacy","89","89","C:/Users/ERP Testing Room/Desktop/Joanna/morph21/subject-122.csv","xpyriment","Jazzy James","3.1.4","0","z","space","NA","NA","NA","space","z","946","181085","NA","NA","NA","219062","946","2","legacy","1024","2","48000","-16","AB_m21","122","even","FILL_NW","PUCTS","1388","729182","726040","727673","220459","493142","NA","NA","NA","727667","726537","NA","725540","NA","725537","727667","1397","729382","NA","NA","726673","1389","1389","727065","725537","1389","726673","729382","morph21_Oliver/Morris","69","63034","90","yes","1280","40"
"200","75.8241758242","75.8241758242","702.736263736","702.736263736","black","no","xpyriment","legacy","legacy","0","205","NA","uniform","64929","1000","0.0154014384944","0","undefined","0","0","90","90","90","0","90","90","90","NA","90","90","0","90","NA","90","90","0","90","NA","90","NA","90","0","0","90","90","0","90","90","91","z","01/26/18 13:27:15","The main experiment item","yes","FIN__AB__M21__7%3A10%3A17.osexp","C:\Users\ERP Testing Room\Desktop\Joanna\morph21","no","mono","no","18","no","white","no","yes","1080","legacy","90","90","C:/Users/ERP Testing Room/Desktop/Joanna/morph21/subject-122.csv","xpyriment","Jazzy James","3.1.4","0","/","space","NA","NA","NA","space","/","915","181085","NA","NA","NA","219062","915","2","legacy","1024","2","48000","-16","AB_m21","122","even","NW_S_SIMP","NULLITH","1388","732241","730657","727673","220459","493142","NA","NA","NA","727667","731154","NA","730157","NA","730150","732234","1397","732441","NA","NA","731241","1389","1389","731633","730150","1389","731241","732441","morph21_Oliver/Morris","69","63949","91","yes","1280","23"
