"ITI","acc","accuracy","average_response_time","avg_rt","background","bidi","canvas_backend","clock_backend","color_backend","compensation","cond_trig","condtrigtime","coordinates","coroutines_cycles","coroutines_duration","coroutines_mean_cycle_duration","correct","correct_instructions_1","correct_new_keyboard_response_1","count_AB_m21","count_ITI","count_blank_screen","count_blink_screen","count_block1","count_break1","count_break2","count_break3_1","count_canvas","count_correct_trigger","count_def_chain","count_end_screen","count_fixation_1","count_getting_started","count_inc_counter","count_incorrect_trigger","count_instructions_1","count_logger","count_logscript","count_new_coroutines","count_new_inline_script","count_new_keyboard_response_1","count_reset_counter_prep","count_reset_counter_run","count_responsescreen","count_sequence","count_start_trigger","count_target_present","count_word_trigger","counter","cresp","datetime","description","disable_garbage_collection","experiment_file","experiment_path","font_bold","font_family","font_italic","font_size","font_underline","foreground","form_clicks","fullscreen","height","keyboard_backend","live_row","live_row_block1","logfile","mouse_backend","opensesame_codename","opensesame_version","repeat_cycle","response","response_break1","response_break2","response_break3_1","response_end_screen","response_instructions_1","response_new_keyboard_response_1","response_time","response_time_break1","response_time_break2","response_time_break3_1","response_time_end_screen","response_time_instructions_1","response_time_new_keyboard_response_1","round_decimals","sampler_backend","sound_buf_size","sound_channels","sound_freq","sound_sample_size","start","subject_nr","subject_parity","targ_type","target","time_AB_m21","time_ITI","time_blank_screen","time_blink_screen","time_block1","time_break1","time_break2","time_break3_1","time_canvas","time_correct_trigger","time_def_chain","time_end_screen","time_fixation_1","time_getting_started","time_inc_counter","time_incorrect_trigger","time_instructions_1","time_logger","time_logscript","time_new_inline_script","time_new_keyboard_response_1","time_reset_counter_prep","time_reset_counter_run","time_responsescreen","time_sequence","time_start_trigger","time_target_present","time_word_trigger","title","total_correct","total_response_time","total_responses","uniform_coordinates","width","word_trig"
"400","0","0","990","990","black","no","xpyriment","legacy","legacy","0","205","NA","uniform","48696","1000","0.0205355676031","0","undefined","0","0","0","0","0","0","0","0","0","NA","0","0","0","0","NA","0","0","0","0","NA","0","NA","0","0","0","0","0","0","0","0","1","z","11/09/18 16:42:21","The main experiment item","yes","FIN__AB__M21__7%3A10%3A17.osexp","C:\Users\ERP Testing Room\Desktop\Joanna\morph21","no","mono","no","18","no","white","no","yes","1080","legacy","0","0","C:/Users/ERP Testing Room/Desktop/Joanna/morph21/subject-150.csv","xpyriment","Kafkaesque Koffka","3.2.5","0","None","NA","NA","NA","NA","space","None","990","NA","NA","NA","NA","168095","990","2","legacy","1024","2","48000","-16","AB_m21","150","even","NW_S_SIMP","URNILT","1193","172194","170476","NA","169298","NA","NA","NA","NA","NA","170973","NA","169970","NA","169896","172183","1202","172594","NA","NA","171193","1193","1193","171585","169896","1193","171193","172594","morph21_Oliver/Morris","0","990","1","yes","1280","5"
"400","0","0","990.5","990.5","black","no","xpyriment","legacy","legacy","0","205","NA","uniform","48409","1000","0.0206573157884","0","undefined","0","0","1","1","1","0","1","1","1","NA","1","1","0","1","NA","1","1","0","1","NA","1","NA","1","0","0","1","1","0","1","1","2","z","11/09/18 16:42:21","The main experiment item","yes","FIN__AB__M21__7%3A10%3A17.osexp","C:\Users\ERP Testing Room\Desktop\Joanna\morph21","no","mono","no","18","no","white","no","yes","1080","legacy","1","1","C:/Users/ERP Testing Room/Desktop/Joanna/morph21/subject-150.csv","xpyriment","Kafkaesque Koffka","3.2.5","0","None","NA","NA","NA","NA","space","None","991","NA","NA","NA","NA","168095","991","2","legacy","1024","2","48000","-16","AB_m21","150","even","NW_S_SIMP","RAMPIME","1193","175485","173752","NA","169298","NA","NA","NA","NA","NA","174249","NA","173252","NA","173243","175476","1202","175885","NA","NA","174485","1193","1193","174877","173242","1193","174485","175885","morph21_Oliver/Morris","0","1981","2","yes","1280","6"
"250","0","0","992","992","black","no","xpyriment","legacy","legacy","0","201","NA","uniform","54661","1000","0.0182945793161","0","undefined","0","0","2","2","2","0","2","2","2","NA","2","2","0","2","NA","2","2","0","2","NA","2","NA","2","0","0","2","2","0","2","2","3","/","11/09/18 16:42:21","The main experiment item","yes","FIN__AB__M21__7%3A10%3A17.osexp","C:\Users\ERP Testing Room\Desktop\Joanna\morph21","no","mono","no","18","no","white","no","yes","1080","legacy","2","2","C:/Users/ERP Testing Room/Desktop/Joanna/morph21/subject-150.csv","xpyriment","Kafkaesque Koffka","3.2.5","0","None","NA","NA","NA","NA","space","None","995","NA","NA","NA","NA","168095","995","2","legacy","1024","2","48000","-16","AB_m21","150","even","CW_S","HUGELY","1193","180444","177244","178936","169298","NA","NA","NA","NA","NA","177741","NA","176736","NA","176724","178931","1202","180694","NA","NA","177936","1193","1193","178336","176724","1193","177936","180694","morph21_Oliver/Morris","0","2976","3","yes","1280","35"
"250","0","0","991","991","black","no","xpyriment","legacy","legacy","0","207","NA","uniform","45975","1000","0.0217509516041","0","undefined","0","0","3","3","3","0","3","3","3","NA","3","3","0","3","NA","3","3","0","3","NA","3","NA","3","0","0","3","3","0","3","3","4","/","11/09/18 16:42:21","The main experiment item","yes","FIN__AB__M21__7%3A10%3A17.osexp","C:\Users\ERP Testing Room\Desktop\Joanna\morph21","no","mono","no","18","no","white","no","yes","1080","legacy","3","3","C:/Users/ERP Testing Room/Desktop/Joanna/morph21/subject-150.csv","xpyriment","Kafkaesque Koffka","3.2.5","0","None","NA","NA","NA","NA","space","None","988","NA","NA","NA","NA","168095","988","2","legacy","1024","2","48000","-16","AB_m21","150","even","FILL_W","FIERCE","1193","183511","181819","178936","169298","NA","NA","NA","NA","NA","182316","NA","181319","NA","181312","183507","1202","183761","NA","NA","182519","1193","1193","182911","181312","1193","182519","183761","morph21_Oliver/Morris","0","3964","4","yes","1280","24"
"300","0","0","991.6","991.6","black","no","xpyriment","legacy","legacy","0","206","NA","uniform","52845","1000","0.0189232661557","0","undefined","0","0","4","4","4","0","4","4","4","NA","4","4","0","4","NA","4","4","0","4","NA","4","NA","4","0","0","4","4","0","4","4","5","z","11/09/18 16:42:21","The main experiment item","yes","FIN__AB__M21__7%3A10%3A17.osexp","C:\Users\ERP Testing Room\Desktop\Joanna\morph21","no","mono","no","18","no","white","no","yes","1080","legacy","4","4","C:/Users/ERP Testing Room/Desktop/Joanna/morph21/subject-150.csv","xpyriment","Kafkaesque Koffka","3.2.5","0","None","NA","NA","NA","NA","space","None","994","NA","NA","NA","NA","168095","994","2","legacy","1024","2","48000","-16","AB_m21","150","even","NW_L_SIMP","BEGENGE","1193","186744","185061","178936","169298","NA","NA","NA","NA","NA","185558","NA","184561","NA","184556","186739","1202","187044","NA","NA","185744","1193","1193","186144","184556","1193","185744","187044","morph21_Oliver/Morris","0","4958","5","yes","1280","4"
"200","0","0","991.333333333","991.333333333","black","no","xpyriment","legacy","legacy","0","205","NA","uniform","54338","1000","0.0184033273216","0","undefined","0","0","5","5","5","0","5","5","5","NA","5","5","0","5","NA","5","5","0","5","NA","5","NA","5","0","0","5","5","0","5","5","6","z","11/09/18 16:42:21","The main experiment item","yes","FIN__AB__M21__7%3A10%3A17.osexp","C:\Users\ERP Testing Room\Desktop\Joanna\morph21","no","mono","no","18","no","white","no","yes","1080","legacy","5","5","C:/Users/ERP Testing Room/Desktop/Joanna/morph21/subject-150.csv","xpyriment","Kafkaesque Koffka","3.2.5","0","None","NA","NA","NA","NA","space","None","990","NA","NA","NA","NA","168095","990","2","legacy","1024","2","48000","-16","AB_m21","150","even","NW_S_SIMP","OPPOSEMANT","1193","191396","188186","189887","169298","NA","NA","NA","NA","NA","188683","NA","187686","NA","187680","189877","1202","191596","NA","NA","188887","1193","1193","189279","187680","1193","188887","191596","morph21_Oliver/Morris","0","5948","6","yes","1280","8"
"250","14.2857142857","14.2857142857","965.714285714","965.714285714","black","no","xpyriment","legacy","legacy","0","201","NA","uniform","58343","1000","0.0171400167972","1","undefined","1","0","6","6","6","0","6","6","6","NA","6","6","0","6","NA","6","6","0","6","NA","6","NA","6","0","0","6","6","0","6","6","7","/","11/09/18 16:42:21","The main experiment item","yes","FIN__AB__M21__7%3A10%3A17.osexp","C:\Users\ERP Testing Room\Desktop\Joanna\morph21","no","mono","no","18","no","white","no","yes","1080","legacy","6","6","C:/Users/ERP Testing Room/Desktop/Joanna/morph21/subject-150.csv","xpyriment","Kafkaesque Koffka","3.2.5","0","/","NA","NA","NA","NA","space","/","812","NA","NA","NA","NA","168095","812","2","legacy","1024","2","48000","-16","AB_m21","150","even","CW_S","JAILER","1193","194437","192762","189887","169298","NA","NA","NA","NA","194430","193259","NA","192262","NA","192257","194430","1202","194687","NA","NA","193437","1193","1193","193829","192257","1193","193437","194687","morph21_Oliver/Morris","1","6760","7","yes","1280","13"
"400","12.5","12.5","969","969","black","no","xpyriment","legacy","legacy","0","208","NA","uniform","54931","1000","0.0182046567512","0","undefined","0","0","7","7","7","0","7","7","7","NA","7","7","0","7","NA","7","7","0","7","NA","7","NA","7","0","0","7","7","0","7","7","8","z","11/09/18 16:42:21","The main experiment item","yes","FIN__AB__M21__7%3A10%3A17.osexp","C:\Users\ERP Testing Room\Desktop\Joanna\morph21","no","mono","no","18","no","white","no","yes","1080","legacy","7","7","C:/Users/ERP Testing Room/Desktop/Joanna/morph21/subject-150.csv","xpyriment","Kafkaesque Koffka","3.2.5","0","None","NA","NA","NA","NA","space","None","992","NA","NA","NA","NA","168095","992","2","legacy","1024","2","48000","-16","AB_m21","150","even","FILL_NW","DROES","1193","197612","195929","189887","169298","NA","NA","NA","NA","194430","196426","NA","195429","NA","195425","197606","1202","198012","NA","NA","196613","1193","1193","197004","195425","1193","196612","198012","morph21_Oliver/Morris","1","7752","8","yes","1280","17"
"300","11.1111111111","11.1111111111","971.444444444","971.444444444","black","no","xpyriment","legacy","legacy","0","205","NA","uniform","51717","1000","0.0193360017016","0","undefined","0","0","8","8","8","0","8","8","8","NA","8","8","0","8","NA","8","8","0","8","NA","8","NA","8","0","0","8","8","0","8","8","9","z","11/09/18 16:42:21","The main experiment item","yes","FIN__AB__M21__7%3A10%3A17.osexp","C:\Users\ERP Testing Room\Desktop\Joanna\morph21","no","mono","no","18","no","white","no","yes","1080","legacy","8","8","C:/Users/ERP Testing Room/Desktop/Joanna/morph21/subject-150.csv","xpyriment","Kafkaesque Koffka","3.2.5","0","None","NA","NA","NA","NA","space","None","991","NA","NA","NA","NA","168095","991","2","legacy","1024","2","48000","-16","AB_m21","150","even","NW_S_SIMP","TILTADY","1193","202354","199179","200846","169298","NA","NA","NA","NA","194430","199676","NA","198679","NA","198669","200837","1202","202655","NA","NA","199846","1193","1193","200238","198669","1193","199846","202655","morph21_Oliver/Morris","1","8743","9","yes","1280","17"
"300","10","10","973.9","973.9","black","no","xpyriment","legacy","legacy","0","205","NA","uniform","49201","1000","0.0203247901465","0","undefined","0","0","9","9","9","0","9","9","9","NA","9","9","0","9","NA","9","9","0","9","NA","9","NA","9","0","0","9","9","0","9","9","10","z","11/09/18 16:42:21","The main experiment item","yes","FIN__AB__M21__7%3A10%3A17.osexp","C:\Users\ERP Testing Room\Desktop\Joanna\morph21","no","mono","no","18","no","white","no","yes","1080","legacy","9","9","C:/Users/ERP Testing Room/Desktop/Joanna/morph21/subject-150.csv","xpyriment","Kafkaesque Koffka","3.2.5","0","None","NA","NA","NA","NA","space","None","996","NA","NA","NA","NA","168095","996","2","legacy","1024","2","48000","-16","AB_m21","150","even","NW_S_SIMP","HEIRIG","1193","205463","203804","200846","169298","NA","NA","NA","NA","194430","204302","NA","203304","NA","203296","205459","1202","205763","NA","NA","204463","1193","1193","204863","203296","1193","204463","205763","morph21_Oliver/Morris","1","9739","10","yes","1280","3"
"400","18.1818181818","18.1818181818","969.909090909","969.909090909","black","no","xpyriment","legacy","legacy","0","207","NA","uniform","55831","1000","0.0179111962888","1","undefined","1","0","10","10","10","0","10","10","10","NA","10","10","0","10","NA","10","10","0","10","NA","10","NA","10","0","0","10","10","0","10","10","11","/","11/09/18 16:42:21","The main experiment item","yes","FIN__AB__M21__7%3A10%3A17.osexp","C:\Users\ERP Testing Room\Desktop\Joanna\morph21","no","mono","no","18","no","white","no","yes","1080","legacy","10","10","C:/Users/ERP Testing Room/Desktop/Joanna/morph21/subject-150.csv","xpyriment","Kafkaesque Koffka","3.2.5","0","/","NA","NA","NA","NA","space","/","930","NA","NA","NA","NA","168095","930","2","legacy","1024","2","48000","-16","AB_m21","150","even","FILL_W","LITHE","1193","208664","206964","200846","169298","NA","NA","NA","NA","208656","207461","NA","206464","NA","206460","208656","1202","209064","NA","NA","207664","1193","1193","208055","206459","1193","207664","209064","morph21_Oliver/Morris","2","10669","11","yes","1280","23"
"300","16.6666666667","16.6666666667","971.75","971.75","black","no","xpyriment","legacy","legacy","0","205","NA","uniform","49059","1000","0.0203836197232","0","undefined","0","0","11","11","11","0","11","11","11","NA","11","11","0","11","NA","11","11","0","11","NA","11","NA","11","0","0","11","11","0","11","11","12","z","11/09/18 16:42:21","The main experiment item","yes","FIN__AB__M21__7%3A10%3A17.osexp","C:\Users\ERP Testing Room\Desktop\Joanna\morph21","no","mono","no","18","no","white","no","yes","1080","legacy","11","11","C:/Users/ERP Testing Room/Desktop/Joanna/morph21/subject-150.csv","xpyriment","Kafkaesque Koffka","3.2.5","0","None","NA","NA","NA","NA","space","None","992","NA","NA","NA","NA","168095","992","2","legacy","1024","2","48000","-16","AB_m21","150","even","NW_S_SIMP","FEVERIME","1193","213414","210247","211906","169298","NA","NA","NA","NA","208656","210744","NA","209747","NA","209741","211898","1202","213714","NA","NA","210906","1193","1193","211297","209741","1193","210906","213714","morph21_Oliver/Morris","2","11661","12","yes","1280","24"
"400","15.3846153846","15.3846153846","973.384615385","973.384615385","black","no","xpyriment","legacy","legacy","0","208","NA","uniform","48359","1000","0.0206786740834","0","undefined","0","0","12","12","12","0","12","12","12","NA","12","12","0","12","NA","12","12","0","12","NA","12","NA","12","0","0","12","12","0","12","12","13","z","11/09/18 16:42:21","The main experiment item","yes","FIN__AB__M21__7%3A10%3A17.osexp","C:\Users\ERP Testing Room\Desktop\Joanna\morph21","no","mono","no","18","no","white","no","yes","1080","legacy","12","12","C:/Users/ERP Testing Room/Desktop/Joanna/morph21/subject-150.csv","xpyriment","Kafkaesque Koffka","3.2.5","0","None","NA","NA","NA","NA","space","None","993","NA","NA","NA","NA","168095","993","2","legacy","1024","2","48000","-16","AB_m21","150","even","FILL_NW","FROES","1193","216597","214939","211906","169298","NA","NA","NA","NA","208656","215436","NA","214439","NA","214428","216591","1202","216998","NA","NA","215598","1193","1193","215989","214428","1193","215598","216998","morph21_Oliver/Morris","2","12654","13","yes","1280","21"
"250","21.4285714286","21.4285714286","952.428571429","952.428571429","black","no","xpyriment","legacy","legacy","0","202","NA","uniform","58462","1000","0.0171051281174","1","undefined","1","0","13","13","13","0","13","13","13","NA","13","13","0","13","NA","13","13","0","13","NA","13","NA","13","0","0","13","13","0","13","13","14","/","11/09/18 16:42:21","The main experiment item","yes","FIN__AB__M21__7%3A10%3A17.osexp","C:\Users\ERP Testing Room\Desktop\Joanna\morph21","no","mono","no","18","no","white","no","yes","1080","legacy","13","13","C:/Users/ERP Testing Room/Desktop/Joanna/morph21/subject-150.csv","xpyriment","Kafkaesque Koffka","3.2.5","0","/","NA","NA","NA","NA","space","/","680","NA","NA","NA","NA","168095","680","2","legacy","1024","2","48000","-16","AB_m21","150","even","CW_L","DANCER","1193","219889","218198","211906","169298","NA","NA","NA","NA","219880","218695","NA","217698","NA","217687","219880","1202","220139","NA","NA","218889","1193","1193","219281","217687","1193","218889","220139","morph21_Oliver/Morris","3","13334","14","yes","1280","11"
"300","20","20","954.666666667","954.666666667","black","no","xpyriment","legacy","legacy","0","205","NA","uniform","48658","1000","0.0205516050804","0","undefined","0","0","14","14","14","0","14","14","14","NA","14","14","0","14","NA","14","14","0","14","NA","14","NA","14","0","0","14","14","0","14","14","15","z","11/09/18 16:42:21","The main experiment item","yes","FIN__AB__M21__7%3A10%3A17.osexp","C:\Users\ERP Testing Room\Desktop\Joanna\morph21","no","mono","no","18","no","white","no","yes","1080","legacy","14","14","C:/Users/ERP Testing Room/Desktop/Joanna/morph21/subject-150.csv","xpyriment","Kafkaesque Koffka","3.2.5","0","None","NA","NA","NA","NA","space","None","986","NA","NA","NA","NA","168095","986","2","legacy","1024","2","48000","-16","AB_m21","150","even","NW_S_SIMP","SOCKETEL","1193","224566","221381","223056","169298","NA","NA","NA","NA","219880","221878","NA","220881","NA","220875","223052","1202","224866","NA","NA","222065","1193","1193","222456","220875","1193","222064","224866","morph21_Oliver/Morris","3","14320","15","yes","1280","1"
"250","25","25","940.25","940.25","black","no","xpyriment","legacy","legacy","0","207","NA","uniform","60841","1000","0.0164362847422","1","undefined","1","0","15","15","15","0","15","15","15","NA","15","15","0","15","NA","15","15","0","15","NA","15","NA","15","0","0","15","15","0","15","15","16","/","11/09/18 16:42:21","The main experiment item","yes","FIN__AB__M21__7%3A10%3A17.osexp","C:\Users\ERP Testing Room\Desktop\Joanna\morph21","no","mono","no","18","no","white","no","yes","1080","legacy","15","15","C:/Users/ERP Testing Room/Desktop/Joanna/morph21/subject-150.csv","xpyriment","Kafkaesque Koffka","3.2.5","0","/","NA","NA","NA","NA","space","/","724","NA","NA","NA","NA","168095","724","2","legacy","1024","2","48000","-16","AB_m21","150","even","FILL_W","SUIT","1193","227732","225999","223056","169298","NA","NA","NA","NA","227728","226496","NA","225491","NA","225485","227728","1202","227982","NA","NA","226741","1193","1193","227132","225485","1193","226741","227982","morph21_Oliver/Morris","4","15044","16","yes","1280","49"
"400","29.4117647059","29.4117647059","919.235294118","919.235294118","black","no","xpyriment","legacy","legacy","0","202","NA","uniform","63684","1000","0.015702531248","1","undefined","1","0","16","16","16","0","16","16","16","NA","16","16","0","16","NA","16","16","0","16","NA","16","NA","16","0","0","16","16","0","16","16","17","/","11/09/18 16:42:21","The main experiment item","yes","FIN__AB__M21__7%3A10%3A17.osexp","C:\Users\ERP Testing Room\Desktop\Joanna\morph21","no","mono","no","18","no","white","no","yes","1080","legacy","16","16","C:/Users/ERP Testing Room/Desktop/Joanna/morph21/subject-150.csv","xpyriment","Kafkaesque Koffka","3.2.5","0","/","NA","NA","NA","NA","space","/","583","NA","NA","NA","NA","168095","583","2","legacy","1024","2","48000","-16","AB_m21","150","even","CW_L","QUIETLY","1193","230857","229199","223056","169298","NA","NA","NA","NA","230854","229696","NA","228699","NA","228691","230854","1202","231258","NA","NA","229858","1193","1193","230257","228691","1193","229857","231258","morph21_Oliver/Morris","5","15627","17","yes","1280","36"
"200","27.7777777778","27.7777777778","923.5","923.5","black","no","xpyriment","legacy","legacy","0","205","NA","uniform","50981","1000","0.0196151507424","0","undefined","0","0","17","17","17","0","17","17","17","NA","17","17","0","17","NA","17","17","0","17","NA","17","NA","17","0","0","17","17","0","17","17","18","z","11/09/18 16:42:21","The main experiment item","yes","FIN__AB__M21__7%3A10%3A17.osexp","C:\Users\ERP Testing Room\Desktop\Joanna\morph21","no","mono","no","18","no","white","no","yes","1080","legacy","17","17","C:/Users/ERP Testing Room/Desktop/Joanna/morph21/subject-150.csv","xpyriment","Kafkaesque Koffka","3.2.5","0","None","NA","NA","NA","NA","space","None","996","NA","NA","NA","NA","168095","996","2","legacy","1024","2","48000","-16","AB_m21","150","even","NW_S_SIMP","THRILLANGE","1193","235533","232358","234024","169298","NA","NA","NA","NA","230854","232855","NA","231858","NA","231846","234020","1202","235733","NA","NA","233024","1193","1193","233424","231846","1193","233024","235733","morph21_Oliver/Morris","5","16623","18","yes","1280","22"
"400","26.3157894737","26.3157894737","914.052631579","914.052631579","black","no","xpyriment","legacy","legacy","0","203","NA","uniform","55007","1000","0.0181795044267","0","undefined","0","0","18","18","18","0","18","18","18","NA","18","18","0","18","NA","18","18","0","18","NA","18","NA","18","0","0","18","18","0","18","18","19","z","11/09/18 16:42:21","The main experiment item","yes","FIN__AB__M21__7%3A10%3A17.osexp","C:\Users\ERP Testing Room\Desktop\Joanna\morph21","no","mono","no","18","no","white","no","yes","1080","legacy","18","18","C:/Users/ERP Testing Room/Desktop/Joanna/morph21/subject-150.csv","xpyriment","Kafkaesque Koffka","3.2.5","0","/","NA","NA","NA","NA","space","/","744","NA","NA","NA","NA","168095","744","2","legacy","1024","2","48000","-16","AB_m21","150","even","NW_S_COMP","TRUENESS","1193","238641","236933","234024","169298","NA","NA","NA","NA","230854","237430","NA","236433","NA","236425","238635","1202","239041","NA","NA","237641","1193","1193","238033","236425","1193","237641","239041","morph21_Oliver/Morris","5","17367","19","yes","1280","15"
"300","25","25","918","918","black","no","xpyriment","legacy","legacy","0","207","NA","uniform","55747","1000","0.0179381850144","0","undefined","0","0","19","19","19","0","19","19","19","NA","19","19","0","19","NA","19","19","0","19","NA","19","NA","19","0","0","19","19","0","19","19","20","/","11/09/18 16:42:21","The main experiment item","yes","FIN__AB__M21__7%3A10%3A17.osexp","C:\Users\ERP Testing Room\Desktop\Joanna\morph21","no","mono","no","18","no","white","no","yes","1080","legacy","19","19","C:/Users/ERP Testing Room/Desktop/Joanna/morph21/subject-150.csv","xpyriment","Kafkaesque Koffka","3.2.5","0","None","NA","NA","NA","NA","space","None","993","NA","NA","NA","NA","168095","993","2","legacy","1024","2","48000","-16","AB_m21","150","even","FILL_W","BAKE","1193","241842","240141","234024","169298","NA","NA","NA","NA","230854","240638","NA","239641","NA","239630","241834","1202","242142","NA","NA","240841","1193","1193","241233","239630","1193","240841","242142","morph21_Oliver/Morris","5","18360","20","yes","1280","29"
"300","23.8095238095","23.8095238095","921.619047619","921.619047619","black","no","xpyriment","legacy","legacy","0","205","NA","uniform","49053","1000","0.0203861129798","0","undefined","0","0","20","20","20","0","20","20","20","NA","20","20","0","20","NA","20","20","0","20","NA","20","NA","20","0","0","20","20","0","20","20","21","z","11/09/18 16:42:21","The main experiment item","yes","FIN__AB__M21__7%3A10%3A17.osexp","C:\Users\ERP Testing Room\Desktop\Joanna\morph21","no","mono","no","18","no","white","no","yes","1080","legacy","20","20","C:/Users/ERP Testing Room/Desktop/Joanna/morph21/subject-150.csv","xpyriment","Kafkaesque Koffka","3.2.5","0","None","NA","NA","NA","NA","space","None","994","NA","NA","NA","NA","168095","994","2","legacy","1024","2","48000","-16","AB_m21","150","even","NW_S_SIMP","BOLTOES","1193","246567","243376","245059","169298","NA","NA","NA","NA","230854","243873","NA","242876","NA","242868","245053","1202","246868","NA","NA","244059","1193","1193","244451","242868","1193","244059","246868","morph21_Oliver/Morris","5","19354","21","yes","1280","13"
"250","27.2727272727","27.2727272727","912.909090909","912.909090909","black","no","xpyriment","legacy","legacy","0","207","NA","uniform","57507","1000","0.0173891874033","1","undefined","1","0","21","21","21","0","21","21","21","NA","21","21","0","21","NA","21","21","0","21","NA","21","NA","21","0","0","21","21","0","21","21","22","/","11/09/18 16:42:21","The main experiment item","yes","FIN__AB__M21__7%3A10%3A17.osexp","C:\Users\ERP Testing Room\Desktop\Joanna\morph21","no","mono","no","18","no","white","no","yes","1080","legacy","21","21","C:/Users/ERP Testing Room/Desktop/Joanna/morph21/subject-150.csv","xpyriment","Kafkaesque Koffka","3.2.5","0","/","NA","NA","NA","NA","space","/","730","NA","NA","NA","NA","168095","730","2","legacy","1024","2","48000","-16","AB_m21","150","even","FILL_W","PREACH","1193","249751","248084","245059","169298","NA","NA","NA","NA","249745","248581","NA","247584","NA","247573","249745","1202","250001","NA","NA","248751","1193","1193","249143","247573","1193","248751","250001","morph21_Oliver/Morris","6","20084","22","yes","1280","7"
"350","30.4347826087","30.4347826087","905.913043478","905.913043478","black","no","xpyriment","legacy","legacy","0","207","NA","uniform","57621","1000","0.0173547838462","1","undefined","1","0","22","22","22","0","22","22","22","NA","22","22","0","22","NA","22","22","0","22","NA","22","NA","22","0","0","22","22","0","22","22","23","/","11/09/18 16:42:21","The main experiment item","yes","FIN__AB__M21__7%3A10%3A17.osexp","C:\Users\ERP Testing Room\Desktop\Joanna\morph21","no","mono","no","18","no","white","no","yes","1080","legacy","22","22","C:/Users/ERP Testing Room/Desktop/Joanna/morph21/subject-150.csv","xpyriment","Kafkaesque Koffka","3.2.5","0","/","NA","NA","NA","NA","space","/","752","NA","NA","NA","NA","168095","752","2","legacy","1024","2","48000","-16","AB_m21","150","even","FILL_W","LIFT","1193","252793","251101","245059","169298","NA","NA","NA","NA","252787","251598","NA","250601","NA","250593","252787","1202","253143","NA","NA","251793","1193","1193","252184","250593","1193","251793","253143","morph21_Oliver/Morris","7","20836","23","yes","1280","39"
"200","33.3333333333","33.3333333333","890.291666667","890.291666667","black","no","xpyriment","legacy","legacy","0","202","NA","uniform","63046","1000","0.0158614345081","1","undefined","1","0","23","23","23","0","23","23","23","NA","23","23","0","23","NA","23","23","0","23","NA","23","NA","23","0","0","23","23","0","23","23","24","/","11/09/18 16:42:21","The main experiment item","yes","FIN__AB__M21__7%3A10%3A17.osexp","C:\Users\ERP Testing Room\Desktop\Joanna\morph21","no","mono","no","18","no","white","no","yes","1080","legacy","23","23","C:/Users/ERP Testing Room/Desktop/Joanna/morph21/subject-150.csv","xpyriment","Kafkaesque Koffka","3.2.5","0","/","NA","NA","NA","NA","space","/","531","NA","NA","NA","NA","168095","531","2","legacy","1024","2","48000","-16","AB_m21","150","even","CW_L","SAILOR","1193","257418","254226","255910","169298","NA","NA","NA","NA","255901","254723","NA","253726","NA","253715","255901","1202","257618","NA","NA","254910","1193","1193","255301","253715","1193","254910","257618","morph21_Oliver/Morris","8","21367","24","yes","1280","43"
"300","36","36","879.32","879.32","black","no","xpyriment","legacy","legacy","0","201","NA","uniform","65655","1000","0.0152311324347","1","undefined","1","0","24","24","24","0","24","24","24","NA","24","24","0","24","NA","24","24","0","24","NA","24","NA","24","0","0","24","24","0","24","24","25","/","11/09/18 16:42:21","The main experiment item","yes","FIN__AB__M21__7%3A10%3A17.osexp","C:\Users\ERP Testing Room\Desktop\Joanna\morph21","no","mono","no","18","no","white","no","yes","1080","legacy","24","24","C:/Users/ERP Testing Room/Desktop/Joanna/morph21/subject-150.csv","xpyriment","Kafkaesque Koffka","3.2.5","0","/","NA","NA","NA","NA","space","/","616","NA","NA","NA","NA","168095","616","2","legacy","1024","2","48000","-16","AB_m21","150","even","CW_S","RISKY","1193","260402","258752","255910","169298","NA","NA","NA","NA","260397","259250","NA","258251","NA","258244","260397","1202","260703","NA","NA","259402","1193","1193","259794","258244","1193","259402","260703","morph21_Oliver/Morris","9","21983","25","yes","1280","50"
"400","38.4615384615","38.4615384615","871.923076923","871.923076923","black","no","xpyriment","legacy","legacy","0","202","NA","uniform","66575","1000","0.0150206533984","1","undefined","1","0","25","25","25","0","25","25","25","NA","25","25","0","25","NA","25","25","0","25","NA","25","NA","25","0","0","25","25","0","25","25","26","/","11/09/18 16:42:21","The main experiment item","yes","FIN__AB__M21__7%3A10%3A17.osexp","C:\Users\ERP Testing Room\Desktop\Joanna\morph21","no","mono","no","18","no","white","no","yes","1080","legacy","25","25","C:/Users/ERP Testing Room/Desktop/Joanna/morph21/subject-150.csv","xpyriment","Kafkaesque Koffka","3.2.5","0","/","NA","NA","NA","NA","space","/","687","NA","NA","NA","NA","168095","687","2","legacy","1024","2","48000","-16","AB_m21","150","even","CW_L","COOLING","1193","263594","261903","255910","169298","NA","NA","NA","NA","263588","262400","NA","261403","NA","261394","263588","1202","263994","NA","NA","262594","1193","1193","262986","261393","1193","262594","263994","morph21_Oliver/Morris","10","22670","26","yes","1280","24"
"400","40.7407407407","40.7407407407","865.666666667","865.666666667","black","no","xpyriment","legacy","legacy","0","202","NA","uniform","64914","1000","0.0154049973812","1","undefined","1","0","26","26","26","0","26","26","26","NA","26","26","0","26","NA","26","26","0","26","NA","26","NA","26","0","0","26","26","0","26","26","27","/","11/09/18 16:42:21","The main experiment item","yes","FIN__AB__M21__7%3A10%3A17.osexp","C:\Users\ERP Testing Room\Desktop\Joanna\morph21","no","mono","no","18","no","white","no","yes","1080","legacy","26","26","C:/Users/ERP Testing Room/Desktop/Joanna/morph21/subject-150.csv","xpyriment","Kafkaesque Koffka","3.2.5","0","/","NA","NA","NA","NA","space","/","703","NA","NA","NA","NA","168095","703","2","legacy","1024","2","48000","-16","AB_m21","150","even","CW_L","STYLISH","1193","268294","265119","266786","169298","NA","NA","NA","NA","266782","265617","NA","264619","NA","264608","266782","1202","268695","NA","NA","265786","1193","1193","266186","264608","1193","265786","268695","morph21_Oliver/Morris","11","23373","27","yes","1280","29"
"300","39.2857142857","39.2857142857","870.25","870.25","black","no","xpyriment","legacy","legacy","0","204","NA","uniform","47804","1000","0.0209187515689","0","undefined","0","0","27","27","27","0","27","27","27","NA","27","27","0","27","NA","27","27","0","27","NA","27","NA","27","0","0","27","27","0","27","27","28","z","11/09/18 16:42:21","The main experiment item","yes","FIN__AB__M21__7%3A10%3A17.osexp","C:\Users\ERP Testing Room\Desktop\Joanna\morph21","no","mono","no","18","no","white","no","yes","1080","legacy","27","27","C:/Users/ERP Testing Room/Desktop/Joanna/morph21/subject-150.csv","xpyriment","Kafkaesque Koffka","3.2.5","0","None","NA","NA","NA","NA","space","None","994","NA","NA","NA","NA","168095","994","2","legacy","1024","2","48000","-16","AB_m21","150","even","NW_L_COMP","ADDMENT","1193","271536","269828","266786","169298","NA","NA","NA","NA","266782","270325","NA","269328","NA","269319","271531","1202","271836","NA","NA","270536","1193","1193","270936","269319","1193","270536","271836","morph21_Oliver/Morris","11","24367","28","yes","1280","13"
"250","41.3793103448","41.3793103448","862.448275862","862.448275862","black","no","xpyriment","legacy","legacy","0","201","NA","uniform","61672","1000","0.0162148138539","1","undefined","1","0","28","28","28","0","28","28","28","NA","28","28","0","28","NA","28","28","0","28","NA","28","NA","28","0","0","28","28","0","28","28","29","/","11/09/18 16:42:21","The main experiment item","yes","FIN__AB__M21__7%3A10%3A17.osexp","C:\Users\ERP Testing Room\Desktop\Joanna\morph21","no","mono","no","18","no","white","no","yes","1080","legacy","28","28","C:/Users/ERP Testing Room/Desktop/Joanna/morph21/subject-150.csv","xpyriment","Kafkaesque Koffka","3.2.5","0","/","NA","NA","NA","NA","space","/","644","NA","NA","NA","NA","168095","644","2","legacy","1024","2","48000","-16","AB_m21","150","even","CW_S","MOSSY","1193","274853","273153","266786","169298","NA","NA","NA","NA","274848","273650","NA","272653","NA","272648","274848","1202","275103","NA","NA","273853","1193","1193","274253","272648","1193","273853","275103","morph21_Oliver/Morris","12","25011","29","yes","1280","47"
"350","40","40","866.833333333","866.833333333","black","no","xpyriment","legacy","legacy","0","202","NA","uniform","51227","1000","0.019520955746","0","undefined","0","0","29","29","29","0","29","29","29","NA","29","29","0","29","NA","29","29","0","29","NA","29","NA","29","0","0","29","29","0","29","29","30","/","11/09/18 16:42:21","The main experiment item","yes","FIN__AB__M21__7%3A10%3A17.osexp","C:\Users\ERP Testing Room\Desktop\Joanna\morph21","no","mono","no","18","no","white","no","yes","1080","legacy","29","29","C:/Users/ERP Testing Room/Desktop/Joanna/morph21/subject-150.csv","xpyriment","Kafkaesque Koffka","3.2.5","0","None","NA","NA","NA","NA","space","None","994","NA","NA","NA","NA","168095","994","2","legacy","1024","2","48000","-16","AB_m21","150","even","CW_L","GUARDING","1193","279421","276212","277913","169298","NA","NA","NA","NA","274848","276710","NA","275712","NA","275707","277906","1202","279771","NA","NA","276912","1193","1193","277304","275707","1193","276912","279771","morph21_Oliver/Morris","12","26005","30","yes","1280","26"
"400","41.935483871","41.935483871","860.419354839","860.419354839","black","no","xpyriment","legacy","legacy","0","202","NA","uniform","58562","1000","0.0170759195383","1","undefined","1","0","30","30","30","0","30","30","30","NA","30","30","0","30","NA","30","30","0","30","NA","30","NA","30","0","0","30","30","0","30","30","31","/","11/09/18 16:42:21","The main experiment item","yes","FIN__AB__M21__7%3A10%3A17.osexp","C:\Users\ERP Testing Room\Desktop\Joanna\morph21","no","mono","no","18","no","white","no","yes","1080","legacy","30","30","C:/Users/ERP Testing Room/Desktop/Joanna/morph21/subject-150.csv","xpyriment","Kafkaesque Koffka","3.2.5","0","/","NA","NA","NA","NA","space","/","668","NA","NA","NA","NA","168095","668","2","legacy","1024","2","48000","-16","AB_m21","150","even","CW_L","WRONGLY","1193","282638","280921","277913","169298","NA","NA","NA","NA","282630","281418","NA","280421","NA","280416","282630","1202","283038","NA","NA","281638","1193","1193","282029","280416","1193","281638","283038","morph21_Oliver/Morris","13","26673","31","yes","1280","37"
"400","43.75","43.75","857.59375","857.59375","black","no","xpyriment","legacy","legacy","0","207","NA","uniform","61095","1000","0.0163679515509","1","undefined","1","0","31","31","31","0","31","31","31","NA","31","31","0","31","NA","31","31","0","31","NA","31","NA","31","0","0","31","31","0","31","31","32","/","11/09/18 16:42:21","The main experiment item","yes","FIN__AB__M21__7%3A10%3A17.osexp","C:\Users\ERP Testing Room\Desktop\Joanna\morph21","no","mono","no","18","no","white","no","yes","1080","legacy","31","31","C:/Users/ERP Testing Room/Desktop/Joanna/morph21/subject-150.csv","xpyriment","Kafkaesque Koffka","3.2.5","0","/","NA","NA","NA","NA","space","/","770","NA","NA","NA","NA","168095","770","2","legacy","1024","2","48000","-16","AB_m21","150","even","FILL_W","EAT","1193","285855","284138","277913","169298","NA","NA","NA","NA","285844","284635","NA","283638","NA","283630","285844","1202","286255","NA","NA","284855","1193","1193","285246","283630","1193","284855","286255","morph21_Oliver/Morris","14","27443","32","yes","1280","25"
"400","45.4545454545","45.4545454545","856.818181818","856.818181818","black","no","xpyriment","legacy","legacy","0","202","NA","uniform","60083","1000","0.0166436429606","1","undefined","1","0","32","32","32","0","32","32","32","NA","32","32","0","32","NA","32","32","0","32","NA","32","NA","32","0","0","32","32","0","32","32","33","/","11/09/18 16:42:21","The main experiment item","yes","FIN__AB__M21__7%3A10%3A17.osexp","C:\Users\ERP Testing Room\Desktop\Joanna\morph21","no","mono","no","18","no","white","no","yes","1080","legacy","32","32","C:/Users/ERP Testing Room/Desktop/Joanna/morph21/subject-150.csv","xpyriment","Kafkaesque Koffka","3.2.5","0","/","NA","NA","NA","NA","space","/","832","NA","NA","NA","NA","168095","832","2","legacy","1024","2","48000","-16","AB_m21","150","even","CW_L","BLINDNESS","1193","290613","287430","289105","169298","NA","NA","NA","NA","289102","287927","NA","286930","NA","286919","289102","1202","291013","NA","NA","288113","1193","1193","288505","286919","1193","288113","291013","morph21_Oliver/Morris","15","28275","33","yes","1280","40"
"400","47.0588235294","47.0588235294","859.970588235","859.970588235","black","no","xpyriment","legacy","legacy","0","208","NA","uniform","50055","1000","0.0199780241734","1","undefined","1","0","33","33","33","0","33","33","33","NA","33","33","0","33","NA","33","33","0","33","NA","33","NA","33","0","0","33","33","0","33","33","34","z","11/09/18 16:42:21","The main experiment item","yes","FIN__AB__M21__7%3A10%3A17.osexp","C:\Users\ERP Testing Room\Desktop\Joanna\morph21","no","mono","no","18","no","white","no","yes","1080","legacy","33","33","C:/Users/ERP Testing Room/Desktop/Joanna/morph21/subject-150.csv","xpyriment","Kafkaesque Koffka","3.2.5","0","z","NA","NA","NA","NA","space","z","964","NA","NA","NA","NA","168095","964","2","legacy","1024","2","48000","-16","AB_m21","150","even","FILL_NW","VELT","1193","293823","292138","289105","169298","NA","NA","NA","NA","293812","292635","NA","291638","NA","291632","293812","1202","294223","NA","NA","292822","1193","1193","293213","291632","1193","292822","294223","morph21_Oliver/Morris","16","29239","34","yes","1280","46"
"200","48.5714285714","48.5714285714","851.257142857","851.257142857","black","no","xpyriment","legacy","legacy","0","207","NA","uniform","56699","1000","0.0176369953615","1","undefined","1","0","34","34","34","0","34","34","34","NA","34","34","0","34","NA","34","34","0","34","NA","34","NA","34","0","0","34","34","0","34","34","35","/","11/09/18 16:42:21","The main experiment item","yes","FIN__AB__M21__7%3A10%3A17.osexp","C:\Users\ERP Testing Room\Desktop\Joanna\morph21","no","mono","no","18","no","white","no","yes","1080","legacy","34","34","C:/Users/ERP Testing Room/Desktop/Joanna/morph21/subject-150.csv","xpyriment","Kafkaesque Koffka","3.2.5","0","/","NA","NA","NA","NA","space","/","555","NA","NA","NA","NA","168095","555","2","legacy","1024","2","48000","-16","AB_m21","150","even","FILL_W","TEST","1193","297231","295548","289105","169298","NA","NA","NA","NA","297221","296045","NA","295048","NA","295037","297221","1202","297431","NA","NA","296231","1193","1193","296623","295037","1193","296231","297431","morph21_Oliver/Morris","17","29794","35","yes","1280","47"
"350","50","50","847.388888889","847.388888889","black","no","xpyriment","legacy","legacy","0","208","NA","uniform","60716","1000","0.0164701231965","1","undefined","1","0","35","35","35","0","35","35","35","NA","35","35","0","35","NA","35","35","0","35","NA","35","NA","35","0","0","35","35","0","35","35","36","z","11/09/18 16:42:21","The main experiment item","yes","FIN__AB__M21__7%3A10%3A17.osexp","C:\Users\ERP Testing Room\Desktop\Joanna\morph21","no","mono","no","18","no","white","no","yes","1080","legacy","35","35","C:/Users/ERP Testing Room/Desktop/Joanna/morph21/subject-150.csv","xpyriment","Kafkaesque Koffka","3.2.5","0","z","NA","NA","NA","NA","space","z","712","NA","NA","NA","NA","168095","712","2","legacy","1024","2","48000","-16","AB_m21","150","even","FILL_NW","DASP","1193","301781","298581","300273","169298","NA","NA","NA","NA","300269","299078","NA","298081","NA","298075","300269","1202","302131","NA","NA","299281","1193","1193","299673","298075","1193","299281","302131","morph21_Oliver/Morris","18","30506","36","yes","1280","13"
"200","51.3513513514","51.3513513514","849.837837838","849.837837838","black","no","xpyriment","legacy","legacy","0","203","NA","uniform","53504","1000","0.0186901913876","1","undefined","1","0","36","36","36","0","36","36","36","NA","36","36","0","36","NA","36","36","0","36","NA","36","NA","36","0","0","36","36","0","36","36","37","z","11/09/18 16:42:21","The main experiment item","yes","FIN__AB__M21__7%3A10%3A17.osexp","C:\Users\ERP Testing Room\Desktop\Joanna\morph21","no","mono","no","18","no","white","no","yes","1080","legacy","36","36","C:/Users/ERP Testing Room/Desktop/Joanna/morph21/subject-150.csv","xpyriment","Kafkaesque Koffka","3.2.5","0","z","NA","NA","NA","NA","space","z","938","NA","NA","NA","NA","168095","938","2","legacy","1024","2","48000","-16","AB_m21","150","even","NW_S_COMP","ELMIST","1193","305006","303298","300273","169298","NA","NA","NA","NA","305003","303795","NA","302798","NA","302790","305003","1202","305206","NA","NA","304015","1193","1193","304406","302790","1193","304015","305206","morph21_Oliver/Morris","19","31444","37","yes","1280","10"
"350","52.6315789474","52.6315789474","844","844","black","no","xpyriment","legacy","legacy","0","202","NA","uniform","63488","1000","0.0157510080645","1","undefined","1","0","37","37","37","0","37","37","37","NA","37","37","0","37","NA","37","37","0","37","NA","37","NA","37","0","0","37","37","0","37","37","38","/","11/09/18 16:42:21","The main experiment item","yes","FIN__AB__M21__7%3A10%3A17.osexp","C:\Users\ERP Testing Room\Desktop\Joanna\morph21","no","mono","no","18","no","white","no","yes","1080","legacy","37","37","C:/Users/ERP Testing Room/Desktop/Joanna/morph21/subject-150.csv","xpyriment","Kafkaesque Koffka","3.2.5","0","/","NA","NA","NA","NA","space","/","628","NA","NA","NA","NA","168095","628","2","legacy","1024","2","48000","-16","AB_m21","150","even","CW_L","PAINTER","1193","307965","306281","300273","169298","NA","NA","NA","NA","307955","306779","NA","305781","NA","305772","307955","1202","308315","NA","NA","306965","1193","1193","307356","305772","1193","306965","308315","morph21_Oliver/Morris","20","32072","38","yes","1280","18"
"300","53.8461538462","53.8461538462","844.256410256","844.256410256","black","no","xpyriment","legacy","legacy","0","205","NA","uniform","50242","1000","0.0199036662553","1","undefined","1","0","38","38","38","0","38","38","38","NA","38","38","0","38","NA","38","38","0","38","NA","38","NA","38","0","0","38","38","0","38","38","39","z","11/09/18 16:42:21","The main experiment item","yes","FIN__AB__M21__7%3A10%3A17.osexp","C:\Users\ERP Testing Room\Desktop\Joanna\morph21","no","mono","no","18","no","white","no","yes","1080","legacy","38","38","C:/Users/ERP Testing Room/Desktop/Joanna/morph21/subject-150.csv","xpyriment","Kafkaesque Koffka","3.2.5","0","z","NA","NA","NA","NA","space","z","854","NA","NA","NA","NA","168095","854","2","legacy","1024","2","48000","-16","AB_m21","150","even","NW_S_SIMP","YIELDILT","1193","312633","309457","311123","169298","NA","NA","NA","NA","311117","309954","NA","308957","NA","308949","311117","1202","312933","NA","NA","310123","1193","1193","310515","308949","1193","310123","312933","morph21_Oliver/Morris","21","32926","39","yes","1280","20"
"350","55","55","847.425","847.425","black","no","xpyriment","legacy","legacy","0","201","NA","uniform","53130","1000","0.0188217579522","1","undefined","1","0","39","39","39","0","39","39","39","NA","39","39","0","39","NA","39","39","0","39","NA","39","NA","39","0","0","39","39","0","39","39","40","/","11/09/18 16:42:21","The main experiment item","yes","FIN__AB__M21__7%3A10%3A17.osexp","C:\Users\ERP Testing Room\Desktop\Joanna\morph21","no","mono","no","18","no","white","no","yes","1080","legacy","39","39","C:/Users/ERP Testing Room/Desktop/Joanna/morph21/subject-150.csv","xpyriment","Kafkaesque Koffka","3.2.5","0","/","NA","NA","NA","NA","space","/","971","NA","NA","NA","NA","168095","971","2","legacy","1024","2","48000","-16","AB_m21","150","even","CW_S","LENDER","1193","315774","314058","311123","169298","NA","NA","NA","NA","315766","314555","NA","313558","NA","313553","315766","1202","316125","NA","NA","314775","1193","1193","315166","313553","1193","314775","316125","morph21_Oliver/Morris","22","33897","40","yes","1280","11"
"300","53.6585365854","53.6585365854","850.902439024","850.902439024","black","no","xpyriment","legacy","legacy","0","203","NA","uniform","46077","1000","0.0217028018317","0","undefined","0","0","40","40","40","0","40","40","40","NA","40","40","0","40","NA","40","40","0","40","NA","40","NA","40","0","0","40","40","0","40","40","41","z","11/09/18 16:42:21","The main experiment item","yes","FIN__AB__M21__7%3A10%3A17.osexp","C:\Users\ERP Testing Room\Desktop\Joanna\morph21","no","mono","no","18","no","white","no","yes","1080","legacy","40","40","C:/Users/ERP Testing Room/Desktop/Joanna/morph21/subject-150.csv","xpyriment","Kafkaesque Koffka","3.2.5","0","None","NA","NA","NA","NA","space","None","990","NA","NA","NA","NA","168095","990","2","legacy","1024","2","48000","-16","AB_m21","150","even","NW_S_COMP","CURTITY","1193","318916","317241","311123","169298","NA","NA","NA","NA","315766","317738","NA","316741","NA","316736","318908","1202","319216","NA","NA","317916","1193","1193","318308","316736","1193","317916","319216","morph21_Oliver/Morris","22","34887","41","yes","1280","11"
"400","52.380952381","52.380952381","854.214285714","854.214285714","black","no","xpyriment","legacy","legacy","0","206","NA","uniform","53962","1000","0.0185315592454","0","undefined","0","0","41","41","41","0","41","41","41","NA","41","41","0","41","NA","41","41","0","41","NA","41","NA","41","0","0","41","41","0","41","41","42","z","11/09/18 16:42:21","The main experiment item","yes","FIN__AB__M21__7%3A10%3A17.osexp","C:\Users\ERP Testing Room\Desktop\Joanna\morph21","no","mono","no","18","no","white","no","yes","1080","legacy","41","41","C:/Users/ERP Testing Room/Desktop/Joanna/morph21/subject-150.csv","xpyriment","Kafkaesque Koffka","3.2.5","0","None","NA","NA","NA","NA","space","None","990","NA","NA","NA","NA","168095","990","2","legacy","1024","2","48000","-16","AB_m21","150","even","NW_L_SIMP","BOGADY","1193","323608","320425","322100","169298","NA","NA","NA","NA","315766","320922","NA","319925","NA","319919","322090","1202","324008","NA","NA","321100","1193","1193","321491","319919","1193","321100","324008","morph21_Oliver/Morris","22","35877","42","yes","1280","2"
"400","53.488372093","53.488372093","848.465116279","848.465116279","black","no","xpyriment","legacy","legacy","0","201","NA","uniform","67601","1000","0.0147926805816","1","undefined","1","0","42","42","42","0","42","42","42","NA","42","42","0","42","NA","42","42","0","42","NA","42","NA","42","0","0","42","42","0","42","42","43","/","11/09/18 16:42:21","The main experiment item","yes","FIN__AB__M21__7%3A10%3A17.osexp","C:\Users\ERP Testing Room\Desktop\Joanna\morph21","no","mono","no","18","no","white","no","yes","1080","legacy","42","42","C:/Users/ERP Testing Room/Desktop/Joanna/morph21/subject-150.csv","xpyriment","Kafkaesque Koffka","3.2.5","0","/","NA","NA","NA","NA","space","/","607","NA","NA","NA","NA","168095","607","2","legacy","1024","2","48000","-16","AB_m21","150","even","CW_S","DESIGN","1193","326842","325167","322100","169298","NA","NA","NA","NA","326838","325664","NA","324667","NA","324662","326838","1202","327242","NA","NA","325850","1193","1193","326242","324662","1193","325850","327242","morph21_Oliver/Morris","23","36484","43","yes","1280","19"
"350","52.2727272727","52.2727272727","844.5","844.5","black","no","xpyriment","legacy","legacy","0","203","NA","uniform","62508","1000","0.0159979522621","0","undefined","0","0","43","43","43","0","43","43","43","NA","43","43","0","43","NA","43","43","0","43","NA","43","NA","43","0","0","43","43","0","43","43","44","z","11/09/18 16:42:21","The main experiment item","yes","FIN__AB__M21__7%3A10%3A17.osexp","C:\Users\ERP Testing Room\Desktop\Joanna\morph21","no","mono","no","18","no","white","no","yes","1080","legacy","43","43","C:/Users/ERP Testing Room/Desktop/Joanna/morph21/subject-150.csv","xpyriment","Kafkaesque Koffka","3.2.5","0","/","NA","NA","NA","NA","space","/","674","NA","NA","NA","NA","168095","674","2","legacy","1024","2","48000","-16","AB_m21","150","even","NW_S_COMP","PRINCEMENT","1193","329984","328317","322100","169298","NA","NA","NA","NA","326838","328814","NA","327817","NA","327806","329978","1202","330334","NA","NA","328984","1193","1193","329376","327806","1193","328984","330334","morph21_Oliver/Morris","23","37158","44","yes","1280","17"
"400","53.3333333333","53.3333333333","839.422222222","839.422222222","black","no","xpyriment","legacy","legacy","0","207","NA","uniform","68641","1000","0.014568552323","1","undefined","1","0","44","44","44","0","44","44","44","NA","44","44","0","44","NA","44","44","0","44","NA","44","NA","44","0","0","44","44","0","44","44","45","/","11/09/18 16:42:21","The main experiment item","yes","FIN__AB__M21__7%3A10%3A17.osexp","C:\Users\ERP Testing Room\Desktop\Joanna\morph21","no","mono","no","18","no","white","no","yes","1080","legacy","44","44","C:/Users/ERP Testing Room/Desktop/Joanna/morph21/subject-150.csv","xpyriment","Kafkaesque Koffka","3.2.5","0","/","NA","NA","NA","NA","space","/","616","NA","NA","NA","NA","168095","616","2","legacy","1024","2","48000","-16","AB_m21","150","even","FILL_W","QUIT","1193","334718","331526","333210","169298","NA","NA","NA","NA","333203","332023","NA","331026","NA","331019","333203","1202","335118","NA","NA","332210","1193","1193","332601","331019","1193","332210","335118","morph21_Oliver/Morris","24","37774","45","yes","1280","21"
"300","54.347826087","54.347826087","837.586956522","837.586956522","black","no","xpyriment","legacy","legacy","0","204","NA","uniform","59528","1000","0.0167988173633","1","undefined","1","0","45","45","45","0","45","45","45","NA","45","45","0","45","NA","45","45","0","45","NA","45","NA","45","0","0","45","45","0","45","45","46","z","11/09/18 16:42:21","The main experiment item","yes","FIN__AB__M21__7%3A10%3A17.osexp","C:\Users\ERP Testing Room\Desktop\Joanna\morph21","no","mono","no","18","no","white","no","yes","1080","legacy","45","45","C:/Users/ERP Testing Room/Desktop/Joanna/morph21/subject-150.csv","xpyriment","Kafkaesque Koffka","3.2.5","0","z","NA","NA","NA","NA","space","z","755","NA","NA","NA","NA","168095","755","2","legacy","1024","2","48000","-16","AB_m21","150","even","NW_L_COMP","BINDIC","1193","337918","336243","333210","169298","NA","NA","NA","NA","337915","336740","NA","335743","NA","335731","337915","1202","338218","NA","NA","336918","1193","1193","337318","335731","1193","336918","338218","morph21_Oliver/Morris","25","38529","46","yes","1280","22"
"200","55.3191489362","55.3191489362","838.638297872","838.638297872","black","no","xpyriment","legacy","legacy","0","206","NA","uniform","50329","1000","0.0198692602674","1","undefined","1","0","46","46","46","0","46","46","46","NA","46","46","0","46","NA","46","46","0","46","NA","46","NA","46","0","0","46","46","0","46","46","47","z","11/09/18 16:42:21","The main experiment item","yes","FIN__AB__M21__7%3A10%3A17.osexp","C:\Users\ERP Testing Room\Desktop\Joanna\morph21","no","mono","no","18","no","white","no","yes","1080","legacy","46","46","C:/Users/ERP Testing Room/Desktop/Joanna/morph21/subject-150.csv","xpyriment","Kafkaesque Koffka","3.2.5","0","z","NA","NA","NA","NA","space","z","887","NA","NA","NA","NA","168095","887","2","legacy","1024","2","48000","-16","AB_m21","150","even","NW_L_SIMP","TOWERLA","1193","341002","339335","333210","169298","NA","NA","NA","NA","340995","339832","NA","338827","NA","338823","340995","1202","341202","NA","NA","340002","1193","1193","340393","338823","1193","340001","341202","morph21_Oliver/Morris","26","39416","47","yes","1280","15"
"400","56.25","56.25","838.9375","838.9375","black","no","xpyriment","legacy","legacy","0","205","NA","uniform","52521","1000","0.0190400030464","1","undefined","1","0","47","47","47","0","47","47","47","NA","47","47","0","47","NA","47","47","0","47","NA","47","NA","47","0","0","47","47","0","47","47","48","z","11/09/18 16:42:21","The main experiment item","yes","FIN__AB__M21__7%3A10%3A17.osexp","C:\Users\ERP Testing Room\Desktop\Joanna\morph21","no","mono","no","18","no","white","no","yes","1080","legacy","47","47","C:/Users/ERP Testing Room/Desktop/Joanna/morph21/subject-150.csv","xpyriment","Kafkaesque Koffka","3.2.5","0","z","NA","NA","NA","NA","space","z","853","NA","NA","NA","NA","168095","853","2","legacy","1024","2","48000","-16","AB_m21","150","even","NW_S_SIMP","MEDICALADY","1193","345569","342377","344060","169298","NA","NA","NA","NA","344052","342874","NA","341877","NA","341869","344052","1202","345969","NA","NA","343060","1193","1193","343452","341869","1193","343060","345969","morph21_Oliver/Morris","27","40269","48","yes","1280","18"
"300","57.1428571429","57.1428571429","836.346938776","836.346938776","black","no","xpyriment","legacy","legacy","0","208","NA","uniform","62788","1000","0.0159266101803","1","undefined","1","0","48","48","48","0","48","48","48","NA","48","48","0","48","NA","48","48","0","48","NA","48","NA","48","0","0","48","48","0","48","48","49","z","11/09/18 16:42:21","The main experiment item","yes","FIN__AB__M21__7%3A10%3A17.osexp","C:\Users\ERP Testing Room\Desktop\Joanna\morph21","no","mono","no","18","no","white","no","yes","1080","legacy","48","48","C:/Users/ERP Testing Room/Desktop/Joanna/morph21/subject-150.csv","xpyriment","Kafkaesque Koffka","3.2.5","0","z","NA","NA","NA","NA","space","z","712","NA","NA","NA","NA","168095","712","2","legacy","1024","2","48000","-16","AB_m21","150","even","FILL_NW","HEEM","1193","348778","347128","344060","169298","NA","NA","NA","NA","348775","347625","NA","346620","NA","346609","348775","1202","349078","NA","NA","347786","1193","1193","348178","346609","1193","347786","349078","morph21_Oliver/Morris","28","40981","49","yes","1280","27"
"300","56","56","839.44","839.44","black","no","xpyriment","legacy","legacy","0","208","NA","uniform","52344","1000","0.0191043863671","0","undefined","0","0","49","49","49","0","49","49","49","NA","49","49","0","49","NA","49","49","0","49","NA","49","NA","49","0","0","49","49","0","49","49","50","z","11/09/18 16:42:21","The main experiment item","yes","FIN__AB__M21__7%3A10%3A17.osexp","C:\Users\ERP Testing Room\Desktop\Joanna\morph21","no","mono","no","18","no","white","no","yes","1080","legacy","49","49","C:/Users/ERP Testing Room/Desktop/Joanna/morph21/subject-150.csv","xpyriment","Kafkaesque Koffka","3.2.5","0","None","NA","NA","NA","NA","space","None","991","NA","NA","NA","NA","168095","991","2","legacy","1024","2","48000","-16","AB_m21","150","even","FILL_NW","KEMT","1193","351961","350245","344060","169298","NA","NA","NA","NA","348775","350742","NA","349736","NA","349731","351953","1202","352261","NA","NA","350961","1193","1193","351353","349731","1193","350961","352261","morph21_Oliver/Morris","28","41972","50","yes","1280","32"
"400","54.9019607843","54.9019607843","842.392156863","842.392156863","black","no","xpyriment","legacy","legacy","0","206","NA","uniform","51976","1000","0.0192396490688","0","undefined","0","0","50","50","50","0","50","50","50","NA","50","50","0","50","NA","50","50","0","50","NA","50","NA","50","0","0","50","50","0","50","50","51","z","11/09/18 16:42:21","The main experiment item","yes","FIN__AB__M21__7%3A10%3A17.osexp","C:\Users\ERP Testing Room\Desktop\Joanna\morph21","no","mono","no","18","no","white","no","yes","1080","legacy","50","50","C:/Users/ERP Testing Room/Desktop/Joanna/morph21/subject-150.csv","xpyriment","Kafkaesque Koffka","3.2.5","0","None","NA","NA","NA","NA","space","None","990","NA","NA","NA","NA","168095","990","2","legacy","1024","2","48000","-16","AB_m21","150","even","NW_L_SIMP","POORIDY","1193","356595","353403","355086","169298","NA","NA","NA","NA","348775","353900","NA","352903","NA","352899","355076","1202","356995","NA","NA","354086","1193","1193","354478","352899","1193","354086","356995","morph21_Oliver/Morris","28","42962","51","yes","1280","13"
"200","55.7692307692","55.7692307692","840.153846154","840.153846154","black","no","xpyriment","legacy","legacy","0","201","NA","uniform","59767","1000","0.0167316412067","1","undefined","1","0","51","51","51","0","51","51","51","NA","51","51","0","51","NA","51","51","0","51","NA","51","NA","51","0","0","51","51","0","51","51","52","/","11/09/18 16:42:21","The main experiment item","yes","FIN__AB__M21__7%3A10%3A17.osexp","C:\Users\ERP Testing Room\Desktop\Joanna\morph21","no","mono","no","18","no","white","no","yes","1080","legacy","51","51","C:/Users/ERP Testing Room/Desktop/Joanna/morph21/subject-150.csv","xpyriment","Kafkaesque Koffka","3.2.5","0","/","NA","NA","NA","NA","space","/","726","NA","NA","NA","NA","168095","726","2","legacy","1024","2","48000","-16","AB_m21","150","even","CW_S","ENJOYMENT","1193","359795","358112","355086","169298","NA","NA","NA","NA","359790","358609","NA","357612","NA","357603","359790","1202","359995","NA","NA","358795","1193","1193","359195","357603","1193","358795","359995","morph21_Oliver/Morris","29","43688","52","yes","1280","40"
"350","56.6037735849","56.6037735849","839.113207547","839.113207547","black","no","xpyriment","legacy","legacy","0","202","NA","uniform","57582","1000","0.0173665381543","1","undefined","1","0","52","52","52","0","52","52","52","NA","52","52","0","52","NA","52","52","0","52","NA","52","NA","52","0","0","52","52","0","52","52","53","/","11/09/18 16:42:21","The main experiment item","yes","FIN__AB__M21__7%3A10%3A17.osexp","C:\Users\ERP Testing Room\Desktop\Joanna\morph21","no","mono","no","18","no","white","no","yes","1080","legacy","52","52","C:/Users/ERP Testing Room/Desktop/Joanna/morph21/subject-150.csv","xpyriment","Kafkaesque Koffka","3.2.5","0","/","NA","NA","NA","NA","space","/","785","NA","NA","NA","NA","168095","785","2","legacy","1024","2","48000","-16","AB_m21","150","even","CW_L","EDITOR","1193","362904","361245","355086","169298","NA","NA","NA","NA","362899","361742","NA","360745","NA","360738","362899","1202","363254","NA","NA","361904","1193","1193","362304","360738","1193","361904","363254","morph21_Oliver/Morris","30","44473","53","yes","1280","45"
"350","57.4074074074","57.4074074074","841.648148148","841.648148148","black","no","xpyriment","legacy","legacy","0","201","NA","uniform","52813","1000","0.0189347319789","1","undefined","1","0","53","53","53","0","53","53","53","NA","53","53","0","53","NA","53","53","0","53","NA","53","NA","53","0","0","53","53","0","53","53","54","/","11/09/18 16:42:21","The main experiment item","yes","FIN__AB__M21__7%3A10%3A17.osexp","C:\Users\ERP Testing Room\Desktop\Joanna\morph21","no","mono","no","18","no","white","no","yes","1080","legacy","53","53","C:/Users/ERP Testing Room/Desktop/Joanna/morph21/subject-150.csv","xpyriment","Kafkaesque Koffka","3.2.5","0","/","NA","NA","NA","NA","space","/","976","NA","NA","NA","NA","168095","976","2","legacy","1024","2","48000","-16","AB_m21","150","even","CW_S","DULLNESS","1193","367655","364430","366146","169298","NA","NA","NA","NA","366139","364927","NA","363930","NA","363917","366139","1202","368005","NA","NA","365146","1193","1193","365538","363917","1193","365146","368005","morph21_Oliver/Morris","31","45449","54","yes","1280","43"
"200","58.1818181818","58.1818181818","844.181818182","844.181818182","black","no","xpyriment","legacy","legacy","0","205","NA","uniform","49012","1000","0.0204031665715","1","undefined","1","0","54","54","54","0","54","54","54","NA","54","54","0","54","NA","54","54","0","54","NA","54","NA","54","0","0","54","54","0","54","54","55","z","11/09/18 16:42:21","The main experiment item","yes","FIN__AB__M21__7%3A10%3A17.osexp","C:\Users\ERP Testing Room\Desktop\Joanna\morph21","no","mono","no","18","no","white","no","yes","1080","legacy","54","54","C:/Users/ERP Testing Room/Desktop/Joanna/morph21/subject-150.csv","xpyriment","Kafkaesque Koffka","3.2.5","0","z","NA","NA","NA","NA","space","z","981","NA","NA","NA","NA","168095","981","2","legacy","1024","2","48000","-16","AB_m21","150","even","NW_S_SIMP","NULLITH","1193","370780","369130","366146","169298","NA","NA","NA","NA","370772","369627","NA","368630","NA","368622","370772","1202","370980","NA","NA","369780","1193","1193","370171","368622","1193","369780","370980","morph21_Oliver/Morris","32","46430","55","yes","1280","23"
"250","58.9285714286","58.9285714286","841.053571429","841.053571429","black","no","xpyriment","legacy","legacy","0","202","NA","uniform","62092","1000","0.0161051343168","1","undefined","1","0","55","55","55","0","55","55","55","NA","55","55","0","55","NA","55","55","0","55","NA","55","NA","55","0","0","55","55","0","55","55","56","/","11/09/18 16:42:21","The main experiment item","yes","FIN__AB__M21__7%3A10%3A17.osexp","C:\Users\ERP Testing Room\Desktop\Joanna\morph21","no","mono","no","18","no","white","no","yes","1080","legacy","55","55","C:/Users/ERP Testing Room/Desktop/Joanna/morph21/subject-150.csv","xpyriment","Kafkaesque Koffka","3.2.5","0","/","NA","NA","NA","NA","space","/","669","NA","NA","NA","NA","168095","669","2","legacy","1024","2","48000","-16","AB_m21","150","even","CW_L","FLEXIBLE","1193","373788","372055","366146","169298","NA","NA","NA","NA","373778","372552","NA","371555","NA","371551","373778","1202","374038","NA","NA","372788","1193","1193","373180","371551","1193","372788","374038","morph21_Oliver/Morris","33","47099","56","yes","1280","22"
"350","59.649122807","59.649122807","841.438596491","841.438596491","black","no","xpyriment","legacy","legacy","0","206","NA","uniform","52316","1000","0.0191146112088","1","undefined","1","0","56","56","56","0","56","56","56","NA","56","56","0","56","NA","56","56","0","56","NA","56","NA","56","0","0","56","56","0","56","56","57","z","11/09/18 16:42:21","The main experiment item","yes","FIN__AB__M21__7%3A10%3A17.osexp","C:\Users\ERP Testing Room\Desktop\Joanna\morph21","no","mono","no","18","no","white","no","yes","1080","legacy","56","56","C:/Users/ERP Testing Room/Desktop/Joanna/morph21/subject-150.csv","xpyriment","Kafkaesque Koffka","3.2.5","0","z","NA","NA","NA","NA","space","z","863","NA","NA","NA","NA","168095","863","2","legacy","1024","2","48000","-16","AB_m21","150","even","NW_L_SIMP","CRITICANGE","1193","378439","375255","376930","169298","NA","NA","NA","NA","376925","375752","NA","374755","NA","374748","376925","1202","378789","NA","NA","375930","1193","1193","376322","374748","1193","375930","378789","morph21_Oliver/Morris","34","47962","57","yes","1280","22"
"200","60.3448275862","60.3448275862","838.051724138","838.051724138","black","no","xpyriment","legacy","legacy","0","207","NA","uniform","63803","1000","0.0156732442048","1","undefined","1","0","57","57","57","0","57","57","57","NA","57","57","0","57","NA","57","57","0","57","NA","57","NA","57","0","0","57","57","0","57","57","58","/","11/09/18 16:42:21","The main experiment item","yes","FIN__AB__M21__7%3A10%3A17.osexp","C:\Users\ERP Testing Room\Desktop\Joanna\morph21","no","mono","no","18","no","white","no","yes","1080","legacy","57","57","C:/Users/ERP Testing Room/Desktop/Joanna/morph21/subject-150.csv","xpyriment","Kafkaesque Koffka","3.2.5","0","/","NA","NA","NA","NA","space","/","645","NA","NA","NA","NA","168095","645","2","legacy","1024","2","48000","-16","AB_m21","150","even","FILL_W","STALK","1193","381606","379955","376930","169298","NA","NA","NA","NA","381597","380452","NA","379455","NA","379449","381597","1202","381806","NA","NA","380605","1193","1193","380997","379449","1193","380605","381806","morph21_Oliver/Morris","35","48607","58","yes","1280","27"
"300","61.0169491525","61.0169491525","839.288135593","839.288135593","black","no","xpyriment","legacy","legacy","0","206","NA","uniform","50401","1000","0.0198408761731","1","undefined","1","0","58","58","58","0","58","58","58","NA","58","58","0","58","NA","58","58","0","58","NA","58","NA","58","0","0","58","58","0","58","58","59","z","11/09/18 16:42:21","The main experiment item","yes","FIN__AB__M21__7%3A10%3A17.osexp","C:\Users\ERP Testing Room\Desktop\Joanna\morph21","no","mono","no","18","no","white","no","yes","1080","legacy","58","58","C:/Users/ERP Testing Room/Desktop/Joanna/morph21/subject-150.csv","xpyriment","Kafkaesque Koffka","3.2.5","0","z","NA","NA","NA","NA","space","z","911","NA","NA","NA","NA","168095","911","2","legacy","1024","2","48000","-16","AB_m21","150","even","NW_L_SIMP","LONGNELS","1193","384715","383031","376930","169298","NA","NA","NA","NA","384709","383529","NA","382531","NA","382520","384709","1202","385015","NA","NA","383715","1193","1193","384106","382520","1193","383715","385015","morph21_Oliver/Morris","36","49518","59","yes","1280","17"
"350","61.6666666667","61.6666666667","835.45","835.45","black","no","xpyriment","legacy","legacy","0","207","NA","uniform","63272","1000","0.0158047793653","1","undefined","1","0","59","59","59","0","59","59","59","NA","59","59","0","59","NA","59","59","0","59","NA","59","NA","59","0","0","59","59","0","59","59","60","/","11/09/18 16:42:21","The main experiment item","yes","FIN__AB__M21__7%3A10%3A17.osexp","C:\Users\ERP Testing Room\Desktop\Joanna\morph21","no","mono","no","18","no","white","no","yes","1080","legacy","59","59","C:/Users/ERP Testing Room/Desktop/Joanna/morph21/subject-150.csv","xpyriment","Kafkaesque Koffka","3.2.5","0","/","NA","NA","NA","NA","space","/","609","NA","NA","NA","NA","168095","609","2","legacy","1024","2","48000","-16","AB_m21","150","even","FILL_W","FOLLOW","1193","389365","386190","387857","169298","NA","NA","NA","NA","387848","386687","NA","385690","NA","385679","387848","1202","389715","NA","NA","386857","1193","1193","387248","385679","1193","386857","389715","morph21_Oliver/Morris","37","50127","60","yes","1280","17"
"200","62.2950819672","62.2950819672","830.786885246","830.786885246","black","no","xpyriment","legacy","legacy","0","207","NA","uniform","66498","1000","0.015038046257","1","undefined","1","0","60","60","60","0","60","60","60","NA","60","60","0","60","NA","60","60","0","60","NA","60","NA","60","0","0","60","60","0","60","60","61","/","11/09/18 16:42:21","The main experiment item","yes","FIN__AB__M21__7%3A10%3A17.osexp","C:\Users\ERP Testing Room\Desktop\Joanna\morph21","no","mono","no","18","no","white","no","yes","1080","legacy","60","60","C:/Users/ERP Testing Room/Desktop/Joanna/morph21/subject-150.csv","xpyriment","Kafkaesque Koffka","3.2.5","0","/","NA","NA","NA","NA","space","/","551","NA","NA","NA","NA","168095","551","2","legacy","1024","2","48000","-16","AB_m21","150","even","FILL_W","TAX","1193","392674","390990","387857","169298","NA","NA","NA","NA","392663","391487","NA","390490","NA","390480","392663","1202","392874","NA","NA","391674","1193","1193","392065","390479","1193","391674","392874","morph21_Oliver/Morris","38","50678","61","yes","1280","45"
"250","62.9032258065","62.9032258065","827.758064516","827.758064516","black","no","xpyriment","legacy","legacy","0","201","NA","uniform","58386","1000","0.0171273935532","1","undefined","1","0","61","61","61","0","61","61","61","NA","61","61","0","61","NA","61","61","0","61","NA","61","NA","61","0","0","61","61","0","61","61","62","/","11/09/18 16:42:21","The main experiment item","yes","FIN__AB__M21__7%3A10%3A17.osexp","C:\Users\ERP Testing Room\Desktop\Joanna\morph21","no","mono","no","18","no","white","no","yes","1080","legacy","61","61","C:/Users/ERP Testing Room/Desktop/Joanna/morph21/subject-150.csv","xpyriment","Kafkaesque Koffka","3.2.5","0","/","NA","NA","NA","NA","space","/","643","NA","NA","NA","NA","168095","643","2","legacy","1024","2","48000","-16","AB_m21","150","even","CW_S","HARMLESS","1193","395790","394090","387857","169298","NA","NA","NA","NA","395782","394587","NA","393590","NA","393582","395782","1202","396040","NA","NA","394790","1193","1193","395182","393582","1193","394790","396040","morph21_Oliver/Morris","39","51321","62","yes","1280","29"
"300","61.9047619048","61.9047619048","825.412698413","825.412698413","black","no","xpyriment","legacy","legacy","0","204","NA","uniform","58620","1000","0.0170590242238","0","undefined","0","0","62","62","62","0","62","62","62","NA","62","62","0","62","NA","62","62","0","62","NA","62","NA","62","0","0","62","62","0","62","62","63","z","11/09/18 16:42:21","The main experiment item","yes","FIN__AB__M21__7%3A10%3A17.osexp","C:\Users\ERP Testing Room\Desktop\Joanna\morph21","no","mono","no","18","no","white","no","yes","1080","legacy","62","62","C:/Users/ERP Testing Room/Desktop/Joanna/morph21/subject-150.csv","xpyriment","Kafkaesque Koffka","3.2.5","0","/","NA","NA","NA","NA","space","/","680","NA","NA","NA","NA","168095","680","2","legacy","1024","2","48000","-16","AB_m21","150","even","NW_L_COMP","KINGISM","1193","400367","397199","398858","169298","NA","NA","NA","NA","395782","397696","NA","396699","NA","396693","398853","1202","400667","NA","NA","397865","1193","1193","398257","396693","1193","397865","400667","morph21_Oliver/Morris","39","52001","63","yes","1280","19"
"250","62.5","62.5","825.46875","825.46875","black","no","xpyriment","legacy","legacy","0","206","NA","uniform","55552","1000","0.0180011520737","1","undefined","1","0","63","63","63","0","63","63","63","NA","63","63","0","63","NA","63","63","0","63","NA","63","NA","63","0","0","63","63","0","63","63","64","z","11/09/18 16:42:21","The main experiment item","yes","FIN__AB__M21__7%3A10%3A17.osexp","C:\Users\ERP Testing Room\Desktop\Joanna\morph21","no","mono","no","18","no","white","no","yes","1080","legacy","63","63","C:/Users/ERP Testing Room/Desktop/Joanna/morph21/subject-150.csv","xpyriment","Kafkaesque Koffka","3.2.5","0","z","NA","NA","NA","NA","space","z","829","NA","NA","NA","NA","168095","829","2","legacy","1024","2","48000","-16","AB_m21","150","even","NW_L_SIMP","BEARILT","1193","403525","401817","398858","169298","NA","NA","NA","NA","403515","402314","NA","401317","NA","401307","403515","1202","403775","NA","NA","402525","1193","1193","402917","401307","1193","402525","403775","morph21_Oliver/Morris","40","52830","64","yes","1280","25"
"350","63.0769230769","63.0769230769","824.876923077","824.876923077","black","no","xpyriment","legacy","legacy","0","202","NA","uniform","56959","1000","0.0175564880001","1","undefined","1","0","64","64","64","0","64","64","64","NA","64","64","0","64","NA","64","64","0","64","NA","64","NA","64","0","0","64","64","0","64","64","65","/","11/09/18 16:42:21","The main experiment item","yes","FIN__AB__M21__7%3A10%3A17.osexp","C:\Users\ERP Testing Room\Desktop\Joanna\morph21","no","mono","no","18","no","white","no","yes","1080","legacy","64","64","C:/Users/ERP Testing Room/Desktop/Joanna/morph21/subject-150.csv","xpyriment","Kafkaesque Koffka","3.2.5","0","/","NA","NA","NA","NA","space","/","787","NA","NA","NA","NA","168095","787","2","legacy","1024","2","48000","-16","AB_m21","150","even","CW_L","SWIMMER","1193","406558","404892","398858","169298","NA","NA","NA","NA","406556","405389","NA","404392","NA","404386","406556","1202","406908","NA","NA","405567","1193","1193","405958","404386","1193","405567","406908","morph21_Oliver/Morris","41","53617","65","yes","1280","5"
"200","63.6363636364","63.6363636364","821.878787879","821.878787879","black","no","xpyriment","legacy","legacy","0","202","NA","uniform","63780","1000","0.0156788962057","1","undefined","1","0","65","65","65","0","65","65","65","NA","65","65","0","65","NA","65","65","0","65","NA","65","NA","65","0","0","65","65","0","65","65","66","/","11/09/18 16:42:21","The main experiment item","yes","FIN__AB__M21__7%3A10%3A17.osexp","C:\Users\ERP Testing Room\Desktop\Joanna\morph21","no","mono","no","18","no","white","no","yes","1080","legacy","65","65","C:/Users/ERP Testing Room/Desktop/Joanna/morph21/subject-150.csv","xpyriment","Kafkaesque Koffka","3.2.5","0","/","NA","NA","NA","NA","space","/","627","NA","NA","NA","NA","168095","627","2","legacy","1024","2","48000","-16","AB_m21","150","even","CW_L","VERBAL","1193","411250","408058","409742","169298","NA","NA","NA","NA","409738","408556","NA","407559","NA","407552","409738","1202","411450","NA","NA","408742","1193","1193","409142","407552","1193","408742","411450","morph21_Oliver/Morris","42","54244","66","yes","1280","50"
"350","64.1791044776","64.1791044776","818.208955224","818.208955224","black","no","xpyriment","legacy","legacy","0","207","NA","uniform","71725","1000","0.0139421401185","1","undefined","1","0","66","66","66","0","66","66","66","NA","66","66","0","66","NA","66","66","0","66","NA","66","NA","66","0","0","66","66","0","66","66","67","/","11/09/18 16:42:21","The main experiment item","yes","FIN__AB__M21__7%3A10%3A17.osexp","C:\Users\ERP Testing Room\Desktop\Joanna\morph21","no","mono","no","18","no","white","no","yes","1080","legacy","66","66","C:/Users/ERP Testing Room/Desktop/Joanna/morph21/subject-150.csv","xpyriment","Kafkaesque Koffka","3.2.5","0","/","NA","NA","NA","NA","space","/","576","NA","NA","NA","NA","168095","576","2","legacy","1024","2","48000","-16","AB_m21","150","even","FILL_W","GLOOM","1193","414217","412567","409742","169298","NA","NA","NA","NA","414209","413064","NA","412067","NA","412062","414209","1202","414567","NA","NA","413217","1193","1193","413609","412062","1193","413217","414567","morph21_Oliver/Morris","43","54820","67","yes","1280","14"
"200","64.7058823529","64.7058823529","817.132352941","817.132352941","black","no","xpyriment","legacy","legacy","0","208","NA","uniform","53881","1000","0.0185594179767","1","undefined","1","0","67","67","67","0","67","67","67","NA","67","67","0","67","NA","67","67","0","67","NA","67","NA","67","0","0","67","67","0","67","67","68","z","11/09/18 16:42:21","The main experiment item","yes","FIN__AB__M21__7%3A10%3A17.osexp","C:\Users\ERP Testing Room\Desktop\Joanna\morph21","no","mono","no","18","no","white","no","yes","1080","legacy","67","67","C:/Users/ERP Testing Room/Desktop/Joanna/morph21/subject-150.csv","xpyriment","Kafkaesque Koffka","3.2.5","0","z","NA","NA","NA","NA","space","z","745","NA","NA","NA","NA","168095","745","2","legacy","1024","2","48000","-16","AB_m21","150","even","FILL_NW","CINDS","1193","417377","415717","409742","169298","NA","NA","NA","NA","417373","416214","NA","415217","NA","415207","417373","1202","417577","NA","NA","416385","1193","1193","416777","415207","1193","416385","417577","morph21_Oliver/Morris","44","55565","68","yes","1280","6"
"350","65.2173913043","65.2173913043","814.550724638","814.550724638","black","no","xpyriment","legacy","legacy","0","201","NA","uniform","63697","1000","0.0156993264989","1","undefined","1","0","68","68","68","0","68","68","68","NA","68","68","0","68","NA","68","68","0","68","NA","68","NA","68","0","0","68","68","0","68","68","69","/","11/09/18 16:42:21","The main experiment item","yes","FIN__AB__M21__7%3A10%3A17.osexp","C:\Users\ERP Testing Room\Desktop\Joanna\morph21","no","mono","no","18","no","white","no","yes","1080","legacy","68","68","C:/Users/ERP Testing Room/Desktop/Joanna/morph21/subject-150.csv","xpyriment","Kafkaesque Koffka","3.2.5","0","/","NA","NA","NA","NA","space","/","639","NA","NA","NA","NA","168095","639","2","legacy","1024","2","48000","-16","AB_m21","150","even","CW_S","NEATLY","1193","421944","418760","420435","169298","NA","NA","NA","NA","420432","419257","NA","418260","NA","418252","420432","1202","422294","NA","NA","419435","1193","1193","419835","418252","1193","419435","422294","morph21_Oliver/Morris","45","56204","69","yes","1280","33"
"300","65.7142857143","65.7142857143","810.828571429","810.828571429","black","no","xpyriment","legacy","legacy","0","207","NA","uniform","66863","1000","0.0149559547134","1","undefined","1","0","69","69","69","0","69","69","69","NA","69","69","0","69","NA","69","69","0","69","NA","69","NA","69","0","0","69","69","0","69","69","70","/","11/09/18 16:42:21","The main experiment item","yes","FIN__AB__M21__7%3A10%3A17.osexp","C:\Users\ERP Testing Room\Desktop\Joanna\morph21","no","mono","no","18","no","white","no","yes","1080","legacy","69","69","C:/Users/ERP Testing Room/Desktop/Joanna/morph21/subject-150.csv","xpyriment","Kafkaesque Koffka","3.2.5","0","/","NA","NA","NA","NA","space","/","554","NA","NA","NA","NA","168095","554","2","legacy","1024","2","48000","-16","AB_m21","150","even","FILL_W","IRON","1193","425127","423452","420435","169298","NA","NA","NA","NA","425123","423949","NA","422944","NA","422938","425123","1202","425427","NA","NA","424127","1193","1193","424527","422938","1193","424127","425427","morph21_Oliver/Morris","46","56758","70","yes","1280","33"
"200","66.1971830986","66.1971830986","807.647887324","807.647887324","black","no","xpyriment","legacy","legacy","0","207","NA","uniform","62205","1000","0.0160758781448","1","undefined","1","0","70","70","70","0","70","70","70","NA","70","70","0","70","NA","70","70","0","70","NA","70","NA","70","0","0","70","70","0","70","70","71","/","11/09/18 16:42:21","The main experiment item","yes","FIN__AB__M21__7%3A10%3A17.osexp","C:\Users\ERP Testing Room\Desktop\Joanna\morph21","no","mono","no","18","no","white","no","yes","1080","legacy","70","70","C:/Users/ERP Testing Room/Desktop/Joanna/morph21/subject-150.csv","xpyriment","Kafkaesque Koffka","3.2.5","0","/","NA","NA","NA","NA","space","/","585","NA","NA","NA","NA","168095","585","2","legacy","1024","2","48000","-16","AB_m21","150","even","FILL_W","FLESH","1193","428352","426669","420435","169298","NA","NA","NA","NA","428343","427166","NA","426169","NA","426159","428343","1202","428552","NA","NA","427352","1193","1193","427744","426159","1193","427352","428552","morph21_Oliver/Morris","47","57343","71","yes","1280","32"
"250","65.2777777778","65.2777777778","803.5","803.5","black","no","xpyriment","legacy","legacy","0","204","NA","uniform","63735","1000","0.0156899662666","0","undefined","0","0","71","71","71","0","71","71","71","NA","71","71","0","71","NA","71","71","0","71","NA","71","NA","71","0","0","71","71","0","71","71","72","z","11/09/18 16:42:21","The main experiment item","yes","FIN__AB__M21__7%3A10%3A17.osexp","C:\Users\ERP Testing Room\Desktop\Joanna\morph21","no","mono","no","18","no","white","no","yes","1080","legacy","71","71","C:/Users/ERP Testing Room/Desktop/Joanna/morph21/subject-150.csv","xpyriment","Kafkaesque Koffka","3.2.5","0","/","NA","NA","NA","NA","space","/","509","NA","NA","NA","NA","168095","509","2","legacy","1024","2","48000","-16","AB_m21","150","even","NW_L_COMP","MUDLY","1193","432952","429769","431444","169298","NA","NA","NA","NA","428343","430266","NA","429269","NA","429258","431434","1202","433202","NA","NA","430444","1193","1193","430835","429258","1193","430444","433202","morph21_Oliver/Morris","47","57852","72","yes","1280","12"
"250","64.3835616438","64.3835616438","806.068493151","806.068493151","black","no","xpyriment","legacy","legacy","0","205","NA","uniform","54310","1000","0.0184128153195","0","undefined","0","0","72","72","72","0","72","72","72","NA","72","72","0","72","NA","72","72","0","72","NA","72","NA","72","0","0","72","72","0","72","72","73","z","11/09/18 16:42:21","The main experiment item","yes","FIN__AB__M21__7%3A10%3A17.osexp","C:\Users\ERP Testing Room\Desktop\Joanna\morph21","no","mono","no","18","no","white","no","yes","1080","legacy","72","72","C:/Users/ERP Testing Room/Desktop/Joanna/morph21/subject-150.csv","xpyriment","Kafkaesque Koffka","3.2.5","0","None","NA","NA","NA","NA","space","None","991","NA","NA","NA","NA","168095","991","2","legacy","1024","2","48000","-16","AB_m21","150","even","NW_S_SIMP","DIGODY","1193","436045","434337","431444","169298","NA","NA","NA","NA","428343","434834","NA","433837","NA","433825","436036","1202","436295","NA","NA","435045","1193","1193","435437","433825","1193","435045","436295","morph21_Oliver/Morris","47","58843","73","yes","1280","11"
"300","63.5135135135","63.5135135135","804.067567568","804.067567568","black","no","xpyriment","legacy","legacy","0","206","NA","uniform","61991","1000","0.0161313739091","0","undefined","0","0","73","73","73","0","73","73","73","NA","73","73","0","73","NA","73","73","0","73","NA","73","NA","73","0","0","73","73","0","73","73","74","z","11/09/18 16:42:21","The main experiment item","yes","FIN__AB__M21__7%3A10%3A17.osexp","C:\Users\ERP Testing Room\Desktop\Joanna\morph21","no","mono","no","18","no","white","no","yes","1080","legacy","73","73","C:/Users/ERP Testing Room/Desktop/Joanna/morph21/subject-150.csv","xpyriment","Kafkaesque Koffka","3.2.5","0","/","NA","NA","NA","NA","space","/","658","NA","NA","NA","NA","168095","658","2","legacy","1024","2","48000","-16","AB_m21","150","even","NW_L_SIMP","TAXFIL","1193","439112","437445","431444","169298","NA","NA","NA","NA","428343","437942","NA","436945","NA","436936","439109","1202","439412","NA","NA","438120","1193","1193","438512","436936","1193","438120","439412","morph21_Oliver/Morris","47","59501","74","yes","1280","6"
"350","64","64","802.586666667","802.586666667","black","no","xpyriment","legacy","legacy","0","201","NA","uniform","61394","1000","0.0162882366355","undefined","undefined","1","0","74","74","74","0","74","74","74","NA","74","74","0","74","NA","74","74","0","74","NA","74","NA","74","0","0","74","74","0","74","74","75","/","11/09/18 16:42:21","The main experiment item","yes","FIN__AB__M21__7%3A10%3A17.osexp","C:\Users\ERP Testing Room\Desktop\Joanna\morph21","no","mono","no","18","no","white","no","yes","1080","legacy","74","74","C:/Users/ERP Testing Room/Desktop/Joanna/morph21/subject-150.csv","xpyriment","Kafkaesque Koffka","3.2.5","0","space","space","NA","NA","NA","space","/","10571","10571","NA","NA","NA","168095","693","2","legacy","1024","2","48000","-16","AB_m21","150","even","CW_S","AMAZEMENT","1193","443720","440562","442212","169298","444079","NA","NA","NA","442205","441059","NA","440062","NA","440056","442205","1202","454652","NA","NA","441212","1193","1193","441604","440056","1193","441212","444071","morph21_Oliver/Morris","48","60194","75","yes","1280","39"
"300","63.1578947368","63.1578947368","805.039473684","805.039473684","black","no","xpyriment","legacy","legacy","0","205","NA","uniform","41916","1000","0.0238572382861","0","undefined","0","0","75","75","75","0","75","75","75","NA","75","75","0","75","NA","75","75","0","75","NA","75","NA","75","0","0","75","75","0","75","75","76","z","11/09/18 16:42:21","The main experiment item","yes","FIN__AB__M21__7%3A10%3A17.osexp","C:\Users\ERP Testing Room\Desktop\Joanna\morph21","no","mono","no","18","no","white","no","yes","1080","legacy","75","75","C:/Users/ERP Testing Room/Desktop/Joanna/morph21/subject-150.csv","xpyriment","Kafkaesque Koffka","3.2.5","0","None","space","NA","NA","NA","space","None","989","10571","NA","NA","NA","168095","989","2","legacy","1024","2","48000","-16","AB_m21","150","even","NW_S_SIMP","HELMETOES","1193","457522","455839","442212","169298","444079","NA","NA","NA","442205","456336","NA","455339","NA","455330","457519","1202","457822","NA","NA","456530","1193","1193","456922","455330","1193","456530","457822","morph21_Oliver/Morris","48","61183","76","yes","1280","14"
"300","62.3376623377","62.3376623377","807.428571429","807.428571429","black","no","xpyriment","legacy","legacy","0","204","NA","uniform","52544","1000","0.0190316686967","0","undefined","0","0","76","76","76","0","76","76","76","NA","76","76","0","76","NA","76","76","0","76","NA","76","NA","76","0","0","76","76","0","76","76","77","z","11/09/18 16:42:21","The main experiment item","yes","FIN__AB__M21__7%3A10%3A17.osexp","C:\Users\ERP Testing Room\Desktop\Joanna\morph21","no","mono","no","18","no","white","no","yes","1080","legacy","76","76","C:/Users/ERP Testing Room/Desktop/Joanna/morph21/subject-150.csv","xpyriment","Kafkaesque Koffka","3.2.5","0","None","space","NA","NA","NA","space","None","989","10571","NA","NA","NA","168095","989","2","legacy","1024","2","48000","-16","AB_m21","150","even","NW_L_COMP","EMPLOYNESS","1193","460672","458997","442212","169298","444079","NA","NA","NA","442205","459494","NA","458497","NA","458485","460669","1202","460972","NA","NA","459680","1193","1193","460072","458485","1193","459680","460972","morph21_Oliver/Morris","48","62172","77","yes","1280","21"
"350","61.5384615385","61.5384615385","809.820512821","809.820512821","black","no","xpyriment","legacy","legacy","0","205","NA","uniform","50287","1000","0.0198858551912","0","undefined","0","0","77","77","77","0","77","77","77","NA","77","77","0","77","NA","77","77","0","77","NA","77","NA","77","0","0","77","77","0","77","77","78","z","11/09/18 16:42:21","The main experiment item","yes","FIN__AB__M21__7%3A10%3A17.osexp","C:\Users\ERP Testing Room\Desktop\Joanna\morph21","no","mono","no","18","no","white","no","yes","1080","legacy","77","77","C:/Users/ERP Testing Room/Desktop/Joanna/morph21/subject-150.csv","xpyriment","Kafkaesque Koffka","3.2.5","0","None","space","NA","NA","NA","space","None","994","10571","NA","NA","NA","168095","994","2","legacy","1024","2","48000","-16","AB_m21","150","even","NW_S_SIMP","ACREMANT","1193","465231","462072","463722","169298","444079","NA","NA","NA","442205","462569","NA","461572","NA","461561","463717","1202","465581","NA","NA","462722","1193","1193","463114","461561","1193","462722","465581","morph21_Oliver/Morris","48","63166","78","yes","1280","16"
"250","62.0253164557","62.0253164557","807.291139241","807.291139241","black","no","xpyriment","legacy","legacy","0","207","NA","uniform","58204","1000","0.0171809497629","1","undefined","1","0","78","78","78","0","78","78","78","NA","78","78","0","78","NA","78","78","0","78","NA","78","NA","78","0","0","78","78","0","78","78","79","/","11/09/18 16:42:21","The main experiment item","yes","FIN__AB__M21__7%3A10%3A17.osexp","C:\Users\ERP Testing Room\Desktop\Joanna\morph21","no","mono","no","18","no","white","no","yes","1080","legacy","78","78","C:/Users/ERP Testing Room/Desktop/Joanna/morph21/subject-150.csv","xpyriment","Kafkaesque Koffka","3.2.5","0","/","space","NA","NA","NA","space","/","610","10571","NA","NA","NA","168095","610","2","legacy","1024","2","48000","-16","AB_m21","150","even","FILL_W","TASTE","1193","468431","466756","463722","169298","444079","NA","NA","NA","468421","467253","NA","466256","NA","466247","468421","1202","468681","NA","NA","467431","1193","1193","467822","466247","1193","467431","468681","morph21_Oliver/Morris","49","63776","79","yes","1280","34"
"200","62.5","62.5","806.6","806.6","black","no","xpyriment","legacy","legacy","0","205","NA","uniform","57261","1000","0.0174638934004","1","undefined","1","0","79","79","79","0","79","79","79","NA","79","79","0","79","NA","79","79","0","79","NA","79","NA","79","0","0","79","79","0","79","79","80","z","11/09/18 16:42:21","The main experiment item","yes","FIN__AB__M21__7%3A10%3A17.osexp","C:\Users\ERP Testing Room\Desktop\Joanna\morph21","no","mono","no","18","no","white","no","yes","1080","legacy","79","79","C:/Users/ERP Testing Room/Desktop/Joanna/morph21/subject-150.csv","xpyriment","Kafkaesque Koffka","3.2.5","0","z","space","NA","NA","NA","space","z","752","10571","NA","NA","NA","168095","752","2","legacy","1024","2","48000","-16","AB_m21","150","even","NW_S_SIMP","JAWLA","1193","471482","469790","463722","169298","444079","NA","NA","NA","471472","470287","NA","469290","NA","469285","471472","1202","471682","NA","NA","470482","1193","1193","470874","469285","1193","470482","471682","morph21_Oliver/Morris","50","64528","80","yes","1280","7"
"400","62.962962963","62.962962963","806.777777778","806.777777778","black","no","xpyriment","legacy","legacy","0","201","NA","uniform","55698","1000","0.0179539660311","1","undefined","1","0","80","80","80","0","80","80","80","NA","80","80","0","80","NA","80","80","0","80","NA","80","NA","80","0","0","80","80","0","80","80","81","/","11/09/18 16:42:21","The main experiment item","yes","FIN__AB__M21__7%3A10%3A17.osexp","C:\Users\ERP Testing Room\Desktop\Joanna\morph21","no","mono","no","18","no","white","no","yes","1080","legacy","80","80","C:/Users/ERP Testing Room/Desktop/Joanna/morph21/subject-150.csv","xpyriment","Kafkaesque Koffka","3.2.5","0","/","space","NA","NA","NA","space","/","821","10571","NA","NA","NA","168095","821","2","legacy","1024","2","48000","-16","AB_m21","150","even","CW_S","EFFORTLESS","1193","476057","472874","474549","169298","444079","NA","NA","NA","474541","473371","NA","472365","NA","472354","474541","1202","476457","NA","NA","473549","1193","1193","473940","472354","1193","473549","476457","morph21_Oliver/Morris","51","65349","81","yes","1280","30"
"350","63.4146341463","63.4146341463","804.365853659","804.365853659","black","no","xpyriment","legacy","legacy","0","202","NA","uniform","68540","1000","0.014590020426","1","undefined","1","0","81","81","81","0","81","81","81","NA","81","81","0","81","NA","81","81","0","81","NA","81","NA","81","0","0","81","81","0","81","81","82","/","11/09/18 16:42:21","The main experiment item","yes","FIN__AB__M21__7%3A10%3A17.osexp","C:\Users\ERP Testing Room\Desktop\Joanna\morph21","no","mono","no","18","no","white","no","yes","1080","legacy","81","81","C:/Users/ERP Testing Room/Desktop/Joanna/morph21/subject-150.csv","xpyriment","Kafkaesque Koffka","3.2.5","0","/","space","NA","NA","NA","space","/","609","10571","NA","NA","NA","168095","609","2","legacy","1024","2","48000","-16","AB_m21","150","even","CW_L","HUNTER","1193","479224","477541","474549","169298","444079","NA","NA","NA","479214","478038","NA","477041","NA","477037","479214","1202","479574","NA","NA","478224","1193","1193","478616","477037","1193","478224","479574","morph21_Oliver/Morris","52","65958","82","yes","1280","10"
"200","63.8554216867","63.8554216867","801.108433735","801.108433735","black","no","xpyriment","legacy","legacy","0","207","NA","uniform","65935","1000","0.0151664518086","1","undefined","1","0","82","82","82","0","82","82","82","NA","82","82","0","82","NA","82","82","0","82","NA","82","NA","82","0","0","82","82","0","82","82","83","/","11/09/18 16:42:21","The main experiment item","yes","FIN__AB__M21__7%3A10%3A17.osexp","C:\Users\ERP Testing Room\Desktop\Joanna\morph21","no","mono","no","18","no","white","no","yes","1080","legacy","82","82","C:/Users/ERP Testing Room/Desktop/Joanna/morph21/subject-150.csv","xpyriment","Kafkaesque Koffka","3.2.5","0","/","space","NA","NA","NA","space","/","534","10571","NA","NA","NA","168095","534","2","legacy","1024","2","48000","-16","AB_m21","150","even","FILL_W","GOLF","1193","482499","480782","474549","169298","444079","NA","NA","NA","482495","481279","NA","480282","NA","480273","482495","1202","482699","NA","NA","481499","1193","1193","481899","480273","1193","481499","482699","morph21_Oliver/Morris","53","66492","83","yes","1280","28"
"200","64.2857142857","64.2857142857","803.297619048","803.297619048","black","no","xpyriment","legacy","legacy","0","204","NA","uniform","46968","1000","0.0212910918072","1","undefined","1","0","83","83","83","0","83","83","83","NA","83","83","0","83","NA","83","83","0","83","NA","83","NA","83","0","0","83","83","0","83","83","84","z","11/09/18 16:42:21","The main experiment item","yes","FIN__AB__M21__7%3A10%3A17.osexp","C:\Users\ERP Testing Room\Desktop\Joanna\morph21","no","mono","no","18","no","white","no","yes","1080","legacy","83","83","C:/Users/ERP Testing Room/Desktop/Joanna/morph21/subject-150.csv","xpyriment","Kafkaesque Koffka","3.2.5","0","z","space","NA","NA","NA","space","z","985","10571","NA","NA","NA","168095","985","2","legacy","1024","2","48000","-16","AB_m21","150","even","NW_L_COMP","GASFUL","1193","487134","483916","485624","169298","444079","NA","NA","NA","485616","484413","NA","483416","NA","483411","485616","1202","487334","NA","NA","484624","1193","1193","485016","483411","1193","484624","487334","morph21_Oliver/Morris","54","67477","84","yes","1280","6"
"200","63.5294117647","63.5294117647","805.494117647","805.494117647","black","no","xpyriment","legacy","legacy","0","208","NA","uniform","52377","1000","0.0190923496955","0","undefined","0","0","84","84","84","0","84","84","84","NA","84","84","0","84","NA","84","84","0","84","NA","84","NA","84","0","0","84","84","0","84","84","85","z","11/09/18 16:42:21","The main experiment item","yes","FIN__AB__M21__7%3A10%3A17.osexp","C:\Users\ERP Testing Room\Desktop\Joanna\morph21","no","mono","no","18","no","white","no","yes","1080","legacy","84","84","C:/Users/ERP Testing Room/Desktop/Joanna/morph21/subject-150.csv","xpyriment","Kafkaesque Koffka","3.2.5","0","None","space","NA","NA","NA","space","None","990","10571","NA","NA","NA","168095","990","2","legacy","1024","2","48000","-16","AB_m21","150","even","FILL_NW","BROUPS","1193","490142","488459","485624","169298","444079","NA","NA","NA","485616","488956","NA","487959","NA","487947","490133","1202","490342","NA","NA","489142","1193","1193","489534","487947","1193","489142","490342","morph21_Oliver/Morris","54","68467","85","yes","1280","4"
"400","63.9534883721","63.9534883721","806.186046512","806.186046512","black","no","xpyriment","legacy","legacy","0","201","NA","uniform","49658","1000","0.0201377421563","1","undefined","1","0","85","85","85","0","85","85","85","NA","85","85","0","85","NA","85","85","0","85","NA","85","NA","85","0","0","85","85","0","85","85","86","/","11/09/18 16:42:21","The main experiment item","yes","FIN__AB__M21__7%3A10%3A17.osexp","C:\Users\ERP Testing Room\Desktop\Joanna\morph21","no","mono","no","18","no","white","no","yes","1080","legacy","85","85","C:/Users/ERP Testing Room/Desktop/Joanna/morph21/subject-150.csv","xpyriment","Kafkaesque Koffka","3.2.5","0","/","space","NA","NA","NA","space","/","865","10571","NA","NA","NA","168095","865","2","legacy","1024","2","48000","-16","AB_m21","150","even","CW_S","DIETARY","1193","493200","491509","485624","169298","444079","NA","NA","NA","493192","492006","NA","491000","NA","490991","493192","1202","493601","NA","NA","492201","1193","1193","492592","490991","1193","492200","493601","morph21_Oliver/Morris","55","69332","86","yes","1280","6"
"250","64.367816092","64.367816092","803.275862069","803.275862069","black","no","xpyriment","legacy","legacy","0","207","NA","uniform","67262","1000","0.0148672355862","1","undefined","1","0","86","86","86","0","86","86","86","NA","86","86","0","86","NA","86","86","0","86","NA","86","NA","86","0","0","86","86","0","86","86","87","/","11/09/18 16:42:21","The main experiment item","yes","FIN__AB__M21__7%3A10%3A17.osexp","C:\Users\ERP Testing Room\Desktop\Joanna\morph21","no","mono","no","18","no","white","no","yes","1080","legacy","86","86","C:/Users/ERP Testing Room/Desktop/Joanna/morph21/subject-150.csv","xpyriment","Kafkaesque Koffka","3.2.5","0","/","space","NA","NA","NA","space","/","553","10571","NA","NA","NA","168095","553","2","legacy","1024","2","48000","-16","AB_m21","150","even","FILL_W","COOK","1193","497884","494701","496376","169298","444079","NA","NA","NA","496367","495198","NA","494201","NA","494193","496367","1202","498134","NA","NA","495376","1193","1193","495767","494193","1193","495376","498134","morph21_Oliver/Morris","56","69885","87","yes","1280","38"
"250","64.7727272727","64.7727272727","804.704545455","804.704545455","black","no","xpyriment","legacy","legacy","0","202","NA","uniform","52218","1000","0.0191504845073","1","undefined","1","0","87","87","87","0","87","87","87","NA","87","87","0","87","NA","87","87","0","87","NA","87","NA","87","0","0","87","87","0","87","87","88","/","11/09/18 16:42:21","The main experiment item","yes","FIN__AB__M21__7%3A10%3A17.osexp","C:\Users\ERP Testing Room\Desktop\Joanna\morph21","no","mono","no","18","no","white","no","yes","1080","legacy","87","87","C:/Users/ERP Testing Room/Desktop/Joanna/morph21/subject-150.csv","xpyriment","Kafkaesque Koffka","3.2.5","0","/","space","NA","NA","NA","space","/","929","10571","NA","NA","NA","168095","929","2","legacy","1024","2","48000","-16","AB_m21","150","even","CW_L","STRIKER","1193","500967","499259","496376","169298","444079","NA","NA","NA","500960","499756","NA","498759","NA","498754","500960","1202","501218","NA","NA","499968","1193","1193","500359","498754","1193","499967","501218","morph21_Oliver/Morris","57","70814","88","yes","1280","17"
"250","65.1685393258","65.1685393258","802.865168539","802.865168539","black","no","xpyriment","legacy","legacy","0","201","NA","uniform","63855","1000","0.0156604807768","1","undefined","1","0","88","88","88","0","88","88","88","NA","88","88","0","88","NA","88","88","0","88","NA","88","NA","88","0","0","88","88","0","88","88","89","/","11/09/18 16:42:21","The main experiment item","yes","FIN__AB__M21__7%3A10%3A17.osexp","C:\Users\ERP Testing Room\Desktop\Joanna\morph21","no","mono","no","18","no","white","no","yes","1080","legacy","88","88","C:/Users/ERP Testing Room/Desktop/Joanna/morph21/subject-150.csv","xpyriment","Kafkaesque Koffka","3.2.5","0","/","space","NA","NA","NA","space","/","641","10571","NA","NA","NA","168095","641","2","legacy","1024","2","48000","-16","AB_m21","150","even","CW_S","AWARENESS","1193","504010","502359","496376","169298","444079","NA","NA","NA","504001","502856","NA","501859","NA","501847","504001","1202","504260","NA","NA","503009","1193","1193","503401","501847","1193","503009","504260","morph21_Oliver/Morris","58","71455","89","yes","1280","44"
"300","65.5555555556","65.5555555556","804.9","804.9","black","no","xpyriment","legacy","legacy","0","208","NA","uniform","49628","1000","0.0201499153704","1","undefined","1","0","89","89","89","0","89","89","89","NA","89","89","0","89","NA","89","89","0","89","NA","89","NA","89","0","0","89","89","0","89","89","90","z","11/09/18 16:42:21","The main experiment item","yes","FIN__AB__M21__7%3A10%3A17.osexp","C:\Users\ERP Testing Room\Desktop\Joanna\morph21","no","mono","no","18","no","white","no","yes","1080","legacy","89","89","C:/Users/ERP Testing Room/Desktop/Joanna/morph21/subject-150.csv","xpyriment","Kafkaesque Koffka","3.2.5","0","z","space","NA","NA","NA","space","z","986","10571","NA","NA","NA","168095","986","2","legacy","1024","2","48000","-16","AB_m21","150","even","FILL_NW","DASK","1193","508652","505469","507144","169298","444079","NA","NA","NA","507138","505966","NA","504969","NA","504958","507138","1202","508952","NA","NA","506144","1193","1193","506535","504958","1193","506144","508952","morph21_Oliver/Morris","59","72441","90","yes","1280","12"
