"ITI","acc","accuracy","average_response_time","avg_rt","background","bidi","canvas_backend","clock_backend","color_backend","compensation","cond_trig","condtrigtime","coordinates","coroutines_cycles","coroutines_duration","coroutines_mean_cycle_duration","correct","correct_instructions_1","correct_new_keyboard_response_1","count_BA_m21","count_ITI","count_blank_screen","count_blink_screen","count_block1","count_break1","count_break2","count_break3_1","count_canvas","count_correct_trigger","count_def_chain","count_end_screen","count_fixation_1","count_getting_started","count_inc_counter","count_incorrect_trigger","count_instructions_1","count_logger","count_logscript","count_new_coroutines","count_new_inline_script","count_new_keyboard_response_1","count_reset_counter_prep","count_reset_counter_run","count_responsescreen","count_sequence","count_start_trigger","count_target_present","count_word_trigger","counter","cresp","datetime","description","disable_garbage_collection","experiment_file","experiment_path","font_bold","font_family","font_italic","font_size","font_underline","foreground","form_clicks","fullscreen","height","keyboard_backend","live_row","live_row_block1","logfile","mouse_backend","opensesame_codename","opensesame_version","repeat_cycle","response","response_break1","response_break2","response_break3_1","response_end_screen","response_instructions_1","response_new_keyboard_response_1","response_time","response_time_break1","response_time_break2","response_time_break3_1","response_time_end_screen","response_time_instructions_1","response_time_new_keyboard_response_1","round_decimals","sampler_backend","sound_buf_size","sound_channels","sound_freq","sound_sample_size","start","subject_nr","subject_parity","targ_type","target","time_BA_m21","time_ITI","time_blank_screen","time_blink_screen","time_block1","time_break1","time_break2","time_break3_1","time_canvas","time_correct_trigger","time_def_chain","time_end_screen","time_fixation_1","time_getting_started","time_inc_counter","time_incorrect_trigger","time_instructions_1","time_logger","time_logscript","time_new_inline_script","time_new_keyboard_response_1","time_reset_counter_prep","time_reset_counter_run","time_responsescreen","time_sequence","time_start_trigger","time_target_present","time_word_trigger","title","total_correct","total_response_time","total_responses","uniform_coordinates","width","word_trig"
"350","100","100","827","827","black","no","xpyriment","legacy","legacy","0","201","NA","uniform","65384","1000","0.0152942615931","1","undefined","1","0","0","0","0","0","0","0","0","NA","0","0","0","0","NA","0","0","0","0","NA","0","NA","0","0","0","0","0","0","0","0","1","/","11/01/17 16:33:09","The main experiment item","yes","FIN__BA__M21__7%3A10%3A17.osexp","C:\Users\ERP Testing Room\Desktop\Joanna\morph21","no","mono","no","18","no","white","no","yes","1080","legacy","0","0","C:/Users/ERP Testing Room/Desktop/Joanna/morph21/subject-113.csv","xpyriment","Jazzy James","3.1.4","0","/","NA","NA","NA","NA","space","/","827","NA","NA","NA","NA","166998","827","2","legacy","1024","2","48000","-16","BA_m21","113","odd","CW_S","STRANGENESS","1367","171227","169644","NA","168374","NA","NA","NA","NA","171223","170141","NA","169138","NA","169069","171223","1376","171577","NA","NA","170227","1367","1367","170627","169069","1367","170227","171577","morph21_Oliver/Morris","1","827","1","yes","1280","46"
"200","100","100","664.5","664.5","black","no","xpyriment","legacy","legacy","0","207","NA","uniform","76069","1000","0.0131459595893","1","undefined","1","0","1","1","1","0","1","1","1","NA","1","1","0","1","NA","1","1","0","1","NA","1","NA","1","0","0","1","1","0","1","1","2","/","11/01/17 16:33:09","The main experiment item","yes","FIN__BA__M21__7%3A10%3A17.osexp","C:\Users\ERP Testing Room\Desktop\Joanna\morph21","no","mono","no","18","no","white","no","yes","1080","legacy","1","1","C:/Users/ERP Testing Room/Desktop/Joanna/morph21/subject-113.csv","xpyriment","Jazzy James","3.1.4","0","/","NA","NA","NA","NA","space","/","502","NA","NA","NA","NA","166998","502","2","legacy","1024","2","48000","-16","BA_m21","113","odd","FILL_W","SAVE","1367","174511","172928","NA","168374","NA","NA","NA","NA","174508","173425","NA","172428","NA","172420","174508","1376","174711","NA","NA","173520","1367","1367","173911","172420","1367","173520","174711","morph21_Oliver/Morris","2","1329","2","yes","1280","46"
"350","66.6666666667","66.6666666667","592.666666667","592.666666667","black","no","xpyriment","legacy","legacy","0","208","NA","uniform","82671","1000","0.0120961401217","0","undefined","0","0","2","2","2","0","2","2","2","NA","2","2","0","2","NA","2","2","0","2","NA","2","NA","2","0","0","2","2","0","2","2","3","z","11/01/17 16:33:09","The main experiment item","yes","FIN__BA__M21__7%3A10%3A17.osexp","C:\Users\ERP Testing Room\Desktop\Joanna\morph21","no","mono","no","18","no","white","no","yes","1080","legacy","2","2","C:/Users/ERP Testing Room/Desktop/Joanna/morph21/subject-113.csv","xpyriment","Jazzy James","3.1.4","0","/","NA","NA","NA","NA","space","/","449","NA","NA","NA","NA","166998","449","2","legacy","1024","2","48000","-16","BA_m21","113","odd","FILL_NW","BLANTH","1367","179145","176028","177637","168374","NA","NA","NA","NA","174508","176525","NA","175528","NA","175522","177634","1376","179495","NA","NA","176645","1367","1367","177037","175522","1367","176645","179495","morph21_Oliver/Morris","2","1778","3","yes","1280","3"
"300","75","75","656.5","656.5","black","no","xpyriment","legacy","legacy","0","204","NA","uniform","62130","1000","0.0160952840818","1","undefined","1","0","3","3","3","0","3","3","3","NA","3","3","0","3","NA","3","3","0","3","NA","3","NA","3","0","0","3","3","0","3","3","4","z","11/01/17 16:33:09","The main experiment item","yes","FIN__BA__M21__7%3A10%3A17.osexp","C:\Users\ERP Testing Room\Desktop\Joanna\morph21","no","mono","no","18","no","white","no","yes","1080","legacy","3","3","C:/Users/ERP Testing Room/Desktop/Joanna/morph21/subject-113.csv","xpyriment","Jazzy James","3.1.4","0","z","NA","NA","NA","NA","space","z","848","NA","NA","NA","NA","166998","848","2","legacy","1024","2","48000","-16","BA_m21","113","odd","NW_L_COMP","ADDMANT","1367","182270","180662","177637","168374","NA","NA","NA","NA","182263","181159","NA","180162","NA","180153","182263","1376","182570","NA","NA","181270","1367","1367","181662","180153","1367","181270","182570","morph21_Oliver/Morris","3","2626","4","yes","1280","13"
"200","80","80","660","660","black","no","xpyriment","legacy","legacy","0","203","NA","uniform","66449","1000","0.0150491354272","1","undefined","1","0","4","4","4","0","4","4","4","NA","4","4","0","4","NA","4","4","0","4","NA","4","NA","4","0","0","4","4","0","4","4","5","z","11/01/17 16:33:09","The main experiment item","yes","FIN__BA__M21__7%3A10%3A17.osexp","C:\Users\ERP Testing Room\Desktop\Joanna\morph21","no","mono","no","18","no","white","no","yes","1080","legacy","4","4","C:/Users/ERP Testing Room/Desktop/Joanna/morph21/subject-113.csv","xpyriment","Jazzy James","3.1.4","0","z","NA","NA","NA","NA","space","z","674","NA","NA","NA","NA","166998","674","2","legacy","1024","2","48000","-16","BA_m21","113","odd","NW_S_COMP","ELMILT","1367","185412","183820","177637","168374","NA","NA","NA","NA","185402","184317","NA","183320","NA","183311","185402","1376","185612","NA","NA","184412","1367","1367","184804","183311","1367","184412","185612","morph21_Oliver/Morris","4","3300","5","yes","1280","10"
"200","83.3333333333","83.3333333333","650.666666667","650.666666667","black","no","xpyriment","legacy","legacy","0","202","NA","uniform","78386","1000","0.0127573801444","1","undefined","1","0","5","5","5","0","5","5","5","NA","5","5","0","5","NA","5","5","0","5","NA","5","NA","5","0","0","5","5","0","5","5","6","/","11/01/17 16:33:09","The main experiment item","yes","FIN__BA__M21__7%3A10%3A17.osexp","C:\Users\ERP Testing Room\Desktop\Joanna\morph21","no","mono","no","18","no","white","no","yes","1080","legacy","5","5","C:/Users/ERP Testing Room/Desktop/Joanna/morph21/subject-113.csv","xpyriment","Jazzy James","3.1.4","0","/","NA","NA","NA","NA","space","/","604","NA","NA","NA","NA","166998","604","2","legacy","1024","2","48000","-16","BA_m21","113","odd","CW_L","COLLECTOR","1367","189880","186787","188370","168374","NA","NA","NA","NA","188366","187284","NA","186287","NA","186281","188366","1376","190080","NA","NA","187370","1367","1367","187770","186281","1367","187370","190080","morph21_Oliver/Morris","5","3904","6","yes","1280","46"
"250","85.7142857143","85.7142857143","650.571428571","650.571428571","black","no","xpyriment","legacy","legacy","0","204","NA","uniform","70132","1000","0.0142588262134","1","undefined","1","0","6","6","6","0","6","6","6","NA","6","6","0","6","NA","6","6","0","6","NA","6","NA","6","0","0","6","6","0","6","6","7","z","11/01/17 16:33:09","The main experiment item","yes","FIN__BA__M21__7%3A10%3A17.osexp","C:\Users\ERP Testing Room\Desktop\Joanna\morph21","no","mono","no","18","no","white","no","yes","1080","legacy","6","6","C:/Users/ERP Testing Room/Desktop/Joanna/morph21/subject-113.csv","xpyriment","Jazzy James","3.1.4","0","z","NA","NA","NA","NA","space","z","650","NA","NA","NA","NA","166998","650","2","legacy","1024","2","48000","-16","BA_m21","113","odd","NW_L_COMP","FREENELS","1367","192972","191388","188370","168374","NA","NA","NA","NA","192963","191885","NA","190888","NA","190883","192963","1376","193222","NA","NA","191972","1367","1367","192363","190883","1367","191972","193222","morph21_Oliver/Morris","6","4554","7","yes","1280","15"
"300","87.5","87.5","640.75","640.75","black","no","xpyriment","legacy","legacy","0","202","NA","uniform","69756","1000","0.0143356843856","1","undefined","1","0","7","7","7","0","7","7","7","NA","7","7","0","7","NA","7","7","0","7","NA","7","NA","7","0","0","7","7","0","7","7","8","/","11/01/17 16:33:09","The main experiment item","yes","FIN__BA__M21__7%3A10%3A17.osexp","C:\Users\ERP Testing Room\Desktop\Joanna\morph21","no","mono","no","18","no","white","no","yes","1080","legacy","7","7","C:/Users/ERP Testing Room/Desktop/Joanna/morph21/subject-113.csv","xpyriment","Jazzy James","3.1.4","0","/","NA","NA","NA","NA","space","/","572","NA","NA","NA","NA","166998","572","2","legacy","1024","2","48000","-16","BA_m21","113","odd","CW_L","WEEDY","1367","196122","194513","188370","168374","NA","NA","NA","NA","196119","195011","NA","194013","NA","194004","196119","1376","196422","NA","NA","195130","1367","1367","195522","194004","1367","195130","196422","morph21_Oliver/Morris","7","5126","8","yes","1280","48"
"400","88.8888888889","88.8888888889","626.111111111","626.111111111","black","no","xpyriment","legacy","legacy","0","201","NA","uniform","81572","1000","0.0122591085176","1","undefined","1","0","8","8","8","0","8","8","8","NA","8","8","0","8","NA","8","8","0","8","NA","8","NA","8","0","0","8","8","0","8","8","9","/","11/01/17 16:33:09","The main experiment item","yes","FIN__BA__M21__7%3A10%3A17.osexp","C:\Users\ERP Testing Room\Desktop\Joanna\morph21","no","mono","no","18","no","white","no","yes","1080","legacy","8","8","C:/Users/ERP Testing Room/Desktop/Joanna/morph21/subject-113.csv","xpyriment","Jazzy James","3.1.4","0","/","NA","NA","NA","NA","space","/","509","NA","NA","NA","NA","166998","509","2","legacy","1024","2","48000","-16","BA_m21","113","odd","CW_S","EFFORTLESS","1367","200797","197697","199289","168374","NA","NA","NA","NA","199283","198194","NA","197197","NA","197186","199283","1376","201197","NA","NA","198289","1367","1367","198680","197185","1367","198289","201197","morph21_Oliver/Morris","8","5635","9","yes","1280","30"
"400","90","90","646.9","646.9","black","no","xpyriment","legacy","legacy","0","208","NA","uniform","62199","1000","0.0160774288976","1","undefined","1","0","9","9","9","0","9","9","9","NA","9","9","0","9","NA","9","9","0","9","NA","9","NA","9","0","0","9","9","0","9","9","10","z","11/01/17 16:33:09","The main experiment item","yes","FIN__BA__M21__7%3A10%3A17.osexp","C:\Users\ERP Testing Room\Desktop\Joanna\morph21","no","mono","no","18","no","white","no","yes","1080","legacy","9","9","C:/Users/ERP Testing Room/Desktop/Joanna/morph21/subject-113.csv","xpyriment","Jazzy James","3.1.4","0","z","NA","NA","NA","NA","space","z","834","NA","NA","NA","NA","166998","834","2","legacy","1024","2","48000","-16","BA_m21","113","odd","FILL_NW","DROES","1367","203972","202380","199289","168374","NA","NA","NA","NA","203965","202878","NA","201880","NA","201876","203965","1376","204372","NA","NA","202972","1367","1367","203364","201876","1367","202972","204372","morph21_Oliver/Morris","9","6469","10","yes","1280","17"
"350","90.9090909091","90.9090909091","641.909090909","641.909090909","black","no","xpyriment","legacy","legacy","0","208","NA","uniform","69017","1000","0.0144891838243","1","undefined","1","0","10","10","10","0","10","10","10","NA","10","10","0","10","NA","10","10","0","10","NA","10","NA","10","0","0","10","10","0","10","10","11","z","11/01/17 16:33:09","The main experiment item","yes","FIN__BA__M21__7%3A10%3A17.osexp","C:\Users\ERP Testing Room\Desktop\Joanna\morph21","no","mono","no","18","no","white","no","yes","1080","legacy","10","10","C:/Users/ERP Testing Room/Desktop/Joanna/morph21/subject-113.csv","xpyriment","Jazzy James","3.1.4","0","z","NA","NA","NA","NA","space","z","592","NA","NA","NA","NA","166998","592","2","legacy","1024","2","48000","-16","BA_m21","113","odd","FILL_NW","DARF","1367","207240","205631","199289","168374","NA","NA","NA","NA","207234","206128","NA","205131","NA","205122","207234","1376","207590","NA","NA","206239","1367","1367","206632","205121","1367","206239","207590","morph21_Oliver/Morris","10","7061","11","yes","1280","10"
"250","91.6666666667","91.6666666667","635.75","635.75","black","no","xpyriment","legacy","legacy","0","202","NA","uniform","73343","1000","0.0136345663526","1","undefined","1","0","11","11","11","0","11","11","11","NA","11","11","0","11","NA","11","11","0","11","NA","11","NA","11","0","0","11","11","0","11","11","12","/","11/01/17 16:33:09","The main experiment item","yes","FIN__BA__M21__7%3A10%3A17.osexp","C:\Users\ERP Testing Room\Desktop\Joanna\morph21","no","mono","no","18","no","white","no","yes","1080","legacy","11","11","C:/Users/ERP Testing Room/Desktop/Joanna/morph21/subject-113.csv","xpyriment","Jazzy James","3.1.4","0","/","NA","NA","NA","NA","space","/","568","NA","NA","NA","NA","166998","568","2","legacy","1024","2","48000","-16","BA_m21","113","odd","CW_L","DEAFNESS","1367","211899","208782","210390","168374","NA","NA","NA","NA","210385","209279","NA","208282","NA","208277","210385","1376","212149","NA","NA","209390","1367","1367","209790","208277","1367","209390","212149","morph21_Oliver/Morris","11","7629","12","yes","1280","39"
"400","92.3076923077","92.3076923077","635.384615385","635.384615385","black","no","xpyriment","legacy","legacy","0","204","NA","uniform","65854","1000","0.0151851064476","1","undefined","1","0","12","12","12","0","12","12","12","NA","12","12","0","12","NA","12","12","0","12","NA","12","NA","12","0","0","12","12","0","12","12","13","z","11/01/17 16:33:09","The main experiment item","yes","FIN__BA__M21__7%3A10%3A17.osexp","C:\Users\ERP Testing Room\Desktop\Joanna\morph21","no","mono","no","18","no","white","no","yes","1080","legacy","12","12","C:/Users/ERP Testing Room/Desktop/Joanna/morph21/subject-113.csv","xpyriment","Jazzy James","3.1.4","0","z","NA","NA","NA","NA","space","z","631","NA","NA","NA","NA","166998","631","2","legacy","1024","2","48000","-16","BA_m21","113","odd","NW_L_COMP","ANGELITH","1367","214999","213390","210390","168374","NA","NA","NA","NA","214994","213887","NA","212890","NA","212880","214994","1376","215399","NA","NA","213999","1367","1367","214399","212880","1367","213999","215399","morph21_Oliver/Morris","12","8260","13","yes","1280","7"
"250","92.8571428571","92.8571428571","625.428571429","625.428571429","black","no","xpyriment","legacy","legacy","0","202","NA","uniform","76176","1000","0.0131274942239","1","undefined","1","0","13","13","13","0","13","13","13","NA","13","13","0","13","NA","13","13","0","13","NA","13","NA","13","0","0","13","13","0","13","13","14","/","11/01/17 16:33:09","The main experiment item","yes","FIN__BA__M21__7%3A10%3A17.osexp","C:\Users\ERP Testing Room\Desktop\Joanna\morph21","no","mono","no","18","no","white","no","yes","1080","legacy","13","13","C:/Users/ERP Testing Room/Desktop/Joanna/morph21/subject-113.csv","xpyriment","Jazzy James","3.1.4","0","/","NA","NA","NA","NA","space","/","496","NA","NA","NA","NA","166998","496","2","legacy","1024","2","48000","-16","BA_m21","113","odd","CW_L","PUSHER","1367","218190","216565","210390","168374","NA","NA","NA","NA","218180","217063","NA","216065","NA","216059","218180","1376","218441","NA","NA","217190","1367","1367","217582","216059","1367","217190","218441","morph21_Oliver/Morris","13","8756","14","yes","1280","13"
"200","86.6666666667","86.6666666667","625.266666667","625.266666667","black","no","xpyriment","legacy","legacy","0","206","NA","uniform","76434","1000","0.0130831828767","0","undefined","0","0","14","14","14","0","14","14","14","NA","14","14","0","14","NA","14","14","0","14","NA","14","NA","14","0","0","14","14","0","14","14","15","z","11/01/17 16:33:09","The main experiment item","yes","FIN__BA__M21__7%3A10%3A17.osexp","C:\Users\ERP Testing Room\Desktop\Joanna\morph21","no","mono","no","18","no","white","no","yes","1080","legacy","14","14","C:/Users/ERP Testing Room/Desktop/Joanna/morph21/subject-113.csv","xpyriment","Jazzy James","3.1.4","0","/","NA","NA","NA","NA","space","/","623","NA","NA","NA","NA","166998","623","2","legacy","1024","2","48000","-16","BA_m21","113","odd","NW_L_SIMP","GROWIST","1367","222699","219607","221191","168374","NA","NA","NA","NA","218180","220104","NA","219107","NA","219096","221187","1376","222899","NA","NA","220199","1367","1367","220591","219096","1367","220199","222899","morph21_Oliver/Morris","13","9379","15","yes","1280","20"
"350","87.5","87.5","648.25","648.25","black","no","xpyriment","legacy","legacy","0","201","NA","uniform","56210","1000","0.0177904287493","1","undefined","1","0","15","15","15","0","15","15","15","NA","15","15","0","15","NA","15","15","0","15","NA","15","NA","15","0","0","15","15","0","15","15","16","/","11/01/17 16:33:09","The main experiment item","yes","FIN__BA__M21__7%3A10%3A17.osexp","C:\Users\ERP Testing Room\Desktop\Joanna\morph21","no","mono","no","18","no","white","no","yes","1080","legacy","15","15","C:/Users/ERP Testing Room/Desktop/Joanna/morph21/subject-113.csv","xpyriment","Jazzy James","3.1.4","0","/","NA","NA","NA","NA","space","/","993","NA","NA","NA","NA","166998","993","2","legacy","1024","2","48000","-16","BA_m21","113","odd","CW_S","AMAZEMENT","1367","225742","224142","221191","168374","NA","NA","NA","NA","225738","224639","NA","223641","NA","223638","225738","1376","226092","NA","NA","224742","1367","1367","225142","223638","1367","224742","226092","morph21_Oliver/Morris","14","10372","16","yes","1280","39"
"250","88.2352941176","88.2352941176","649.117647059","649.117647059","black","no","xpyriment","legacy","legacy","0","208","NA","uniform","69452","1000","0.0143984334504","1","undefined","1","0","16","16","16","0","16","16","16","NA","16","16","0","16","NA","16","16","0","16","NA","16","NA","16","0","0","16","16","0","16","16","17","z","11/01/17 16:33:09","The main experiment item","yes","FIN__BA__M21__7%3A10%3A17.osexp","C:\Users\ERP Testing Room\Desktop\Joanna\morph21","no","mono","no","18","no","white","no","yes","1080","legacy","16","16","C:/Users/ERP Testing Room/Desktop/Joanna/morph21/subject-113.csv","xpyriment","Jazzy James","3.1.4","0","z","NA","NA","NA","NA","space","z","663","NA","NA","NA","NA","166998","663","2","legacy","1024","2","48000","-16","BA_m21","113","odd","FILL_NW","PLAODS","1367","228967","227375","221191","168374","NA","NA","NA","NA","228957","227872","NA","226875","NA","226864","228957","1376","229217","NA","NA","227967","1367","1367","228359","226864","1367","227967","229217","morph21_Oliver/Morris","15","11035","17","yes","1280","37"
"400","88.8888888889","88.8888888889","651.111111111","651.111111111","black","no","xpyriment","legacy","legacy","0","202","NA","uniform","74492","1000","0.0134242603233","1","undefined","1","0","17","17","17","0","17","17","17","NA","17","17","0","17","NA","17","17","0","17","NA","17","NA","17","0","0","17","17","0","17","17","18","/","11/01/17 16:33:09","The main experiment item","yes","FIN__BA__M21__7%3A10%3A17.osexp","C:\Users\ERP Testing Room\Desktop\Joanna\morph21","no","mono","no","18","no","white","no","yes","1080","legacy","17","17","C:/Users/ERP Testing Room/Desktop/Joanna/morph21/subject-113.csv","xpyriment","Jazzy James","3.1.4","0","/","NA","NA","NA","NA","space","/","685","NA","NA","NA","NA","166998","685","2","legacy","1024","2","48000","-16","BA_m21","113","odd","CW_L","DRYNESS","1367","233517","230409","232009","168374","NA","NA","NA","NA","232001","230906","NA","229909","NA","229904","232001","1376","233917","NA","NA","231009","1367","1367","231400","229904","1367","231009","233917","morph21_Oliver/Morris","16","11720","18","yes","1280","42"
"300","89.4736842105","89.4736842105","648.842105263","648.842105263","black","no","xpyriment","legacy","legacy","0","203","NA","uniform","63994","1000","0.0156264649811","1","undefined","1","0","18","18","18","0","18","18","18","NA","18","18","0","18","NA","18","18","0","18","NA","18","NA","18","0","0","18","18","0","18","18","19","z","11/01/17 16:33:09","The main experiment item","yes","FIN__BA__M21__7%3A10%3A17.osexp","C:\Users\ERP Testing Room\Desktop\Joanna\morph21","no","mono","no","18","no","white","no","yes","1080","legacy","18","18","C:/Users/ERP Testing Room/Desktop/Joanna/morph21/subject-113.csv","xpyriment","Jazzy James","3.1.4","0","z","NA","NA","NA","NA","space","z","608","NA","NA","NA","NA","166998","608","2","legacy","1024","2","48000","-16","BA_m21","113","odd","NW_S_COMP","CURTIDY","1367","236734","235117","232009","168374","NA","NA","NA","NA","236731","235614","NA","234617","NA","234613","236731","1376","237034","NA","NA","235742","1367","1367","236134","234613","1367","235742","237034","morph21_Oliver/Morris","17","12328","19","yes","1280","11"
"350","90","90","644.2","644.2","black","no","xpyriment","legacy","legacy","0","202","NA","uniform","73894","1000","0.0135328984762","1","undefined","1","0","19","19","19","0","19","19","19","NA","19","19","0","19","NA","19","19","0","19","NA","19","NA","19","0","0","19","19","0","19","19","20","/","11/01/17 16:33:09","The main experiment item","yes","FIN__BA__M21__7%3A10%3A17.osexp","C:\Users\ERP Testing Room\Desktop\Joanna\morph21","no","mono","no","18","no","white","no","yes","1080","legacy","19","19","C:/Users/ERP Testing Room/Desktop/Joanna/morph21/subject-113.csv","xpyriment","Jazzy James","3.1.4","0","/","NA","NA","NA","NA","space","/","556","NA","NA","NA","NA","166998","556","2","legacy","1024","2","48000","-16","BA_m21","113","odd","CW_L","PAINTER","1367","239826","238242","232009","168374","NA","NA","NA","NA","239818","238739","NA","237742","NA","237733","239818","1376","240176","NA","NA","238826","1367","1367","239217","237733","1367","238826","240176","morph21_Oliver/Morris","18","12884","20","yes","1280","18"
"350","90.4761904762","90.4761904762","636.142857143","636.142857143","black","no","xpyriment","legacy","legacy","0","207","NA","uniform","74153","1000","0.0134856310601","1","undefined","1","0","20","20","20","0","20","20","20","NA","20","20","0","20","NA","20","20","0","20","NA","20","NA","20","0","0","20","20","0","20","20","21","/","11/01/17 16:33:09","The main experiment item","yes","FIN__BA__M21__7%3A10%3A17.osexp","C:\Users\ERP Testing Room\Desktop\Joanna\morph21","no","mono","no","18","no","white","no","yes","1080","legacy","20","20","C:/Users/ERP Testing Room/Desktop/Joanna/morph21/subject-113.csv","xpyriment","Jazzy James","3.1.4","0","/","NA","NA","NA","NA","space","/","475","NA","NA","NA","NA","166998","475","2","legacy","1024","2","48000","-16","BA_m21","113","odd","FILL_W","LEAK","1367","244552","241460","243044","168374","NA","NA","NA","NA","243034","241957","NA","240959","NA","240949","243034","1376","244902","NA","NA","242044","1367","1367","242435","240949","1367","242044","244902","morph21_Oliver/Morris","19","13359","21","yes","1280","9"
"250","90.9090909091","90.9090909091","635.318181818","635.318181818","black","no","xpyriment","legacy","legacy","0","203","NA","uniform","68182","1000","0.0146666275557","1","undefined","1","0","21","21","21","0","21","21","21","NA","21","21","0","21","NA","21","21","0","21","NA","21","NA","21","0","0","21","21","0","21","21","22","z","11/01/17 16:33:09","The main experiment item","yes","FIN__BA__M21__7%3A10%3A17.osexp","C:\Users\ERP Testing Room\Desktop\Joanna\morph21","no","mono","no","18","no","white","no","yes","1080","legacy","21","21","C:/Users/ERP Testing Room/Desktop/Joanna/morph21/subject-113.csv","xpyriment","Jazzy James","3.1.4","0","z","NA","NA","NA","NA","space","z","618","NA","NA","NA","NA","166998","618","2","legacy","1024","2","48000","-16","BA_m21","113","odd","NW_S_COMP","BEEREL","1367","247652","246077","243044","168374","NA","NA","NA","NA","247649","246574","NA","245577","NA","245571","247649","1376","247902","NA","NA","246660","1367","1367","247052","245571","1367","246660","247902","morph21_Oliver/Morris","20","13977","22","yes","1280","5"
"350","91.3043478261","91.3043478261","631.913043478","631.913043478","black","no","xpyriment","legacy","legacy","0","202","NA","uniform","65083","1000","0.0153649954673","1","undefined","1","0","22","22","22","0","22","22","22","NA","22","22","0","22","NA","22","22","0","22","NA","22","NA","22","0","0","22","22","0","22","22","23","/","11/01/17 16:33:09","The main experiment item","yes","FIN__BA__M21__7%3A10%3A17.osexp","C:\Users\ERP Testing Room\Desktop\Joanna\morph21","no","mono","no","18","no","white","no","yes","1080","legacy","22","22","C:/Users/ERP Testing Room/Desktop/Joanna/morph21/subject-113.csv","xpyriment","Jazzy James","3.1.4","0","/","NA","NA","NA","NA","space","/","557","NA","NA","NA","NA","166998","557","2","legacy","1024","2","48000","-16","BA_m21","113","odd","CW_L","PARKING","1367","250761","249161","243044","168374","NA","NA","NA","NA","250757","249658","NA","248661","NA","248653","250757","1376","251111","NA","NA","249761","1367","1367","250161","248653","1367","249760","251111","morph21_Oliver/Morris","21","14534","23","yes","1280","25"
"400","87.5","87.5","626.916666667","626.916666667","black","no","xpyriment","legacy","legacy","0","204","NA","uniform","74879","1000","0.0133548792051","0","undefined","0","0","23","23","23","0","23","23","23","NA","23","23","0","23","NA","23","23","0","23","NA","23","NA","23","0","0","23","23","0","23","23","24","z","11/01/17 16:33:09","The main experiment item","yes","FIN__BA__M21__7%3A10%3A17.osexp","C:\Users\ERP Testing Room\Desktop\Joanna\morph21","no","mono","no","18","no","white","no","yes","1080","legacy","23","23","C:/Users/ERP Testing Room/Desktop/Joanna/morph21/subject-113.csv","xpyriment","Jazzy James","3.1.4","0","/","NA","NA","NA","NA","space","/","512","NA","NA","NA","NA","166998","512","2","legacy","1024","2","48000","-16","BA_m21","113","odd","NW_L_COMP","BOIL","1367","255403","252302","253894","168374","NA","NA","NA","NA","250757","252799","NA","251802","NA","251797","253885","1376","255803","NA","NA","252894","1367","1367","253286","251797","1367","252894","255803","morph21_Oliver/Morris","21","15046","24","yes","1280","18"
"200","88","88","626.56","626.56","black","no","xpyriment","legacy","legacy","0","203","NA","uniform","62227","1000","0.0160701946101","1","undefined","1","0","24","24","24","0","24","24","24","NA","24","24","0","24","NA","24","24","0","24","NA","24","NA","24","0","0","24","24","0","24","24","25","z","11/01/17 16:33:09","The main experiment item","yes","FIN__BA__M21__7%3A10%3A17.osexp","C:\Users\ERP Testing Room\Desktop\Joanna\morph21","no","mono","no","18","no","white","no","yes","1080","legacy","24","24","C:/Users/ERP Testing Room/Desktop/Joanna/morph21/subject-113.csv","xpyriment","Jazzy James","3.1.4","0","z","NA","NA","NA","NA","space","z","618","NA","NA","NA","NA","166998","618","2","legacy","1024","2","48000","-16","BA_m21","113","odd","NW_S_COMP","MELTANGE","1367","258636","257044","253894","168374","NA","NA","NA","NA","258626","257541","NA","256544","NA","256536","258626","1376","258836","NA","NA","257636","1367","1367","258028","256536","1367","257636","258836","morph21_Oliver/Morris","22","15664","25","yes","1280","1"
"350","84.6153846154","84.6153846154","640.730769231","640.730769231","black","no","xpyriment","legacy","legacy","0","206","NA","uniform","62825","1000","0.0159172304019","0","undefined","0","0","25","25","25","0","25","25","25","NA","25","25","0","25","NA","25","25","0","25","NA","25","NA","25","0","0","25","25","0","25","25","26","z","11/01/17 16:33:09","The main experiment item","yes","FIN__BA__M21__7%3A10%3A17.osexp","C:\Users\ERP Testing Room\Desktop\Joanna\morph21","no","mono","no","18","no","white","no","yes","1080","legacy","25","25","C:/Users/ERP Testing Room/Desktop/Joanna/morph21/subject-113.csv","xpyriment","Jazzy James","3.1.4","0","None","NA","NA","NA","NA","space","None","995","NA","NA","NA","NA","166998","995","2","legacy","1024","2","48000","-16","BA_m21","113","odd","NW_L_SIMP","CRITICANCE","1367","261779","260187","253894","168374","NA","NA","NA","NA","258626","260684","NA","259687","NA","259682","261774","1376","262129","NA","NA","260779","1367","1367","261179","259682","1367","260779","262129","morph21_Oliver/Morris","22","16659","26","yes","1280","22"
"200","85.1851851852","85.1851851852","642.296296296","642.296296296","black","no","xpyriment","legacy","legacy","0","204","NA","uniform","67710","1000","0.0147688672279","1","undefined","1","0","26","26","26","0","26","26","26","NA","26","26","0","26","NA","26","26","0","26","NA","26","NA","26","0","0","26","26","0","26","26","27","z","11/01/17 16:33:09","The main experiment item","yes","FIN__BA__M21__7%3A10%3A17.osexp","C:\Users\ERP Testing Room\Desktop\Joanna\morph21","no","mono","no","18","no","white","no","yes","1080","legacy","26","26","C:/Users/ERP Testing Room/Desktop/Joanna/morph21/subject-113.csv","xpyriment","Jazzy James","3.1.4","0","z","NA","NA","NA","NA","space","z","683","NA","NA","NA","NA","166998","683","2","legacy","1024","2","48000","-16","BA_m21","113","odd","NW_L_COMP","FLIPODY","1367","266487","263371","264979","168374","NA","NA","NA","NA","264975","263868","NA","262871","NA","262863","264975","1376","266688","NA","NA","263979","1367","1367","264379","262863","1367","263979","266688","morph21_Oliver/Morris","23","17342","27","yes","1280","16"
"200","82.1428571429","82.1428571429","651.392857143","651.392857143","black","no","xpyriment","legacy","legacy","0","203","NA","uniform","60538","1000","0.016518550332","0","undefined","0","0","27","27","27","0","27","27","27","NA","27","27","0","27","NA","27","27","0","27","NA","27","NA","27","0","0","27","27","0","27","27","28","z","11/01/17 16:33:09","The main experiment item","yes","FIN__BA__M21__7%3A10%3A17.osexp","C:\Users\ERP Testing Room\Desktop\Joanna\morph21","no","mono","no","18","no","white","no","yes","1080","legacy","27","27","C:/Users/ERP Testing Room/Desktop/Joanna/morph21/subject-113.csv","xpyriment","Jazzy James","3.1.4","0","/","NA","NA","NA","NA","space","/","897","NA","NA","NA","NA","166998","897","2","legacy","1024","2","48000","-16","BA_m21","113","odd","NW_S_COMP","ANTILM","1367","269629","268046","264979","168374","NA","NA","NA","NA","264975","268543","NA","267537","NA","267530","269623","1376","269829","NA","NA","268629","1367","1367","269021","267530","1367","268629","269829","morph21_Oliver/Morris","23","18239","28","yes","1280","8"
"400","82.7586206897","82.7586206897","650.068965517","650.068965517","black","no","xpyriment","legacy","legacy","0","208","NA","uniform","76020","1000","0.0131544330439","1","undefined","1","0","28","28","28","0","28","28","28","NA","28","28","0","28","NA","28","28","0","28","NA","28","NA","28","0","0","28","28","0","28","28","29","z","11/01/17 16:33:09","The main experiment item","yes","FIN__BA__M21__7%3A10%3A17.osexp","C:\Users\ERP Testing Room\Desktop\Joanna\morph21","no","mono","no","18","no","white","no","yes","1080","legacy","28","28","C:/Users/ERP Testing Room/Desktop/Joanna/morph21/subject-113.csv","xpyriment","Jazzy James","3.1.4","0","z","NA","NA","NA","NA","space","z","613","NA","NA","NA","NA","166998","613","2","legacy","1024","2","48000","-16","BA_m21","113","odd","FILL_NW","ULNS","1367","272704","271079","264979","168374","NA","NA","NA","NA","272700","271576","NA","270579","NA","270571","272700","1376","273104","NA","NA","271713","1367","1367","272104","270571","1367","271713","273104","morph21_Oliver/Morris","24","18852","29","yes","1280","45"
"250","83.3333333333","83.3333333333","644.366666667","644.366666667","black","no","xpyriment","legacy","legacy","0","207","NA","uniform","73245","1000","0.0136528090655","1","undefined","1","0","29","29","29","0","29","29","29","NA","29","29","0","29","NA","29","29","0","29","NA","29","NA","29","0","0","29","29","0","29","29","30","/","11/01/17 16:33:09","The main experiment item","yes","FIN__BA__M21__7%3A10%3A17.osexp","C:\Users\ERP Testing Room\Desktop\Joanna\morph21","no","mono","no","18","no","white","no","yes","1080","legacy","29","29","C:/Users/ERP Testing Room/Desktop/Joanna/morph21/subject-113.csv","xpyriment","Jazzy James","3.1.4","0","/","NA","NA","NA","NA","space","/","479","NA","NA","NA","NA","166998","479","2","legacy","1024","2","48000","-16","BA_m21","113","odd","FILL_W","SHIP","1367","277389","274279","275879","168374","NA","NA","NA","NA","275875","274776","NA","273779","NA","273773","275875","1376","277639","NA","NA","274879","1367","1367","275279","273773","1367","274879","277639","morph21_Oliver/Morris","25","19331","30","yes","1280","37"
"200","83.8709677419","83.8709677419","644.935483871","644.935483871","black","no","xpyriment","legacy","legacy","0","208","NA","uniform","72638","1000","0.0137668988684","1","undefined","1","0","30","30","30","0","30","30","30","NA","30","30","0","30","NA","30","30","0","30","NA","30","NA","30","0","0","30","30","0","30","30","31","z","11/01/17 16:33:09","The main experiment item","yes","FIN__BA__M21__7%3A10%3A17.osexp","C:\Users\ERP Testing Room\Desktop\Joanna\morph21","no","mono","no","18","no","white","no","yes","1080","legacy","30","30","C:/Users/ERP Testing Room/Desktop/Joanna/morph21/subject-113.csv","xpyriment","Jazzy James","3.1.4","0","z","NA","NA","NA","NA","space","z","662","NA","NA","NA","NA","166998","662","2","legacy","1024","2","48000","-16","BA_m21","113","odd","FILL_NW","VUNKS","1367","280489","278889","275879","168374","NA","NA","NA","NA","280481","279386","NA","278389","NA","278383","280481","1376","280689","NA","NA","279489","1367","1367","279881","278383","1367","279489","280689","morph21_Oliver/Morris","26","19993","31","yes","1280","49"
"300","81.25","81.25","655.9375","655.9375","black","no","xpyriment","legacy","legacy","0","208","NA","uniform","58991","1000","0.0169517384008","0","undefined","0","0","31","31","31","0","31","31","31","NA","31","31","0","31","NA","31","31","0","31","NA","31","NA","31","0","0","31","31","0","31","31","32","z","11/01/17 16:33:09","The main experiment item","yes","FIN__BA__M21__7%3A10%3A17.osexp","C:\Users\ERP Testing Room\Desktop\Joanna\morph21","no","mono","no","18","no","white","no","yes","1080","legacy","31","31","C:/Users/ERP Testing Room/Desktop/Joanna/morph21/subject-113.csv","xpyriment","Jazzy James","3.1.4","0","None","NA","NA","NA","NA","space","None","997","NA","NA","NA","NA","166998","997","2","legacy","1024","2","48000","-16","BA_m21","113","odd","FILL_NW","SCURE","1367","283497","281889","275879","168374","NA","NA","NA","NA","280481","282386","NA","281389","NA","281383","283494","1376","283797","NA","NA","282497","1367","1367","282897","281382","1367","282497","283797","morph21_Oliver/Morris","26","20990","32","yes","1280","41"
"350","81.8181818182","81.8181818182","661.96969697","661.96969697","black","no","xpyriment","legacy","legacy","0","206","NA","uniform","62175","1000","0.0160836349015","1","undefined","1","0","32","32","32","0","32","32","32","NA","32","32","0","32","NA","32","32","0","32","NA","32","NA","32","0","0","32","32","0","32","32","33","z","11/01/17 16:33:09","The main experiment item","yes","FIN__BA__M21__7%3A10%3A17.osexp","C:\Users\ERP Testing Room\Desktop\Joanna\morph21","no","mono","no","18","no","white","no","yes","1080","legacy","32","32","C:/Users/ERP Testing Room/Desktop/Joanna/morph21/subject-113.csv","xpyriment","Jazzy James","3.1.4","0","z","NA","NA","NA","NA","space","z","855","NA","NA","NA","NA","166998","855","2","legacy","1024","2","48000","-16","BA_m21","113","odd","NW_L_SIMP","PICKENCE","1367","288139","285006","286631","168374","NA","NA","NA","NA","286626","285503","NA","284506","NA","284500","286626","1376","288489","NA","NA","285631","1367","1367","286031","284499","1367","285631","288489","morph21_Oliver/Morris","27","21845","33","yes","1280","5"
"250","82.3529411765","82.3529411765","656.764705882","656.764705882","black","no","xpyriment","legacy","legacy","0","201","NA","uniform","77558","1000","0.0128935764202","1","undefined","1","0","33","33","33","0","33","33","33","NA","33","33","0","33","NA","33","33","0","33","NA","33","NA","33","0","0","33","33","0","33","33","34","/","11/01/17 16:33:09","The main experiment item","yes","FIN__BA__M21__7%3A10%3A17.osexp","C:\Users\ERP Testing Room\Desktop\Joanna\morph21","no","mono","no","18","no","white","no","yes","1080","legacy","33","33","C:/Users/ERP Testing Room/Desktop/Joanna/morph21/subject-113.csv","xpyriment","Jazzy James","3.1.4","0","/","NA","NA","NA","NA","space","/","485","NA","NA","NA","NA","166998","485","2","legacy","1024","2","48000","-16","BA_m21","113","odd","CW_S","JAILER","1367","291273","289673","286631","168374","NA","NA","NA","NA","291267","290170","NA","289173","NA","289170","291267","1376","291523","NA","NA","290273","1367","1367","290664","289170","1367","290273","291523","morph21_Oliver/Morris","28","22330","34","yes","1280","13"
"250","82.8571428571","82.8571428571","657.314285714","657.314285714","black","no","xpyriment","legacy","legacy","0","208","NA","uniform","67436","1000","0.014828874785","1","undefined","1","0","34","34","34","0","34","34","34","NA","34","34","0","34","NA","34","34","0","34","NA","34","NA","34","0","0","34","34","0","34","34","35","z","11/01/17 16:33:09","The main experiment item","yes","FIN__BA__M21__7%3A10%3A17.osexp","C:\Users\ERP Testing Room\Desktop\Joanna\morph21","no","mono","no","18","no","white","no","yes","1080","legacy","34","34","C:/Users/ERP Testing Room/Desktop/Joanna/morph21/subject-113.csv","xpyriment","Jazzy James","3.1.4","0","z","NA","NA","NA","NA","space","z","676","NA","NA","NA","NA","166998","676","2","legacy","1024","2","48000","-16","BA_m21","113","odd","FILL_NW","DOWED","1367","294316","292714","286631","168374","NA","NA","NA","NA","294310","293212","NA","292215","NA","292206","294310","1376","294566","NA","NA","293315","1367","1367","293715","292206","1367","293315","294566","morph21_Oliver/Morris","29","23006","35","yes","1280","16"
"350","83.3333333333","83.3333333333","653.916666667","653.916666667","black","no","xpyriment","legacy","legacy","0","207","NA","uniform","74041","1000","0.0135060304426","1","undefined","1","0","35","35","35","0","35","35","35","NA","35","35","0","35","NA","35","35","0","35","NA","35","NA","35","0","0","35","35","0","35","35","36","/","11/01/17 16:33:09","The main experiment item","yes","FIN__BA__M21__7%3A10%3A17.osexp","C:\Users\ERP Testing Room\Desktop\Joanna\morph21","no","mono","no","18","no","white","no","yes","1080","legacy","35","35","C:/Users/ERP Testing Room/Desktop/Joanna/morph21/subject-113.csv","xpyriment","Jazzy James","3.1.4","0","/","NA","NA","NA","NA","space","/","535","NA","NA","NA","NA","166998","535","2","legacy","1024","2","48000","-16","BA_m21","113","odd","FILL_W","GLOOM","1367","298932","295824","297424","168374","NA","NA","NA","NA","297416","296321","NA","295324","NA","295313","297416","1376","299283","NA","NA","296424","1367","1367","296816","295313","1367","296424","299283","morph21_Oliver/Morris","30","23541","36","yes","1280","14"
"400","83.7837837838","83.7837837838","649.135135135","649.135135135","black","no","xpyriment","legacy","legacy","0","207","NA","uniform","83109","1000","0.0120323911971","1","undefined","1","0","36","36","36","0","36","36","36","NA","36","36","0","36","NA","36","36","0","36","NA","36","NA","36","0","0","36","36","0","36","36","37","/","11/01/17 16:33:09","The main experiment item","yes","FIN__BA__M21__7%3A10%3A17.osexp","C:\Users\ERP Testing Room\Desktop\Joanna\morph21","no","mono","no","18","no","white","no","yes","1080","legacy","36","36","C:/Users/ERP Testing Room/Desktop/Joanna/morph21/subject-113.csv","xpyriment","Jazzy James","3.1.4","0","/","NA","NA","NA","NA","space","/","477","NA","NA","NA","NA","166998","477","2","legacy","1024","2","48000","-16","BA_m21","113","odd","FILL_W","CHIP","1367","302041","300449","297424","168374","NA","NA","NA","NA","302034","300946","NA","299949","NA","299941","302034","1376","302441","NA","NA","301041","1367","1367","301433","299941","1367","301041","302441","morph21_Oliver/Morris","31","24018","37","yes","1280","11"
"250","84.2105263158","84.2105263158","644.868421053","644.868421053","black","no","xpyriment","legacy","legacy","0","207","NA","uniform","60882","1000","0.0164252159916","1","undefined","1","0","37","37","37","0","37","37","37","NA","37","37","0","37","NA","37","37","0","37","NA","37","NA","37","0","0","37","37","0","37","37","38","/","11/01/17 16:33:09","The main experiment item","yes","FIN__BA__M21__7%3A10%3A17.osexp","C:\Users\ERP Testing Room\Desktop\Joanna\morph21","no","mono","no","18","no","white","no","yes","1080","legacy","37","37","C:/Users/ERP Testing Room/Desktop/Joanna/morph21/subject-113.csv","xpyriment","Jazzy James","3.1.4","0","/","NA","NA","NA","NA","space","/","487","NA","NA","NA","NA","166998","487","2","legacy","1024","2","48000","-16","BA_m21","113","odd","FILL_W","STARVE","1367","305191","303599","297424","168374","NA","NA","NA","NA","305184","304096","NA","303099","NA","303090","305184","1376","305441","NA","NA","304191","1367","1367","304583","303090","1367","304191","305441","morph21_Oliver/Morris","32","24505","38","yes","1280","15"
"200","84.6153846154","84.6153846154","640.205128205","640.205128205","black","no","xpyriment","legacy","legacy","0","201","NA","uniform","77448","1000","0.0129118892676","1","undefined","1","0","38","38","38","0","38","38","38","NA","38","38","0","38","NA","38","38","0","38","NA","38","NA","38","0","0","38","38","0","38","38","39","/","11/01/17 16:33:09","The main experiment item","yes","FIN__BA__M21__7%3A10%3A17.osexp","C:\Users\ERP Testing Room\Desktop\Joanna\morph21","no","mono","no","18","no","white","no","yes","1080","legacy","38","38","C:/Users/ERP Testing Room/Desktop/Joanna/morph21/subject-113.csv","xpyriment","Jazzy James","3.1.4","0","/","NA","NA","NA","NA","space","/","463","NA","NA","NA","NA","166998","463","2","legacy","1024","2","48000","-16","BA_m21","113","odd","CW_S","BOLDNESS","1367","309875","306774","308366","168374","NA","NA","NA","NA","308363","307272","NA","306274","NA","306265","308363","1376","310075","NA","NA","307375","1367","1367","307766","306265","1367","307374","310075","morph21_Oliver/Morris","33","24968","39","yes","1280","41"
"350","82.5","82.5","640.725","640.725","black","no","xpyriment","legacy","legacy","0","206","NA","uniform","66755","1000","0.0149801512995","0","undefined","0","0","39","39","39","0","39","39","39","NA","39","39","0","39","NA","39","39","0","39","NA","39","NA","39","0","0","39","39","0","39","39","40","z","11/01/17 16:33:09","The main experiment item","yes","FIN__BA__M21__7%3A10%3A17.osexp","C:\Users\ERP Testing Room\Desktop\Joanna\morph21","no","mono","no","18","no","white","no","yes","1080","legacy","39","39","C:/Users/ERP Testing Room/Desktop/Joanna/morph21/subject-113.csv","xpyriment","Jazzy James","3.1.4","0","/","NA","NA","NA","NA","space","/","661","NA","NA","NA","NA","166998","661","2","legacy","1024","2","48000","-16","BA_m21","113","odd","NW_L_SIMP","WITCHISH","1367","312826","311242","308366","168374","NA","NA","NA","NA","308363","311739","NA","310741","NA","310738","312817","1376","313176","NA","NA","311826","1367","1367","312217","310738","1367","311826","313176","morph21_Oliver/Morris","33","25629","40","yes","1280","11"
"200","82.9268292683","82.9268292683","636.926829268","636.926829268","black","no","xpyriment","legacy","legacy","0","207","NA","uniform","69049","1000","0.0144824689713","1","undefined","1","0","40","40","40","0","40","40","40","NA","40","40","0","40","NA","40","40","0","40","NA","40","NA","40","0","0","40","40","0","40","40","41","/","11/01/17 16:33:09","The main experiment item","yes","FIN__BA__M21__7%3A10%3A17.osexp","C:\Users\ERP Testing Room\Desktop\Joanna\morph21","no","mono","no","18","no","white","no","yes","1080","legacy","40","40","C:/Users/ERP Testing Room/Desktop/Joanna/morph21/subject-113.csv","xpyriment","Jazzy James","3.1.4","0","/","NA","NA","NA","NA","space","/","485","NA","NA","NA","NA","166998","485","2","legacy","1024","2","48000","-16","BA_m21","113","odd","FILL_W","GOLF","1367","316001","314367","308366","168374","NA","NA","NA","NA","315995","314865","NA","313867","NA","313863","315995","1376","316201","NA","NA","315001","1367","1367","315393","313863","1367","315001","316201","morph21_Oliver/Morris","34","26114","41","yes","1280","28"
"400","83.3333333333","83.3333333333","638.880952381","638.880952381","black","no","xpyriment","legacy","legacy","0","205","NA","uniform","67685","1000","0.014774322228","1","undefined","1","0","41","41","41","0","41","41","41","NA","41","41","0","41","NA","41","41","0","41","NA","41","NA","41","0","0","41","41","0","41","41","42","z","11/01/17 16:33:09","The main experiment item","yes","FIN__BA__M21__7%3A10%3A17.osexp","C:\Users\ERP Testing Room\Desktop\Joanna\morph21","no","mono","no","18","no","white","no","yes","1080","legacy","41","41","C:/Users/ERP Testing Room/Desktop/Joanna/morph21/subject-113.csv","xpyriment","Jazzy James","3.1.4","0","z","NA","NA","NA","NA","space","z","719","NA","NA","NA","NA","166998","719","2","legacy","1024","2","48000","-16","BA_m21","113","odd","NW_S_SIMP","URNIST","1367","320468","317376","318959","168374","NA","NA","NA","NA","318951","317873","NA","316876","NA","316873","318951","1376","320868","NA","NA","317959","1367","1367","318351","316873","1367","317959","320868","morph21_Oliver/Morris","35","26833","42","yes","1280","5"
"350","83.7209302326","83.7209302326","643.418604651","643.418604651","black","no","xpyriment","legacy","legacy","0","204","NA","uniform","64392","1000","0.0155298794881","1","undefined","1","0","42","42","42","0","42","42","42","NA","42","42","0","42","NA","42","42","0","42","NA","42","NA","42","0","0","42","42","0","42","42","43","z","11/01/17 16:33:09","The main experiment item","yes","FIN__BA__M21__7%3A10%3A17.osexp","C:\Users\ERP Testing Room\Desktop\Joanna\morph21","no","mono","no","18","no","white","no","yes","1080","legacy","42","42","C:/Users/ERP Testing Room/Desktop/Joanna/morph21/subject-113.csv","xpyriment","Jazzy James","3.1.4","0","z","NA","NA","NA","NA","space","z","834","NA","NA","NA","NA","166998","834","2","legacy","1024","2","48000","-16","BA_m21","113","odd","NW_L_COMP","INKILM","1367","323676","322068","318959","168374","NA","NA","NA","NA","323666","322565","NA","321568","NA","321557","323666","1376","324026","NA","NA","322676","1367","1367","323068","321557","1367","322676","324026","morph21_Oliver/Morris","36","27667","43","yes","1280","8"
"250","84.0909090909","84.0909090909","640.568181818","640.568181818","black","no","xpyriment","legacy","legacy","0","201","NA","uniform","69425","1000","0.0144040331293","1","undefined","1","0","43","43","43","0","43","43","43","NA","43","43","0","43","NA","43","43","0","43","NA","43","NA","43","0","0","43","43","0","43","43","44","/","11/01/17 16:33:09","The main experiment item","yes","FIN__BA__M21__7%3A10%3A17.osexp","C:\Users\ERP Testing Room\Desktop\Joanna\morph21","no","mono","no","18","no","white","no","yes","1080","legacy","43","43","C:/Users/ERP Testing Room/Desktop/Joanna/morph21/subject-113.csv","xpyriment","Jazzy James","3.1.4","0","/","NA","NA","NA","NA","space","/","518","NA","NA","NA","NA","166998","518","2","legacy","1024","2","48000","-16","BA_m21","113","odd","CW_S","TOSSING","1367","326960","325376","318959","168374","NA","NA","NA","NA","326952","325873","NA","324876","NA","324865","326952","1376","327210","NA","NA","325960","1367","1367","326351","324865","1367","325960","327210","morph21_Oliver/Morris","37","28185","44","yes","1280","26"
"250","84.4444444444","84.4444444444","644.933333333","644.933333333","black","no","xpyriment","legacy","legacy","0","203","NA","uniform","60662","1000","0.0164847845439","1","undefined","1","0","44","44","44","0","44","44","44","NA","44","44","0","44","NA","44","44","0","44","NA","44","NA","44","0","0","44","44","0","44","44","45","z","11/01/17 16:33:09","The main experiment item","yes","FIN__BA__M21__7%3A10%3A17.osexp","C:\Users\ERP Testing Room\Desktop\Joanna\morph21","no","mono","no","18","no","white","no","yes","1080","legacy","44","44","C:/Users/ERP Testing Room/Desktop/Joanna/morph21/subject-113.csv","xpyriment","Jazzy James","3.1.4","0","z","NA","NA","NA","NA","space","z","837","NA","NA","NA","NA","166998","837","2","legacy","1024","2","48000","-16","BA_m21","113","odd","NW_S_COMP","TREASONIME","1367","331486","328385","329977","168374","NA","NA","NA","NA","329967","328882","NA","327885","NA","327877","329967","1376","331736","NA","NA","328978","1367","1367","329369","327877","1367","328978","331736","morph21_Oliver/Morris","38","29022","45","yes","1280","14"
"400","84.7826086957","84.7826086957","647.565217391","647.565217391","black","no","xpyriment","legacy","legacy","0","203","NA","uniform","65433","1000","0.0152828083689","1","undefined","1","0","45","45","45","0","45","45","45","NA","45","45","0","45","NA","45","45","0","45","NA","45","NA","45","0","0","45","45","0","45","45","46","z","11/01/17 16:33:09","The main experiment item","yes","FIN__BA__M21__7%3A10%3A17.osexp","C:\Users\ERP Testing Room\Desktop\Joanna\morph21","no","mono","no","18","no","white","no","yes","1080","legacy","45","45","C:/Users/ERP Testing Room/Desktop/Joanna/morph21/subject-113.csv","xpyriment","Jazzy James","3.1.4","0","z","NA","NA","NA","NA","space","z","766","NA","NA","NA","NA","166998","766","2","legacy","1024","2","48000","-16","BA_m21","113","odd","NW_S_COMP","ARIDILM","1367","334736","333094","329977","168374","NA","NA","NA","NA","334729","333591","NA","332594","NA","332590","334729","1376","335136","NA","NA","333736","1367","1367","334128","332590","1367","333736","335136","morph21_Oliver/Morris","39","29788","46","yes","1280","9"
"350","85.1063829787","85.1063829787","647.14893617","647.14893617","black","no","xpyriment","legacy","legacy","0","201","NA","uniform","73679","1000","0.0135723883332","1","undefined","1","0","46","46","46","0","46","46","46","NA","46","46","0","46","NA","46","46","0","46","NA","46","NA","46","0","0","46","46","0","46","46","47","/","11/01/17 16:33:09","The main experiment item","yes","FIN__BA__M21__7%3A10%3A17.osexp","C:\Users\ERP Testing Room\Desktop\Joanna\morph21","no","mono","no","18","no","white","no","yes","1080","legacy","46","46","C:/Users/ERP Testing Room/Desktop/Joanna/morph21/subject-113.csv","xpyriment","Jazzy James","3.1.4","0","/","NA","NA","NA","NA","space","/","628","NA","NA","NA","NA","166998","628","2","legacy","1024","2","48000","-16","BA_m21","113","odd","CW_S","SINGER","1367","337994","336386","329977","168374","NA","NA","NA","NA","337990","336883","NA","335886","NA","335876","337990","1376","338345","NA","NA","336994","1367","1367","337394","335876","1367","336994","338345","morph21_Oliver/Morris","40","30416","47","yes","1280","17"
"300","85.4166666667","85.4166666667","649.520833333","649.520833333","black","no","xpyriment","legacy","legacy","0","204","NA","uniform","64223","1000","0.015570745683","1","undefined","1","0","47","47","47","0","47","47","47","NA","47","47","0","47","NA","47","47","0","47","NA","47","NA","47","0","0","47","47","0","47","47","48","z","11/01/17 16:33:09","The main experiment item","yes","FIN__BA__M21__7%3A10%3A17.osexp","C:\Users\ERP Testing Room\Desktop\Joanna\morph21","no","mono","no","18","no","white","no","yes","1080","legacy","47","47","C:/Users/ERP Testing Room/Desktop/Joanna/morph21/subject-113.csv","xpyriment","Jazzy James","3.1.4","0","z","NA","NA","NA","NA","space","z","761","NA","NA","NA","NA","166998","761","2","legacy","1024","2","48000","-16","BA_m21","113","odd","NW_L_COMP","EMPLOYNELS","1367","342761","339661","341253","168374","NA","NA","NA","NA","341245","340158","NA","339161","NA","339152","341245","1376","343062","NA","NA","340253","1367","1367","340645","339152","1367","340253","343062","morph21_Oliver/Morris","41","31177","48","yes","1280","21"
"300","83.6734693878","83.6734693878","654.081632653","654.081632653","black","no","xpyriment","legacy","legacy","0","205","NA","uniform","65137","1000","0.0153522575495","0","undefined","0","0","48","48","48","0","48","48","48","NA","48","48","0","48","NA","48","48","0","48","NA","48","NA","48","0","0","48","48","0","48","48","49","z","11/01/17 16:33:09","The main experiment item","yes","FIN__BA__M21__7%3A10%3A17.osexp","C:\Users\ERP Testing Room\Desktop\Joanna\morph21","no","mono","no","18","no","white","no","yes","1080","legacy","48","48","C:/Users/ERP Testing Room/Desktop/Joanna/morph21/subject-113.csv","xpyriment","Jazzy James","3.1.4","0","/","NA","NA","NA","NA","space","/","873","NA","NA","NA","NA","166998","873","2","legacy","1024","2","48000","-16","BA_m21","113","odd","NW_S_SIMP","HELMETOUS","1367","345837","344228","341253","168374","NA","NA","NA","NA","341245","344725","NA","343728","NA","343718","345833","1376","346137","NA","NA","344845","1367","1367","345237","343718","1367","344845","346137","morph21_Oliver/Morris","41","32050","49","yes","1280","14"
"350","84","84","657.9","657.9","black","no","xpyriment","legacy","legacy","0","202","NA","uniform","62174","1000","0.016083893589","1","undefined","1","0","49","49","49","0","49","49","49","NA","49","49","0","49","NA","49","49","0","49","NA","49","NA","49","0","0","49","49","0","49","49","50","/","11/01/17 16:33:09","The main experiment item","yes","FIN__BA__M21__7%3A10%3A17.osexp","C:\Users\ERP Testing Room\Desktop\Joanna\morph21","no","mono","no","18","no","white","no","yes","1080","legacy","49","49","C:/Users/ERP Testing Room/Desktop/Joanna/morph21/subject-113.csv","xpyriment","Jazzy James","3.1.4","0","/","NA","NA","NA","NA","space","/","845","NA","NA","NA","NA","166998","845","2","legacy","1024","2","48000","-16","BA_m21","113","odd","CW_L","GUILELESS","1367","348946","347363","341253","168374","NA","NA","NA","NA","348943","347860","NA","346863","NA","346856","348943","1376","349296","NA","NA","347954","1367","1367","348346","346856","1367","347954","349296","morph21_Oliver/Morris","42","32895","50","yes","1280","31"
"300","84.3137254902","84.3137254902","658.215686275","658.215686275","black","no","xpyriment","legacy","legacy","0","202","NA","uniform","69481","1000","0.0143924238281","1","undefined","1","0","50","50","50","0","50","50","50","NA","50","50","0","50","NA","50","50","0","50","NA","50","NA","50","0","0","50","50","0","50","50","51","/","11/01/17 16:33:09","The main experiment item","yes","FIN__BA__M21__7%3A10%3A17.osexp","C:\Users\ERP Testing Room\Desktop\Joanna\morph21","no","mono","no","18","no","white","no","yes","1080","legacy","50","50","C:/Users/ERP Testing Room/Desktop/Joanna/morph21/subject-113.csv","xpyriment","Jazzy James","3.1.4","0","/","NA","NA","NA","NA","space","/","674","NA","NA","NA","NA","166998","674","2","legacy","1024","2","48000","-16","BA_m21","113","odd","CW_L","PROFESSOR","1367","353696","350563","352188","168374","NA","NA","NA","NA","352180","351060","NA","350063","NA","350059","352180","1376","353996","NA","NA","351188","1367","1367","351579","350059","1367","351188","353996","morph21_Oliver/Morris","43","33569","51","yes","1280","47"
"350","82.6923076923","82.6923076923","656.5","656.5","black","no","xpyriment","legacy","legacy","0","206","NA","uniform","64628","1000","0.015473169524","0","undefined","0","0","51","51","51","0","51","51","51","NA","51","51","0","51","NA","51","51","0","51","NA","51","NA","51","0","0","51","51","0","51","51","52","z","11/01/17 16:33:09","The main experiment item","yes","FIN__BA__M21__7%3A10%3A17.osexp","C:\Users\ERP Testing Room\Desktop\Joanna\morph21","no","mono","no","18","no","white","no","yes","1080","legacy","51","51","C:/Users/ERP Testing Room/Desktop/Joanna/morph21/subject-113.csv","xpyriment","Jazzy James","3.1.4","0","/","NA","NA","NA","NA","space","/","569","NA","NA","NA","NA","166998","569","2","legacy","1024","2","48000","-16","BA_m21","113","odd","NW_L_SIMP","HABITIC","1367","356821","355238","352188","168374","NA","NA","NA","NA","352180","355735","NA","354738","NA","354731","356817","1376","357171","NA","NA","355821","1367","1367","356221","354731","1367","355821","357171","morph21_Oliver/Morris","43","34138","52","yes","1280","7"
"350","81.1320754717","81.1320754717","653.886792453","653.886792453","black","no","xpyriment","legacy","legacy","0","206","NA","uniform","74186","1000","0.0134796322756","0","undefined","0","0","52","52","52","0","52","52","52","NA","52","52","0","52","NA","52","52","0","52","NA","52","NA","52","0","0","52","52","0","52","52","53","z","11/01/17 16:33:09","The main experiment item","yes","FIN__BA__M21__7%3A10%3A17.osexp","C:\Users\ERP Testing Room\Desktop\Joanna\morph21","no","mono","no","18","no","white","no","yes","1080","legacy","52","52","C:/Users/ERP Testing Room/Desktop/Joanna/morph21/subject-113.csv","xpyriment","Jazzy James","3.1.4","0","/","NA","NA","NA","NA","space","/","518","NA","NA","NA","NA","166998","518","2","legacy","1024","2","48000","-16","BA_m21","113","odd","NW_L_SIMP","WIGISH","1367","360071","358480","352188","168374","NA","NA","NA","NA","352180","358977","NA","357980","NA","357973","360065","1376","360422","NA","NA","359072","1367","1367","359463","357973","1367","359071","360422","morph21_Oliver/Morris","43","34656","53","yes","1280","9"
"400","81.4814814815","81.4814814815","651.074074074","651.074074074","black","no","xpyriment","legacy","legacy","0","207","NA","uniform","75174","1000","0.0133024715992","1","undefined","1","0","53","53","53","0","53","53","53","NA","53","53","0","53","NA","53","53","0","53","NA","53","NA","53","0","0","53","53","0","53","53","54","/","11/01/17 16:33:09","The main experiment item","yes","FIN__BA__M21__7%3A10%3A17.osexp","C:\Users\ERP Testing Room\Desktop\Joanna\morph21","no","mono","no","18","no","white","no","yes","1080","legacy","53","53","C:/Users/ERP Testing Room/Desktop/Joanna/morph21/subject-113.csv","xpyriment","Jazzy James","3.1.4","0","/","NA","NA","NA","NA","space","/","502","NA","NA","NA","NA","166998","502","2","legacy","1024","2","48000","-16","BA_m21","113","odd","FILL_W","CRUNCH","1367","364781","361688","363272","168374","NA","NA","NA","NA","363267","362185","NA","361188","NA","361185","363267","1376","365181","NA","NA","362272","1367","1367","362672","361185","1367","362272","365181","morph21_Oliver/Morris","44","35158","54","yes","1280","20"
"250","80","80","657.236363636","657.236363636","black","no","xpyriment","legacy","legacy","0","205","NA","uniform","59385","1000","0.0168392691757","0","undefined","0","0","54","54","54","0","54","54","54","NA","54","54","0","54","NA","54","54","0","54","NA","54","NA","54","0","0","54","54","0","54","54","55","z","11/01/17 16:33:09","The main experiment item","yes","FIN__BA__M21__7%3A10%3A17.osexp","C:\Users\ERP Testing Room\Desktop\Joanna\morph21","no","mono","no","18","no","white","no","yes","1080","legacy","54","54","C:/Users/ERP Testing Room/Desktop/Joanna/morph21/subject-113.csv","xpyriment","Jazzy James","3.1.4","0","None","NA","NA","NA","NA","space","None","990","NA","NA","NA","NA","166998","990","2","legacy","1024","2","48000","-16","BA_m21","113","odd","NW_S_SIMP","DIGORY","1367","368048","366439","363272","168374","NA","NA","NA","NA","363267","366937","NA","365939","NA","365930","368039","1376","368298","NA","NA","367048","1367","1367","367439","365930","1367","367048","368298","morph21_Oliver/Morris","44","36148","55","yes","1280","11"
"300","80.3571428571","80.3571428571","656.25","656.25","black","no","xpyriment","legacy","legacy","0","202","NA","uniform","70952","1000","0.0140940354042","1","undefined","1","0","55","55","55","0","55","55","55","NA","55","55","0","55","NA","55","55","0","55","NA","55","NA","55","0","0","55","55","0","55","55","56","/","11/01/17 16:33:09","The main experiment item","yes","FIN__BA__M21__7%3A10%3A17.osexp","C:\Users\ERP Testing Room\Desktop\Joanna\morph21","no","mono","no","18","no","white","no","yes","1080","legacy","55","55","C:/Users/ERP Testing Room/Desktop/Joanna/morph21/subject-113.csv","xpyriment","Jazzy James","3.1.4","0","/","NA","NA","NA","NA","space","/","602","NA","NA","NA","NA","166998","602","2","legacy","1024","2","48000","-16","BA_m21","113","odd","CW_L","HEATER","1367","371140","369531","363272","168374","NA","NA","NA","NA","371137","370028","NA","369031","NA","369023","371137","1376","371440","NA","NA","370148","1367","1367","370540","369023","1367","370148","371440","morph21_Oliver/Morris","45","36750","56","yes","1280","16"
"250","80.701754386","80.701754386","654.333333333","654.333333333","black","no","xpyriment","legacy","legacy","0","201","NA","uniform","66257","1000","0.0150927449175","1","undefined","1","0","56","56","56","0","56","56","56","NA","56","56","0","56","NA","56","56","0","56","NA","56","NA","56","0","0","56","56","0","56","56","57","/","11/01/17 16:33:09","The main experiment item","yes","FIN__BA__M21__7%3A10%3A17.osexp","C:\Users\ERP Testing Room\Desktop\Joanna\morph21","no","mono","no","18","no","white","no","yes","1080","legacy","56","56","C:/Users/ERP Testing Room/Desktop/Joanna/morph21/subject-113.csv","xpyriment","Jazzy James","3.1.4","0","/","NA","NA","NA","NA","space","/","547","NA","NA","NA","NA","166998","547","2","legacy","1024","2","48000","-16","BA_m21","113","odd","CW_S","SEEKER","1367","375823","372690","374315","168374","NA","NA","NA","NA","374307","373187","NA","372190","NA","372180","374307","1376","376073","NA","NA","373315","1367","1367","373706","372180","1367","373315","376073","morph21_Oliver/Morris","46","37297","57","yes","1280","16"
"350","81.0344827586","81.0344827586","653.551724138","653.551724138","black","no","xpyriment","legacy","legacy","0","201","NA","uniform","67627","1000","0.0147869933606","1","undefined","1","0","57","57","57","0","57","57","57","NA","57","57","0","57","NA","57","57","0","57","NA","57","NA","57","0","0","57","57","0","57","57","58","/","11/01/17 16:33:09","The main experiment item","yes","FIN__BA__M21__7%3A10%3A17.osexp","C:\Users\ERP Testing Room\Desktop\Joanna\morph21","no","mono","no","18","no","white","no","yes","1080","legacy","57","57","C:/Users/ERP Testing Room/Desktop/Joanna/morph21/subject-113.csv","xpyriment","Jazzy James","3.1.4","0","/","NA","NA","NA","NA","space","/","609","NA","NA","NA","NA","166998","609","2","legacy","1024","2","48000","-16","BA_m21","113","odd","CW_S","DENSELY","1367","378973","377390","374315","168374","NA","NA","NA","NA","378965","377887","NA","376890","NA","376886","378965","1376","379323","NA","NA","377973","1367","1367","378365","376886","1367","377973","379323","morph21_Oliver/Morris","47","37906","58","yes","1280","32"
"200","81.3559322034","81.3559322034","650.118644068","650.118644068","black","no","xpyriment","legacy","legacy","0","202","NA","uniform","73627","1000","0.0135819740041","1","undefined","1","0","58","58","58","0","58","58","58","NA","58","58","0","58","NA","58","58","0","58","NA","58","NA","58","0","0","58","58","0","58","58","59","/","11/01/17 16:33:09","The main experiment item","yes","FIN__BA__M21__7%3A10%3A17.osexp","C:\Users\ERP Testing Room\Desktop\Joanna\morph21","no","mono","no","18","no","white","no","yes","1080","legacy","58","58","C:/Users/ERP Testing Room/Desktop/Joanna/morph21/subject-113.csv","xpyriment","Jazzy James","3.1.4","0","/","NA","NA","NA","NA","space","/","451","NA","NA","NA","NA","166998","451","2","legacy","1024","2","48000","-16","BA_m21","113","odd","CW_L","SHAMEFUL","1367","382124","380515","374315","168374","NA","NA","NA","NA","382114","381012","NA","380015","NA","380011","382114","1376","382325","NA","NA","381124","1367","1367","381516","380011","1367","381123","382325","morph21_Oliver/Morris","48","38357","59","yes","1280","19"
"300","81.6666666667","81.6666666667","647.733333333","647.733333333","black","no","xpyriment","legacy","legacy","0","207","NA","uniform","75218","1000","0.0132946901008","1","undefined","1","0","59","59","59","0","59","59","59","NA","59","59","0","59","NA","59","59","0","59","NA","59","NA","59","0","0","59","59","0","59","59","60","/","11/01/17 16:33:09","The main experiment item","yes","FIN__BA__M21__7%3A10%3A17.osexp","C:\Users\ERP Testing Room\Desktop\Joanna\morph21","no","mono","no","18","no","white","no","yes","1080","legacy","59","59","C:/Users/ERP Testing Room/Desktop/Joanna/morph21/subject-113.csv","xpyriment","Jazzy James","3.1.4","0","/","NA","NA","NA","NA","space","/","507","NA","NA","NA","NA","166998","507","2","legacy","1024","2","48000","-16","BA_m21","113","odd","FILL_W","BALD","1367","386625","383525","385116","168374","NA","NA","NA","NA","385107","384022","NA","383025","NA","383016","385107","1376","386925","NA","NA","384116","1367","1367","384508","383016","1367","384116","386925","morph21_Oliver/Morris","49","38864","60","yes","1280","3"
"400","81.9672131148","81.9672131148","645.836065574","645.836065574","black","no","xpyriment","legacy","legacy","0","207","NA","uniform","68309","1000","0.0146393593816","1","undefined","1","0","60","60","60","0","60","60","60","NA","60","60","0","60","NA","60","60","0","60","NA","60","NA","60","0","0","60","60","0","60","60","61","/","11/01/17 16:33:09","The main experiment item","yes","FIN__BA__M21__7%3A10%3A17.osexp","C:\Users\ERP Testing Room\Desktop\Joanna\morph21","no","mono","no","18","no","white","no","yes","1080","legacy","60","60","C:/Users/ERP Testing Room/Desktop/Joanna/morph21/subject-113.csv","xpyriment","Jazzy James","3.1.4","0","/","NA","NA","NA","NA","space","/","532","NA","NA","NA","NA","166998","532","2","legacy","1024","2","48000","-16","BA_m21","113","odd","FILL_W","CEASE","1367","389841","388233","385116","168374","NA","NA","NA","NA","389836","388730","NA","387733","NA","387722","389836","1376","390242","NA","NA","388842","1367","1367","389242","387722","1367","388842","390242","morph21_Oliver/Morris","50","39396","61","yes","1280","18"
"300","80.6451612903","80.6451612903","644.693548387","644.693548387","black","no","xpyriment","legacy","legacy","0","205","NA","uniform","71246","1000","0.0140358756983","0","undefined","0","0","61","61","61","0","61","61","61","NA","61","61","0","61","NA","61","61","0","61","NA","61","NA","61","0","0","61","61","0","61","61","62","z","11/01/17 16:33:09","The main experiment item","yes","FIN__BA__M21__7%3A10%3A17.osexp","C:\Users\ERP Testing Room\Desktop\Joanna\morph21","no","mono","no","18","no","white","no","yes","1080","legacy","61","61","C:/Users/ERP Testing Room/Desktop/Joanna/morph21/subject-113.csv","xpyriment","Jazzy James","3.1.4","0","/","NA","NA","NA","NA","space","/","575","NA","NA","NA","NA","166998","575","2","legacy","1024","2","48000","-16","BA_m21","113","odd","NW_S_SIMP","HEIRIC","1367","392983","391383","385116","168374","NA","NA","NA","NA","389836","391880","NA","390883","NA","390876","392978","1376","393283","NA","NA","391983","1367","1367","392383","390876","1367","391983","393283","morph21_Oliver/Morris","50","39971","62","yes","1280","3"
"350","80.9523809524","80.9523809524","642.841269841","642.841269841","black","no","xpyriment","legacy","legacy","0","201","NA","uniform","70096","1000","0.014266149281","1","undefined","1","0","62","62","62","0","62","62","62","NA","62","62","0","62","NA","62","62","0","62","NA","62","NA","62","0","0","62","62","0","62","62","63","/","11/01/17 16:33:09","The main experiment item","yes","FIN__BA__M21__7%3A10%3A17.osexp","C:\Users\ERP Testing Room\Desktop\Joanna\morph21","no","mono","no","18","no","white","no","yes","1080","legacy","62","62","C:/Users/ERP Testing Room/Desktop/Joanna/morph21/subject-113.csv","xpyriment","Jazzy James","3.1.4","0","/","NA","NA","NA","NA","space","/","528","NA","NA","NA","NA","166998","528","2","legacy","1024","2","48000","-16","BA_m21","113","odd","CW_S","RICHNESS","1367","397659","394558","396150","168374","NA","NA","NA","NA","396144","395055","NA","394058","NA","394051","396144","1376","398009","NA","NA","395150","1367","1367","395542","394050","1367","395150","398009","morph21_Oliver/Morris","51","40499","63","yes","1280","45"
"300","79.6875","79.6875","640.484375","640.484375","black","no","xpyriment","legacy","legacy","0","208","NA","uniform","77878","1000","0.0128405968309","0","undefined","0","0","63","63","63","0","63","63","63","NA","63","63","0","63","NA","63","63","0","63","NA","63","NA","63","0","0","63","63","0","63","63","64","z","11/01/17 16:33:09","The main experiment item","yes","FIN__BA__M21__7%3A10%3A17.osexp","C:\Users\ERP Testing Room\Desktop\Joanna\morph21","no","mono","no","18","no","white","no","yes","1080","legacy","63","63","C:/Users/ERP Testing Room/Desktop/Joanna/morph21/subject-113.csv","xpyriment","Jazzy James","3.1.4","0","/","NA","NA","NA","NA","space","/","492","NA","NA","NA","NA","166998","492","2","legacy","1024","2","48000","-16","BA_m21","113","odd","FILL_NW","DASK","1367","400835","399260","396150","168374","NA","NA","NA","NA","396144","399757","NA","398760","NA","398752","400832","1376","401135","NA","NA","399835","1367","1367","400235","398752","1367","399835","401135","morph21_Oliver/Morris","51","40991","64","yes","1280","12"
"350","80","80","645.553846154","645.553846154","black","no","xpyriment","legacy","legacy","0","202","NA","uniform","57521","1000","0.0173849550599","1","undefined","1","0","64","64","64","0","64","64","64","NA","64","64","0","64","NA","64","64","0","64","NA","64","NA","64","0","0","64","64","0","64","64","65","/","11/01/17 16:33:09","The main experiment item","yes","FIN__BA__M21__7%3A10%3A17.osexp","C:\Users\ERP Testing Room\Desktop\Joanna\morph21","no","mono","no","18","no","white","no","yes","1080","legacy","64","64","C:/Users/ERP Testing Room/Desktop/Joanna/morph21/subject-113.csv","xpyriment","Jazzy James","3.1.4","0","/","NA","NA","NA","NA","space","/","970","NA","NA","NA","NA","166998","970","2","legacy","1024","2","48000","-16","BA_m21","113","odd","CW_L","HUNTER","1367","403893","402310","396150","168374","NA","NA","NA","NA","403888","402807","NA","401810","NA","401803","403888","1376","404243","NA","NA","402893","1367","1367","403293","401803","1367","402893","404243","morph21_Oliver/Morris","52","41961","65","yes","1280","10"
"200","78.7878787879","78.7878787879","644.924242424","644.924242424","black","no","xpyriment","legacy","legacy","0","205","NA","uniform","73916","1000","0.0135288706099","0","undefined","0","0","65","65","65","0","65","65","65","NA","65","65","0","65","NA","65","65","0","65","NA","65","NA","65","0","0","65","65","0","65","65","66","z","11/01/17 16:33:09","The main experiment item","yes","FIN__BA__M21__7%3A10%3A17.osexp","C:\Users\ERP Testing Room\Desktop\Joanna\morph21","no","mono","no","18","no","white","no","yes","1080","legacy","65","65","C:/Users/ERP Testing Room/Desktop/Joanna/morph21/subject-113.csv","xpyriment","Jazzy James","3.1.4","0","/","NA","NA","NA","NA","space","/","604","NA","NA","NA","NA","166998","604","2","legacy","1024","2","48000","-16","BA_m21","113","odd","NW_S_SIMP","NULLISH","1367","408518","405418","407010","168374","NA","NA","NA","NA","403888","405915","NA","404918","NA","404907","407004","1376","408719","NA","NA","406010","1367","1367","406402","404907","1367","406010","408719","morph21_Oliver/Morris","52","42565","66","yes","1280","23"
"400","79.1044776119","79.1044776119","645.328358209","645.328358209","black","no","xpyriment","legacy","legacy","0","208","NA","uniform","70852","1000","0.0141139276238","1","undefined","1","0","66","66","66","0","66","66","66","NA","66","66","0","66","NA","66","66","0","66","NA","66","NA","66","0","0","66","66","0","66","66","67","z","11/01/17 16:33:09","The main experiment item","yes","FIN__BA__M21__7%3A10%3A17.osexp","C:\Users\ERP Testing Room\Desktop\Joanna\morph21","no","mono","no","18","no","white","no","yes","1080","legacy","66","66","C:/Users/ERP Testing Room/Desktop/Joanna/morph21/subject-113.csv","xpyriment","Jazzy James","3.1.4","0","z","NA","NA","NA","NA","space","z","672","NA","NA","NA","NA","166998","672","2","legacy","1024","2","48000","-16","BA_m21","113","odd","FILL_NW","BALFS","1367","411518","409902","407010","168374","NA","NA","NA","NA","411509","410399","NA","409402","NA","409398","411509","1376","411918","NA","NA","410518","1367","1367","410910","409398","1367","410518","411918","morph21_Oliver/Morris","53","43237","67","yes","1280","2"
"350","79.4117647059","79.4117647059","646.838235294","646.838235294","black","no","xpyriment","legacy","legacy","0","205","NA","uniform","57326","1000","0.0174440916861","1","undefined","1","0","67","67","67","0","67","67","67","NA","67","67","0","67","NA","67","67","0","67","NA","67","NA","67","0","0","67","67","0","67","67","68","z","11/01/17 16:33:09","The main experiment item","yes","FIN__BA__M21__7%3A10%3A17.osexp","C:\Users\ERP Testing Room\Desktop\Joanna\morph21","no","mono","no","18","no","white","no","yes","1080","legacy","67","67","C:/Users/ERP Testing Room/Desktop/Joanna/morph21/subject-113.csv","xpyriment","Jazzy James","3.1.4","0","z","NA","NA","NA","NA","space","z","748","NA","NA","NA","NA","166998","748","2","legacy","1024","2","48000","-16","BA_m21","113","odd","NW_S_SIMP","BASKORY","1367","414794","413177","407010","168374","NA","NA","NA","NA","414788","413674","NA","412677","NA","412666","414788","1376","415144","NA","NA","413794","1367","1367","414185","412666","1367","413794","415144","morph21_Oliver/Morris","54","43985","68","yes","1280","10"
"350","79.7101449275","79.7101449275","646.101449275","646.101449275","black","no","xpyriment","legacy","legacy","0","207","NA","uniform","70171","1000","0.0142509013695","1","undefined","1","0","68","68","68","0","68","68","68","NA","68","68","0","68","NA","68","68","0","68","NA","68","NA","68","0","0","68","68","0","68","68","69","/","11/01/17 16:33:09","The main experiment item","yes","FIN__BA__M21__7%3A10%3A17.osexp","C:\Users\ERP Testing Room\Desktop\Joanna\morph21","no","mono","no","18","no","white","no","yes","1080","legacy","68","68","C:/Users/ERP Testing Room/Desktop/Joanna/morph21/subject-113.csv","xpyriment","Jazzy James","3.1.4","0","/","NA","NA","NA","NA","space","/","596","NA","NA","NA","NA","166998","596","2","legacy","1024","2","48000","-16","BA_m21","113","odd","FILL_W","FAINT","1367","419520","416411","418011","168374","NA","NA","NA","NA","418006","416908","NA","415910","NA","415900","418006","1376","419870","NA","NA","417011","1367","1367","417403","415899","1367","417011","419870","morph21_Oliver/Morris","55","44581","69","yes","1280","31"
"400","80","80","644.828571429","644.828571429","black","no","xpyriment","legacy","legacy","0","202","NA","uniform","71600","1000","0.0139664804469","1","undefined","1","0","69","69","69","0","69","69","69","NA","69","69","0","69","NA","69","69","0","69","NA","69","NA","69","0","0","69","69","0","69","69","70","/","11/01/17 16:33:09","The main experiment item","yes","FIN__BA__M21__7%3A10%3A17.osexp","C:\Users\ERP Testing Room\Desktop\Joanna\morph21","no","mono","no","18","no","white","no","yes","1080","legacy","69","69","C:/Users/ERP Testing Room/Desktop/Joanna/morph21/subject-113.csv","xpyriment","Jazzy James","3.1.4","0","/","NA","NA","NA","NA","space","/","557","NA","NA","NA","NA","166998","557","2","legacy","1024","2","48000","-16","BA_m21","113","odd","CW_L","SHAPELY","1367","422737","421145","418011","168374","NA","NA","NA","NA","422727","421642","NA","420645","NA","420639","422727","1376","423137","NA","NA","421737","1367","1367","422128","420638","1367","421737","423137","morph21_Oliver/Morris","56","45138","70","yes","1280","35"
"250","80.2816901408","80.2816901408","642.323943662","642.323943662","black","no","xpyriment","legacy","legacy","0","202","NA","uniform","69650","1000","0.0143575017947","1","undefined","1","0","70","70","70","0","70","70","70","NA","70","70","0","70","NA","70","70","0","70","NA","70","NA","70","0","0","70","70","0","70","70","71","/","11/01/17 16:33:09","The main experiment item","yes","FIN__BA__M21__7%3A10%3A17.osexp","C:\Users\ERP Testing Room\Desktop\Joanna\morph21","no","mono","no","18","no","white","no","yes","1080","legacy","70","70","C:/Users/ERP Testing Room/Desktop/Joanna/morph21/subject-113.csv","xpyriment","Jazzy James","3.1.4","0","/","NA","NA","NA","NA","space","/","467","NA","NA","NA","NA","166998","467","2","legacy","1024","2","48000","-16","BA_m21","113","odd","CW_L","CREAMY","1367","425987","424378","418011","168374","NA","NA","NA","NA","425984","424876","NA","423878","NA","423867","425984","1376","426237","NA","NA","424995","1367","1367","425387","423867","1367","424995","426237","morph21_Oliver/Morris","57","45605","71","yes","1280","49"
"250","80.5555555556","80.5555555556","640.458333333","640.458333333","black","no","xpyriment","legacy","legacy","0","201","NA","uniform","77533","1000","0.0128977338682","1","undefined","1","0","71","71","71","0","71","71","71","NA","71","71","0","71","NA","71","71","0","71","NA","71","NA","71","0","0","71","71","0","71","71","72","/","11/01/17 16:33:09","The main experiment item","yes","FIN__BA__M21__7%3A10%3A17.osexp","C:\Users\ERP Testing Room\Desktop\Joanna\morph21","no","mono","no","18","no","white","no","yes","1080","legacy","71","71","C:/Users/ERP Testing Room/Desktop/Joanna/morph21/subject-113.csv","xpyriment","Jazzy James","3.1.4","0","/","NA","NA","NA","NA","space","/","508","NA","NA","NA","NA","166998","508","2","legacy","1024","2","48000","-16","BA_m21","113","odd","CW_S","PLANNER","1367","430670","427579","429162","168374","NA","NA","NA","NA","429153","428076","NA","427078","NA","427069","429153","1376","430921","NA","NA","428162","1367","1367","428554","427069","1367","428162","430921","morph21_Oliver/Morris","58","46113","72","yes","1280","22"
"300","80.8219178082","80.8219178082","638.04109589","638.04109589","black","no","xpyriment","legacy","legacy","0","202","NA","uniform","65968","1000","0.0151588649042","1","undefined","1","0","72","72","72","0","72","72","72","NA","72","72","0","72","NA","72","72","0","72","NA","72","NA","72","0","0","72","72","0","72","72","73","/","11/01/17 16:33:09","The main experiment item","yes","FIN__BA__M21__7%3A10%3A17.osexp","C:\Users\ERP Testing Room\Desktop\Joanna\morph21","no","mono","no","18","no","white","no","yes","1080","legacy","72","72","C:/Users/ERP Testing Room/Desktop/Joanna/morph21/subject-113.csv","xpyriment","Jazzy James","3.1.4","0","/","NA","NA","NA","NA","space","/","464","NA","NA","NA","NA","166998","464","2","legacy","1024","2","48000","-16","BA_m21","113","odd","CW_L","COMPOSER","1367","433655","432079","429162","168374","NA","NA","NA","NA","433651","432576","NA","431579","NA","431569","433651","1376","433955","NA","NA","432662","1367","1367","433054","431569","1367","432662","433955","morph21_Oliver/Morris","59","46577","73","yes","1280","6"
"400","81.0810810811","81.0810810811","635.540540541","635.540540541","black","no","xpyriment","legacy","legacy","0","207","NA","uniform","71938","1000","0.0139008590731","1","undefined","1","0","73","73","73","0","73","73","73","NA","73","73","0","73","NA","73","73","0","73","NA","73","NA","73","0","0","73","73","0","73","73","74","/","11/01/17 16:33:09","The main experiment item","yes","FIN__BA__M21__7%3A10%3A17.osexp","C:\Users\ERP Testing Room\Desktop\Joanna\morph21","no","mono","no","18","no","white","no","yes","1080","legacy","73","73","C:/Users/ERP Testing Room/Desktop/Joanna/morph21/subject-113.csv","xpyriment","Jazzy James","3.1.4","0","/","NA","NA","NA","NA","space","/","453","NA","NA","NA","NA","166998","453","2","legacy","1024","2","48000","-16","BA_m21","113","odd","FILL_W","QUIT","1367","436722","435138","429162","168374","NA","NA","NA","NA","436713","435635","NA","434638","NA","434630","436713","1376","437122","NA","NA","435722","1367","1367","436113","434630","1367","435722","437122","morph21_Oliver/Morris","60","47030","74","yes","1280","21"
"300","81.3333333333","81.3333333333","638.786666667","638.786666667","black","no","xpyriment","legacy","legacy","0","208","NA","uniform","59946","1000","0.0166816801788","undefined","undefined","1","0","74","74","74","0","74","74","74","NA","74","74","0","74","NA","74","74","0","74","NA","74","NA","74","0","0","74","74","0","74","74","75","z","11/01/17 16:33:09","The main experiment item","yes","FIN__BA__M21__7%3A10%3A17.osexp","C:\Users\ERP Testing Room\Desktop\Joanna\morph21","no","mono","no","18","no","white","no","yes","1080","legacy","74","74","C:/Users/ERP Testing Room/Desktop/Joanna/morph21/subject-113.csv","xpyriment","Jazzy James","3.1.4","0","space","space","NA","NA","NA","space","z","4287","4287","NA","NA","NA","166998","879","2","legacy","1024","2","48000","-16","BA_m21","113","odd","FILL_NW","KEMT","1367","441555","438455","440047","168374","441863","NA","NA","NA","440037","438952","NA","437955","NA","437948","440037","1376","446151","NA","NA","439047","1367","1367","439438","437948","1367","439047","441855","morph21_Oliver/Morris","61","47909","75","yes","1280","32"
"200","80.2631578947","80.2631578947","643.460526316","643.460526316","black","no","xpyriment","legacy","legacy","0","205","NA","uniform","56666","1000","0.0176472664384","0","undefined","0","0","75","75","75","0","75","75","75","NA","75","75","0","75","NA","75","75","0","75","NA","75","NA","75","0","0","75","75","0","75","75","76","z","11/01/17 16:33:09","The main experiment item","yes","FIN__BA__M21__7%3A10%3A17.osexp","C:\Users\ERP Testing Room\Desktop\Joanna\morph21","no","mono","no","18","no","white","no","yes","1080","legacy","75","75","C:/Users/ERP Testing Room/Desktop/Joanna/morph21/subject-113.csv","xpyriment","Jazzy James","3.1.4","0","None","space","NA","NA","NA","space","None","994","4287","NA","NA","NA","166998","994","2","legacy","1024","2","48000","-16","BA_m21","113","odd","NW_S_SIMP","GUMFUL","1367","448980","447389","440047","168374","441863","NA","NA","NA","440037","447886","NA","446880","NA","446875","448974","1376","449180","NA","NA","447980","1367","1367","448372","446875","1367","447980","449180","morph21_Oliver/Morris","61","48903","76","yes","1280","2"
"400","80.5194805195","80.5194805195","643.207792208","643.207792208","black","no","xpyriment","legacy","legacy","0","208","NA","uniform","68031","1000","0.0146991812556","1","undefined","1","0","76","76","76","0","76","76","76","NA","76","76","0","76","NA","76","76","0","76","NA","76","NA","76","0","0","76","76","0","76","76","77","z","11/01/17 16:33:09","The main experiment item","yes","FIN__BA__M21__7%3A10%3A17.osexp","C:\Users\ERP Testing Room\Desktop\Joanna\morph21","no","mono","no","18","no","white","no","yes","1080","legacy","76","76","C:/Users/ERP Testing Room/Desktop/Joanna/morph21/subject-113.csv","xpyriment","Jazzy James","3.1.4","0","z","space","NA","NA","NA","space","z","624","4287","NA","NA","NA","166998","624","2","legacy","1024","2","48000","-16","BA_m21","113","odd","FILL_NW","GIKE","1367","452040","450447","440047","168374","441863","NA","NA","NA","452033","450944","NA","449947","NA","449941","452033","1376","452440","NA","NA","451039","1367","1367","451432","449940","1367","451039","452440","morph21_Oliver/Morris","62","49527","77","yes","1280","24"
"200","80.7692307692","80.7692307692","643.961538462","643.961538462","black","no","xpyriment","legacy","legacy","0","203","NA","uniform","63483","1000","0.0157522486335","1","undefined","1","0","77","77","77","0","77","77","77","NA","77","77","0","77","NA","77","77","0","77","NA","77","NA","77","0","0","77","77","0","77","77","78","z","11/01/17 16:33:09","The main experiment item","yes","FIN__BA__M21__7%3A10%3A17.osexp","C:\Users\ERP Testing Room\Desktop\Joanna\morph21","no","mono","no","18","no","white","no","yes","1080","legacy","77","77","C:/Users/ERP Testing Room/Desktop/Joanna/morph21/subject-113.csv","xpyriment","Jazzy James","3.1.4","0","z","space","NA","NA","NA","space","z","702","4287","NA","NA","NA","166998","702","2","legacy","1024","2","48000","-16","BA_m21","113","odd","NW_S_COMP","ADOPTISH","1367","456765","453673","455257","168374","441863","NA","NA","NA","455251","454170","NA","453173","NA","453167","455251","1376","456965","NA","NA","454257","1367","1367","454648","453166","1367","454257","456965","morph21_Oliver/Morris","63","50229","78","yes","1280","19"
"200","81.0126582278","81.0126582278","643.974683544","643.974683544","black","no","xpyriment","legacy","legacy","0","201","NA","uniform","70842","1000","0.0141159199345","1","undefined","1","0","78","78","78","0","78","78","78","NA","78","78","0","78","NA","78","78","0","78","NA","78","NA","78","0","0","78","78","0","78","78","79","/","11/01/17 16:33:09","The main experiment item","yes","FIN__BA__M21__7%3A10%3A17.osexp","C:\Users\ERP Testing Room\Desktop\Joanna\morph21","no","mono","no","18","no","white","no","yes","1080","legacy","78","78","C:/Users/ERP Testing Room/Desktop/Joanna/morph21/subject-113.csv","xpyriment","Jazzy James","3.1.4","0","/","space","NA","NA","NA","space","/","645","4287","NA","NA","NA","166998","645","2","legacy","1024","2","48000","-16","BA_m21","113","odd","CW_S","ENJOYMENT","1367","459857","458249","455257","168374","441863","NA","NA","NA","459849","458746","NA","457749","NA","457737","459849","1376","460057","NA","NA","458857","1367","1367","459249","457737","1367","458857","460057","morph21_Oliver/Morris","64","50874","79","yes","1280","40"
"300","81.25","81.25","642.775","642.775","black","no","xpyriment","legacy","legacy","0","202","NA","uniform","69795","1000","0.0143276739021","1","undefined","1","0","79","79","79","0","79","79","79","NA","79","79","0","79","NA","79","79","0","79","NA","79","NA","79","0","0","79","79","0","79","79","80","/","11/01/17 16:33:09","The main experiment item","yes","FIN__BA__M21__7%3A10%3A17.osexp","C:\Users\ERP Testing Room\Desktop\Joanna\morph21","no","mono","no","18","no","white","no","yes","1080","legacy","79","79","C:/Users/ERP Testing Room/Desktop/Joanna/morph21/subject-113.csv","xpyriment","Jazzy James","3.1.4","0","/","space","NA","NA","NA","space","/","548","4287","NA","NA","NA","166998","548","2","legacy","1024","2","48000","-16","BA_m21","113","odd","CW_L","DOUBTFUL","1367","462890","461290","455257","168374","441863","NA","NA","NA","462882","461787","NA","460790","NA","460780","462882","1376","463191","NA","NA","461890","1367","1367","462282","460780","1367","461890","463191","morph21_Oliver/Morris","65","51422","80","yes","1280","21"
"300","81.4814814815","81.4814814815","644.012345679","644.012345679","black","no","xpyriment","legacy","legacy","0","206","NA","uniform","69361","1000","0.0144173238563","1","undefined","1","0","80","80","80","0","80","80","80","NA","80","80","0","80","NA","80","80","0","80","NA","80","NA","80","0","0","80","80","0","80","80","81","z","11/01/17 16:33:09","The main experiment item","yes","FIN__BA__M21__7%3A10%3A17.osexp","C:\Users\ERP Testing Room\Desktop\Joanna\morph21","no","mono","no","18","no","white","no","yes","1080","legacy","80","80","C:/Users/ERP Testing Room/Desktop/Joanna/morph21/subject-113.csv","xpyriment","Jazzy James","3.1.4","0","z","space","NA","NA","NA","space","z","743","4287","NA","NA","NA","166998","743","2","legacy","1024","2","48000","-16","BA_m21","113","odd","NW_L_SIMP","EARIST","1367","467516","464424","466007","168374","441863","NA","NA","NA","466000","464921","NA","463924","NA","463919","466000","1376","467816","NA","NA","465007","1367","1367","465399","463919","1367","465007","467816","morph21_Oliver/Morris","66","52165","81","yes","1280","12"
"300","81.7073170732","81.7073170732","643.024390244","643.024390244","black","no","xpyriment","legacy","legacy","0","208","NA","uniform","69398","1000","0.0144096371653","1","undefined","1","0","81","81","81","0","81","81","81","NA","81","81","0","81","NA","81","81","0","81","NA","81","NA","81","0","0","81","81","0","81","81","82","z","11/01/17 16:33:09","The main experiment item","yes","FIN__BA__M21__7%3A10%3A17.osexp","C:\Users\ERP Testing Room\Desktop\Joanna\morph21","no","mono","no","18","no","white","no","yes","1080","legacy","81","81","C:/Users/ERP Testing Room/Desktop/Joanna/morph21/subject-113.csv","xpyriment","Jazzy James","3.1.4","0","z","space","NA","NA","NA","space","z","563","4287","NA","NA","NA","166998","563","2","legacy","1024","2","48000","-16","BA_m21","113","odd","FILL_NW","VOOFS","1367","470692","469083","466007","168374","441863","NA","NA","NA","470685","469580","NA","468583","NA","468577","470685","1376","470992","NA","NA","469692","1367","1367","470083","468577","1367","469692","470992","morph21_Oliver/Morris","67","52728","82","yes","1280","48"
"350","81.9277108434","81.9277108434","643.746987952","643.746987952","black","no","xpyriment","legacy","legacy","0","201","NA","uniform","64461","1000","0.0155132560773","1","undefined","1","0","82","82","82","0","82","82","82","NA","82","82","0","82","NA","82","82","0","82","NA","82","NA","82","0","0","82","82","0","82","82","83","/","11/01/17 16:33:09","The main experiment item","yes","FIN__BA__M21__7%3A10%3A17.osexp","C:\Users\ERP Testing Room\Desktop\Joanna\morph21","no","mono","no","18","no","white","no","yes","1080","legacy","82","82","C:/Users/ERP Testing Room/Desktop/Joanna/morph21/subject-113.csv","xpyriment","Jazzy James","3.1.4","0","/","space","NA","NA","NA","space","/","703","4287","NA","NA","NA","166998","703","2","legacy","1024","2","48000","-16","BA_m21","113","odd","CW_S","CHILLY","1367","473800","472217","466007","168374","441863","NA","NA","NA","473790","472714","NA","471717","NA","471706","473790","1376","474150","NA","NA","472800","1367","1367","473192","471706","1367","472800","474150","morph21_Oliver/Morris","68","53431","83","yes","1280","48"
"300","82.1428571429","82.1428571429","642.857142857","642.857142857","black","no","xpyriment","legacy","legacy","0","202","NA","uniform","59329","1000","0.0168551635794","1","undefined","1","0","83","83","83","0","83","83","83","NA","83","83","0","83","NA","83","83","0","83","NA","83","NA","83","0","0","83","83","0","83","83","84","/","11/01/17 16:33:09","The main experiment item","yes","FIN__BA__M21__7%3A10%3A17.osexp","C:\Users\ERP Testing Room\Desktop\Joanna\morph21","no","mono","no","18","no","white","no","yes","1080","legacy","83","83","C:/Users/ERP Testing Room/Desktop/Joanna/morph21/subject-113.csv","xpyriment","Jazzy James","3.1.4","0","/","space","NA","NA","NA","space","/","569","4287","NA","NA","NA","166998","569","2","legacy","1024","2","48000","-16","BA_m21","113","odd","CW_L","MADNESS","1367","478417","475317","476909","168374","441863","NA","NA","NA","476903","475814","NA","474817","NA","474810","476903","1376","478717","NA","NA","475909","1367","1367","476300","474809","1367","475909","478717","morph21_Oliver/Morris","69","54000","84","yes","1280","41"
"300","82.3529411765","82.3529411765","644.447058824","644.447058824","black","no","xpyriment","legacy","legacy","0","206","NA","uniform","60175","1000","0.0166181969256","1","undefined","1","0","84","84","84","0","84","84","84","NA","84","84","0","84","NA","84","84","0","84","NA","84","NA","84","0","0","84","84","0","84","84","85","z","11/01/17 16:33:09","The main experiment item","yes","FIN__BA__M21__7%3A10%3A17.osexp","C:\Users\ERP Testing Room\Desktop\Joanna\morph21","no","mono","no","18","no","white","no","yes","1080","legacy","84","84","C:/Users/ERP Testing Room/Desktop/Joanna/morph21/subject-113.csv","xpyriment","Jazzy James","3.1.4","0","z","space","NA","NA","NA","space","z","778","4287","NA","NA","NA","166998","778","2","legacy","1024","2","48000","-16","BA_m21","113","odd","NW_L_SIMP","PRAYANCE","1367","481476","479892","476909","168374","441863","NA","NA","NA","481469","480389","NA","479392","NA","479388","481469","1376","481776","NA","NA","480476","1367","1367","480867","479388","1367","480476","481776","morph21_Oliver/Morris","70","54778","85","yes","1280","1"
"400","82.5581395349","82.5581395349","644.011627907","644.011627907","black","no","xpyriment","legacy","legacy","0","201","NA","uniform","71971","1000","0.0138944852788","1","undefined","1","0","85","85","85","0","85","85","85","NA","85","85","0","85","NA","85","85","0","85","NA","85","NA","85","0","0","85","85","0","85","85","86","/","11/01/17 16:33:09","The main experiment item","yes","FIN__BA__M21__7%3A10%3A17.osexp","C:\Users\ERP Testing Room\Desktop\Joanna\morph21","no","mono","no","18","no","white","no","yes","1080","legacy","85","85","C:/Users/ERP Testing Room/Desktop/Joanna/morph21/subject-113.csv","xpyriment","Jazzy James","3.1.4","0","/","space","NA","NA","NA","space","/","607","4287","NA","NA","NA","166998","607","2","legacy","1024","2","48000","-16","BA_m21","113","odd","CW_S","WIDOWED","1367","484559","482967","476909","168374","441863","NA","NA","NA","484553","483464","NA","482467","NA","482460","484553","1376","484959","NA","NA","483559","1367","1367","483951","482459","1367","483559","484959","morph21_Oliver/Morris","71","55385","86","yes","1280","7"
"400","82.7586206897","82.7586206897","642.827586207","642.827586207","black","no","xpyriment","legacy","legacy","0","202","NA","uniform","77676","1000","0.0128739893918","1","undefined","1","0","86","86","86","0","86","86","86","NA","86","86","0","86","NA","86","86","0","86","NA","86","NA","86","0","0","86","86","0","86","86","87","/","11/01/17 16:33:09","The main experiment item","yes","FIN__BA__M21__7%3A10%3A17.osexp","C:\Users\ERP Testing Room\Desktop\Joanna\morph21","no","mono","no","18","no","white","no","yes","1080","legacy","86","86","C:/Users/ERP Testing Room/Desktop/Joanna/morph21/subject-113.csv","xpyriment","Jazzy James","3.1.4","0","/","space","NA","NA","NA","space","/","541","4287","NA","NA","NA","166998","541","2","legacy","1024","2","48000","-16","BA_m21","113","odd","CW_L","STYLISH","1367","489310","486202","487802","168374","441863","NA","NA","NA","487792","486699","NA","485701","NA","485696","487792","1376","489710","NA","NA","486802","1367","1367","487193","485696","1367","486802","489710","morph21_Oliver/Morris","72","55926","87","yes","1280","29"
"400","82.9545454545","82.9545454545","641.943181818","641.943181818","black","no","xpyriment","legacy","legacy","0","201","NA","uniform","70584","1000","0.0141675167177","1","undefined","1","0","87","87","87","0","87","87","87","NA","87","87","0","87","NA","87","87","0","87","NA","87","NA","87","0","0","87","87","0","87","87","88","/","11/01/17 16:33:09","The main experiment item","yes","FIN__BA__M21__7%3A10%3A17.osexp","C:\Users\ERP Testing Room\Desktop\Joanna\morph21","no","mono","no","18","no","white","no","yes","1080","legacy","87","87","C:/Users/ERP Testing Room/Desktop/Joanna/morph21/subject-113.csv","xpyriment","Jazzy James","3.1.4","0","/","space","NA","NA","NA","space","/","565","4287","NA","NA","NA","166998","565","2","legacy","1024","2","48000","-16","BA_m21","113","odd","CW_S","DESIGN","1367","492602","491019","487802","168374","441863","NA","NA","NA","492598","491516","NA","490519","NA","490516","492598","1376","493002","NA","NA","491602","1367","1367","492002","490516","1367","491602","493002","morph21_Oliver/Morris","73","56491","88","yes","1280","19"
"200","83.1460674157","83.1460674157","640.629213483","640.629213483","black","no","xpyriment","legacy","legacy","0","207","NA","uniform","75937","1000","0.0131688109881","1","undefined","1","0","88","88","88","0","88","88","88","NA","88","88","0","88","NA","88","88","0","88","NA","88","NA","88","0","0","88","88","0","88","88","89","/","11/01/17 16:33:09","The main experiment item","yes","FIN__BA__M21__7%3A10%3A17.osexp","C:\Users\ERP Testing Room\Desktop\Joanna\morph21","no","mono","no","18","no","white","no","yes","1080","legacy","88","88","C:/Users/ERP Testing Room/Desktop/Joanna/morph21/subject-113.csv","xpyriment","Jazzy James","3.1.4","0","/","space","NA","NA","NA","space","/","525","4287","NA","NA","NA","166998","525","2","legacy","1024","2","48000","-16","BA_m21","113","odd","FILL_W","LEGAL","1367","495769","494161","487802","168374","441863","NA","NA","NA","495760","494658","NA","493661","NA","493656","495760","1376","495969","NA","NA","494769","1367","1367","495161","493656","1367","494769","495969","morph21_Oliver/Morris","74","57016","89","yes","1280","35"
"250","83.3333333333","83.3333333333","639.988888889","639.988888889","black","no","xpyriment","legacy","legacy","0","208","NA","uniform","67151","1000","0.0148918109931","1","undefined","1","0","89","89","89","0","89","89","89","NA","89","89","0","89","NA","89","89","0","89","NA","89","NA","89","0","0","89","89","0","89","89","90","z","11/01/17 16:33:09","The main experiment item","yes","FIN__BA__M21__7%3A10%3A17.osexp","C:\Users\ERP Testing Room\Desktop\Joanna\morph21","no","mono","no","18","no","white","no","yes","1080","legacy","89","89","C:/Users/ERP Testing Room/Desktop/Joanna/morph21/subject-113.csv","xpyriment","Jazzy James","3.1.4","0","z","space","NA","NA","NA","space","z","583","4287","NA","NA","NA","166998","583","2","legacy","1024","2","48000","-16","BA_m21","113","odd","FILL_NW","PIFTH","1367","500227","497136","498719","168374","441863","NA","NA","NA","498716","497633","NA","496636","NA","496626","498716","1376","500478","NA","NA","497727","1367","1367","498119","496626","1367","497727","500478","morph21_Oliver/Morris","75","57599","90","yes","1280","36"
"300","83.5164835165","83.5164835165","641.186813187","641.186813187","black","no","xpyriment","legacy","legacy","0","208","NA","uniform","61547","1000","0.0162477456253","1","undefined","1","0","90","90","90","0","90","90","90","NA","90","90","0","90","NA","90","90","0","90","NA","90","NA","90","0","0","90","90","0","90","90","91","z","11/01/17 16:33:09","The main experiment item","yes","FIN__BA__M21__7%3A10%3A17.osexp","C:\Users\ERP Testing Room\Desktop\Joanna\morph21","no","mono","no","18","no","white","no","yes","1080","legacy","90","90","C:/Users/ERP Testing Room/Desktop/Joanna/morph21/subject-113.csv","xpyriment","Jazzy James","3.1.4","0","z","space","NA","NA","NA","space","z","749","4287","NA","NA","NA","166998","749","2","legacy","1024","2","48000","-16","BA_m21","113","odd","FILL_NW","VOGS","1367","503361","501752","498719","168374","441863","NA","NA","NA","503354","502250","NA","501252","NA","501247","503354","1376","503661","NA","NA","502361","1367","1367","502753","501247","1367","502361","503661","morph21_Oliver/Morris","76","58348","91","yes","1280","47"
