"ITI","acc","accuracy","average_response_time","avg_rt","background","bidi","canvas_backend","clock_backend","color_backend","compensation","cond_trig","condtrigtime","coordinates","coroutines_cycles","coroutines_duration","coroutines_mean_cycle_duration","correct","correct_instructions_1","correct_new_keyboard_response_1","count_AB_m21","count_ITI","count_blank_screen","count_blink_screen","count_block1","count_break1","count_break2","count_break3_1","count_canvas","count_correct_trigger","count_def_chain","count_end_screen","count_fixation_1","count_getting_started","count_inc_counter","count_incorrect_trigger","count_instructions_1","count_logger","count_logscript","count_new_coroutines","count_new_inline_script","count_new_keyboard_response_1","count_reset_counter_prep","count_reset_counter_run","count_responsescreen","count_sequence","count_start_trigger","count_target_present","count_word_trigger","counter","cresp","datetime","description","disable_garbage_collection","experiment_file","experiment_path","font_bold","font_family","font_italic","font_size","font_underline","foreground","form_clicks","fullscreen","height","keyboard_backend","live_row","live_row_block1","logfile","mouse_backend","opensesame_codename","opensesame_version","repeat_cycle","response","response_break1","response_break2","response_break3_1","response_end_screen","response_instructions_1","response_new_keyboard_response_1","response_time","response_time_break1","response_time_break2","response_time_break3_1","response_time_end_screen","response_time_instructions_1","response_time_new_keyboard_response_1","round_decimals","sampler_backend","sound_buf_size","sound_channels","sound_freq","sound_sample_size","start","subject_nr","subject_parity","targ_type","target","time_AB_m21","time_ITI","time_blank_screen","time_blink_screen","time_block1","time_break1","time_break2","time_break3_1","time_canvas","time_correct_trigger","time_def_chain","time_end_screen","time_fixation_1","time_getting_started","time_inc_counter","time_incorrect_trigger","time_instructions_1","time_logger","time_logscript","time_new_inline_script","time_new_keyboard_response_1","time_reset_counter_prep","time_reset_counter_run","time_responsescreen","time_sequence","time_start_trigger","time_target_present","time_word_trigger","title","total_correct","total_response_time","total_responses","uniform_coordinates","width","word_trig"
"350","100","100","722","722","black","no","xpyriment","legacy","legacy","0","205","NA","uniform","70797","1000","0.0141248922977","1","undefined","1","0","0","0","0","0","0","0","0","NA","0","0","0","0","NA","0","0","0","0","NA","0","NA","0","0","0","0","0","0","0","0","1","z","10/25/18 16:24:43","The main experiment item","yes","FIN__AB__M21__7%3A10%3A17.osexp","C:\Users\ERP Testing Room\Desktop\Joanna\morph21","no","mono","no","18","no","white","no","yes","1080","legacy","0","0","C:/Users/ERP Testing Room/Desktop/Joanna/morph21/subject-145.csv","xpyriment","Jazzy James","3.1.4","0","z","NA","NA","NA","NA","space","z","722","NA","NA","NA","NA","153241","722","2","legacy","1024","2","48000","-16","AB_m21","145","odd","NW_S_SIMP","BASKODY","2567","158743","157142","NA","155817","NA","NA","NA","NA","158737","157639","NA","156642","NA","156566","158737","2575","159093","NA","NA","157743","2567","2567","158135","156566","2567","157743","159093","morph21_Oliver/Morris","1","722","1","yes","1280","10"
"350","100","100","774","774","black","no","xpyriment","legacy","legacy","0","205","NA","uniform","58142","1000","0.0171992707509","1","undefined","1","0","1","1","1","0","1","1","1","NA","1","1","0","1","NA","1","1","0","1","NA","1","NA","1","0","0","1","1","0","1","1","2","z","10/25/18 16:24:43","The main experiment item","yes","FIN__AB__M21__7%3A10%3A17.osexp","C:\Users\ERP Testing Room\Desktop\Joanna\morph21","no","mono","no","18","no","white","no","yes","1080","legacy","1","1","C:/Users/ERP Testing Room/Desktop/Joanna/morph21/subject-145.csv","xpyriment","Jazzy James","3.1.4","0","z","NA","NA","NA","NA","space","z","826","NA","NA","NA","NA","153241","826","2","legacy","1024","2","48000","-16","AB_m21","145","odd","NW_S_SIMP","ACREMANT","2567","161951","160351","NA","155817","NA","NA","NA","NA","161945","160849","NA","159851","NA","159846","161945","2575","162302","NA","NA","160951","2567","2567","161343","159846","2567","160951","162302","morph21_Oliver/Morris","2","1548","2","yes","1280","16"
"200","100","100","737.666666667","737.666666667","black","no","xpyriment","legacy","legacy","0","205","NA","uniform","65483","1000","0.0152711390743","1","undefined","1","0","2","2","2","0","2","2","2","NA","2","2","0","2","NA","2","2","0","2","NA","2","NA","2","0","0","2","2","0","2","2","3","z","10/25/18 16:24:43","The main experiment item","yes","FIN__AB__M21__7%3A10%3A17.osexp","C:\Users\ERP Testing Room\Desktop\Joanna\morph21","no","mono","no","18","no","white","no","yes","1080","legacy","2","2","C:/Users/ERP Testing Room/Desktop/Joanna/morph21/subject-145.csv","xpyriment","Jazzy James","3.1.4","0","z","NA","NA","NA","NA","space","z","665","NA","NA","NA","NA","153241","665","2","legacy","1024","2","48000","-16","AB_m21","145","odd","NW_S_SIMP","NULLITH","2567","166660","163543","165152","155817","NA","NA","NA","NA","165146","164040","NA","163043","NA","163038","165146","2575","166860","NA","NA","164152","2567","2567","164552","163037","2567","164152","166860","morph21_Oliver/Morris","3","2213","3","yes","1280","23"
"400","100","100","736.25","736.25","black","no","xpyriment","legacy","legacy","0","207","NA","uniform","70288","1000","0.0142271796039","1","undefined","1","0","3","3","3","0","3","3","3","NA","3","3","0","3","NA","3","3","0","3","NA","3","NA","3","0","0","3","3","0","3","3","4","/","10/25/18 16:24:43","The main experiment item","yes","FIN__AB__M21__7%3A10%3A17.osexp","C:\Users\ERP Testing Room\Desktop\Joanna\morph21","no","mono","no","18","no","white","no","yes","1080","legacy","3","3","C:/Users/ERP Testing Room/Desktop/Joanna/morph21/subject-145.csv","xpyriment","Jazzy James","3.1.4","0","/","NA","NA","NA","NA","space","/","732","NA","NA","NA","NA","153241","732","2","legacy","1024","2","48000","-16","AB_m21","145","odd","FILL_W","STEEP","2567","169668","168085","165152","155817","NA","NA","NA","NA","169662","168582","NA","167585","NA","167579","169662","2575","170069","NA","NA","168668","2567","2567","169060","167579","2567","168668","170069","morph21_Oliver/Morris","4","2945","4","yes","1280","16"
"250","100","100","674","674","black","no","xpyriment","legacy","legacy","0","202","NA","uniform","80236","1000","0.0124632334613","1","undefined","1","0","4","4","4","0","4","4","4","NA","4","4","0","4","NA","4","4","0","4","NA","4","NA","4","0","0","4","4","0","4","4","5","/","10/25/18 16:24:43","The main experiment item","yes","FIN__AB__M21__7%3A10%3A17.osexp","C:\Users\ERP Testing Room\Desktop\Joanna\morph21","no","mono","no","18","no","white","no","yes","1080","legacy","4","4","C:/Users/ERP Testing Room/Desktop/Joanna/morph21/subject-145.csv","xpyriment","Jazzy James","3.1.4","0","/","NA","NA","NA","NA","space","/","425","NA","NA","NA","NA","153241","425","2","legacy","1024","2","48000","-16","AB_m21","145","odd","CW_L","DANCER","2567","172935","171335","165152","155817","NA","NA","NA","NA","172926","171832","NA","170835","NA","170828","172926","2575","173185","NA","NA","171935","2567","2567","172327","170828","2567","171935","173185","morph21_Oliver/Morris","5","3370","5","yes","1280","11"
"200","100","100","632","632","black","no","xpyriment","legacy","legacy","0","201","NA","uniform","80888","1000","0.0123627732173","1","undefined","1","0","5","5","5","0","5","5","5","NA","5","5","0","5","NA","5","5","0","5","NA","5","NA","5","0","0","5","5","0","5","5","6","/","10/25/18 16:24:43","The main experiment item","yes","FIN__AB__M21__7%3A10%3A17.osexp","C:\Users\ERP Testing Room\Desktop\Joanna\morph21","no","mono","no","18","no","white","no","yes","1080","legacy","5","5","C:/Users/ERP Testing Room/Desktop/Joanna/morph21/subject-145.csv","xpyriment","Jazzy James","3.1.4","0","/","NA","NA","NA","NA","space","/","422","NA","NA","NA","NA","153241","422","2","legacy","1024","2","48000","-16","AB_m21","145","odd","CW_S","LOCALLY","2567","177503","174394","175995","155817","NA","NA","NA","NA","175986","174891","NA","173894","NA","173890","175986","2575","177703","NA","NA","174995","2567","2567","175386","173890","2567","174995","177703","morph21_Oliver/Morris","6","3792","6","yes","1280","37"
"350","100","100","607","607","black","no","xpyriment","legacy","legacy","0","201","NA","uniform","70435","1000","0.0141974870448","1","undefined","1","0","6","6","6","0","6","6","6","NA","6","6","0","6","NA","6","6","0","6","NA","6","NA","6","0","0","6","6","0","6","6","7","/","10/25/18 16:24:43","The main experiment item","yes","FIN__AB__M21__7%3A10%3A17.osexp","C:\Users\ERP Testing Room\Desktop\Joanna\morph21","no","mono","no","18","no","white","no","yes","1080","legacy","6","6","C:/Users/ERP Testing Room/Desktop/Joanna/morph21/subject-145.csv","xpyriment","Jazzy James","3.1.4","0","/","NA","NA","NA","NA","space","/","457","NA","NA","NA","NA","153241","457","2","legacy","1024","2","48000","-16","AB_m21","145","odd","CW_S","BEARDED","2567","180528","178945","175995","155817","NA","NA","NA","NA","180523","179442","NA","178445","NA","178435","180523","2575","180878","NA","NA","179528","2567","2567","179928","178435","2567","179528","180878","morph21_Oliver/Morris","7","4249","7","yes","1280","8"
"400","100","100","588.25","588.25","black","no","xpyriment","legacy","legacy","0","202","NA","uniform","75064","1000","0.0133219652563","1","undefined","1","0","7","7","7","0","7","7","7","NA","7","7","0","7","NA","7","7","0","7","NA","7","NA","7","0","0","7","7","0","7","7","8","/","10/25/18 16:24:43","The main experiment item","yes","FIN__AB__M21__7%3A10%3A17.osexp","C:\Users\ERP Testing Room\Desktop\Joanna\morph21","no","mono","no","18","no","white","no","yes","1080","legacy","7","7","C:/Users/ERP Testing Room/Desktop/Joanna/morph21/subject-145.csv","xpyriment","Jazzy James","3.1.4","0","/","NA","NA","NA","NA","space","/","457","NA","NA","NA","NA","153241","457","2","legacy","1024","2","48000","-16","AB_m21","145","odd","CW_L","FAITHFUL","2567","183720","182128","175995","155817","NA","NA","NA","NA","183712","182625","NA","181628","NA","181625","183712","2575","184120","NA","NA","182720","2567","2567","183112","181624","2567","182720","184120","morph21_Oliver/Morris","8","4706","8","yes","1280","20"
"250","100","100","563.666666667","563.666666667","black","no","xpyriment","legacy","legacy","0","202","NA","uniform","75060","1000","0.0133226751932","1","undefined","1","0","8","8","8","0","8","8","8","NA","8","8","0","8","NA","8","8","0","8","NA","8","NA","8","0","0","8","8","0","8","8","9","/","10/25/18 16:24:43","The main experiment item","yes","FIN__AB__M21__7%3A10%3A17.osexp","C:\Users\ERP Testing Room\Desktop\Joanna\morph21","no","mono","no","18","no","white","no","yes","1080","legacy","8","8","C:/Users/ERP Testing Room/Desktop/Joanna/morph21/subject-145.csv","xpyriment","Jazzy James","3.1.4","0","/","NA","NA","NA","NA","space","/","367","NA","NA","NA","NA","153241","367","2","legacy","1024","2","48000","-16","AB_m21","145","odd","CW_L","LAUGHING","2567","188454","185337","186945","155817","NA","NA","NA","NA","186936","185834","NA","184837","NA","184831","186936","2575","188704","NA","NA","185945","2567","2567","186337","184831","2567","185945","188704","morph21_Oliver/Morris","9","5073","9","yes","1280","27"
"400","100","100","564.2","564.2","black","no","xpyriment","legacy","legacy","0","205","NA","uniform","70489","1000","0.0141866106768","1","undefined","1","0","9","9","9","0","9","9","9","NA","9","9","0","9","NA","9","9","0","9","NA","9","NA","9","0","0","9","9","0","9","9","10","z","10/25/18 16:24:43","The main experiment item","yes","FIN__AB__M21__7%3A10%3A17.osexp","C:\Users\ERP Testing Room\Desktop\Joanna\morph21","no","mono","no","18","no","white","no","yes","1080","legacy","9","9","C:/Users/ERP Testing Room/Desktop/Joanna/morph21/subject-145.csv","xpyriment","Jazzy James","3.1.4","0","z","NA","NA","NA","NA","space","z","569","NA","NA","NA","NA","153241","569","2","legacy","1024","2","48000","-16","AB_m21","145","odd","NW_S_SIMP","URNILT","2567","191487","189904","186945","155817","NA","NA","NA","NA","191478","190401","NA","189404","NA","189396","191478","2575","191887","NA","NA","190487","2567","2567","190879","189396","2567","190487","191887","morph21_Oliver/Morris","10","5642","10","yes","1280","5"
"250","100","100","549","549","black","no","xpyriment","legacy","legacy","0","207","NA","uniform","80249","1000","0.01246121447","1","undefined","1","0","10","10","10","0","10","10","10","NA","10","10","0","10","NA","10","10","0","10","NA","10","NA","10","0","0","10","10","0","10","10","11","/","10/25/18 16:24:43","The main experiment item","yes","FIN__AB__M21__7%3A10%3A17.osexp","C:\Users\ERP Testing Room\Desktop\Joanna\morph21","no","mono","no","18","no","white","no","yes","1080","legacy","10","10","C:/Users/ERP Testing Room/Desktop/Joanna/morph21/subject-145.csv","xpyriment","Jazzy James","3.1.4","0","/","NA","NA","NA","NA","space","/","397","NA","NA","NA","NA","153241","397","2","legacy","1024","2","48000","-16","AB_m21","145","odd","FILL_W","SUIT","2567","194780","193188","186945","155817","NA","NA","NA","NA","194770","193685","NA","192688","NA","192681","194770","2575","195030","NA","NA","193780","2567","2567","194172","192681","2567","193780","195030","morph21_Oliver/Morris","11","6039","11","yes","1280","49"
"250","100","100","548.166666667","548.166666667","black","no","xpyriment","legacy","legacy","0","207","NA","uniform","76116","1000","0.0131378422408","1","undefined","1","0","11","11","11","0","11","11","11","NA","11","11","0","11","NA","11","11","0","11","NA","11","NA","11","0","0","11","11","0","11","11","12","/","10/25/18 16:24:43","The main experiment item","yes","FIN__AB__M21__7%3A10%3A17.osexp","C:\Users\ERP Testing Room\Desktop\Joanna\morph21","no","mono","no","18","no","white","no","yes","1080","legacy","11","11","C:/Users/ERP Testing Room/Desktop/Joanna/morph21/subject-145.csv","xpyriment","Jazzy James","3.1.4","0","/","NA","NA","NA","NA","space","/","539","NA","NA","NA","NA","153241","539","2","legacy","1024","2","48000","-16","AB_m21","145","odd","FILL_W","FIERCE","2567","199330","196238","197822","155817","NA","NA","NA","NA","197814","196735","NA","195738","NA","195728","197814","2575","199580","NA","NA","196822","2567","2567","197213","195728","2567","196822","199580","morph21_Oliver/Morris","12","6578","12","yes","1280","24"
"250","100","100","546.307692308","546.307692308","black","no","xpyriment","legacy","legacy","0","208","NA","uniform","67121","1000","0.0148984669478","1","undefined","1","0","12","12","12","0","12","12","12","NA","12","12","0","12","NA","12","12","0","12","NA","12","NA","12","0","0","12","12","0","12","12","13","z","10/25/18 16:24:43","The main experiment item","yes","FIN__AB__M21__7%3A10%3A17.osexp","C:\Users\ERP Testing Room\Desktop\Joanna\morph21","no","mono","no","18","no","white","no","yes","1080","legacy","12","12","C:/Users/ERP Testing Room/Desktop/Joanna/morph21/subject-145.csv","xpyriment","Jazzy James","3.1.4","0","z","NA","NA","NA","NA","space","z","524","NA","NA","NA","NA","153241","524","2","legacy","1024","2","48000","-16","AB_m21","145","odd","FILL_NW","PIFTH","2567","202405","200780","197822","155817","NA","NA","NA","NA","202398","201277","NA","200280","NA","200272","202398","2575","202655","NA","NA","201405","2567","2567","201797","200272","2567","201405","202655","morph21_Oliver/Morris","13","7102","13","yes","1280","36"
"250","100","100","538","538","black","no","xpyriment","legacy","legacy","0","207","NA","uniform","77041","1000","0.0129801015044","1","undefined","1","0","13","13","13","0","13","13","13","NA","13","13","0","13","NA","13","13","0","13","NA","13","NA","13","0","0","13","13","0","13","13","14","/","10/25/18 16:24:43","The main experiment item","yes","FIN__AB__M21__7%3A10%3A17.osexp","C:\Users\ERP Testing Room\Desktop\Joanna\morph21","no","mono","no","18","no","white","no","yes","1080","legacy","13","13","C:/Users/ERP Testing Room/Desktop/Joanna/morph21/subject-145.csv","xpyriment","Jazzy James","3.1.4","0","/","NA","NA","NA","NA","space","/","430","NA","NA","NA","NA","153241","430","2","legacy","1024","2","48000","-16","AB_m21","145","odd","FILL_W","SLIM","2567","205514","203930","197822","155817","NA","NA","NA","NA","205511","204427","NA","203430","NA","203423","205511","2575","205764","NA","NA","204522","2567","2567","204914","203423","2567","204522","205764","morph21_Oliver/Morris","14","7532","14","yes","1280","6"
"350","100","100","529.6","529.6","black","no","xpyriment","legacy","legacy","0","207","NA","uniform","83664","1000","0.0119525721935","1","undefined","1","0","14","14","14","0","14","14","14","NA","14","14","0","14","NA","14","14","0","14","NA","14","NA","14","0","0","14","14","0","14","14","15","/","10/25/18 16:24:43","The main experiment item","yes","FIN__AB__M21__7%3A10%3A17.osexp","C:\Users\ERP Testing Room\Desktop\Joanna\morph21","no","mono","no","18","no","white","no","yes","1080","legacy","14","14","C:/Users/ERP Testing Room/Desktop/Joanna/morph21/subject-145.csv","xpyriment","Jazzy James","3.1.4","0","/","NA","NA","NA","NA","space","/","412","NA","NA","NA","NA","153241","412","2","legacy","1024","2","48000","-16","AB_m21","145","odd","FILL_W","WEIRD","2567","210065","206972","208556","155817","NA","NA","NA","NA","208553","207469","NA","206472","NA","206465","208553","2575","210415","NA","NA","207564","2567","2567","207955","206465","2567","207564","210415","morph21_Oliver/Morris","15","7944","15","yes","1280","2"
"300","100","100","535.1875","535.1875","black","no","xpyriment","legacy","legacy","0","204","NA","uniform","77421","1000","0.0129163921933","1","undefined","1","0","15","15","15","0","15","15","15","NA","15","15","0","15","NA","15","15","0","15","NA","15","NA","15","0","0","15","15","0","15","15","16","z","10/25/18 16:24:43","The main experiment item","yes","FIN__AB__M21__7%3A10%3A17.osexp","C:\Users\ERP Testing Room\Desktop\Joanna\morph21","no","mono","no","18","no","white","no","yes","1080","legacy","15","15","C:/Users/ERP Testing Room/Desktop/Joanna/morph21/subject-145.csv","xpyriment","Jazzy James","3.1.4","0","z","NA","NA","NA","NA","space","z","619","NA","NA","NA","NA","153241","619","2","legacy","1024","2","48000","-16","AB_m21","145","odd","NW_L_COMP","ILLIST","2567","213182","211598","208556","155817","NA","NA","NA","NA","213174","212095","NA","211098","NA","211089","213174","2575","213482","NA","NA","212182","2567","2567","212573","211089","2567","212182","213482","morph21_Oliver/Morris","16","8563","16","yes","1280","9"
"400","100","100","529.529411765","529.529411765","black","no","xpyriment","legacy","legacy","0","202","NA","uniform","77165","1000","0.0129592431802","1","undefined","1","0","16","16","16","0","16","16","16","NA","16","16","0","16","NA","16","16","0","16","NA","16","NA","16","0","0","16","16","0","16","16","17","/","10/25/18 16:24:43","The main experiment item","yes","FIN__AB__M21__7%3A10%3A17.osexp","C:\Users\ERP Testing Room\Desktop\Joanna\morph21","no","mono","no","18","no","white","no","yes","1080","legacy","16","16","C:/Users/ERP Testing Room/Desktop/Joanna/morph21/subject-145.csv","xpyriment","Jazzy James","3.1.4","0","/","NA","NA","NA","NA","space","/","439","NA","NA","NA","NA","153241","439","2","legacy","1024","2","48000","-16","AB_m21","145","odd","CW_L","WRONGLY","2567","216298","214682","208556","155817","NA","NA","NA","NA","216291","215179","NA","214182","NA","214178","216291","2575","216699","NA","NA","215298","2567","2567","215690","214178","2567","215298","216699","morph21_Oliver/Morris","17","9002","17","yes","1280","37"
"400","94.4444444444","94.4444444444","527.833333333","527.833333333","black","no","xpyriment","legacy","legacy","0","204","NA","uniform","73488","1000","0.0136076638363","0","undefined","0","0","17","17","17","0","17","17","17","NA","17","17","0","17","NA","17","17","0","17","NA","17","NA","17","0","0","17","17","0","17","17","18","z","10/25/18 16:24:43","The main experiment item","yes","FIN__AB__M21__7%3A10%3A17.osexp","C:\Users\ERP Testing Room\Desktop\Joanna\morph21","no","mono","no","18","no","white","no","yes","1080","legacy","17","17","C:/Users/ERP Testing Room/Desktop/Joanna/morph21/subject-145.csv","xpyriment","Jazzy James","3.1.4","0","/","NA","NA","NA","NA","space","/","499","NA","NA","NA","NA","153241","499","2","legacy","1024","2","48000","-16","AB_m21","145","odd","NW_L_COMP","COLDITY","2567","221065","217957","219557","155817","NA","NA","NA","NA","216291","218454","NA","217457","NA","217454","219554","2575","221466","NA","NA","218565","2567","2567","218957","217454","2567","218565","221466","morph21_Oliver/Morris","17","9501","18","yes","1280","10"
"200","94.7368421053","94.7368421053","533.526315789","533.526315789","black","no","xpyriment","legacy","legacy","0","208","NA","uniform","64866","1000","0.0154163968797","1","undefined","1","0","18","18","18","0","18","18","18","NA","18","18","0","18","NA","18","18","0","18","NA","18","NA","18","0","0","18","18","0","18","18","19","z","10/25/18 16:24:43","The main experiment item","yes","FIN__AB__M21__7%3A10%3A17.osexp","C:\Users\ERP Testing Room\Desktop\Joanna\morph21","no","mono","no","18","no","white","no","yes","1080","legacy","18","18","C:/Users/ERP Testing Room/Desktop/Joanna/morph21/subject-145.csv","xpyriment","Jazzy James","3.1.4","0","z","NA","NA","NA","NA","space","z","636","NA","NA","NA","NA","153241","636","2","legacy","1024","2","48000","-16","AB_m21","145","odd","FILL_NW","FALONS","2567","224332","222749","219557","155817","NA","NA","NA","NA","224324","223246","NA","222249","NA","222239","224324","2575","224532","NA","NA","223332","2567","2567","223724","222239","2567","223332","224532","morph21_Oliver/Morris","18","10137","19","yes","1280","19"
"350","95","95","526.7","526.7","black","no","xpyriment","legacy","legacy","0","201","NA","uniform","70582","1000","0.0141679181661","1","undefined","1","0","19","19","19","0","19","19","19","NA","19","19","0","19","NA","19","19","0","19","NA","19","NA","19","0","0","19","19","0","19","19","20","/","10/25/18 16:24:43","The main experiment item","yes","FIN__AB__M21__7%3A10%3A17.osexp","C:\Users\ERP Testing Room\Desktop\Joanna\morph21","no","mono","no","18","no","white","no","yes","1080","legacy","19","19","C:/Users/ERP Testing Room/Desktop/Joanna/morph21/subject-145.csv","xpyriment","Jazzy James","3.1.4","0","/","NA","NA","NA","NA","space","/","397","NA","NA","NA","NA","153241","397","2","legacy","1024","2","48000","-16","AB_m21","145","odd","CW_S","AMAZEMENT","2567","227483","225866","219557","155817","NA","NA","NA","NA","227480","226363","NA","225366","NA","225358","227480","2575","227833","NA","NA","226491","2567","2567","226882","225358","2567","226491","227833","morph21_Oliver/Morris","19","10534","20","yes","1280","39"
"200","95.2380952381","95.2380952381","520.761904762","520.761904762","black","no","xpyriment","legacy","legacy","0","202","NA","uniform","72258","1000","0.0138392980708","1","undefined","1","0","20","20","20","0","20","20","20","NA","20","20","0","20","NA","20","20","0","20","NA","20","NA","20","0","0","20","20","0","20","20","21","/","10/25/18 16:24:43","The main experiment item","yes","FIN__AB__M21__7%3A10%3A17.osexp","C:\Users\ERP Testing Room\Desktop\Joanna\morph21","no","mono","no","18","no","white","no","yes","1080","legacy","20","20","C:/Users/ERP Testing Room/Desktop/Joanna/morph21/subject-145.csv","xpyriment","Jazzy James","3.1.4","0","/","NA","NA","NA","NA","space","/","402","NA","NA","NA","NA","153241","402","2","legacy","1024","2","48000","-16","AB_m21","145","odd","CW_L","BONELESS","2567","232284","229175","230775","155817","NA","NA","NA","NA","230772","229672","NA","228675","NA","228672","230772","2575","232484","NA","NA","229783","2567","2567","230175","228672","2567","229783","232484","morph21_Oliver/Morris","20","10936","21","yes","1280","34"
"200","95.4545454545","95.4545454545","537.818181818","537.818181818","black","no","xpyriment","legacy","legacy","0","201","NA","uniform","58255","1000","0.0171659085057","1","undefined","1","0","21","21","21","0","21","21","21","NA","21","21","0","21","NA","21","21","0","21","NA","21","NA","21","0","0","21","21","0","21","21","22","/","10/25/18 16:24:43","The main experiment item","yes","FIN__AB__M21__7%3A10%3A17.osexp","C:\Users\ERP Testing Room\Desktop\Joanna\morph21","no","mono","no","18","no","white","no","yes","1080","legacy","21","21","C:/Users/ERP Testing Room/Desktop/Joanna/morph21/subject-145.csv","xpyriment","Jazzy James","3.1.4","0","/","NA","NA","NA","NA","space","/","896","NA","NA","NA","NA","153241","896","2","legacy","1024","2","48000","-16","AB_m21","145","odd","CW_S","THRUSTER","2567","235425","233834","230775","155817","NA","NA","NA","NA","235419","234331","NA","233334","NA","233328","235419","2575","235625","NA","NA","234425","2567","2567","234817","233328","2567","234425","235625","morph21_Oliver/Morris","21","11832","22","yes","1280","24"
"300","95.652173913","95.652173913","544.043478261","544.043478261","black","no","xpyriment","legacy","legacy","0","206","NA","uniform","72149","1000","0.0138602059627","1","undefined","1","0","22","22","22","0","22","22","22","NA","22","22","0","22","NA","22","22","0","22","NA","22","NA","22","0","0","22","22","0","22","22","23","z","10/25/18 16:24:43","The main experiment item","yes","FIN__AB__M21__7%3A10%3A17.osexp","C:\Users\ERP Testing Room\Desktop\Joanna\morph21","no","mono","no","18","no","white","no","yes","1080","legacy","22","22","C:/Users/ERP Testing Room/Desktop/Joanna/morph21/subject-145.csv","xpyriment","Jazzy James","3.1.4","0","z","NA","NA","NA","NA","space","z","681","NA","NA","NA","NA","153241","681","2","legacy","1024","2","48000","-16","AB_m21","145","odd","NW_L_SIMP","BEANITH","2567","238567","236959","230775","155817","NA","NA","NA","NA","238556","237456","NA","236459","NA","236451","238556","2575","238867","NA","NA","237567","2567","2567","237959","236451","2567","237567","238867","morph21_Oliver/Morris","22","12513","23","yes","1280","8"
"200","95.8333333333","95.8333333333","547.416666667","547.416666667","black","no","xpyriment","legacy","legacy","0","208","NA","uniform","68618","1000","0.0145734355417","1","undefined","1","0","23","23","23","0","23","23","23","NA","23","23","0","23","NA","23","23","0","23","NA","23","NA","23","0","0","23","23","0","23","23","24","z","10/25/18 16:24:43","The main experiment item","yes","FIN__AB__M21__7%3A10%3A17.osexp","C:\Users\ERP Testing Room\Desktop\Joanna\morph21","no","mono","no","18","no","white","no","yes","1080","legacy","23","23","C:/Users/ERP Testing Room/Desktop/Joanna/morph21/subject-145.csv","xpyriment","Jazzy James","3.1.4","0","z","NA","NA","NA","NA","space","z","625","NA","NA","NA","NA","153241","625","2","legacy","1024","2","48000","-16","AB_m21","145","odd","FILL_NW","BLAYS","2567","243259","240159","241751","155817","NA","NA","NA","NA","241744","240656","NA","239650","NA","239641","241744","2575","243459","NA","NA","240751","2567","2567","241142","239641","2567","240751","243459","morph21_Oliver/Morris","23","13138","24","yes","1280","8"
"300","96","96","544.84","544.84","black","no","xpyriment","legacy","legacy","0","207","NA","uniform","68102","1000","0.0146838565681","1","undefined","1","0","24","24","24","0","24","24","24","NA","24","24","0","24","NA","24","24","0","24","NA","24","NA","24","0","0","24","24","0","24","24","25","/","10/25/18 16:24:43","The main experiment item","yes","FIN__AB__M21__7%3A10%3A17.osexp","C:\Users\ERP Testing Room\Desktop\Joanna\morph21","no","mono","no","18","no","white","no","yes","1080","legacy","24","24","C:/Users/ERP Testing Room/Desktop/Joanna/morph21/subject-145.csv","xpyriment","Jazzy James","3.1.4","0","/","NA","NA","NA","NA","space","/","483","NA","NA","NA","NA","153241","483","2","legacy","1024","2","48000","-16","AB_m21","145","odd","FILL_W","BALD","2567","246318","244726","241751","155817","NA","NA","NA","NA","246310","245223","NA","244226","NA","244217","246310","2575","246619","NA","NA","245318","2567","2567","245710","244216","2567","245318","246619","morph21_Oliver/Morris","24","13621","25","yes","1280","3"
"250","96.1538461538","96.1538461538","547.961538462","547.961538462","black","no","xpyriment","legacy","legacy","0","201","NA","uniform","76300","1000","0.0131061598952","1","undefined","1","0","25","25","25","0","25","25","25","NA","25","25","0","25","NA","25","25","0","25","NA","25","NA","25","0","0","25","25","0","25","25","26","/","10/25/18 16:24:43","The main experiment item","yes","FIN__AB__M21__7%3A10%3A17.osexp","C:\Users\ERP Testing Room\Desktop\Joanna\morph21","no","mono","no","18","no","white","no","yes","1080","legacy","25","25","C:/Users/ERP Testing Room/Desktop/Joanna/morph21/subject-145.csv","xpyriment","Jazzy James","3.1.4","0","/","NA","NA","NA","NA","space","/","626","NA","NA","NA","NA","153241","626","2","legacy","1024","2","48000","-16","AB_m21","145","odd","CW_S","HUGELY","2567","249527","247935","241751","155817","NA","NA","NA","NA","249520","248432","NA","247435","NA","247426","249520","2575","249777","NA","NA","248527","2567","2567","248919","247426","2567","248527","249777","morph21_Oliver/Morris","25","14247","26","yes","1280","35"
"400","96.2962962963","96.2962962963","550.37037037","550.37037037","black","no","xpyriment","legacy","legacy","0","208","NA","uniform","74647","1000","0.0133963856552","1","undefined","1","0","26","26","26","0","26","26","26","NA","26","26","0","26","NA","26","26","0","26","NA","26","NA","26","0","0","26","26","0","26","26","27","z","10/25/18 16:24:43","The main experiment item","yes","FIN__AB__M21__7%3A10%3A17.osexp","C:\Users\ERP Testing Room\Desktop\Joanna\morph21","no","mono","no","18","no","white","no","yes","1080","legacy","26","26","C:/Users/ERP Testing Room/Desktop/Joanna/morph21/subject-145.csv","xpyriment","Jazzy James","3.1.4","0","z","NA","NA","NA","NA","space","z","613","NA","NA","NA","NA","153241","613","2","legacy","1024","2","48000","-16","AB_m21","145","odd","FILL_NW","SOISE","2567","254169","251060","252660","155817","NA","NA","NA","NA","252655","251557","NA","250560","NA","250551","252655","2575","254569","NA","NA","251660","2567","2567","252052","250551","2567","251660","254569","morph21_Oliver/Morris","26","14860","27","yes","1280","43"
"350","96.4285714286","96.4285714286","545.214285714","545.214285714","black","no","xpyriment","legacy","legacy","0","202","NA","uniform","77116","1000","0.0129674775663","1","undefined","1","0","27","27","27","0","27","27","27","NA","27","27","0","27","NA","27","27","0","27","NA","27","NA","27","0","0","27","27","0","27","27","28","/","10/25/18 16:24:43","The main experiment item","yes","FIN__AB__M21__7%3A10%3A17.osexp","C:\Users\ERP Testing Room\Desktop\Joanna\morph21","no","mono","no","18","no","white","no","yes","1080","legacy","27","27","C:/Users/ERP Testing Room/Desktop/Joanna/morph21/subject-145.csv","xpyriment","Jazzy James","3.1.4","0","/","NA","NA","NA","NA","space","/","406","NA","NA","NA","NA","153241","406","2","legacy","1024","2","48000","-16","AB_m21","145","odd","CW_L","HUNTER","2567","257402","255819","252660","155817","NA","NA","NA","NA","257395","256316","NA","255319","NA","255310","257395","2575","257752","NA","NA","256402","2567","2567","256794","255310","2567","256402","257752","morph21_Oliver/Morris","27","15266","28","yes","1280","10"
"250","96.5517241379","96.5517241379","552.896551724","552.896551724","black","no","xpyriment","legacy","legacy","0","201","NA","uniform","63850","1000","0.0156617071261","1","undefined","1","0","28","28","28","0","28","28","28","NA","28","28","0","28","NA","28","28","0","28","NA","28","NA","28","0","0","28","28","0","28","28","29","/","10/25/18 16:24:43","The main experiment item","yes","FIN__AB__M21__7%3A10%3A17.osexp","C:\Users\ERP Testing Room\Desktop\Joanna\morph21","no","mono","no","18","no","white","no","yes","1080","legacy","28","28","C:/Users/ERP Testing Room/Desktop/Joanna/morph21/subject-145.csv","xpyriment","Jazzy James","3.1.4","0","/","NA","NA","NA","NA","space","/","768","NA","NA","NA","NA","153241","768","2","legacy","1024","2","48000","-16","AB_m21","145","odd","CW_S","TOSSING","2567","260536","258952","252660","155817","NA","NA","NA","NA","260532","259449","NA","258452","NA","258443","260532","2575","260786","NA","NA","259544","2567","2567","259936","258443","2567","259544","260786","morph21_Oliver/Morris","28","16034","29","yes","1280","26"
"300","93.3333333333","93.3333333333","558.766666667","558.766666667","black","no","xpyriment","legacy","legacy","0","202","NA","uniform","72668","1000","0.0137612153905","0","undefined","0","0","29","29","29","0","29","29","29","NA","29","29","0","29","NA","29","29","0","29","NA","29","NA","29","0","0","29","29","0","29","29","30","/","10/25/18 16:24:43","The main experiment item","yes","FIN__AB__M21__7%3A10%3A17.osexp","C:\Users\ERP Testing Room\Desktop\Joanna\morph21","no","mono","no","18","no","white","no","yes","1080","legacy","29","29","C:/Users/ERP Testing Room/Desktop/Joanna/morph21/subject-145.csv","xpyriment","Jazzy James","3.1.4","0","z","NA","NA","NA","NA","space","z","729","NA","NA","NA","NA","153241","729","2","legacy","1024","2","48000","-16","AB_m21","145","odd","CW_L","HEATER","2567","265020","261927","263512","155817","NA","NA","NA","NA","260532","262425","NA","261427","NA","261418","263504","2575","265321","NA","NA","262512","2567","2567","262904","261418","2567","262512","265321","morph21_Oliver/Morris","28","16763","30","yes","1280","16"
"300","93.5483870968","93.5483870968","556.419354839","556.419354839","black","no","xpyriment","legacy","legacy","0","201","NA","uniform","73037","1000","0.013691690513","1","undefined","1","0","30","30","30","0","30","30","30","NA","30","30","0","30","NA","30","30","0","30","NA","30","NA","30","0","0","30","30","0","30","30","31","/","10/25/18 16:24:43","The main experiment item","yes","FIN__AB__M21__7%3A10%3A17.osexp","C:\Users\ERP Testing Room\Desktop\Joanna\morph21","no","mono","no","18","no","white","no","yes","1080","legacy","30","30","C:/Users/ERP Testing Room/Desktop/Joanna/morph21/subject-145.csv","xpyriment","Jazzy James","3.1.4","0","/","NA","NA","NA","NA","space","/","486","NA","NA","NA","NA","153241","486","2","legacy","1024","2","48000","-16","AB_m21","145","odd","CW_S","RISKY","2567","268187","266587","263512","155817","NA","NA","NA","NA","268178","267084","NA","266087","NA","266077","268178","2575","268487","NA","NA","267187","2567","2567","267579","266077","2567","267187","268487","morph21_Oliver/Morris","29","17249","31","yes","1280","50"
"300","93.75","93.75","557.71875","557.71875","black","no","xpyriment","legacy","legacy","0","208","NA","uniform","70782","1000","0.0141278856206","1","undefined","1","0","31","31","31","0","31","31","31","NA","31","31","0","31","NA","31","31","0","31","NA","31","NA","31","0","0","31","31","0","31","31","32","z","10/25/18 16:24:43","The main experiment item","yes","FIN__AB__M21__7%3A10%3A17.osexp","C:\Users\ERP Testing Room\Desktop\Joanna\morph21","no","mono","no","18","no","white","no","yes","1080","legacy","31","31","C:/Users/ERP Testing Room/Desktop/Joanna/morph21/subject-145.csv","xpyriment","Jazzy James","3.1.4","0","z","NA","NA","NA","NA","space","z","598","NA","NA","NA","NA","153241","598","2","legacy","1024","2","48000","-16","AB_m21","145","odd","FILL_NW","DULKS","2567","271379","269795","263512","155817","NA","NA","NA","NA","271371","270293","NA","269295","NA","269288","271371","2575","271679","NA","NA","270379","2567","2567","270770","269288","2567","270379","271679","morph21_Oliver/Morris","30","17847","32","yes","1280","18"
"400","93.9393939394","93.9393939394","555.818181818","555.818181818","black","no","xpyriment","legacy","legacy","0","201","NA","uniform","74475","1000","0.0134273246056","1","undefined","1","0","32","32","32","0","32","32","32","NA","32","32","0","32","NA","32","32","0","32","NA","32","NA","32","0","0","32","32","0","32","32","33","/","10/25/18 16:24:43","The main experiment item","yes","FIN__AB__M21__7%3A10%3A17.osexp","C:\Users\ERP Testing Room\Desktop\Joanna\morph21","no","mono","no","18","no","white","no","yes","1080","legacy","32","32","C:/Users/ERP Testing Room/Desktop/Joanna/morph21/subject-145.csv","xpyriment","Jazzy James","3.1.4","0","/","NA","NA","NA","NA","space","/","495","NA","NA","NA","NA","153241","495","2","legacy","1024","2","48000","-16","AB_m21","145","odd","CW_S","DESIGN","2567","276029","272929","274521","155817","NA","NA","NA","NA","274511","273426","NA","272429","NA","272419","274511","2575","276429","NA","NA","273521","2567","2567","273912","272419","2567","273521","276429","morph21_Oliver/Morris","31","18342","33","yes","1280","19"
"400","94.1176470588","94.1176470588","555.294117647","555.294117647","black","no","xpyriment","legacy","legacy","0","207","NA","uniform","69361","1000","0.0144173238563","1","undefined","1","0","33","33","33","0","33","33","33","NA","33","33","0","33","NA","33","33","0","33","NA","33","NA","33","0","0","33","33","0","33","33","34","/","10/25/18 16:24:43","The main experiment item","yes","FIN__AB__M21__7%3A10%3A17.osexp","C:\Users\ERP Testing Room\Desktop\Joanna\morph21","no","mono","no","18","no","white","no","yes","1080","legacy","33","33","C:/Users/ERP Testing Room/Desktop/Joanna/morph21/subject-145.csv","xpyriment","Jazzy James","3.1.4","0","/","NA","NA","NA","NA","space","/","538","NA","NA","NA","NA","153241","538","2","legacy","1024","2","48000","-16","AB_m21","145","odd","FILL_W","QUIT","2567","279238","277646","274521","155817","NA","NA","NA","NA","279227","278143","NA","277146","NA","277137","279227","2575","279638","NA","NA","278238","2567","2567","278629","277137","2567","278237","279638","morph21_Oliver/Morris","32","18880","34","yes","1280","21"
"250","94.2857142857","94.2857142857","555.171428571","555.171428571","black","no","xpyriment","legacy","legacy","0","205","NA","uniform","69739","1000","0.0143391789386","1","undefined","1","0","34","34","34","0","34","34","34","NA","34","34","0","34","NA","34","34","0","34","NA","34","NA","34","0","0","34","34","0","34","34","35","z","10/25/18 16:24:43","The main experiment item","yes","FIN__AB__M21__7%3A10%3A17.osexp","C:\Users\ERP Testing Room\Desktop\Joanna\morph21","no","mono","no","18","no","white","no","yes","1080","legacy","34","34","C:/Users/ERP Testing Room/Desktop/Joanna/morph21/subject-145.csv","xpyriment","Jazzy James","3.1.4","0","z","NA","NA","NA","NA","space","z","551","NA","NA","NA","NA","153241","551","2","legacy","1024","2","48000","-16","AB_m21","145","odd","NW_S_SIMP","DIGODY","2567","282514","280914","274521","155817","NA","NA","NA","NA","282511","281411","NA","280414","NA","280405","282511","2575","282764","NA","NA","281522","2567","2567","281914","280405","2567","281522","282764","morph21_Oliver/Morris","33","19431","35","yes","1280","11"
"250","94.4444444444","94.4444444444","559.444444444","559.444444444","black","no","xpyriment","legacy","legacy","0","204","NA","uniform","64334","1000","0.0155438803743","1","undefined","1","0","35","35","35","0","35","35","35","NA","35","35","0","35","NA","35","35","0","35","NA","35","NA","35","0","0","35","35","0","35","35","36","z","10/25/18 16:24:43","The main experiment item","yes","FIN__AB__M21__7%3A10%3A17.osexp","C:\Users\ERP Testing Room\Desktop\Joanna\morph21","no","mono","no","18","no","white","no","yes","1080","legacy","35","35","C:/Users/ERP Testing Room/Desktop/Joanna/morph21/subject-145.csv","xpyriment","Jazzy James","3.1.4","0","z","NA","NA","NA","NA","space","z","709","NA","NA","NA","NA","153241","709","2","legacy","1024","2","48000","-16","AB_m21","145","odd","NW_L_COMP","BREAKITY","2567","287064","283972","285555","155817","NA","NA","NA","NA","285552","284469","NA","283472","NA","283464","285552","2575","287314","NA","NA","284564","2567","2567","284955","283464","2567","284564","287314","morph21_Oliver/Morris","34","20140","36","yes","1280","23"
"350","91.8918918919","91.8918918919","563.027027027","563.027027027","black","no","xpyriment","legacy","legacy","0","207","NA","uniform","67321","1000","0.0148542059684","0","undefined","0","0","36","36","36","0","36","36","36","NA","36","36","0","36","NA","36","36","0","36","NA","36","NA","36","0","0","36","36","0","36","36","37","/","10/25/18 16:24:43","The main experiment item","yes","FIN__AB__M21__7%3A10%3A17.osexp","C:\Users\ERP Testing Room\Desktop\Joanna\morph21","no","mono","no","18","no","white","no","yes","1080","legacy","36","36","C:/Users/ERP Testing Room/Desktop/Joanna/morph21/subject-145.csv","xpyriment","Jazzy James","3.1.4","0","z","NA","NA","NA","NA","space","z","692","NA","NA","NA","NA","153241","692","2","legacy","1024","2","48000","-16","AB_m21","145","odd","FILL_W","LEAK","2567","290181","288597","285555","155817","NA","NA","NA","NA","285552","289094","NA","288097","NA","288091","290173","2575","290531","NA","NA","289181","2567","2567","289572","288091","2567","289181","290531","morph21_Oliver/Morris","34","20832","37","yes","1280","9"
"250","89.4736842105","89.4736842105","560.5","560.5","black","no","xpyriment","legacy","legacy","0","208","NA","uniform","74592","1000","0.0134062634063","0","undefined","0","0","37","37","37","0","37","37","37","NA","37","37","0","37","NA","37","37","0","37","NA","37","NA","37","0","0","37","37","0","37","37","38","z","10/25/18 16:24:43","The main experiment item","yes","FIN__AB__M21__7%3A10%3A17.osexp","C:\Users\ERP Testing Room\Desktop\Joanna\morph21","no","mono","no","18","no","white","no","yes","1080","legacy","37","37","C:/Users/ERP Testing Room/Desktop/Joanna/morph21/subject-145.csv","xpyriment","Jazzy James","3.1.4","0","/","NA","NA","NA","NA","space","/","467","NA","NA","NA","NA","153241","467","2","legacy","1024","2","48000","-16","AB_m21","145","odd","FILL_NW","BUWL","2567","293372","291756","285555","155817","NA","NA","NA","NA","285552","292253","NA","291256","NA","291250","293364","2575","293623","NA","NA","292373","2567","2567","292764","291250","2567","292372","293623","morph21_Oliver/Morris","34","21299","38","yes","1280","9"
"350","89.7435897436","89.7435897436","566.666666667","566.666666667","black","no","xpyriment","legacy","legacy","0","208","NA","uniform","59242","1000","0.0168799162756","1","undefined","1","0","38","38","38","0","38","38","38","NA","38","38","0","38","NA","38","38","0","38","NA","38","NA","38","0","0","38","38","0","38","38","39","z","10/25/18 16:24:43","The main experiment item","yes","FIN__AB__M21__7%3A10%3A17.osexp","C:\Users\ERP Testing Room\Desktop\Joanna\morph21","no","mono","no","18","no","white","no","yes","1080","legacy","38","38","C:/Users/ERP Testing Room/Desktop/Joanna/morph21/subject-145.csv","xpyriment","Jazzy James","3.1.4","0","z","NA","NA","NA","NA","space","z","801","NA","NA","NA","NA","153241","801","2","legacy","1024","2","48000","-16","AB_m21","145","odd","FILL_NW","HEAS","2567","297932","294839","296423","155817","NA","NA","NA","NA","296417","295336","NA","294339","NA","294330","296417","2575","298282","NA","NA","295423","2567","2567","295814","294330","2567","295423","298282","morph21_Oliver/Morris","35","22100","39","yes","1280","26"
"300","90","90","572.025","572.025","black","no","xpyriment","legacy","legacy","0","204","NA","uniform","56490","1000","0.0177022481855","1","undefined","1","0","39","39","39","0","39","39","39","NA","39","39","0","39","NA","39","39","0","39","NA","39","NA","39","0","0","39","39","0","39","39","40","z","10/25/18 16:24:43","The main experiment item","yes","FIN__AB__M21__7%3A10%3A17.osexp","C:\Users\ERP Testing Room\Desktop\Joanna\morph21","no","mono","no","18","no","white","no","yes","1080","legacy","39","39","C:/Users/ERP Testing Room/Desktop/Joanna/morph21/subject-145.csv","xpyriment","Jazzy James","3.1.4","0","z","NA","NA","NA","NA","space","z","781","NA","NA","NA","NA","153241","781","2","legacy","1024","2","48000","-16","AB_m21","145","odd","NW_L_COMP","NORTHIZE","2567","301124","299524","296423","155817","NA","NA","NA","NA","301113","300021","NA","299024","NA","299018","301113","2575","301424","NA","NA","300124","2567","2567","300515","299018","2567","300124","301424","morph21_Oliver/Morris","36","22881","40","yes","1280","20"
"250","90.243902439","90.243902439","569.024390244","569.024390244","black","no","xpyriment","legacy","legacy","0","207","NA","uniform","75145","1000","0.0133076052964","1","undefined","1","0","40","40","40","0","40","40","40","NA","40","40","0","40","NA","40","40","0","40","NA","40","NA","40","0","0","40","40","0","40","40","41","/","10/25/18 16:24:43","The main experiment item","yes","FIN__AB__M21__7%3A10%3A17.osexp","C:\Users\ERP Testing Room\Desktop\Joanna\morph21","no","mono","no","18","no","white","no","yes","1080","legacy","40","40","C:/Users/ERP Testing Room/Desktop/Joanna/morph21/subject-145.csv","xpyriment","Jazzy James","3.1.4","0","/","NA","NA","NA","NA","space","/","449","NA","NA","NA","NA","153241","449","2","legacy","1024","2","48000","-16","AB_m21","145","odd","FILL_W","TREAT","2567","304216","302632","296423","155817","NA","NA","NA","NA","304212","303129","NA","302132","NA","302121","304212","2575","304466","NA","NA","303216","2567","2567","303616","302121","2567","303216","304466","morph21_Oliver/Morris","37","23330","41","yes","1280","48"
"400","90.4761904762","90.4761904762","569.880952381","569.880952381","black","no","xpyriment","legacy","legacy","0","207","NA","uniform","62447","1000","0.0160135795154","1","undefined","1","0","41","41","41","0","41","41","41","NA","41","41","0","41","NA","41","41","0","41","NA","41","NA","41","0","0","41","41","0","41","41","42","/","10/25/18 16:24:43","The main experiment item","yes","FIN__AB__M21__7%3A10%3A17.osexp","C:\Users\ERP Testing Room\Desktop\Joanna\morph21","no","mono","no","18","no","white","no","yes","1080","legacy","41","41","C:/Users/ERP Testing Room/Desktop/Joanna/morph21/subject-145.csv","xpyriment","Jazzy James","3.1.4","0","/","NA","NA","NA","NA","space","/","605","NA","NA","NA","NA","153241","605","2","legacy","1024","2","48000","-16","AB_m21","145","odd","FILL_W","EAT","2567","308841","305716","307332","155817","NA","NA","NA","NA","307326","306213","NA","305216","NA","305208","307326","2575","309241","NA","NA","306332","2567","2567","306724","305208","2567","306332","309241","morph21_Oliver/Morris","38","23935","42","yes","1280","25"
"200","90.6976744186","90.6976744186","577.860465116","577.860465116","black","no","xpyriment","legacy","legacy","0","203","NA","uniform","65120","1000","0.0153562653563","1","undefined","1","0","42","42","42","0","42","42","42","NA","42","42","0","42","NA","42","42","0","42","NA","42","NA","42","0","0","42","42","0","42","42","43","z","10/25/18 16:24:43","The main experiment item","yes","FIN__AB__M21__7%3A10%3A17.osexp","C:\Users\ERP Testing Room\Desktop\Joanna\morph21","no","mono","no","18","no","white","no","yes","1080","legacy","42","42","C:/Users/ERP Testing Room/Desktop/Joanna/morph21/subject-145.csv","xpyriment","Jazzy James","3.1.4","0","z","NA","NA","NA","NA","space","z","913","NA","NA","NA","NA","153241","913","2","legacy","1024","2","48000","-16","AB_m21","145","odd","NW_S_COMP","ANTISM","2567","312183","310599","307332","155817","NA","NA","NA","NA","312175","311096","NA","310099","NA","310089","312175","2575","312383","NA","NA","311183","2567","2567","311574","310089","2567","311183","312383","morph21_Oliver/Morris","39","24848","43","yes","1280","8"
"400","90.9090909091","90.9090909091","580.886363636","580.886363636","black","no","xpyriment","legacy","legacy","0","206","NA","uniform","67405","1000","0.0148356946814","1","undefined","1","0","43","43","43","0","43","43","43","NA","43","43","0","43","NA","43","43","0","43","NA","43","NA","43","0","0","43","43","0","43","43","44","z","10/25/18 16:24:43","The main experiment item","yes","FIN__AB__M21__7%3A10%3A17.osexp","C:\Users\ERP Testing Room\Desktop\Joanna\morph21","no","mono","no","18","no","white","no","yes","1080","legacy","43","43","C:/Users/ERP Testing Room/Desktop/Joanna/morph21/subject-145.csv","xpyriment","Jazzy James","3.1.4","0","z","NA","NA","NA","NA","space","z","711","NA","NA","NA","NA","153241","711","2","legacy","1024","2","48000","-16","AB_m21","145","odd","NW_L_SIMP","VALIDEL","2567","315267","313658","307332","155817","NA","NA","NA","NA","315258","314155","NA","313158","NA","313146","315258","2575","315667","NA","NA","314266","2567","2567","314658","313146","2567","314266","315667","morph21_Oliver/Morris","40","25559","44","yes","1280","23"
"400","91.1111111111","91.1111111111","582.466666667","582.466666667","black","no","xpyriment","legacy","legacy","0","208","NA","uniform","61925","1000","0.0161485668147","1","undefined","1","0","44","44","44","0","44","44","44","NA","44","44","0","44","NA","44","44","0","44","NA","44","NA","44","0","0","44","44","0","44","44","45","z","10/25/18 16:24:43","The main experiment item","yes","FIN__AB__M21__7%3A10%3A17.osexp","C:\Users\ERP Testing Room\Desktop\Joanna\morph21","no","mono","no","18","no","white","no","yes","1080","legacy","44","44","C:/Users/ERP Testing Room/Desktop/Joanna/morph21/subject-145.csv","xpyriment","Jazzy James","3.1.4","0","z","NA","NA","NA","NA","space","z","652","NA","NA","NA","NA","153241","652","2","legacy","1024","2","48000","-16","AB_m21","145","odd","FILL_NW","GIKE","2567","320009","316909","318501","155817","NA","NA","NA","NA","318491","317406","NA","316409","NA","316403","318491","2575","320409","NA","NA","317501","2567","2567","317892","316403","2567","317501","320409","morph21_Oliver/Morris","41","26211","45","yes","1280","24"
"400","91.3043478261","91.3043478261","588.369565217","588.369565217","black","no","xpyriment","legacy","legacy","0","202","NA","uniform","53352","1000","0.0187434397961","1","undefined","1","0","45","45","45","0","45","45","45","NA","45","45","0","45","NA","45","45","0","45","NA","45","NA","45","0","0","45","45","0","45","45","46","/","10/25/18 16:24:43","The main experiment item","yes","FIN__AB__M21__7%3A10%3A17.osexp","C:\Users\ERP Testing Room\Desktop\Joanna\morph21","no","mono","no","18","no","white","no","yes","1080","legacy","45","45","C:/Users/ERP Testing Room/Desktop/Joanna/morph21/subject-145.csv","xpyriment","Jazzy James","3.1.4","0","/","NA","NA","NA","NA","space","/","854","NA","NA","NA","NA","153241","854","2","legacy","1024","2","48000","-16","AB_m21","145","odd","CW_L","COOLING","2567","323267","321676","318501","155817","NA","NA","NA","NA","323260","322173","NA","321176","NA","321166","323260","2575","323667","NA","NA","322267","2567","2567","322659","321166","2567","322267","323667","morph21_Oliver/Morris","42","27065","46","yes","1280","24"
"300","91.4893617021","91.4893617021","594.319148936","594.319148936","black","no","xpyriment","legacy","legacy","0","205","NA","uniform","61571","1000","0.0162414123532","1","undefined","1","0","46","46","46","0","46","46","46","NA","46","46","0","46","NA","46","46","0","46","NA","46","NA","46","0","0","46","46","0","46","46","47","z","10/25/18 16:24:43","The main experiment item","yes","FIN__AB__M21__7%3A10%3A17.osexp","C:\Users\ERP Testing Room\Desktop\Joanna\morph21","no","mono","no","18","no","white","no","yes","1080","legacy","46","46","C:/Users/ERP Testing Room/Desktop/Joanna/morph21/subject-145.csv","xpyriment","Jazzy James","3.1.4","0","z","NA","NA","NA","NA","space","z","868","NA","NA","NA","NA","153241","868","2","legacy","1024","2","48000","-16","AB_m21","145","odd","NW_S_SIMP","YIELDILT","2567","326484","324901","318501","155817","NA","NA","NA","NA","326475","325398","NA","324401","NA","324390","326475","2575","326784","NA","NA","325484","2567","2567","325876","324390","2567","325484","326784","morph21_Oliver/Morris","43","27933","47","yes","1280","20"
"300","91.6666666667","91.6666666667","601.75","601.75","black","no","xpyriment","legacy","legacy","0","208","NA","uniform","46513","1000","0.0214993657687","1","undefined","1","0","47","47","47","0","47","47","47","NA","47","47","0","47","NA","47","47","0","47","NA","47","NA","47","0","0","47","47","0","47","47","48","z","10/25/18 16:24:43","The main experiment item","yes","FIN__AB__M21__7%3A10%3A17.osexp","C:\Users\ERP Testing Room\Desktop\Joanna\morph21","no","mono","no","18","no","white","no","yes","1080","legacy","47","47","C:/Users/ERP Testing Room/Desktop/Joanna/morph21/subject-145.csv","xpyriment","Jazzy James","3.1.4","0","z","NA","NA","NA","NA","space","z","951","NA","NA","NA","NA","153241","951","2","legacy","1024","2","48000","-16","AB_m21","145","odd","FILL_NW","DASK","2567","331118","327993","329609","155817","NA","NA","NA","NA","329605","328490","NA","327493","NA","327485","329605","2575","331418","NA","NA","328609","2567","2567","329009","327485","2567","328609","331418","morph21_Oliver/Morris","44","28884","48","yes","1280","12"
"350","91.8367346939","91.8367346939","605.224489796","605.224489796","black","no","xpyriment","legacy","legacy","0","208","NA","uniform","53826","1000","0.0185783821945","1","undefined","1","0","48","48","48","0","48","48","48","NA","48","48","0","48","NA","48","48","0","48","NA","48","NA","48","0","0","48","48","0","48","48","49","z","10/25/18 16:24:43","The main experiment item","yes","FIN__AB__M21__7%3A10%3A17.osexp","C:\Users\ERP Testing Room\Desktop\Joanna\morph21","no","mono","no","18","no","white","no","yes","1080","legacy","48","48","C:/Users/ERP Testing Room/Desktop/Joanna/morph21/subject-145.csv","xpyriment","Jazzy James","3.1.4","0","z","NA","NA","NA","NA","space","z","772","NA","NA","NA","NA","153241","772","2","legacy","1024","2","48000","-16","AB_m21","145","odd","FILL_NW","KRAISE","2567","334252","332636","329609","155817","NA","NA","NA","NA","334249","333133","NA","332135","NA","332130","334249","2575","334602","NA","NA","333261","2567","2567","333652","332130","2567","333261","334602","morph21_Oliver/Morris","45","29656","49","yes","1280","33"
"400","92","92","603.38","603.38","black","no","xpyriment","legacy","legacy","0","207","NA","uniform","64253","1000","0.0155634756354","1","undefined","1","0","49","49","49","0","49","49","49","NA","49","49","0","49","NA","49","49","0","49","NA","49","NA","49","0","0","49","49","0","49","49","50","/","10/25/18 16:24:43","The main experiment item","yes","FIN__AB__M21__7%3A10%3A17.osexp","C:\Users\ERP Testing Room\Desktop\Joanna\morph21","no","mono","no","18","no","white","no","yes","1080","legacy","49","49","C:/Users/ERP Testing Room/Desktop/Joanna/morph21/subject-145.csv","xpyriment","Jazzy James","3.1.4","0","/","NA","NA","NA","NA","space","/","513","NA","NA","NA","NA","153241","513","2","legacy","1024","2","48000","-16","AB_m21","145","odd","FILL_W","DRUNK","2567","337552","335927","329609","155817","NA","NA","NA","NA","337546","336424","NA","335427","NA","335423","337546","2575","337952","NA","NA","336552","2567","2567","336944","335423","2567","336552","337952","morph21_Oliver/Morris","46","30169","50","yes","1280","19"
"350","92.1568627451","92.1568627451","607.843137255","607.843137255","black","no","xpyriment","legacy","legacy","0","203","NA","uniform","60580","1000","0.0165070980522","1","undefined","1","0","50","50","50","0","50","50","50","NA","50","50","0","50","NA","50","50","0","50","NA","50","NA","50","0","0","50","50","0","50","50","51","z","10/25/18 16:24:43","The main experiment item","yes","FIN__AB__M21__7%3A10%3A17.osexp","C:\Users\ERP Testing Room\Desktop\Joanna\morph21","no","mono","no","18","no","white","no","yes","1080","legacy","50","50","C:/Users/ERP Testing Room/Desktop/Joanna/morph21/subject-145.csv","xpyriment","Jazzy James","3.1.4","0","z","NA","NA","NA","NA","space","z","831","NA","NA","NA","NA","153241","831","2","legacy","1024","2","48000","-16","AB_m21","145","odd","NW_S_COMP","FIENDISM","2567","342311","339202","340803","155817","NA","NA","NA","NA","340794","339700","NA","338702","NA","338691","340794","2575","342661","NA","NA","339802","2567","2567","340194","338691","2567","339802","342661","morph21_Oliver/Morris","47","31000","51","yes","1280","24"
"250","90.3846153846","90.3846153846","615.288461538","615.288461538","black","no","xpyriment","legacy","legacy","0","201","NA","uniform","55979","1000","0.0178638417978","0","undefined","0","0","51","51","51","0","51","51","51","NA","51","51","0","51","NA","51","51","0","51","NA","51","NA","51","0","0","51","51","0","51","51","52","/","10/25/18 16:24:43","The main experiment item","yes","FIN__AB__M21__7%3A10%3A17.osexp","C:\Users\ERP Testing Room\Desktop\Joanna\morph21","no","mono","no","18","no","white","no","yes","1080","legacy","51","51","C:/Users/ERP Testing Room/Desktop/Joanna/morph21/subject-145.csv","xpyriment","Jazzy James","3.1.4","0","None","NA","NA","NA","NA","space","None","995","NA","NA","NA","NA","153241","995","2","legacy","1024","2","48000","-16","AB_m21","145","odd","CW_S","AWARENESS","2567","345494","343903","340803","155817","NA","NA","NA","NA","340794","344400","NA","343403","NA","343394","345489","2575","345745","NA","NA","344494","2567","2567","344894","343394","2567","344494","345745","morph21_Oliver/Morris","47","31995","52","yes","1280","44"
"300","90.5660377358","90.5660377358","615.226415094","615.226415094","black","no","xpyriment","legacy","legacy","0","204","NA","uniform","73885","1000","0.013534546931","1","undefined","1","0","52","52","52","0","52","52","52","NA","52","52","0","52","NA","52","52","0","52","NA","52","NA","52","0","0","52","52","0","52","52","53","z","10/25/18 16:24:43","The main experiment item","yes","FIN__AB__M21__7%3A10%3A17.osexp","C:\Users\ERP Testing Room\Desktop\Joanna\morph21","no","mono","no","18","no","white","no","yes","1080","legacy","52","52","C:/Users/ERP Testing Room/Desktop/Joanna/morph21/subject-145.csv","xpyriment","Jazzy James","3.1.4","0","z","NA","NA","NA","NA","space","z","612","NA","NA","NA","NA","153241","612","2","legacy","1024","2","48000","-16","AB_m21","145","odd","NW_L_COMP","BINDIC","2567","348611","347019","340803","155817","NA","NA","NA","NA","348608","347517","NA","346519","NA","346514","348608","2575","348911","NA","NA","347620","2567","2567","348011","346514","2567","347620","348911","morph21_Oliver/Morris","48","32607","53","yes","1280","22"
"200","90.7407407407","90.7407407407","612.555555556","612.555555556","black","no","xpyriment","legacy","legacy","0","207","NA","uniform","76174","1000","0.0131278388952","1","undefined","1","0","53","53","53","0","53","53","53","NA","53","53","0","53","NA","53","53","0","53","NA","53","NA","53","0","0","53","53","0","53","53","54","/","10/25/18 16:24:43","The main experiment item","yes","FIN__AB__M21__7%3A10%3A17.osexp","C:\Users\ERP Testing Room\Desktop\Joanna\morph21","no","mono","no","18","no","white","no","yes","1080","legacy","53","53","C:/Users/ERP Testing Room/Desktop/Joanna/morph21/subject-145.csv","xpyriment","Jazzy James","3.1.4","0","/","NA","NA","NA","NA","space","/","471","NA","NA","NA","NA","153241","471","2","legacy","1024","2","48000","-16","AB_m21","145","odd","FILL_W","FLOAT","2567","353262","350171","351754","155817","NA","NA","NA","NA","351749","350668","NA","349671","NA","349666","351749","2575","353463","NA","NA","350754","2567","2567","351154","349666","2567","350754","353463","morph21_Oliver/Morris","49","33078","54","yes","1280","30"
"400","90.9090909091","90.9090909091","612.345454545","612.345454545","black","no","xpyriment","legacy","legacy","0","205","NA","uniform","69177","1000","0.0144556716828","1","undefined","1","0","54","54","54","0","54","54","54","NA","54","54","0","54","NA","54","54","0","54","NA","54","NA","54","0","0","54","54","0","54","54","55","z","10/25/18 16:24:43","The main experiment item","yes","FIN__AB__M21__7%3A10%3A17.osexp","C:\Users\ERP Testing Room\Desktop\Joanna\morph21","no","mono","no","18","no","white","no","yes","1080","legacy","54","54","C:/Users/ERP Testing Room/Desktop/Joanna/morph21/subject-145.csv","xpyriment","Jazzy James","3.1.4","0","z","NA","NA","NA","NA","space","z","601","NA","NA","NA","NA","153241","601","2","legacy","1024","2","48000","-16","AB_m21","145","odd","NW_S_SIMP","ADVERTISELA","2567","356313","354729","351754","155817","NA","NA","NA","NA","356305","355226","NA","354229","NA","354218","356305","2575","356713","NA","NA","355312","2567","2567","355704","354218","2567","355312","356713","morph21_Oliver/Morris","50","33679","55","yes","1280","25"
"200","91.0714285714","91.0714285714","612.821428571","612.821428571","black","no","xpyriment","legacy","legacy","0","206","NA","uniform","65227","1000","0.015331074555","1","undefined","1","0","55","55","55","0","55","55","55","NA","55","55","0","55","NA","55","55","0","55","NA","55","NA","55","0","0","55","55","0","55","55","56","z","10/25/18 16:24:43","The main experiment item","yes","FIN__AB__M21__7%3A10%3A17.osexp","C:\Users\ERP Testing Room\Desktop\Joanna\morph21","no","mono","no","18","no","white","no","yes","1080","legacy","55","55","C:/Users/ERP Testing Room/Desktop/Joanna/morph21/subject-145.csv","xpyriment","Jazzy James","3.1.4","0","z","NA","NA","NA","NA","space","z","639","NA","NA","NA","NA","153241","639","2","legacy","1024","2","48000","-16","AB_m21","145","odd","NW_L_SIMP","GROWILT","2567","359546","357946","351754","155817","NA","NA","NA","NA","359543","358443","NA","357446","NA","357437","359543","2575","359746","NA","NA","358546","2567","2567","358946","357437","2567","358546","359746","morph21_Oliver/Morris","51","34318","56","yes","1280","20"
"400","91.2280701754","91.2280701754","611.736842105","611.736842105","black","no","xpyriment","legacy","legacy","0","207","NA","uniform","66122","1000","0.015123559481","1","undefined","1","0","56","56","56","0","56","56","56","NA","56","56","0","56","NA","56","56","0","56","NA","56","NA","56","0","0","56","56","0","56","56","57","/","10/25/18 16:24:43","The main experiment item","yes","FIN__AB__M21__7%3A10%3A17.osexp","C:\Users\ERP Testing Room\Desktop\Joanna\morph21","no","mono","no","18","no","white","no","yes","1080","legacy","56","56","C:/Users/ERP Testing Room/Desktop/Joanna/morph21/subject-145.csv","xpyriment","Jazzy James","3.1.4","0","/","NA","NA","NA","NA","space","/","551","NA","NA","NA","NA","153241","551","2","legacy","1024","2","48000","-16","AB_m21","145","odd","FILL_W","CRUNCH","2567","364038","360921","362529","155817","NA","NA","NA","NA","362520","361418","NA","360421","NA","360414","362520","2575","364438","NA","NA","361529","2567","2567","361921","360413","2567","361529","364438","morph21_Oliver/Morris","52","34869","57","yes","1280","20"
"250","89.6551724138","89.6551724138","618.327586207","618.327586207","black","no","xpyriment","legacy","legacy","0","201","NA","uniform","64387","1000","0.0155310854676","0","undefined","0","0","57","57","57","0","57","57","57","NA","57","57","0","57","NA","57","57","0","57","NA","57","NA","57","0","0","57","57","0","57","57","58","/","10/25/18 16:24:43","The main experiment item","yes","FIN__AB__M21__7%3A10%3A17.osexp","C:\Users\ERP Testing Room\Desktop\Joanna\morph21","no","mono","no","18","no","white","no","yes","1080","legacy","57","57","C:/Users/ERP Testing Room/Desktop/Joanna/morph21/subject-145.csv","xpyriment","Jazzy James","3.1.4","0","None","NA","NA","NA","NA","space","None","994","NA","NA","NA","NA","153241","994","2","legacy","1024","2","48000","-16","AB_m21","145","odd","CW_S","HARMLESS","2567","367264","365680","362529","155817","NA","NA","NA","NA","362520","366177","NA","365180","NA","365175","367257","2575","367514","NA","NA","366263","2567","2567","366655","365175","2567","366263","367514","morph21_Oliver/Morris","52","35863","58","yes","1280","29"
"200","89.8305084746","89.8305084746","620.050847458","620.050847458","black","no","xpyriment","legacy","legacy","0","202","NA","uniform","70775","1000","0.0141292829389","1","undefined","1","0","58","58","58","0","58","58","58","NA","58","58","0","58","NA","58","58","0","58","NA","58","NA","58","0","0","58","58","0","58","58","59","/","10/25/18 16:24:43","The main experiment item","yes","FIN__AB__M21__7%3A10%3A17.osexp","C:\Users\ERP Testing Room\Desktop\Joanna\morph21","no","mono","no","18","no","white","no","yes","1080","legacy","58","58","C:/Users/ERP Testing Room/Desktop/Joanna/morph21/subject-145.csv","xpyriment","Jazzy James","3.1.4","0","/","NA","NA","NA","NA","space","/","720","NA","NA","NA","NA","153241","720","2","legacy","1024","2","48000","-16","AB_m21","145","odd","CW_L","COLLECTOR","2567","370281","368664","362529","155817","NA","NA","NA","NA","370278","369161","NA","368164","NA","368153","370278","2575","370481","NA","NA","369289","2567","2567","369681","368153","2567","369289","370481","morph21_Oliver/Morris","53","36583","59","yes","1280","46"
"250","90","90","619.95","619.95","black","no","xpyriment","legacy","legacy","0","207","NA","uniform","76864","1000","0.0130099916736","1","undefined","1","0","59","59","59","0","59","59","59","NA","59","59","0","59","NA","59","59","0","59","NA","59","NA","59","0","0","59","59","0","59","59","60","/","10/25/18 16:24:43","The main experiment item","yes","FIN__AB__M21__7%3A10%3A17.osexp","C:\Users\ERP Testing Room\Desktop\Joanna\morph21","no","mono","no","18","no","white","no","yes","1080","legacy","59","59","C:/Users/ERP Testing Room/Desktop/Joanna/morph21/subject-145.csv","xpyriment","Jazzy James","3.1.4","0","/","NA","NA","NA","NA","space","/","614","NA","NA","NA","NA","153241","614","2","legacy","1024","2","48000","-16","AB_m21","145","odd","FILL_W","SOUGHT","2567","374848","371756","373339","155817","NA","NA","NA","NA","373333","372253","NA","371256","NA","371250","373333","2575","375098","NA","NA","372339","2567","2567","372731","371250","2567","372339","375098","morph21_Oliver/Morris","54","37197","60","yes","1280","40"
"200","88.5245901639","88.5245901639","626","626","black","no","xpyriment","legacy","legacy","0","207","NA","uniform","60476","1000","0.0165354851511","0","undefined","0","0","60","60","60","0","60","60","60","NA","60","60","0","60","NA","60","60","0","60","NA","60","NA","60","0","0","60","60","0","60","60","61","/","10/25/18 16:24:43","The main experiment item","yes","FIN__AB__M21__7%3A10%3A17.osexp","C:\Users\ERP Testing Room\Desktop\Joanna\morph21","no","mono","no","18","no","white","no","yes","1080","legacy","60","60","C:/Users/ERP Testing Room/Desktop/Joanna/morph21/subject-145.csv","xpyriment","Jazzy James","3.1.4","0","None","NA","NA","NA","NA","space","None","989","NA","NA","NA","NA","153241","989","2","legacy","1024","2","48000","-16","AB_m21","145","odd","FILL_W","STALK","2567","377973","376373","373339","155817","NA","NA","NA","NA","373333","376870","NA","375873","NA","375866","377970","2575","378173","NA","NA","376981","2567","2567","377373","375866","2567","376981","378173","morph21_Oliver/Morris","54","38186","61","yes","1280","27"
"250","88.7096774194","88.7096774194","628.870967742","628.870967742","black","no","xpyriment","legacy","legacy","0","202","NA","uniform","66452","1000","0.0150484560284","1","undefined","1","0","61","61","61","0","61","61","61","NA","61","61","0","61","NA","61","61","0","61","NA","61","NA","61","0","0","61","61","0","61","61","62","/","10/25/18 16:24:43","The main experiment item","yes","FIN__AB__M21__7%3A10%3A17.osexp","C:\Users\ERP Testing Room\Desktop\Joanna\morph21","no","mono","no","18","no","white","no","yes","1080","legacy","61","61","C:/Users/ERP Testing Room/Desktop/Joanna/morph21/subject-145.csv","xpyriment","Jazzy James","3.1.4","0","/","NA","NA","NA","NA","space","/","804","NA","NA","NA","NA","153241","804","2","legacy","1024","2","48000","-16","AB_m21","145","odd","CW_L","CREAMY","2567","380956","379348","373339","155817","NA","NA","NA","NA","380950","379845","NA","378848","NA","378841","380950","2575","381206","NA","NA","379956","2567","2567","380348","378841","2567","379956","381206","morph21_Oliver/Morris","55","38990","62","yes","1280","49"
"200","88.8888888889","88.8888888889","630.571428571","630.571428571","black","no","xpyriment","legacy","legacy","0","208","NA","uniform","62036","1000","0.0161196724483","1","undefined","1","0","62","62","62","0","62","62","62","NA","62","62","0","62","NA","62","62","0","62","NA","62","NA","62","0","0","62","62","0","62","62","63","z","10/25/18 16:24:43","The main experiment item","yes","FIN__AB__M21__7%3A10%3A17.osexp","C:\Users\ERP Testing Room\Desktop\Joanna\morph21","no","mono","no","18","no","white","no","yes","1080","legacy","62","62","C:/Users/ERP Testing Room/Desktop/Joanna/morph21/subject-145.csv","xpyriment","Jazzy James","3.1.4","0","z","NA","NA","NA","NA","space","z","736","NA","NA","NA","NA","153241","736","2","legacy","1024","2","48000","-16","AB_m21","145","odd","FILL_NW","GILN","2567","385557","382431","384048","155817","NA","NA","NA","NA","384044","382928","NA","381931","NA","381922","384044","2575","385758","NA","NA","383048","2567","2567","383448","381922","2567","383048","385758","morph21_Oliver/Morris","56","39726","63","yes","1280","25"
"300","89.0625","89.0625","632.640625","632.640625","black","no","xpyriment","legacy","legacy","0","208","NA","uniform","53425","1000","0.0187178287319","1","undefined","1","0","63","63","63","0","63","63","63","NA","63","63","0","63","NA","63","63","0","63","NA","63","NA","63","0","0","63","63","0","63","63","64","z","10/25/18 16:24:43","The main experiment item","yes","FIN__AB__M21__7%3A10%3A17.osexp","C:\Users\ERP Testing Room\Desktop\Joanna\morph21","no","mono","no","18","no","white","no","yes","1080","legacy","63","63","C:/Users/ERP Testing Room/Desktop/Joanna/morph21/subject-145.csv","xpyriment","Jazzy James","3.1.4","0","z","NA","NA","NA","NA","space","z","763","NA","NA","NA","NA","153241","763","2","legacy","1024","2","48000","-16","AB_m21","145","odd","FILL_NW","SCURE","2567","388558","386933","384048","155817","NA","NA","NA","NA","388548","387430","NA","386433","NA","386422","388548","2575","388858","NA","NA","387558","2567","2567","387949","386422","2567","387557","388858","morph21_Oliver/Morris","57","40489","64","yes","1280","41"
"400","89.2307692308","89.2307692308","632.569230769","632.569230769","black","no","xpyriment","legacy","legacy","0","201","NA","uniform","67404","1000","0.0148359147825","1","undefined","1","0","64","64","64","0","64","64","64","NA","64","64","0","64","NA","64","64","0","64","NA","64","NA","64","0","0","64","64","0","64","64","65","/","10/25/18 16:24:43","The main experiment item","yes","FIN__AB__M21__7%3A10%3A17.osexp","C:\Users\ERP Testing Room\Desktop\Joanna\morph21","no","mono","no","18","no","white","no","yes","1080","legacy","64","64","C:/Users/ERP Testing Room/Desktop/Joanna/morph21/subject-145.csv","xpyriment","Jazzy James","3.1.4","0","/","NA","NA","NA","NA","space","/","628","NA","NA","NA","NA","153241","628","2","legacy","1024","2","48000","-16","AB_m21","145","odd","CW_S","RAIDER","2567","391741","390116","384048","155817","NA","NA","NA","NA","391733","390613","NA","389616","NA","389606","391733","2575","392141","NA","NA","390741","2567","2567","391133","389606","2567","390741","392141","morph21_Oliver/Morris","58","41117","65","yes","1280","12"
"200","87.8787878788","87.8787878788","638.015151515","638.015151515","black","no","xpyriment","legacy","legacy","0","207","NA","uniform","61364","1000","0.0162961997262","0","undefined","0","0","65","65","65","0","65","65","65","NA","65","65","0","65","NA","65","65","0","65","NA","65","NA","65","0","0","65","65","0","65","65","66","/","10/25/18 16:24:43","The main experiment item","yes","FIN__AB__M21__7%3A10%3A17.osexp","C:\Users\ERP Testing Room\Desktop\Joanna\morph21","no","mono","no","18","no","white","no","yes","1080","legacy","65","65","C:/Users/ERP Testing Room/Desktop/Joanna/morph21/subject-145.csv","xpyriment","Jazzy James","3.1.4","0","None","NA","NA","NA","NA","space","None","992","NA","NA","NA","NA","153241","992","2","legacy","1024","2","48000","-16","AB_m21","145","odd","FILL_W","LEGAL","2567","396458","393341","394950","155817","NA","NA","NA","NA","391733","393838","NA","392841","NA","392837","394942","2575","396658","NA","NA","393950","2567","2567","394341","392837","2567","393950","396658","morph21_Oliver/Morris","58","42109","66","yes","1280","35"
"300","88.0597014925","88.0597014925","637.805970149","637.805970149","black","no","xpyriment","legacy","legacy","0","202","NA","uniform","68973","1000","0.0144984269207","1","undefined","1","0","66","66","66","0","66","66","66","NA","66","66","0","66","NA","66","66","0","66","NA","66","NA","66","0","0","66","66","0","66","66","67","/","10/25/18 16:24:43","The main experiment item","yes","FIN__AB__M21__7%3A10%3A17.osexp","C:\Users\ERP Testing Room\Desktop\Joanna\morph21","no","mono","no","18","no","white","no","yes","1080","legacy","66","66","C:/Users/ERP Testing Room/Desktop/Joanna/morph21/subject-145.csv","xpyriment","Jazzy James","3.1.4","0","/","NA","NA","NA","NA","space","/","624","NA","NA","NA","NA","153241","624","2","legacy","1024","2","48000","-16","AB_m21","145","odd","CW_L","KNOCKER","2567","399616","397991","394950","155817","NA","NA","NA","NA","399609","398488","NA","397491","NA","397484","399609","2575","399916","NA","NA","398616","2567","2567","399008","397484","2567","398616","399916","morph21_Oliver/Morris","59","42733","67","yes","1280","4"
"350","88.2352941176","88.2352941176","636.455882353","636.455882353","black","no","xpyriment","legacy","legacy","0","201","NA","uniform","75431","1000","0.0132571489176","1","undefined","1","0","67","67","67","0","67","67","67","NA","67","67","0","67","NA","67","67","0","67","NA","67","NA","67","0","0","67","67","0","67","67","68","/","10/25/18 16:24:43","The main experiment item","yes","FIN__AB__M21__7%3A10%3A17.osexp","C:\Users\ERP Testing Room\Desktop\Joanna\morph21","no","mono","no","18","no","white","no","yes","1080","legacy","67","67","C:/Users/ERP Testing Room/Desktop/Joanna/morph21/subject-145.csv","xpyriment","Jazzy James","3.1.4","0","/","NA","NA","NA","NA","space","/","546","NA","NA","NA","NA","153241","546","2","legacy","1024","2","48000","-16","AB_m21","145","odd","CW_S","TEACHER","2567","402768","401175","394950","155817","NA","NA","NA","NA","402759","401672","NA","400675","NA","400665","402759","2575","403118","NA","NA","401767","2567","2567","402159","400665","2567","401766","403118","morph21_Oliver/Morris","60","43279","68","yes","1280","23"
"350","88.4057971014","88.4057971014","635.608695652","635.608695652","black","no","xpyriment","legacy","legacy","0","208","NA","uniform","71431","1000","0.0139995240162","1","undefined","1","0","68","68","68","0","68","68","68","NA","68","68","0","68","NA","68","68","0","68","NA","68","NA","68","0","0","68","68","0","68","68","69","z","10/25/18 16:24:43","The main experiment item","yes","FIN__AB__M21__7%3A10%3A17.osexp","C:\Users\ERP Testing Room\Desktop\Joanna\morph21","no","mono","no","18","no","white","no","yes","1080","legacy","68","68","C:/Users/ERP Testing Room/Desktop/Joanna/morph21/subject-145.csv","xpyriment","Jazzy James","3.1.4","0","z","NA","NA","NA","NA","space","z","578","NA","NA","NA","NA","153241","578","2","legacy","1024","2","48000","-16","AB_m21","145","odd","FILL_NW","DOADS","2567","407459","404359","405951","155817","NA","NA","NA","NA","405941","404856","NA","403859","NA","403851","405941","2575","407810","NA","NA","404951","2567","2567","405343","403851","2567","404951","407810","morph21_Oliver/Morris","61","43857","69","yes","1280","15"
"300","88.5714285714","88.5714285714","636.2","636.2","black","no","xpyriment","legacy","legacy","0","206","NA","uniform","73426","1000","0.0136191539782","1","undefined","1","0","69","69","69","0","69","69","69","NA","69","69","0","69","NA","69","69","0","69","NA","69","NA","69","0","0","69","69","0","69","69","70","z","10/25/18 16:24:43","The main experiment item","yes","FIN__AB__M21__7%3A10%3A17.osexp","C:\Users\ERP Testing Room\Desktop\Joanna\morph21","no","mono","no","18","no","white","no","yes","1080","legacy","69","69","C:/Users/ERP Testing Room/Desktop/Joanna/morph21/subject-145.csv","xpyriment","Jazzy James","3.1.4","0","z","NA","NA","NA","NA","space","z","677","NA","NA","NA","NA","153241","677","2","legacy","1024","2","48000","-16","AB_m21","145","odd","NW_L_SIMP","PRAYANGE","2567","410660","409043","405951","155817","NA","NA","NA","NA","410651","409540","NA","408543","NA","408536","410651","2575","410960","NA","NA","409660","2567","2567","410051","408536","2567","409659","410960","morph21_Oliver/Morris","62","44534","70","yes","1280","1"
"350","88.7323943662","88.7323943662","636.591549296","636.591549296","black","no","xpyriment","legacy","legacy","0","208","NA","uniform","72528","1000","0.0137877785131","1","undefined","1","0","70","70","70","0","70","70","70","NA","70","70","0","70","NA","70","70","0","70","NA","70","NA","70","0","0","70","70","0","70","70","71","z","10/25/18 16:24:43","The main experiment item","yes","FIN__AB__M21__7%3A10%3A17.osexp","C:\Users\ERP Testing Room\Desktop\Joanna\morph21","no","mono","no","18","no","white","no","yes","1080","legacy","70","70","C:/Users/ERP Testing Room/Desktop/Joanna/morph21/subject-145.csv","xpyriment","Jazzy James","3.1.4","0","z","NA","NA","NA","NA","space","z","664","NA","NA","NA","NA","153241","664","2","legacy","1024","2","48000","-16","AB_m21","145","odd","FILL_NW","DASP","2567","413785","412185","405951","155817","NA","NA","NA","NA","413776","412682","NA","411685","NA","411674","413776","2575","414135","NA","NA","412785","2567","2567","413176","411674","2567","412785","414135","morph21_Oliver/Morris","63","45198","71","yes","1280","13"
"200","88.8888888889","88.8888888889","635.916666667","635.916666667","black","no","xpyriment","legacy","legacy","0","203","NA","uniform","71276","1000","0.0140299680117","1","undefined","1","0","71","71","71","0","71","71","71","NA","71","71","0","71","NA","71","71","0","71","NA","71","NA","71","0","0","71","71","0","71","71","72","z","10/25/18 16:24:43","The main experiment item","yes","FIN__AB__M21__7%3A10%3A17.osexp","C:\Users\ERP Testing Room\Desktop\Joanna\morph21","no","mono","no","18","no","white","no","yes","1080","legacy","71","71","C:/Users/ERP Testing Room/Desktop/Joanna/morph21/subject-145.csv","xpyriment","Jazzy James","3.1.4","0","z","NA","NA","NA","NA","space","z","588","NA","NA","NA","NA","153241","588","2","legacy","1024","2","48000","-16","AB_m21","145","odd","NW_S_COMP","YANKORY","2567","418585","415493","417076","155817","NA","NA","NA","NA","417072","415990","NA","414993","NA","414987","417072","2575","418785","NA","NA","416076","2567","2567","416476","414987","2567","416076","418785","morph21_Oliver/Morris","64","45786","72","yes","1280","23"
"400","89.0410958904","89.0410958904","635.95890411","635.95890411","black","no","xpyriment","legacy","legacy","0","202","NA","uniform","66293","1000","0.0150845488966","1","undefined","1","0","72","72","72","0","72","72","72","NA","72","72","0","72","NA","72","72","0","72","NA","72","NA","72","0","0","72","72","0","72","72","73","/","10/25/18 16:24:43","The main experiment item","yes","FIN__AB__M21__7%3A10%3A17.osexp","C:\Users\ERP Testing Room\Desktop\Joanna\morph21","no","mono","no","18","no","white","no","yes","1080","legacy","72","72","C:/Users/ERP Testing Room/Desktop/Joanna/morph21/subject-145.csv","xpyriment","Jazzy James","3.1.4","0","/","NA","NA","NA","NA","space","/","639","NA","NA","NA","NA","153241","639","2","legacy","1024","2","48000","-16","AB_m21","145","odd","CW_L","QUIETLY","2567","421578","419994","417076","155817","NA","NA","NA","NA","421572","420491","NA","419493","NA","419488","421572","2575","421978","NA","NA","420578","2567","2567","420969","419488","2567","420578","421978","morph21_Oliver/Morris","65","46425","73","yes","1280","36"
"200","89.1891891892","89.1891891892","637.918918919","637.918918919","black","no","xpyriment","legacy","legacy","0","208","NA","uniform","62232","1000","0.016068903458","1","undefined","1","0","73","73","73","0","73","73","73","NA","73","73","0","73","NA","73","73","0","73","NA","73","NA","73","0","0","73","73","0","73","73","74","z","10/25/18 16:24:43","The main experiment item","yes","FIN__AB__M21__7%3A10%3A17.osexp","C:\Users\ERP Testing Room\Desktop\Joanna\morph21","no","mono","no","18","no","white","no","yes","1080","legacy","73","73","C:/Users/ERP Testing Room/Desktop/Joanna/morph21/subject-145.csv","xpyriment","Jazzy James","3.1.4","0","z","NA","NA","NA","NA","space","z","781","NA","NA","NA","NA","153241","781","2","legacy","1024","2","48000","-16","AB_m21","145","odd","FILL_NW","HOITS","2567","424836","423228","417076","155817","NA","NA","NA","NA","424831","423725","NA","422728","NA","422723","424831","2575","425036","NA","NA","423836","2567","2567","424236","422723","2567","423836","425036","morph21_Oliver/Morris","66","47206","74","yes","1280","30"
"350","88","88","642.68","642.68","black","no","xpyriment","legacy","legacy","0","203","NA","uniform","56255","1000","0.0177761976713","undefined","undefined","0","0","74","74","74","0","74","74","74","NA","74","74","0","74","NA","74","74","0","74","NA","74","NA","74","0","0","74","74","0","74","74","75","z","10/25/18 16:24:43","The main experiment item","yes","FIN__AB__M21__7%3A10%3A17.osexp","C:\Users\ERP Testing Room\Desktop\Joanna\morph21","no","mono","no","18","no","white","no","yes","1080","legacy","74","74","C:/Users/ERP Testing Room/Desktop/Joanna/morph21/subject-145.csv","xpyriment","Jazzy James","3.1.4","0","z","z","NA","NA","NA","space","None","0","0","NA","NA","NA","153241","995","2","legacy","1024","2","48000","-16","AB_m21","145","odd","NW_S_COMP","HEIGHTENCE","2567","429386","426278","427878","155817","429745","NA","NA","NA","424831","426775","NA","425778","NA","425767","427873","2575","429746","NA","NA","426878","2567","2567","427278","425767","2567","426878","429737","morph21_Oliver/Morris","66","48201","75","yes","1280","18"
"250","86.8421052632","86.8421052632","647.315789474","647.315789474","black","no","xpyriment","legacy","legacy","0","201","NA","uniform","56023","1000","0.0178498116845","0","undefined","0","0","75","75","75","0","75","75","75","NA","75","75","0","75","NA","75","75","0","75","NA","75","NA","75","0","0","75","75","0","75","75","76","/","10/25/18 16:24:43","The main experiment item","yes","FIN__AB__M21__7%3A10%3A17.osexp","C:\Users\ERP Testing Room\Desktop\Joanna\morph21","no","mono","no","18","no","white","no","yes","1080","legacy","75","75","C:/Users/ERP Testing Room/Desktop/Joanna/morph21/subject-145.csv","xpyriment","Jazzy James","3.1.4","0","None","z","NA","NA","NA","space","None","995","0","NA","NA","NA","153241","995","2","legacy","1024","2","48000","-16","AB_m21","145","odd","CW_S","NOTICEABLE","2567","432586","430978","427878","155817","429745","NA","NA","NA","424831","431475","NA","430478","NA","430473","432581","2575","432837","NA","NA","431586","2567","2567","431978","430473","2567","431586","432837","morph21_Oliver/Morris","66","49196","76","yes","1280","3"
"400","85.7142857143","85.7142857143","651.805194805","651.805194805","black","no","xpyriment","legacy","legacy","0","202","NA","uniform","59650","1000","0.0167644593462","0","undefined","0","0","76","76","76","0","76","76","76","NA","76","76","0","76","NA","76","76","0","76","NA","76","NA","76","0","0","76","76","0","76","76","77","/","10/25/18 16:24:43","The main experiment item","yes","FIN__AB__M21__7%3A10%3A17.osexp","C:\Users\ERP Testing Room\Desktop\Joanna\morph21","no","mono","no","18","no","white","no","yes","1080","legacy","76","76","C:/Users/ERP Testing Room/Desktop/Joanna/morph21/subject-145.csv","xpyriment","Jazzy James","3.1.4","0","None","z","NA","NA","NA","space","None","993","0","NA","NA","NA","153241","993","2","legacy","1024","2","48000","-16","AB_m21","145","odd","CW_L","BLINDNESS","2567","435737","434137","427878","155817","429745","NA","NA","NA","424831","434634","NA","433637","NA","433631","435731","2575","436137","NA","NA","434737","2567","2567","435128","433631","2567","434737","436137","morph21_Oliver/Morris","66","50189","77","yes","1280","40"
"400","84.6153846154","84.6153846154","656.166666667","656.166666667","black","no","xpyriment","legacy","legacy","0","208","NA","uniform","57860","1000","0.017283097131","0","undefined","0","0","77","77","77","0","77","77","77","NA","77","77","0","77","NA","77","77","0","77","NA","77","NA","77","0","0","77","77","0","77","77","78","z","10/25/18 16:24:43","The main experiment item","yes","FIN__AB__M21__7%3A10%3A17.osexp","C:\Users\ERP Testing Room\Desktop\Joanna\morph21","no","mono","no","18","no","white","no","yes","1080","legacy","77","77","C:/Users/ERP Testing Room/Desktop/Joanna/morph21/subject-145.csv","xpyriment","Jazzy James","3.1.4","0","None","z","NA","NA","NA","space","None","992","0","NA","NA","NA","153241","992","2","legacy","1024","2","48000","-16","AB_m21","145","odd","FILL_NW","DROES","2567","440471","437379","438963","155817","429745","NA","NA","NA","424831","437876","NA","436878","NA","436871","438955","2575","440871","NA","NA","437963","2567","2567","438354","436871","2567","437963","440871","morph21_Oliver/Morris","66","51181","78","yes","1280","17"
"400","84.8101265823","84.8101265823","657.379746835","657.379746835","black","no","xpyriment","legacy","legacy","0","204","NA","uniform","69312","1000","0.0144275161588","1","undefined","1","0","78","78","78","0","78","78","78","NA","78","78","0","78","NA","78","78","0","78","NA","78","NA","78","0","0","78","78","0","78","78","79","z","10/25/18 16:24:43","The main experiment item","yes","FIN__AB__M21__7%3A10%3A17.osexp","C:\Users\ERP Testing Room\Desktop\Joanna\morph21","no","mono","no","18","no","white","no","yes","1080","legacy","78","78","C:/Users/ERP Testing Room/Desktop/Joanna/morph21/subject-145.csv","xpyriment","Jazzy James","3.1.4","0","z","z","NA","NA","NA","space","z","752","0","NA","NA","NA","153241","752","2","legacy","1024","2","48000","-16","AB_m21","145","odd","NW_L_COMP","PASSMENT","2567","443721","442130","438963","155817","429745","NA","NA","NA","443711","442627","NA","441630","NA","441624","443711","2575","444121","NA","NA","442721","2567","2567","443113","441624","2567","442721","444121","morph21_Oliver/Morris","67","51933","79","yes","1280","14"
"250","85","85","658.9125","658.9125","black","no","xpyriment","legacy","legacy","0","203","NA","uniform","68405","1000","0.0146188144142","1","undefined","1","0","79","79","79","0","79","79","79","NA","79","79","0","79","NA","79","79","0","79","NA","79","NA","79","0","0","79","79","0","79","79","80","z","10/25/18 16:24:43","The main experiment item","yes","FIN__AB__M21__7%3A10%3A17.osexp","C:\Users\ERP Testing Room\Desktop\Joanna\morph21","no","mono","no","18","no","white","no","yes","1080","legacy","79","79","C:/Users/ERP Testing Room/Desktop/Joanna/morph21/subject-145.csv","xpyriment","Jazzy James","3.1.4","0","z","z","NA","NA","NA","space","z","780","0","NA","NA","NA","153241","780","2","legacy","1024","2","48000","-16","AB_m21","145","odd","NW_S_COMP","LIDARY","2567","447005","445421","438963","155817","429745","NA","NA","NA","446998","445918","NA","444921","NA","444918","446998","2575","447255","NA","NA","446005","2567","2567","446396","444917","2567","446005","447255","morph21_Oliver/Morris","68","52713","80","yes","1280","3"
"200","85.1851851852","85.1851851852","657.37037037","657.37037037","black","no","xpyriment","legacy","legacy","0","207","NA","uniform","78082","1000","0.0128070489998","1","undefined","1","0","80","80","80","0","80","80","80","NA","80","80","0","80","NA","80","80","0","80","NA","80","NA","80","0","0","80","80","0","80","80","81","/","10/25/18 16:24:43","The main experiment item","yes","FIN__AB__M21__7%3A10%3A17.osexp","C:\Users\ERP Testing Room\Desktop\Joanna\morph21","no","mono","no","18","no","white","no","yes","1080","legacy","80","80","C:/Users/ERP Testing Room/Desktop/Joanna/morph21/subject-145.csv","xpyriment","Jazzy James","3.1.4","0","/","z","NA","NA","NA","space","/","534","0","NA","NA","NA","153241","534","2","legacy","1024","2","48000","-16","AB_m21","145","odd","FILL_W","FLESH","2567","451638","448513","450130","155817","429745","NA","NA","NA","450127","449010","NA","448013","NA","448005","450127","2575","451838","NA","NA","449138","2567","2567","449530","448005","2567","449138","451838","morph21_Oliver/Morris","69","53247","81","yes","1280","32"
"350","84.1463414634","84.1463414634","658.073170732","658.073170732","black","no","xpyriment","legacy","legacy","0","202","NA","uniform","66245","1000","0.0150954789041","0","undefined","0","0","81","81","81","0","81","81","81","NA","81","81","0","81","NA","81","81","0","81","NA","81","NA","81","0","0","81","81","0","81","81","82","/","10/25/18 16:24:43","The main experiment item","yes","FIN__AB__M21__7%3A10%3A17.osexp","C:\Users\ERP Testing Room\Desktop\Joanna\morph21","no","mono","no","18","no","white","no","yes","1080","legacy","81","81","C:/Users/ERP Testing Room/Desktop/Joanna/morph21/subject-145.csv","xpyriment","Jazzy James","3.1.4","0","z","z","NA","NA","NA","space","z","715","0","NA","NA","NA","153241","715","2","legacy","1024","2","48000","-16","AB_m21","145","odd","CW_L","GUILELESS","2567","454798","453205","450130","155817","429745","NA","NA","NA","450127","453702","NA","452705","NA","452698","454789","2575","455148","NA","NA","453797","2567","2567","454188","452698","2567","453797","455148","morph21_Oliver/Morris","69","53962","82","yes","1280","31"
"350","84.3373493976","84.3373493976","656.831325301","656.831325301","black","no","xpyriment","legacy","legacy","0","202","NA","uniform","78686","1000","0.0127087410721","1","undefined","1","0","82","82","82","0","82","82","82","NA","82","82","0","82","NA","82","82","0","82","NA","82","NA","82","0","0","82","82","0","82","82","83","/","10/25/18 16:24:43","The main experiment item","yes","FIN__AB__M21__7%3A10%3A17.osexp","C:\Users\ERP Testing Room\Desktop\Joanna\morph21","no","mono","no","18","no","white","no","yes","1080","legacy","82","82","C:/Users/ERP Testing Room/Desktop/Joanna/morph21/subject-145.csv","xpyriment","Jazzy James","3.1.4","0","/","z","NA","NA","NA","space","/","555","0","NA","NA","NA","153241","555","2","legacy","1024","2","48000","-16","AB_m21","145","odd","CW_L","JUMPING","2567","458006","456423","450130","155817","429745","NA","NA","NA","457998","456920","NA","455923","NA","455912","457998","2575","458356","NA","NA","457006","2567","2567","457398","455912","2567","457006","458356","morph21_Oliver/Morris","70","54517","83","yes","1280","30"
"250","84.5238095238","84.5238095238","656.011904762","656.011904762","black","no","xpyriment","legacy","legacy","0","202","NA","uniform","68459","1000","0.0146072831914","1","undefined","1","0","83","83","83","0","83","83","83","NA","83","83","0","83","NA","83","83","0","83","NA","83","NA","83","0","0","83","83","0","83","83","84","/","10/25/18 16:24:43","The main experiment item","yes","FIN__AB__M21__7%3A10%3A17.osexp","C:\Users\ERP Testing Room\Desktop\Joanna\morph21","no","mono","no","18","no","white","no","yes","1080","legacy","83","83","C:/Users/ERP Testing Room/Desktop/Joanna/morph21/subject-145.csv","xpyriment","Jazzy James","3.1.4","0","/","z","NA","NA","NA","space","/","588","0","NA","NA","NA","153241","588","2","legacy","1024","2","48000","-16","AB_m21","145","odd","CW_L","PUSHER","2567","462673","459565","461165","155817","429745","NA","NA","NA","461161","460062","NA","459065","NA","459060","461161","2575","462923","NA","NA","460173","2567","2567","460565","459060","2567","460173","462923","morph21_Oliver/Morris","71","55105","84","yes","1280","13"
"250","84.7058823529","84.7058823529","655.670588235","655.670588235","black","no","xpyriment","legacy","legacy","0","201","NA","uniform","73684","1000","0.013571467347","1","undefined","1","0","84","84","84","0","84","84","84","NA","84","84","0","84","NA","84","84","0","84","NA","84","NA","84","0","0","84","84","0","84","84","85","/","10/25/18 16:24:43","The main experiment item","yes","FIN__AB__M21__7%3A10%3A17.osexp","C:\Users\ERP Testing Room\Desktop\Joanna\morph21","no","mono","no","18","no","white","no","yes","1080","legacy","84","84","C:/Users/ERP Testing Room/Desktop/Joanna/morph21/subject-145.csv","xpyriment","Jazzy James","3.1.4","0","/","z","NA","NA","NA","space","/","627","0","NA","NA","NA","153241","627","2","legacy","1024","2","48000","-16","AB_m21","145","odd","CW_S","JAILER","2567","465782","464140","461165","155817","429745","NA","NA","NA","465774","464637","NA","463640","NA","463630","465774","2575","466032","NA","NA","464782","2567","2567","465173","463630","2567","464782","466032","morph21_Oliver/Morris","72","55732","85","yes","1280","13"
"250","84.8837209302","84.8837209302","658.26744186","658.26744186","black","no","xpyriment","legacy","legacy","0","201","NA","uniform","60334","1000","0.0165744024928","1","undefined","1","0","85","85","85","0","85","85","85","NA","85","85","0","85","NA","85","85","0","85","NA","85","NA","85","0","0","85","85","0","85","85","86","/","10/25/18 16:24:43","The main experiment item","yes","FIN__AB__M21__7%3A10%3A17.osexp","C:\Users\ERP Testing Room\Desktop\Joanna\morph21","no","mono","no","18","no","white","no","yes","1080","legacy","85","85","C:/Users/ERP Testing Room/Desktop/Joanna/morph21/subject-145.csv","xpyriment","Jazzy James","3.1.4","0","/","z","NA","NA","NA","space","/","879","0","NA","NA","NA","153241","879","2","legacy","1024","2","48000","-16","AB_m21","145","odd","CW_S","GRIMLY","2567","468857","467265","461165","155817","429745","NA","NA","NA","468847","467762","NA","466765","NA","466757","468847","2575","469107","NA","NA","467857","2567","2567","468248","466757","2567","467857","469107","morph21_Oliver/Morris","73","56611","86","yes","1280","31"
"250","85.0574712644","85.0574712644","658.206896552","658.206896552","black","no","xpyriment","legacy","legacy","0","203","NA","uniform","66373","1000","0.0150663673482","1","undefined","1","0","86","86","86","0","86","86","86","NA","86","86","0","86","NA","86","86","0","86","NA","86","NA","86","0","0","86","86","0","86","86","87","z","10/25/18 16:24:43","The main experiment item","yes","FIN__AB__M21__7%3A10%3A17.osexp","C:\Users\ERP Testing Room\Desktop\Joanna\morph21","no","mono","no","18","no","white","no","yes","1080","legacy","86","86","C:/Users/ERP Testing Room/Desktop/Joanna/morph21/subject-145.csv","xpyriment","Jazzy James","3.1.4","0","z","z","NA","NA","NA","space","z","653","0","NA","NA","NA","153241","653","2","legacy","1024","2","48000","-16","AB_m21","145","odd","NW_S_COMP","BRANCHER","2567","473425","470307","471915","155817","429745","NA","NA","NA","471910","470804","NA","469807","NA","469797","471910","2575","473675","NA","NA","470915","2567","2567","471315","469797","2567","470915","473675","morph21_Oliver/Morris","74","57264","87","yes","1280","16"
"300","85.2272727273","85.2272727273","657.806818182","657.806818182","black","no","xpyriment","legacy","legacy","0","202","NA","uniform","73463","1000","0.0136122946245","1","undefined","1","0","87","87","87","0","87","87","87","NA","87","87","0","87","NA","87","87","0","87","NA","87","NA","87","0","0","87","87","0","87","87","88","/","10/25/18 16:24:43","The main experiment item","yes","FIN__AB__M21__7%3A10%3A17.osexp","C:\Users\ERP Testing Room\Desktop\Joanna\morph21","no","mono","no","18","no","white","no","yes","1080","legacy","87","87","C:/Users/ERP Testing Room/Desktop/Joanna/morph21/subject-145.csv","xpyriment","Jazzy James","3.1.4","0","/","z","NA","NA","NA","space","/","623","0","NA","NA","NA","153241","623","2","legacy","1024","2","48000","-16","AB_m21","145","odd","CW_L","PROFESSOR","2567","476450","474850","471915","155817","429745","NA","NA","NA","476447","475347","NA","474350","NA","474345","476447","2575","476750","NA","NA","475450","2567","2567","475850","474345","2567","475450","476750","morph21_Oliver/Morris","75","57887","88","yes","1280","47"
"250","84.2696629213","84.2696629213","661.573033708","661.573033708","black","no","xpyriment","legacy","legacy","0","204","NA","uniform","54784","1000","0.0182535046729","0","undefined","0","0","88","88","88","0","88","88","88","NA","88","88","0","88","NA","88","88","0","88","NA","88","NA","88","0","0","88","88","0","88","88","89","z","10/25/18 16:24:43","The main experiment item","yes","FIN__AB__M21__7%3A10%3A17.osexp","C:\Users\ERP Testing Room\Desktop\Joanna\morph21","no","mono","no","18","no","white","no","yes","1080","legacy","88","88","C:/Users/ERP Testing Room/Desktop/Joanna/morph21/subject-145.csv","xpyriment","Jazzy James","3.1.4","0","None","z","NA","NA","NA","space","None","993","0","NA","NA","NA","153241","993","2","legacy","1024","2","48000","-16","AB_m21","145","odd","NW_L_COMP","MUDLY","2567","479583","478000","471915","155817","429745","NA","NA","NA","476447","478497","NA","477500","NA","477488","479576","2575","479833","NA","NA","478583","2567","2567","478975","477488","2567","478583","479833","morph21_Oliver/Morris","75","58880","89","yes","1280","12"
"200","83.3333333333","83.3333333333","665.211111111","665.211111111","black","no","xpyriment","legacy","legacy","0","203","NA","uniform","63719","1000","0.0156939060563","0","undefined","0","0","89","89","89","0","89","89","89","NA","89","89","0","89","NA","89","89","0","89","NA","89","NA","89","0","0","89","89","0","89","89","90","z","10/25/18 16:24:43","The main experiment item","yes","FIN__AB__M21__7%3A10%3A17.osexp","C:\Users\ERP Testing Room\Desktop\Joanna\morph21","no","mono","no","18","no","white","no","yes","1080","legacy","89","89","C:/Users/ERP Testing Room/Desktop/Joanna/morph21/subject-145.csv","xpyriment","Jazzy James","3.1.4","0","None","z","NA","NA","NA","space","None","989","0","NA","NA","NA","153241","989","2","legacy","1024","2","48000","-16","AB_m21","145","odd","NW_S_COMP","HAPPENANCE","2567","484142","481042","482633","155817","429745","NA","NA","NA","476447","481539","NA","480542","NA","480532","482622","2575","484342","NA","NA","481633","2567","2567","482025","480532","2567","481633","484342","morph21_Oliver/Morris","75","59869","90","yes","1280","2"
"250","83.5164835165","83.5164835165","663.582417582","663.582417582","black","no","xpyriment","legacy","legacy","0","207","NA","uniform","73155","1000","0.0136696056319","1","undefined","1","0","90","90","90","0","90","90","90","NA","90","90","0","90","NA","90","90","0","90","NA","90","NA","90","0","0","90","90","0","90","90","91","/","10/25/18 16:24:43","The main experiment item","yes","FIN__AB__M21__7%3A10%3A17.osexp","C:\Users\ERP Testing Room\Desktop\Joanna\morph21","no","mono","no","18","no","white","no","yes","1080","legacy","90","90","C:/Users/ERP Testing Room/Desktop/Joanna/morph21/subject-145.csv","xpyriment","Jazzy James","3.1.4","0","/","z","NA","NA","NA","space","/","517","0","NA","NA","NA","153241","517","2","legacy","1024","2","48000","-16","AB_m21","145","odd","FILL_W","SOFT","2567","487275","485667","482633","155817","429745","NA","NA","NA","487267","486164","NA","485167","NA","485162","487267","2575","487525","NA","NA","486275","2567","2567","486667","485162","2567","486275","487525","morph21_Oliver/Morris","76","60386","91","yes","1280","43"
