"ITI","acc","accuracy","average_response_time","avg_rt","background","bidi","canvas_backend","clock_backend","color_backend","compensation","cond_trig","condtrigtime","coordinates","coroutines_cycles","coroutines_duration","coroutines_mean_cycle_duration","correct","correct_instructions_1","correct_new_keyboard_response_1","count_AB_m21","count_ITI","count_blank_screen","count_blink_screen","count_block1","count_break1","count_break2","count_break3_1","count_canvas","count_correct_trigger","count_def_chain","count_end_screen","count_fixation_1","count_getting_started","count_inc_counter","count_incorrect_trigger","count_instructions_1","count_logger","count_logscript","count_new_coroutines","count_new_inline_script","count_new_keyboard_response_1","count_reset_counter_prep","count_reset_counter_run","count_responsescreen","count_sequence","count_start_trigger","count_target_present","count_word_trigger","counter","cresp","datetime","description","disable_garbage_collection","experiment_file","experiment_path","font_bold","font_family","font_italic","font_size","font_underline","foreground","form_clicks","fullscreen","height","keyboard_backend","live_row","live_row_block1","logfile","mouse_backend","opensesame_codename","opensesame_version","repeat_cycle","response","response_break1","response_break2","response_break3_1","response_end_screen","response_instructions_1","response_new_keyboard_response_1","response_time","response_time_break1","response_time_break2","response_time_break3_1","response_time_end_screen","response_time_instructions_1","response_time_new_keyboard_response_1","round_decimals","sampler_backend","sound_buf_size","sound_channels","sound_freq","sound_sample_size","start","subject_nr","subject_parity","targ_type","target","time_AB_m21","time_ITI","time_blank_screen","time_blink_screen","time_block1","time_break1","time_break2","time_break3_1","time_canvas","time_correct_trigger","time_def_chain","time_end_screen","time_fixation_1","time_getting_started","time_inc_counter","time_incorrect_trigger","time_instructions_1","time_logger","time_logscript","time_new_inline_script","time_new_keyboard_response_1","time_reset_counter_prep","time_reset_counter_run","time_responsescreen","time_sequence","time_start_trigger","time_target_present","time_word_trigger","title","total_correct","total_response_time","total_responses","uniform_coordinates","width","word_trig"
"350","0","0","994","994","black","no","xpyriment","legacy","legacy","0","202","NA","uniform","52138","1000","0.0191798688097","0","undefined","0","0","0","0","0","0","0","0","0","NA","0","0","0","0","NA","0","0","0","0","NA","0","NA","0","0","0","0","0","0","0","0","1","/","10/02/17 13:45:09","The main experiment item","yes","FIN__AB__M21__7%3A10%3A17.osexp","C:\Users\ERP Testing Room\Desktop\Joanna\morph21","no","mono","no","18","no","white","no","yes","1080","legacy","0","0","C:/Users/ERP Testing Room/Desktop/Joanna/morph21/subject-106.csv","xpyriment","Jazzy James","3.1.4","0","None","NA","NA","NA","NA","space","None","994","NA","NA","NA","NA","261649","994","2","legacy","1024","2","48000","-16","AB_m21","106","even","CW_L","PUNCHER","1354","265919","264301","NA","263014","NA","NA","NA","NA","NA","264798","NA","263800","NA","263726","265912","1364","266269","NA","NA","264918","1354","1355","265310","263726","1354","264918","266269","morph21_Oliver/Morris","0","994","1","yes","1280","1"
"200","50","50","785.5","785.5","black","no","xpyriment","legacy","legacy","0","202","NA","uniform","61513","1000","0.0162567262205","1","undefined","1","0","1","1","1","0","1","1","1","NA","1","1","0","1","NA","1","1","0","1","NA","1","NA","1","0","0","1","1","0","1","1","2","/","10/02/17 13:45:09","The main experiment item","yes","FIN__AB__M21__7%3A10%3A17.osexp","C:\Users\ERP Testing Room\Desktop\Joanna\morph21","no","mono","no","18","no","white","no","yes","1080","legacy","1","1","C:/Users/ERP Testing Room/Desktop/Joanna/morph21/subject-106.csv","xpyriment","Jazzy James","3.1.4","0","/","NA","NA","NA","NA","space","/","577","NA","NA","NA","NA","261649","577","2","legacy","1024","2","48000","-16","AB_m21","106","even","CW_L","VERBAL","1354","269269","267661","NA","263014","NA","NA","NA","NA","269264","268158","NA","267161","NA","267154","269264","1364","269469","NA","NA","268269","1354","1355","268669","267153","1354","268269","269469","morph21_Oliver/Morris","1","1571","2","yes","1280","50"
"250","33.3333333333","33.3333333333","726","726","black","no","xpyriment","legacy","legacy","0","204","NA","uniform","64719","1000","0.0154514130317","0","undefined","0","0","2","2","2","0","2","2","2","NA","2","2","0","2","NA","2","2","0","2","NA","2","NA","2","0","0","2","2","0","2","2","3","z","10/02/17 13:45:09","The main experiment item","yes","FIN__AB__M21__7%3A10%3A17.osexp","C:\Users\ERP Testing Room\Desktop\Joanna\morph21","no","mono","no","18","no","white","no","yes","1080","legacy","2","2","C:/Users/ERP Testing Room/Desktop/Joanna/morph21/subject-106.csv","xpyriment","Jazzy James","3.1.4","0","/","NA","NA","NA","NA","space","/","607","NA","NA","NA","NA","261649","607","2","legacy","1024","2","48000","-16","AB_m21","106","even","NW_L_COMP","FREENESS","1354","273828","270719","272319","263014","NA","NA","NA","NA","269264","271216","NA","270219","NA","270209","272314","1364","274078","NA","NA","271319","1354","1355","271719","270209","1354","271319","274078","morph21_Oliver/Morris","1","2178","3","yes","1280","15"
"200","50","50","702","702","black","no","xpyriment","legacy","legacy","0","201","NA","uniform","68395","1000","0.014620951824","1","undefined","1","0","3","3","3","0","3","3","3","NA","3","3","0","3","NA","3","3","0","3","NA","3","NA","3","0","0","3","3","0","3","3","4","/","10/02/17 13:45:09","The main experiment item","yes","FIN__AB__M21__7%3A10%3A17.osexp","C:\Users\ERP Testing Room\Desktop\Joanna\morph21","no","mono","no","18","no","white","no","yes","1080","legacy","3","3","C:/Users/ERP Testing Room/Desktop/Joanna/morph21/subject-106.csv","xpyriment","Jazzy James","3.1.4","0","/","NA","NA","NA","NA","space","/","630","NA","NA","NA","NA","261649","630","2","legacy","1024","2","48000","-16","AB_m21","106","even","CW_S","LOCALLY","1354","276928","275311","272319","263014","NA","NA","NA","NA","276924","275808","NA","274811","NA","274799","276924","1364","277128","NA","NA","275928","1354","1355","276328","274799","1354","275928","277128","morph21_Oliver/Morris","2","2808","4","yes","1280","37"
"350","60","60","694.4","694.4","black","no","xpyriment","legacy","legacy","0","201","NA","uniform","66338","1000","0.0150743163798","1","undefined","1","0","4","4","4","0","4","4","4","NA","4","4","0","4","NA","4","4","0","4","NA","4","NA","4","0","0","4","4","0","4","4","5","/","10/02/17 13:45:09","The main experiment item","yes","FIN__AB__M21__7%3A10%3A17.osexp","C:\Users\ERP Testing Room\Desktop\Joanna\morph21","no","mono","no","18","no","white","no","yes","1080","legacy","4","4","C:/Users/ERP Testing Room/Desktop/Joanna/morph21/subject-106.csv","xpyriment","Jazzy James","3.1.4","0","/","NA","NA","NA","NA","space","/","664","NA","NA","NA","NA","261649","664","2","legacy","1024","2","48000","-16","AB_m21","106","even","CW_S","NEATLY","1354","280061","278453","272319","263014","NA","NA","NA","NA","280056","278950","NA","277953","NA","277949","280056","1364","280411","NA","NA","279061","1354","1355","279461","277949","1354","279061","280411","morph21_Oliver/Morris","3","3472","5","yes","1280","33"
"400","66.6666666667","66.6666666667","719.166666667","719.166666667","black","no","xpyriment","legacy","legacy","0","203","NA","uniform","57690","1000","0.0173340266944","1","undefined","1","0","5","5","5","0","5","5","5","NA","5","5","0","5","NA","5","5","0","5","NA","5","NA","5","0","0","5","5","0","5","5","6","z","10/02/17 13:45:09","The main experiment item","yes","FIN__AB__M21__7%3A10%3A17.osexp","C:\Users\ERP Testing Room\Desktop\Joanna\morph21","no","mono","no","18","no","white","no","yes","1080","legacy","5","5","C:/Users/ERP Testing Room/Desktop/Joanna/morph21/subject-106.csv","xpyriment","Jazzy James","3.1.4","0","z","NA","NA","NA","NA","space","z","843","NA","NA","NA","NA","261649","843","2","legacy","1024","2","48000","-16","AB_m21","106","even","NW_S_COMP","ARIDISM","1354","284888","281795","283379","263014","NA","NA","NA","NA","283371","282292","NA","281295","NA","281291","283371","1364","285288","NA","NA","282378","1354","1355","282770","281291","1354","282378","285288","morph21_Oliver/Morris","4","4315","6","yes","1280","9"
"200","71.4285714286","71.4285714286","735","735","black","no","xpyriment","legacy","legacy","0","204","NA","uniform","61843","1000","0.0161699788173","1","undefined","1","0","6","6","6","0","6","6","6","NA","6","6","0","6","NA","6","6","0","6","NA","6","NA","6","0","0","6","6","0","6","6","7","z","10/02/17 13:45:09","The main experiment item","yes","FIN__AB__M21__7%3A10%3A17.osexp","C:\Users\ERP Testing Room\Desktop\Joanna\morph21","no","mono","no","18","no","white","no","yes","1080","legacy","6","6","C:/Users/ERP Testing Room/Desktop/Joanna/morph21/subject-106.csv","xpyriment","Jazzy James","3.1.4","0","z","NA","NA","NA","NA","space","z","830","NA","NA","NA","NA","261649","830","2","legacy","1024","2","48000","-16","AB_m21","106","even","NW_L_COMP","FLIPORY","1354","288279","286663","283379","263014","NA","NA","NA","NA","288276","287160","NA","286163","NA","286150","288276","1364","288479","NA","NA","287288","1354","1355","287679","286150","1354","287288","288479","morph21_Oliver/Morris","5","5145","7","yes","1280","16"
"400","75","75","705.375","705.375","black","no","xpyriment","legacy","legacy","0","201","NA","uniform","73930","1000","0.0135263086704","1","undefined","1","0","7","7","7","0","7","7","7","NA","7","7","0","7","NA","7","7","0","7","NA","7","NA","7","0","0","7","7","0","7","7","8","/","10/02/17 13:45:09","The main experiment item","yes","FIN__AB__M21__7%3A10%3A17.osexp","C:\Users\ERP Testing Room\Desktop\Joanna\morph21","no","mono","no","18","no","white","no","yes","1080","legacy","7","7","C:/Users/ERP Testing Room/Desktop/Joanna/morph21/subject-106.csv","xpyriment","Jazzy James","3.1.4","0","/","NA","NA","NA","NA","space","/","498","NA","NA","NA","NA","261649","498","2","legacy","1024","2","48000","-16","AB_m21","106","even","CW_S","ALLOWANCE","1354","291396","289788","283379","263014","NA","NA","NA","NA","291387","290285","NA","289280","NA","289269","291387","1364","291796","NA","NA","290396","1354","1355","290788","289269","1354","290396","291796","morph21_Oliver/Morris","6","5643","8","yes","1280","5"
"250","77.7777777778","77.7777777778","696.777777778","696.777777778","black","no","xpyriment","legacy","legacy","0","201","NA","uniform","62210","1000","0.0160745860794","1","undefined","1","0","8","8","8","0","8","8","8","NA","8","8","0","8","NA","8","8","0","8","NA","8","NA","8","0","0","8","8","0","8","8","9","/","10/02/17 13:45:09","The main experiment item","yes","FIN__AB__M21__7%3A10%3A17.osexp","C:\Users\ERP Testing Room\Desktop\Joanna\morph21","no","mono","no","18","no","white","no","yes","1080","legacy","8","8","C:/Users/ERP Testing Room/Desktop/Joanna/morph21/subject-106.csv","xpyriment","Jazzy James","3.1.4","0","/","NA","NA","NA","NA","space","/","628","NA","NA","NA","NA","261649","628","2","legacy","1024","2","48000","-16","AB_m21","106","even","CW_S","PEAKING","1354","296246","293155","294738","263014","NA","NA","NA","NA","294731","293652","NA","292655","NA","292648","294731","1364","296497","NA","NA","293738","1354","1355","294130","292648","1354","293738","296497","morph21_Oliver/Morris","7","6271","9","yes","1280","28"
"300","80","80","695.5","695.5","black","no","xpyriment","legacy","legacy","0","201","NA","uniform","68899","1000","0.0145139987518","1","undefined","1","0","9","9","9","0","9","9","9","NA","9","9","0","9","NA","9","9","0","9","NA","9","NA","9","0","0","9","9","0","9","9","10","/","10/02/17 13:45:09","The main experiment item","yes","FIN__AB__M21__7%3A10%3A17.osexp","C:\Users\ERP Testing Room\Desktop\Joanna\morph21","no","mono","no","18","no","white","no","yes","1080","legacy","9","9","C:/Users/ERP Testing Room/Desktop/Joanna/morph21/subject-106.csv","xpyriment","Jazzy James","3.1.4","0","/","NA","NA","NA","NA","space","/","684","NA","NA","NA","NA","261649","684","2","legacy","1024","2","48000","-16","AB_m21","106","even","CW_S","DETECTABLE","1354","299305","297721","294738","263014","NA","NA","NA","NA","299296","298219","NA","297222","NA","297214","299296","1364","299605","NA","NA","298305","1354","1355","298697","297214","1354","298305","299605","morph21_Oliver/Morris","8","6955","10","yes","1280","1"
"250","81.8181818182","81.8181818182","672.636363636","672.636363636","black","no","xpyriment","legacy","legacy","0","201","NA","uniform","73222","1000","0.0136570975936","1","undefined","1","0","10","10","10","0","10","10","10","NA","10","10","0","10","NA","10","10","0","10","NA","10","NA","10","0","0","10","10","0","10","10","11","/","10/02/17 13:45:09","The main experiment item","yes","FIN__AB__M21__7%3A10%3A17.osexp","C:\Users\ERP Testing Room\Desktop\Joanna\morph21","no","mono","no","18","no","white","no","yes","1080","legacy","10","10","C:/Users/ERP Testing Room/Desktop/Joanna/morph21/subject-106.csv","xpyriment","Jazzy James","3.1.4","0","/","NA","NA","NA","NA","space","/","444","NA","NA","NA","NA","261649","444","2","legacy","1024","2","48000","-16","AB_m21","106","even","CW_S","MOSSY","1354","302506","300914","294738","263014","NA","NA","NA","NA","302498","301411","NA","300413","NA","300402","302498","1364","302756","NA","NA","301506","1354","1355","301898","300402","1354","301506","302756","morph21_Oliver/Morris","9","7399","11","yes","1280","47"
"400","83.3333333333","83.3333333333","661.75","661.75","black","no","xpyriment","legacy","legacy","0","208","NA","uniform","73413","1000","0.0136215656628","1","undefined","1","0","11","11","11","0","11","11","11","NA","11","11","0","11","NA","11","11","0","11","NA","11","NA","11","0","0","11","11","0","11","11","12","z","10/02/17 13:45:09","The main experiment item","yes","FIN__AB__M21__7%3A10%3A17.osexp","C:\Users\ERP Testing Room\Desktop\Joanna\morph21","no","mono","no","18","no","white","no","yes","1080","legacy","11","11","C:/Users/ERP Testing Room/Desktop/Joanna/morph21/subject-106.csv","xpyriment","Jazzy James","3.1.4","0","z","NA","NA","NA","NA","space","z","542","NA","NA","NA","NA","261649","542","2","legacy","1024","2","48000","-16","AB_m21","106","even","FILL_NW","ULNS","1354","307148","304039","305640","263014","NA","NA","NA","NA","305634","304537","NA","303540","NA","303533","305634","1364","307548","NA","NA","304640","1354","1355","305031","303533","1354","304639","307548","morph21_Oliver/Morris","10","7941","12","yes","1280","45"
"350","84.6153846154","84.6153846154","651.307692308","651.307692308","black","no","xpyriment","legacy","legacy","0","202","NA","uniform","67761","1000","0.014757751509","1","undefined","1","0","12","12","12","0","12","12","12","NA","12","12","0","12","NA","12","12","0","12","NA","12","NA","12","0","0","12","12","0","12","12","13","/","10/02/17 13:45:09","The main experiment item","yes","FIN__AB__M21__7%3A10%3A17.osexp","C:\Users\ERP Testing Room\Desktop\Joanna\morph21","no","mono","no","18","no","white","no","yes","1080","legacy","12","12","C:/Users/ERP Testing Room/Desktop/Joanna/morph21/subject-106.csv","xpyriment","Jazzy James","3.1.4","0","/","NA","NA","NA","NA","space","/","526","NA","NA","NA","NA","261649","526","2","legacy","1024","2","48000","-16","AB_m21","106","even","CW_L","BARKER","1354","310440","308823","305640","263014","NA","NA","NA","NA","310431","309320","NA","308323","NA","308318","310431","1364","310790","NA","NA","309440","1354","1355","309831","308318","1354","309440","310790","morph21_Oliver/Morris","11","8467","13","yes","1280","2"
"200","78.5714285714","78.5714285714","675.428571429","675.428571429","black","no","xpyriment","legacy","legacy","0","208","NA","uniform","49852","1000","0.0200593757522","0","undefined","0","0","13","13","13","0","13","13","13","NA","13","13","0","13","NA","13","13","0","13","NA","13","NA","13","0","0","13","13","0","13","13","14","z","10/02/17 13:45:09","The main experiment item","yes","FIN__AB__M21__7%3A10%3A17.osexp","C:\Users\ERP Testing Room\Desktop\Joanna\morph21","no","mono","no","18","no","white","no","yes","1080","legacy","13","13","C:/Users/ERP Testing Room/Desktop/Joanna/morph21/subject-106.csv","xpyriment","Jazzy James","3.1.4","0","None","NA","NA","NA","NA","space","None","989","NA","NA","NA","NA","261649","989","2","legacy","1024","2","48000","-16","AB_m21","106","even","FILL_NW","HESK","1354","313815","312198","305640","263014","NA","NA","NA","NA","310431","312695","NA","311698","NA","311693","313812","1364","314015","NA","NA","312823","1354","1355","313215","311693","1354","312823","314015","morph21_Oliver/Morris","11","9456","14","yes","1280","29"
"400","80","80","684.6","684.6","black","no","xpyriment","legacy","legacy","0","206","NA","uniform","67302","1000","0.0148583994532","1","undefined","1","0","14","14","14","0","14","14","14","NA","14","14","0","14","NA","14","14","0","14","NA","14","NA","14","0","0","14","14","0","14","14","15","z","10/02/17 13:45:09","The main experiment item","yes","FIN__AB__M21__7%3A10%3A17.osexp","C:\Users\ERP Testing Room\Desktop\Joanna\morph21","no","mono","no","18","no","white","no","yes","1080","legacy","14","14","C:/Users/ERP Testing Room/Desktop/Joanna/morph21/subject-106.csv","xpyriment","Jazzy James","3.1.4","0","z","NA","NA","NA","NA","space","z","813","NA","NA","NA","NA","261649","813","2","legacy","1024","2","48000","-16","AB_m21","106","even","NW_L_SIMP","CLASSOES","1354","318341","315248","316832","263014","NA","NA","NA","NA","316825","315745","NA","314748","NA","314737","316825","1364","318741","NA","NA","315832","1354","1355","316223","314737","1354","315832","318741","morph21_Oliver/Morris","12","10269","15","yes","1280","18"
"300","81.25","81.25","691.75","691.75","black","no","xpyriment","legacy","legacy","0","204","NA","uniform","58294","1000","0.017154424126","1","undefined","1","0","15","15","15","0","15","15","15","NA","15","15","0","15","NA","15","15","0","15","NA","15","NA","15","0","0","15","15","0","15","15","16","z","10/02/17 13:45:09","The main experiment item","yes","FIN__AB__M21__7%3A10%3A17.osexp","C:\Users\ERP Testing Room\Desktop\Joanna\morph21","no","mono","no","18","no","white","no","yes","1080","legacy","15","15","C:/Users/ERP Testing Room/Desktop/Joanna/morph21/subject-106.csv","xpyriment","Jazzy James","3.1.4","0","z","NA","NA","NA","NA","space","z","799","NA","NA","NA","NA","261649","799","2","legacy","1024","2","48000","-16","AB_m21","106","even","NW_L_COMP","NORTHIZE","1354","321583","319975","316832","263014","NA","NA","NA","NA","321574","320472","NA","319475","NA","319464","321574","1364","321883","NA","NA","320583","1354","1355","320975","319464","1354","320583","321883","morph21_Oliver/Morris","13","11068","16","yes","1280","20"
"400","82.3529411765","82.3529411765","697.117647059","697.117647059","black","no","xpyriment","legacy","legacy","0","206","NA","uniform","60218","1000","0.0166063303331","1","undefined","1","0","16","16","16","0","16","16","16","NA","16","16","0","16","NA","16","16","0","16","NA","16","NA","16","0","0","16","16","0","16","16","17","z","10/02/17 13:45:09","The main experiment item","yes","FIN__AB__M21__7%3A10%3A17.osexp","C:\Users\ERP Testing Room\Desktop\Joanna\morph21","no","mono","no","18","no","white","no","yes","1080","legacy","16","16","C:/Users/ERP Testing Room/Desktop/Joanna/morph21/subject-106.csv","xpyriment","Jazzy James","3.1.4","0","z","NA","NA","NA","NA","space","z","783","NA","NA","NA","NA","261649","783","2","legacy","1024","2","48000","-16","AB_m21","106","even","NW_L_SIMP","BLOODEL","1354","324791","323200","316832","263014","NA","NA","NA","NA","324788","323697","NA","322700","NA","322695","324788","1364","325191","NA","NA","323791","1354","1355","324191","322695","1354","323791","325191","morph21_Oliver/Morris","14","11851","17","yes","1280","24"
"300","77.7777777778","77.7777777778","695.277777778","695.277777778","black","no","xpyriment","legacy","legacy","0","204","NA","uniform","69362","1000","0.0144171160001","0","undefined","0","0","17","17","17","0","17","17","17","NA","17","17","0","17","NA","17","17","0","17","NA","17","NA","17","0","0","17","17","0","17","17","18","z","10/02/17 13:45:09","The main experiment item","yes","FIN__AB__M21__7%3A10%3A17.osexp","C:\Users\ERP Testing Room\Desktop\Joanna\morph21","no","mono","no","18","no","white","no","yes","1080","legacy","17","17","C:/Users/ERP Testing Room/Desktop/Joanna/morph21/subject-106.csv","xpyriment","Jazzy James","3.1.4","0","/","NA","NA","NA","NA","space","/","664","NA","NA","NA","NA","261649","664","2","legacy","1024","2","48000","-16","AB_m21","106","even","NW_L_COMP","EMPLOYNESS","1354","329667","326541","328158","263014","NA","NA","NA","NA","324788","327039","NA","326041","NA","326036","328151","1364","329967","NA","NA","327158","1354","1355","327550","326036","1354","327158","329967","morph21_Oliver/Morris","14","12515","18","yes","1280","21"
"200","78.9473684211","78.9473684211","699","699","black","no","xpyriment","legacy","legacy","0","202","NA","uniform","67447","1000","0.0148264563287","1","undefined","1","0","18","18","18","0","18","18","18","NA","18","18","0","18","NA","18","18","0","18","NA","18","NA","18","0","0","18","18","0","18","18","19","/","10/02/17 13:45:09","The main experiment item","yes","FIN__AB__M21__7%3A10%3A17.osexp","C:\Users\ERP Testing Room\Desktop\Joanna\morph21","no","mono","no","18","no","white","no","yes","1080","legacy","18","18","C:/Users/ERP Testing Room/Desktop/Joanna/morph21/subject-106.csv","xpyriment","Jazzy James","3.1.4","0","/","NA","NA","NA","NA","space","/","766","NA","NA","NA","NA","261649","766","2","legacy","1024","2","48000","-16","AB_m21","106","even","CW_L","BOOTLESS","1354","332775","331192","328158","263014","NA","NA","NA","NA","332765","331689","NA","330692","NA","330685","332765","1364","332975","NA","NA","331775","1354","1355","332167","330685","1354","331775","332975","morph21_Oliver/Morris","15","13281","19","yes","1280","32"
"400","80","80","702.35","702.35","black","no","xpyriment","legacy","legacy","0","202","NA","uniform","66489","1000","0.015040081818","1","undefined","1","0","19","19","19","0","19","19","19","NA","19","19","0","19","NA","19","19","0","19","NA","19","NA","19","0","0","19","19","0","19","19","20","/","10/02/17 13:45:09","The main experiment item","yes","FIN__AB__M21__7%3A10%3A17.osexp","C:\Users\ERP Testing Room\Desktop\Joanna\morph21","no","mono","no","18","no","white","no","yes","1080","legacy","19","19","C:/Users/ERP Testing Room/Desktop/Joanna/morph21/subject-106.csv","xpyriment","Jazzy James","3.1.4","0","/","NA","NA","NA","NA","space","/","766","NA","NA","NA","NA","261649","766","2","legacy","1024","2","48000","-16","AB_m21","106","even","CW_L","SPELLER","1354","335776","334192","328158","263014","NA","NA","NA","NA","335770","334689","NA","333684","NA","333676","335770","1364","336176","NA","NA","334775","1354","1355","335175","333676","1354","334775","336176","morph21_Oliver/Morris","16","14047","20","yes","1280","3"
"300","80.9523809524","80.9523809524","711.428571429","711.428571429","black","no","xpyriment","legacy","legacy","0","206","NA","uniform","61008","1000","0.0163912929452","1","undefined","1","0","20","20","20","0","20","20","20","NA","20","20","0","20","NA","20","20","0","20","NA","20","NA","20","0","0","20","20","0","20","20","21","z","10/02/17 13:45:09","The main experiment item","yes","FIN__AB__M21__7%3A10%3A17.osexp","C:\Users\ERP Testing Room\Desktop\Joanna\morph21","no","mono","no","18","no","white","no","yes","1080","legacy","20","20","C:/Users/ERP Testing Room/Desktop/Joanna/morph21/subject-106.csv","xpyriment","Jazzy James","3.1.4","0","z","NA","NA","NA","NA","space","z","893","NA","NA","NA","NA","261649","893","2","legacy","1024","2","48000","-16","AB_m21","106","even","NW_L_SIMP","BEGENGE","1354","340702","337610","339193","263014","NA","NA","NA","NA","339190","338107","NA","337110","NA","337105","339190","1364","341002","NA","NA","338201","1354","1355","338593","337105","1354","338201","341002","morph21_Oliver/Morris","17","14940","21","yes","1280","4"
"250","81.8181818182","81.8181818182","705.681818182","705.681818182","black","no","xpyriment","legacy","legacy","0","201","NA","uniform","73390","1000","0.0136258345824","1","undefined","1","0","21","21","21","0","21","21","21","NA","21","21","0","21","NA","21","21","0","21","NA","21","NA","21","0","0","21","21","0","21","21","22","/","10/02/17 13:45:09","The main experiment item","yes","FIN__AB__M21__7%3A10%3A17.osexp","C:\Users\ERP Testing Room\Desktop\Joanna\morph21","no","mono","no","18","no","white","no","yes","1080","legacy","21","21","C:/Users/ERP Testing Room/Desktop/Joanna/morph21/subject-106.csv","xpyriment","Jazzy James","3.1.4","0","/","NA","NA","NA","NA","space","/","585","NA","NA","NA","NA","261649","585","2","legacy","1024","2","48000","-16","AB_m21","106","even","CW_S","TOSSING","1354","343885","342302","339193","263014","NA","NA","NA","NA","343882","342799","NA","341802","NA","341798","343882","1364","344135","NA","NA","342893","1354","1355","343285","341798","1354","342893","344135","morph21_Oliver/Morris","18","15525","22","yes","1280","26"
"300","78.2608695652","78.2608695652","718.173913043","718.173913043","black","no","xpyriment","legacy","legacy","0","205","NA","uniform","61575","1000","0.0162403572879","0","undefined","0","0","22","22","22","0","22","22","22","NA","22","22","0","22","NA","22","22","0","22","NA","22","NA","22","0","0","22","22","0","22","22","23","z","10/02/17 13:45:09","The main experiment item","yes","FIN__AB__M21__7%3A10%3A17.osexp","C:\Users\ERP Testing Room\Desktop\Joanna\morph21","no","mono","no","18","no","white","no","yes","1080","legacy","22","22","C:/Users/ERP Testing Room/Desktop/Joanna/morph21/subject-106.csv","xpyriment","Jazzy James","3.1.4","0","None","NA","NA","NA","NA","space","None","993","NA","NA","NA","NA","261649","993","2","legacy","1024","2","48000","-16","AB_m21","106","even","NW_S_SIMP","TILTADY","1354","347052","345427","339193","263014","NA","NA","NA","NA","343882","345924","NA","344927","NA","344920","347045","1364","347352","NA","NA","346052","1354","1355","346443","344920","1354","346052","347352","morph21_Oliver/Morris","18","16518","23","yes","1280","17"
"300","75","75","729.583333333","729.583333333","black","no","xpyriment","legacy","legacy","0","202","NA","uniform","47489","1000","0.0210575080545","0","undefined","0","0","23","23","23","0","23","23","23","NA","23","23","0","23","NA","23","23","0","23","NA","23","NA","23","0","0","23","23","0","23","23","24","/","10/02/17 13:45:09","The main experiment item","yes","FIN__AB__M21__7%3A10%3A17.osexp","C:\Users\ERP Testing Room\Desktop\Joanna\morph21","no","mono","no","18","no","white","no","yes","1080","legacy","23","23","C:/Users/ERP Testing Room/Desktop/Joanna/morph21/subject-106.csv","xpyriment","Jazzy James","3.1.4","0","None","NA","NA","NA","NA","space","None","992","NA","NA","NA","NA","261649","992","2","legacy","1024","2","48000","-16","AB_m21","106","even","CW_L","WEEDY","1354","351777","348652","350269","263014","NA","NA","NA","NA","343882","349149","NA","348143","NA","348137","350261","1364","352077","NA","NA","349269","1354","1355","349660","348137","1354","349269","352077","morph21_Oliver/Morris","18","17510","24","yes","1280","48"
"200","76","76","720.08","720.08","black","no","xpyriment","legacy","legacy","0","207","NA","uniform","70228","1000","0.0142393347383","1","undefined","1","0","24","24","24","0","24","24","24","NA","24","24","0","24","NA","24","24","0","24","NA","24","NA","24","0","0","24","24","0","24","24","25","/","10/02/17 13:45:09","The main experiment item","yes","FIN__AB__M21__7%3A10%3A17.osexp","C:\Users\ERP Testing Room\Desktop\Joanna\morph21","no","mono","no","18","no","white","no","yes","1080","legacy","24","24","C:/Users/ERP Testing Room/Desktop/Joanna/morph21/subject-106.csv","xpyriment","Jazzy James","3.1.4","0","/","NA","NA","NA","NA","space","/","492","NA","NA","NA","NA","261649","492","2","legacy","1024","2","48000","-16","AB_m21","106","even","FILL_W","OLD","1354","354961","353345","350269","263014","NA","NA","NA","NA","354953","353842","NA","352844","NA","352837","354953","1364","355162","NA","NA","353962","1354","1355","354353","352837","1354","353961","355162","morph21_Oliver/Morris","19","18002","25","yes","1280","44"
"250","76.9230769231","76.9230769231","712.538461538","712.538461538","black","no","xpyriment","legacy","legacy","0","201","NA","uniform","74073","1000","0.0135001957528","1","undefined","1","0","25","25","25","0","25","25","25","NA","25","25","0","25","NA","25","25","0","25","NA","25","NA","25","0","0","25","25","0","25","25","26","/","10/02/17 13:45:09","The main experiment item","yes","FIN__AB__M21__7%3A10%3A17.osexp","C:\Users\ERP Testing Room\Desktop\Joanna\morph21","no","mono","no","18","no","white","no","yes","1080","legacy","25","25","C:/Users/ERP Testing Room/Desktop/Joanna/morph21/subject-106.csv","xpyriment","Jazzy James","3.1.4","0","/","NA","NA","NA","NA","space","/","524","NA","NA","NA","NA","261649","524","2","legacy","1024","2","48000","-16","AB_m21","106","even","CW_S","GRIMLY","1354","357962","356370","350269","263014","NA","NA","NA","NA","357957","356867","NA","355870","NA","355861","357957","1364","358212","NA","NA","356962","1354","1355","357361","355861","1354","356962","358212","morph21_Oliver/Morris","20","18526","26","yes","1280","31"
"350","77.7777777778","77.7777777778","708.296296296","708.296296296","black","no","xpyriment","legacy","legacy","0","207","NA","uniform","65222","1000","0.0153322498543","1","undefined","1","0","26","26","26","0","26","26","26","NA","26","26","0","26","NA","26","26","0","26","NA","26","NA","26","0","0","26","26","0","26","26","27","/","10/02/17 13:45:09","The main experiment item","yes","FIN__AB__M21__7%3A10%3A17.osexp","C:\Users\ERP Testing Room\Desktop\Joanna\morph21","no","mono","no","18","no","white","no","yes","1080","legacy","26","26","C:/Users/ERP Testing Room/Desktop/Joanna/morph21/subject-106.csv","xpyriment","Jazzy James","3.1.4","0","/","NA","NA","NA","NA","space","/","598","NA","NA","NA","NA","261649","598","2","legacy","1024","2","48000","-16","AB_m21","106","even","FILL_W","FAINT","1354","362637","359545","361128","263014","NA","NA","NA","NA","361123","360042","NA","359045","NA","359034","361123","1364","362987","NA","NA","360128","1354","1355","360520","359034","1354","360128","362987","morph21_Oliver/Morris","21","19124","27","yes","1280","31"
"350","78.5714285714","78.5714285714","701.5","701.5","black","no","xpyriment","legacy","legacy","0","207","NA","uniform","70002","1000","0.0142853061341","1","undefined","1","0","27","27","27","0","27","27","27","NA","27","27","0","27","NA","27","27","0","27","NA","27","NA","27","0","0","27","27","0","27","27","28","/","10/02/17 13:45:09","The main experiment item","yes","FIN__AB__M21__7%3A10%3A17.osexp","C:\Users\ERP Testing Room\Desktop\Joanna\morph21","no","mono","no","18","no","white","no","yes","1080","legacy","27","27","C:/Users/ERP Testing Room/Desktop/Joanna/morph21/subject-106.csv","xpyriment","Jazzy James","3.1.4","0","/","NA","NA","NA","NA","space","/","518","NA","NA","NA","NA","261649","518","2","legacy","1024","2","48000","-16","AB_m21","106","even","FILL_W","FOLLOW","1354","365912","364303","361128","263014","NA","NA","NA","NA","365908","364801","NA","363803","NA","363796","365908","1364","366262","NA","NA","364912","1354","1355","365312","363796","1354","364912","366262","morph21_Oliver/Morris","22","19642","28","yes","1280","17"
"300","79.3103448276","79.3103448276","703.275862069","703.275862069","black","no","xpyriment","legacy","legacy","0","208","NA","uniform","63517","1000","0.015743816616","1","undefined","1","0","28","28","28","0","28","28","28","NA","28","28","0","28","NA","28","28","0","28","NA","28","NA","28","0","0","28","28","0","28","28","29","z","10/02/17 13:45:09","The main experiment item","yes","FIN__AB__M21__7%3A10%3A17.osexp","C:\Users\ERP Testing Room\Desktop\Joanna\morph21","no","mono","no","18","no","white","no","yes","1080","legacy","28","28","C:/Users/ERP Testing Room/Desktop/Joanna/morph21/subject-106.csv","xpyriment","Jazzy James","3.1.4","0","z","NA","NA","NA","NA","space","z","753","NA","NA","NA","NA","261649","753","2","legacy","1024","2","48000","-16","AB_m21","106","even","FILL_NW","VOGS","1354","369212","367604","361128","263014","NA","NA","NA","NA","369202","368101","NA","367104","NA","367095","369202","1364","369512","NA","NA","368212","1354","1355","368604","367095","1354","368212","369512","morph21_Oliver/Morris","23","20395","29","yes","1280","47"
"350","80","80","696.666666667","696.666666667","black","no","xpyriment","legacy","legacy","0","202","NA","uniform","64529","1000","0.0154969083668","1","undefined","1","0","29","29","29","0","29","29","29","NA","29","29","0","29","NA","29","29","0","29","NA","29","NA","29","0","0","29","29","0","29","29","30","/","10/02/17 13:45:09","The main experiment item","yes","FIN__AB__M21__7%3A10%3A17.osexp","C:\Users\ERP Testing Room\Desktop\Joanna\morph21","no","mono","no","18","no","white","no","yes","1080","legacy","29","29","C:/Users/ERP Testing Room/Desktop/Joanna/morph21/subject-106.csv","xpyriment","Jazzy James","3.1.4","0","/","NA","NA","NA","NA","space","/","505","NA","NA","NA","NA","261649","505","2","legacy","1024","2","48000","-16","AB_m21","106","even","CW_L","HUNTER","1354","373922","370813","372413","263014","NA","NA","NA","NA","372404","371310","NA","370312","NA","370303","372404","1364","374272","NA","NA","371413","1354","1355","371805","370303","1354","371413","374272","morph21_Oliver/Morris","24","20900","30","yes","1280","10"
"200","80.6451612903","80.6451612903","687.709677419","687.709677419","black","no","xpyriment","legacy","legacy","0","207","NA","uniform","72749","1000","0.0137458934143","1","undefined","1","0","30","30","30","0","30","30","30","NA","30","30","0","30","NA","30","30","0","30","NA","30","NA","30","0","0","30","30","0","30","30","31","/","10/02/17 13:45:09","The main experiment item","yes","FIN__AB__M21__7%3A10%3A17.osexp","C:\Users\ERP Testing Room\Desktop\Joanna\morph21","no","mono","no","18","no","white","no","yes","1080","legacy","30","30","C:/Users/ERP Testing Room/Desktop/Joanna/morph21/subject-106.csv","xpyriment","Jazzy James","3.1.4","0","/","NA","NA","NA","NA","space","/","419","NA","NA","NA","NA","261649","419","2","legacy","1024","2","48000","-16","AB_m21","106","even","FILL_W","SAVE","1354","377155","375572","372413","263014","NA","NA","NA","NA","377147","376069","NA","375072","NA","375062","377147","1364","377355","NA","NA","376155","1354","1355","376547","375062","1354","376155","377355","morph21_Oliver/Morris","25","21319","31","yes","1280","46"
"350","81.25","81.25","685.6875","685.6875","black","no","xpyriment","legacy","legacy","0","207","NA","uniform","74849","1000","0.0133602319336","1","undefined","1","0","31","31","31","0","31","31","31","NA","31","31","0","31","NA","31","31","0","31","NA","31","NA","31","0","0","31","31","0","31","31","32","/","10/02/17 13:45:09","The main experiment item","yes","FIN__AB__M21__7%3A10%3A17.osexp","C:\Users\ERP Testing Room\Desktop\Joanna\morph21","no","mono","no","18","no","white","no","yes","1080","legacy","31","31","C:/Users/ERP Testing Room/Desktop/Joanna/morph21/subject-106.csv","xpyriment","Jazzy James","3.1.4","0","/","NA","NA","NA","NA","space","/","623","NA","NA","NA","NA","261649","623","2","legacy","1024","2","48000","-16","AB_m21","106","even","FILL_W","BRISK","1354","380255","378664","372413","263014","NA","NA","NA","NA","380246","379161","NA","378164","NA","378152","380246","1364","380605","NA","NA","379255","1354","1355","379647","378152","1354","379255","380605","morph21_Oliver/Morris","26","21942","32","yes","1280","8"
"250","81.8181818182","81.8181818182","683.848484848","683.848484848","black","no","xpyriment","legacy","legacy","0","202","NA","uniform","73146","1000","0.0136712875619","1","undefined","1","0","32","32","32","0","32","32","32","NA","32","32","0","32","NA","32","32","0","32","NA","32","NA","32","0","0","32","32","0","32","32","33","/","10/02/17 13:45:09","The main experiment item","yes","FIN__AB__M21__7%3A10%3A17.osexp","C:\Users\ERP Testing Room\Desktop\Joanna\morph21","no","mono","no","18","no","white","no","yes","1080","legacy","32","32","C:/Users/ERP Testing Room/Desktop/Joanna/morph21/subject-106.csv","xpyriment","Jazzy James","3.1.4","0","/","NA","NA","NA","NA","space","/","625","NA","NA","NA","NA","261649","625","2","legacy","1024","2","48000","-16","AB_m21","106","even","CW_L","EXCITEMENT","1354","385064","381947","383555","263014","NA","NA","NA","NA","383553","382444","NA","381447","NA","381439","383553","1364","385314","NA","NA","382564","1354","1355","382955","381439","1354","382564","385314","morph21_Oliver/Morris","27","22567","33","yes","1280","38"
"400","82.3529411765","82.3529411765","677.882352941","677.882352941","black","no","xpyriment","legacy","legacy","0","202","NA","uniform","77807","1000","0.0128523140591","1","undefined","1","0","33","33","33","0","33","33","33","NA","33","33","0","33","NA","33","33","0","33","NA","33","NA","33","0","0","33","33","0","33","33","34","/","10/02/17 13:45:09","The main experiment item","yes","FIN__AB__M21__7%3A10%3A17.osexp","C:\Users\ERP Testing Room\Desktop\Joanna\morph21","no","mono","no","18","no","white","no","yes","1080","legacy","33","33","C:/Users/ERP Testing Room/Desktop/Joanna/morph21/subject-106.csv","xpyriment","Jazzy James","3.1.4","0","/","NA","NA","NA","NA","space","/","481","NA","NA","NA","NA","261649","481","2","legacy","1024","2","48000","-16","AB_m21","106","even","CW_L","CLEANER","1354","388165","386539","383555","263014","NA","NA","NA","NA","388159","387036","NA","386039","NA","386031","388159","1364","388565","NA","NA","387164","1354","1355","387564","386030","1354","387164","388565","morph21_Oliver/Morris","28","23048","34","yes","1280","15"
"300","82.8571428571","82.8571428571","673.428571429","673.428571429","black","no","xpyriment","legacy","legacy","0","207","NA","uniform","71030","1000","0.0140785583556","1","undefined","1","0","34","34","34","0","34","34","34","NA","34","34","0","34","NA","34","34","0","34","NA","34","NA","34","0","0","34","34","0","34","34","35","/","10/02/17 13:45:09","The main experiment item","yes","FIN__AB__M21__7%3A10%3A17.osexp","C:\Users\ERP Testing Room\Desktop\Joanna\morph21","no","mono","no","18","no","white","no","yes","1080","legacy","34","34","C:/Users/ERP Testing Room/Desktop/Joanna/morph21/subject-106.csv","xpyriment","Jazzy James","3.1.4","0","/","NA","NA","NA","NA","space","/","522","NA","NA","NA","NA","261649","522","2","legacy","1024","2","48000","-16","AB_m21","106","even","FILL_W","MOURN","1354","391548","389965","383555","263014","NA","NA","NA","NA","391542","390462","NA","389465","NA","389454","391542","1364","391848","NA","NA","390548","1354","1355","390940","389453","1354","390548","391848","morph21_Oliver/Morris","29","23570","35","yes","1280","26"
"400","83.3333333333","83.3333333333","669.972222222","669.972222222","black","no","xpyriment","legacy","legacy","0","202","NA","uniform","69646","1000","0.0143583263935","1","undefined","1","0","35","35","35","0","35","35","35","NA","35","35","0","35","NA","35","35","0","35","NA","35","NA","35","0","0","35","35","0","35","35","36","/","10/02/17 13:45:09","The main experiment item","yes","FIN__AB__M21__7%3A10%3A17.osexp","C:\Users\ERP Testing Room\Desktop\Joanna\morph21","no","mono","no","18","no","white","no","yes","1080","legacy","35","35","C:/Users/ERP Testing Room/Desktop/Joanna/morph21/subject-106.csv","xpyriment","Jazzy James","3.1.4","0","/","NA","NA","NA","NA","space","/","549","NA","NA","NA","NA","261649","549","2","legacy","1024","2","48000","-16","AB_m21","106","even","CW_L","DRYNESS","1354","396357","393265","394849","263014","NA","NA","NA","NA","394843","393762","NA","392765","NA","392757","394843","1364","396757","NA","NA","393849","1354","1355","394240","392757","1354","393849","396757","morph21_Oliver/Morris","30","24119","36","yes","1280","42"
"250","83.7837837838","83.7837837838","673.972972973","673.972972973","black","no","xpyriment","legacy","legacy","0","208","NA","uniform","64345","1000","0.0155412230943","1","undefined","1","0","36","36","36","0","36","36","36","NA","36","36","0","36","NA","36","36","0","36","NA","36","NA","36","0","0","36","36","0","36","36","37","z","10/02/17 13:45:09","The main experiment item","yes","FIN__AB__M21__7%3A10%3A17.osexp","C:\Users\ERP Testing Room\Desktop\Joanna\morph21","no","mono","no","18","no","white","no","yes","1080","legacy","36","36","C:/Users/ERP Testing Room/Desktop/Joanna/morph21/subject-106.csv","xpyriment","Jazzy James","3.1.4","0","z","NA","NA","NA","NA","space","z","818","NA","NA","NA","NA","261649","818","2","legacy","1024","2","48000","-16","AB_m21","106","even","FILL_NW","PLAODS","1354","399524","397940","394849","263014","NA","NA","NA","NA","399520","398437","NA","397440","NA","397429","399520","1364","399774","NA","NA","398532","1354","1355","398924","397429","1354","398532","399774","morph21_Oliver/Morris","31","24937","37","yes","1280","37"
"400","84.2105263158","84.2105263158","670.210526316","670.210526316","black","no","xpyriment","legacy","legacy","0","202","NA","uniform","64367","1000","0.0155359112589","1","undefined","1","0","37","37","37","0","37","37","37","NA","37","37","0","37","NA","37","37","0","37","NA","37","NA","37","0","0","37","37","0","37","37","38","/","10/02/17 13:45:09","The main experiment item","yes","FIN__AB__M21__7%3A10%3A17.osexp","C:\Users\ERP Testing Room\Desktop\Joanna\morph21","no","mono","no","18","no","white","no","yes","1080","legacy","37","37","C:/Users/ERP Testing Room/Desktop/Joanna/morph21/subject-106.csv","xpyriment","Jazzy James","3.1.4","0","/","NA","NA","NA","NA","space","/","531","NA","NA","NA","NA","261649","531","2","legacy","1024","2","48000","-16","AB_m21","106","even","CW_L","CONDUCTOR","1354","402691","401107","394849","263014","NA","NA","NA","NA","402683","401604","NA","400607","NA","400603","402683","1364","403091","NA","NA","401691","1354","1355","402082","400603","1354","401691","403091","morph21_Oliver/Morris","32","25468","38","yes","1280","44"
"300","84.6153846154","84.6153846154","670.948717949","670.948717949","black","no","xpyriment","legacy","legacy","0","204","NA","uniform","62748","1000","0.0159367629247","1","undefined","1","0","38","38","38","0","38","38","38","NA","38","38","0","38","NA","38","38","0","38","NA","38","NA","38","0","0","38","38","0","38","38","39","z","10/02/17 13:45:09","The main experiment item","yes","FIN__AB__M21__7%3A10%3A17.osexp","C:\Users\ERP Testing Room\Desktop\Joanna\morph21","no","mono","no","18","no","white","no","yes","1080","legacy","38","38","C:/Users/ERP Testing Room/Desktop/Joanna/morph21/subject-106.csv","xpyriment","Jazzy James","3.1.4","0","z","NA","NA","NA","NA","space","z","699","NA","NA","NA","NA","261649","699","2","legacy","1024","2","48000","-16","AB_m21","106","even","NW_L_COMP","FELLOWOUS","1354","407392","404291","405883","263014","NA","NA","NA","NA","405877","404788","NA","403791","NA","403782","405877","1364","407692","NA","NA","404882","1354","1355","405274","403782","1354","404882","407692","morph21_Oliver/Morris","33","26167","39","yes","1280","17"
"300","85","85","671.55","671.55","black","no","xpyriment","legacy","legacy","0","205","NA","uniform","70162","1000","0.0142527293977","1","undefined","1","0","39","39","39","0","39","39","39","NA","39","39","0","39","NA","39","39","0","39","NA","39","NA","39","0","0","39","39","0","39","39","40","z","10/02/17 13:45:09","The main experiment item","yes","FIN__AB__M21__7%3A10%3A17.osexp","C:\Users\ERP Testing Room\Desktop\Joanna\morph21","no","mono","no","18","no","white","no","yes","1080","legacy","39","39","C:/Users/ERP Testing Room/Desktop/Joanna/morph21/subject-106.csv","xpyriment","Jazzy James","3.1.4","0","z","NA","NA","NA","NA","space","z","695","NA","NA","NA","NA","261649","695","2","legacy","1024","2","48000","-16","AB_m21","106","even","NW_S_SIMP","NEXTNELS","1354","410567","408983","405883","263014","NA","NA","NA","NA","410562","409481","NA","408484","NA","408480","410562","1364","410867","NA","NA","409567","1354","1355","409967","408480","1354","409567","410867","morph21_Oliver/Morris","34","26862","40","yes","1280","9"
"200","85.3658536585","85.3658536585","674.146341463","674.146341463","black","no","xpyriment","legacy","legacy","0","203","NA","uniform","63180","1000","0.0158277936056","1","undefined","1","0","40","40","40","0","40","40","40","NA","40","40","0","40","NA","40","40","0","40","NA","40","NA","40","0","0","40","40","0","40","40","41","z","10/02/17 13:45:09","The main experiment item","yes","FIN__AB__M21__7%3A10%3A17.osexp","C:\Users\ERP Testing Room\Desktop\Joanna\morph21","no","mono","no","18","no","white","no","yes","1080","legacy","40","40","C:/Users/ERP Testing Room/Desktop/Joanna/morph21/subject-106.csv","xpyriment","Jazzy James","3.1.4","0","z","NA","NA","NA","NA","space","z","778","NA","NA","NA","NA","261649","778","2","legacy","1024","2","48000","-16","AB_m21","106","even","NW_S_COMP","MELTANCE","1354","413692","412109","405883","263014","NA","NA","NA","NA","413683","412606","NA","411609","NA","411601","413683","1364","413892","NA","NA","412692","1354","1355","413084","411601","1354","412692","413892","morph21_Oliver/Morris","35","27640","41","yes","1280","1"
"200","85.7142857143","85.7142857143","673.880952381","673.880952381","black","no","xpyriment","legacy","legacy","0","208","NA","uniform","61860","1000","0.0161655350792","1","undefined","1","0","41","41","41","0","41","41","41","NA","41","41","0","41","NA","41","41","0","41","NA","41","NA","41","0","0","41","41","0","41","41","42","z","10/02/17 13:45:09","The main experiment item","yes","FIN__AB__M21__7%3A10%3A17.osexp","C:\Users\ERP Testing Room\Desktop\Joanna\morph21","no","mono","no","18","no","white","no","yes","1080","legacy","41","41","C:/Users/ERP Testing Room/Desktop/Joanna/morph21/subject-106.csv","xpyriment","Jazzy James","3.1.4","0","z","NA","NA","NA","NA","space","z","663","NA","NA","NA","NA","261649","663","2","legacy","1024","2","48000","-16","AB_m21","106","even","FILL_NW","TUEER","1354","418267","415142","416759","263014","NA","NA","NA","NA","416751","415639","NA","414642","NA","414633","416751","1364","418467","NA","NA","415759","1354","1355","416150","414633","1354","415759","418467","morph21_Oliver/Morris","36","28303","42","yes","1280","44"
"400","86.0465116279","86.0465116279","672.511627907","672.511627907","black","no","xpyriment","legacy","legacy","0","207","NA","uniform","66711","1000","0.014990031629","1","undefined","1","0","42","42","42","0","42","42","42","NA","42","42","0","42","NA","42","42","0","42","NA","42","NA","42","0","0","42","42","0","42","42","43","/","10/02/17 13:45:09","The main experiment item","yes","FIN__AB__M21__7%3A10%3A17.osexp","C:\Users\ERP Testing Room\Desktop\Joanna\morph21","no","mono","no","18","no","white","no","yes","1080","legacy","42","42","C:/Users/ERP Testing Room/Desktop/Joanna/morph21/subject-106.csv","xpyriment","Jazzy James","3.1.4","0","/","NA","NA","NA","NA","space","/","615","NA","NA","NA","NA","261649","615","2","legacy","1024","2","48000","-16","AB_m21","106","even","FILL_W","LITHE","1354","421334","419751","416759","263014","NA","NA","NA","NA","421325","420248","NA","419251","NA","419241","421325","1364","421734","NA","NA","420334","1354","1355","420726","419241","1354","420334","421734","morph21_Oliver/Morris","37","28918","43","yes","1280","23"
"400","86.3636363636","86.3636363636","669.295454545","669.295454545","black","no","xpyriment","legacy","legacy","0","202","NA","uniform","76497","1000","0.0130724080683","1","undefined","1","0","43","43","43","0","43","43","43","NA","43","43","0","43","NA","43","43","0","43","NA","43","NA","43","0","0","43","43","0","43","43","44","/","10/02/17 13:45:09","The main experiment item","yes","FIN__AB__M21__7%3A10%3A17.osexp","C:\Users\ERP Testing Room\Desktop\Joanna\morph21","no","mono","no","18","no","white","no","yes","1080","legacy","43","43","C:/Users/ERP Testing Room/Desktop/Joanna/morph21/subject-106.csv","xpyriment","Jazzy James","3.1.4","0","/","NA","NA","NA","NA","space","/","531","NA","NA","NA","NA","261649","531","2","legacy","1024","2","48000","-16","AB_m21","106","even","CW_L","LOCKER","1354","424635","423051","416759","263014","NA","NA","NA","NA","424631","423548","NA","422551","NA","422545","424631","1364","425035","NA","NA","423635","1354","1355","424035","422545","1354","423635","425035","morph21_Oliver/Morris","38","29449","44","yes","1280","8"
"400","86.6666666667","86.6666666667","665.222222222","665.222222222","black","no","xpyriment","legacy","legacy","0","207","NA","uniform","70232","1000","0.0142385237499","1","undefined","1","0","44","44","44","0","44","44","44","NA","44","44","0","44","NA","44","44","0","44","NA","44","NA","44","0","0","44","44","0","44","44","45","/","10/02/17 13:45:09","The main experiment item","yes","FIN__AB__M21__7%3A10%3A17.osexp","C:\Users\ERP Testing Room\Desktop\Joanna\morph21","no","mono","no","18","no","white","no","yes","1080","legacy","44","44","C:/Users/ERP Testing Room/Desktop/Joanna/morph21/subject-106.csv","xpyriment","Jazzy James","3.1.4","0","/","NA","NA","NA","NA","space","/","486","NA","NA","NA","NA","261649","486","2","legacy","1024","2","48000","-16","AB_m21","106","even","FILL_W","DRUNK","1354","429461","426352","427952","263014","NA","NA","NA","NA","427944","426849","NA","425852","NA","425843","427944","1364","429861","NA","NA","426952","1354","1355","427344","425843","1354","426952","429861","morph21_Oliver/Morris","39","29935","45","yes","1280","19"
"250","86.9565217391","86.9565217391","662.173913043","662.173913043","black","no","xpyriment","legacy","legacy","0","201","NA","uniform","71195","1000","0.0140459301917","1","undefined","1","0","45","45","45","0","45","45","45","NA","45","45","0","45","NA","45","45","0","45","NA","45","NA","45","0","0","45","45","0","45","45","46","/","10/02/17 13:45:09","The main experiment item","yes","FIN__AB__M21__7%3A10%3A17.osexp","C:\Users\ERP Testing Room\Desktop\Joanna\morph21","no","mono","no","18","no","white","no","yes","1080","legacy","45","45","C:/Users/ERP Testing Room/Desktop/Joanna/morph21/subject-106.csv","xpyriment","Jazzy James","3.1.4","0","/","NA","NA","NA","NA","space","/","525","NA","NA","NA","NA","261649","525","2","legacy","1024","2","48000","-16","AB_m21","106","even","CW_S","COSTLY","1354","432761","431161","427952","263014","NA","NA","NA","NA","432754","431658","NA","430661","NA","430655","432754","1364","433011","NA","NA","431761","1354","1355","432152","430655","1354","431761","433011","morph21_Oliver/Morris","40","30460","46","yes","1280","36"
"300","87.2340425532","87.2340425532","661.553191489","661.553191489","black","no","xpyriment","legacy","legacy","0","205","NA","uniform","76112","1000","0.0131385326887","1","undefined","1","0","46","46","46","0","46","46","46","NA","46","46","0","46","NA","46","46","0","46","NA","46","NA","46","0","0","46","46","0","46","46","47","z","10/02/17 13:45:09","The main experiment item","yes","FIN__AB__M21__7%3A10%3A17.osexp","C:\Users\ERP Testing Room\Desktop\Joanna\morph21","no","mono","no","18","no","white","no","yes","1080","legacy","46","46","C:/Users/ERP Testing Room/Desktop/Joanna/morph21/subject-106.csv","xpyriment","Jazzy James","3.1.4","0","z","NA","NA","NA","NA","space","z","633","NA","NA","NA","NA","261649","633","2","legacy","1024","2","48000","-16","AB_m21","106","even","NW_S_SIMP","HELMETOES","1354","435869","434277","427952","263014","NA","NA","NA","NA","435860","434774","NA","433777","NA","433772","435860","1364","436169","NA","NA","434869","1354","1355","435261","433771","1354","434869","436169","morph21_Oliver/Morris","41","31093","47","yes","1280","14"
"250","87.5","87.5","657","657","black","no","xpyriment","legacy","legacy","0","207","NA","uniform","80787","1000","0.0123782291705","1","undefined","1","0","47","47","47","0","47","47","47","NA","47","47","0","47","NA","47","47","0","47","NA","47","NA","47","0","0","47","47","0","47","47","48","/","10/02/17 13:45:09","The main experiment item","yes","FIN__AB__M21__7%3A10%3A17.osexp","C:\Users\ERP Testing Room\Desktop\Joanna\morph21","no","mono","no","18","no","white","no","yes","1080","legacy","47","47","C:/Users/ERP Testing Room/Desktop/Joanna/morph21/subject-106.csv","xpyriment","Jazzy James","3.1.4","0","/","NA","NA","NA","NA","space","/","443","NA","NA","NA","NA","261649","443","2","legacy","1024","2","48000","-16","AB_m21","106","even","FILL_W","TREAT","1354","440503","437386","438994","263014","NA","NA","NA","NA","438988","437883","NA","436886","NA","436877","438988","1364","440753","NA","NA","437994","1354","1355","438386","436877","1354","437994","440753","morph21_Oliver/Morris","42","31536","48","yes","1280","48"
"400","87.7551020408","87.7551020408","658.857142857","658.857142857","black","no","xpyriment","legacy","legacy","0","204","NA","uniform","71336","1000","0.0140181675451","1","undefined","1","0","48","48","48","0","48","48","48","NA","48","48","0","48","NA","48","48","0","48","NA","48","NA","48","0","0","48","48","0","48","48","49","z","10/02/17 13:45:09","The main experiment item","yes","FIN__AB__M21__7%3A10%3A17.osexp","C:\Users\ERP Testing Room\Desktop\Joanna\morph21","no","mono","no","18","no","white","no","yes","1080","legacy","48","48","C:/Users/ERP Testing Room/Desktop/Joanna/morph21/subject-106.csv","xpyriment","Jazzy James","3.1.4","0","z","NA","NA","NA","NA","space","z","748","NA","NA","NA","NA","261649","748","2","legacy","1024","2","48000","-16","AB_m21","106","even","NW_L_COMP","RIPENCE","1354","443562","441945","438994","263014","NA","NA","NA","NA","443553","442443","NA","441445","NA","441436","443553","1364","443962","NA","NA","442562","1354","1355","442954","441436","1354","442562","443962","morph21_Oliver/Morris","43","32284","49","yes","1280","4"
"400","86","86","664.44","664.44","black","no","xpyriment","legacy","legacy","0","205","NA","uniform","55799","1000","0.0179214681267","0","undefined","0","0","49","49","49","0","49","49","49","NA","49","49","0","49","NA","49","49","0","49","NA","49","NA","49","0","0","49","49","0","49","49","50","z","10/02/17 13:45:09","The main experiment item","yes","FIN__AB__M21__7%3A10%3A17.osexp","C:\Users\ERP Testing Room\Desktop\Joanna\morph21","no","mono","no","18","no","white","no","yes","1080","legacy","49","49","C:/Users/ERP Testing Room/Desktop/Joanna/morph21/subject-106.csv","xpyriment","Jazzy James","3.1.4","0","/","NA","NA","NA","NA","space","/","938","NA","NA","NA","NA","261649","938","2","legacy","1024","2","48000","-16","AB_m21","106","even","NW_S_SIMP","SCHEMENELS","1354","446804","445229","438994","263014","NA","NA","NA","NA","443553","445726","NA","444729","NA","444722","446799","1364","447204","NA","NA","445804","1354","1355","446204","444722","1354","445804","447204","morph21_Oliver/Morris","43","33222","50","yes","1280","15"
"250","86.2745098039","86.2745098039","661.764705882","661.764705882","black","no","xpyriment","legacy","legacy","0","207","NA","uniform","69041","1000","0.014484147101","1","undefined","1","0","50","50","50","0","50","50","50","NA","50","50","0","50","NA","50","50","0","50","NA","50","NA","50","0","0","50","50","0","50","50","51","/","10/02/17 13:45:09","The main experiment item","yes","FIN__AB__M21__7%3A10%3A17.osexp","C:\Users\ERP Testing Room\Desktop\Joanna\morph21","no","mono","no","18","no","white","no","yes","1080","legacy","50","50","C:/Users/ERP Testing Room/Desktop/Joanna/morph21/subject-106.csv","xpyriment","Jazzy James","3.1.4","0","/","NA","NA","NA","NA","space","/","528","NA","NA","NA","NA","261649","528","2","legacy","1024","2","48000","-16","AB_m21","106","even","FILL_W","STARVE","1354","451571","448479","450062","263014","NA","NA","NA","NA","450055","448976","NA","447979","NA","447968","450055","1364","451821","NA","NA","449062","1354","1355","449454","447968","1354","449062","451821","morph21_Oliver/Morris","44","33750","51","yes","1280","15"
"250","86.5384615385","86.5384615385","662.384615385","662.384615385","black","no","xpyriment","legacy","legacy","0","204","NA","uniform","63575","1000","0.0157294534015","1","undefined","1","0","51","51","51","0","51","51","51","NA","51","51","0","51","NA","51","51","0","51","NA","51","NA","51","0","0","51","51","0","51","51","52","z","10/02/17 13:45:09","The main experiment item","yes","FIN__AB__M21__7%3A10%3A17.osexp","C:\Users\ERP Testing Room\Desktop\Joanna\morph21","no","mono","no","18","no","white","no","yes","1080","legacy","51","51","C:/Users/ERP Testing Room/Desktop/Joanna/morph21/subject-106.csv","xpyriment","Jazzy James","3.1.4","0","z","NA","NA","NA","NA","space","z","694","NA","NA","NA","NA","261649","694","2","legacy","1024","2","48000","-16","AB_m21","106","even","NW_L_COMP","BREAKITY","1354","454704","453046","450062","263014","NA","NA","NA","NA","454697","453543","NA","452546","NA","452535","454697","1364","454954","NA","NA","453704","1354","1355","454096","452535","1354","453704","454954","morph21_Oliver/Morris","45","34444","52","yes","1280","23"
"250","86.7924528302","86.7924528302","662.716981132","662.716981132","black","no","xpyriment","legacy","legacy","0","202","NA","uniform","71339","1000","0.0140175780429","1","undefined","1","0","52","52","52","0","52","52","52","NA","52","52","0","52","NA","52","52","0","52","NA","52","NA","52","0","0","52","52","0","52","52","53","/","10/02/17 13:45:09","The main experiment item","yes","FIN__AB__M21__7%3A10%3A17.osexp","C:\Users\ERP Testing Room\Desktop\Joanna\morph21","no","mono","no","18","no","white","no","yes","1080","legacy","52","52","C:/Users/ERP Testing Room/Desktop/Joanna/morph21/subject-106.csv","xpyriment","Jazzy James","3.1.4","0","/","NA","NA","NA","NA","space","/","680","NA","NA","NA","NA","261649","680","2","legacy","1024","2","48000","-16","AB_m21","106","even","CW_L","DREAMER","1354","457821","456213","450062","263014","NA","NA","NA","NA","457814","456710","NA","455713","NA","455707","457814","1364","458071","NA","NA","456821","1354","1355","457213","455707","1354","456821","458071","morph21_Oliver/Morris","46","35124","53","yes","1280","12"
"400","85.1851851852","85.1851851852","658.296296296","658.296296296","black","no","xpyriment","legacy","legacy","0","203","NA","uniform","74574","1000","0.0134094992893","0","undefined","0","0","53","53","53","0","53","53","53","NA","53","53","0","53","NA","53","53","0","53","NA","53","NA","53","0","0","53","53","0","53","53","54","z","10/02/17 13:45:09","The main experiment item","yes","FIN__AB__M21__7%3A10%3A17.osexp","C:\Users\ERP Testing Room\Desktop\Joanna\morph21","no","mono","no","18","no","white","no","yes","1080","legacy","53","53","C:/Users/ERP Testing Room/Desktop/Joanna/morph21/subject-106.csv","xpyriment","Jazzy James","3.1.4","0","/","NA","NA","NA","NA","space","/","424","NA","NA","NA","NA","261649","424","2","legacy","1024","2","48000","-16","AB_m21","106","even","NW_S_COMP","TRUENESS","1354","462522","459414","461014","263014","NA","NA","NA","NA","457814","459911","NA","458906","NA","458896","461005","1364","462922","NA","NA","460014","1354","1355","460405","458896","1354","460014","462922","morph21_Oliver/Morris","46","35548","54","yes","1280","15"
"250","85.4545454545","85.4545454545","654.763636364","654.763636364","black","no","xpyriment","legacy","legacy","0","202","NA","uniform","75235","1000","0.0132916860504","1","undefined","1","0","54","54","54","0","54","54","54","NA","54","54","0","54","NA","54","54","0","54","NA","54","NA","54","0","0","54","54","0","54","54","55","/","10/02/17 13:45:09","The main experiment item","yes","FIN__AB__M21__7%3A10%3A17.osexp","C:\Users\ERP Testing Room\Desktop\Joanna\morph21","no","mono","no","18","no","white","no","yes","1080","legacy","54","54","C:/Users/ERP Testing Room/Desktop/Joanna/morph21/subject-106.csv","xpyriment","Jazzy James","3.1.4","0","/","NA","NA","NA","NA","space","/","464","NA","NA","NA","NA","261649","464","2","legacy","1024","2","48000","-16","AB_m21","106","even","CW_L","LAUGHING","1354","465814","464231","461014","263014","NA","NA","NA","NA","465810","464728","NA","463731","NA","463719","465810","1364","466064","NA","NA","464822","1354","1355","465214","463719","1354","464822","466064","morph21_Oliver/Morris","47","36012","55","yes","1280","27"
"250","85.7142857143","85.7142857143","651.428571429","651.428571429","black","no","xpyriment","legacy","legacy","0","202","NA","uniform","71880","1000","0.0139120756817","1","undefined","1","0","55","55","55","0","55","55","55","NA","55","55","0","55","NA","55","55","0","55","NA","55","NA","55","0","0","55","55","0","55","55","56","/","10/02/17 13:45:09","The main experiment item","yes","FIN__AB__M21__7%3A10%3A17.osexp","C:\Users\ERP Testing Room\Desktop\Joanna\morph21","no","mono","no","18","no","white","no","yes","1080","legacy","55","55","C:/Users/ERP Testing Room/Desktop/Joanna/morph21/subject-106.csv","xpyriment","Jazzy James","3.1.4","0","/","NA","NA","NA","NA","space","/","468","NA","NA","NA","NA","261649","468","2","legacy","1024","2","48000","-16","AB_m21","106","even","CW_L","DEAFNESS","1354","468898","467314","461014","263014","NA","NA","NA","NA","468891","467811","NA","466814","NA","466803","468891","1364","469148","NA","NA","467898","1354","1355","468289","466803","1354","467898","469148","morph21_Oliver/Morris","48","36480","56","yes","1280","39"
"350","85.9649122807","85.9649122807","652.01754386","652.01754386","black","no","xpyriment","legacy","legacy","0","206","NA","uniform","61163","1000","0.0163497539362","1","undefined","1","0","56","56","56","0","56","56","56","NA","56","56","0","56","NA","56","56","0","56","NA","56","NA","56","0","0","56","56","0","56","56","57","z","10/02/17 13:45:09","The main experiment item","yes","FIN__AB__M21__7%3A10%3A17.osexp","C:\Users\ERP Testing Room\Desktop\Joanna\morph21","no","mono","no","18","no","white","no","yes","1080","legacy","56","56","C:/Users/ERP Testing Room/Desktop/Joanna/morph21/subject-106.csv","xpyriment","Jazzy James","3.1.4","0","z","NA","NA","NA","NA","space","z","685","NA","NA","NA","NA","261649","685","2","legacy","1024","2","48000","-16","AB_m21","106","even","NW_L_SIMP","CRITICANGE","1354","473589","470464","472081","263014","NA","NA","NA","NA","472071","470961","NA","469964","NA","469955","472071","1364","473940","NA","NA","471081","1354","1355","471473","469955","1354","471081","473940","morph21_Oliver/Morris","49","37165","57","yes","1280","22"
"400","86.2068965517","86.2068965517","649.034482759","649.034482759","black","no","xpyriment","legacy","legacy","0","202","NA","uniform","76840","1000","0.0130140551796","1","undefined","1","0","57","57","57","0","57","57","57","NA","57","57","0","57","NA","57","57","0","57","NA","57","NA","57","0","0","57","57","0","57","57","58","/","10/02/17 13:45:09","The main experiment item","yes","FIN__AB__M21__7%3A10%3A17.osexp","C:\Users\ERP Testing Room\Desktop\Joanna\morph21","no","mono","no","18","no","white","no","yes","1080","legacy","57","57","C:/Users/ERP Testing Room/Desktop/Joanna/morph21/subject-106.csv","xpyriment","Jazzy James","3.1.4","0","/","NA","NA","NA","NA","space","/","479","NA","NA","NA","NA","261649","479","2","legacy","1024","2","48000","-16","AB_m21","106","even","CW_L","COOLING","1354","476799","475198","472081","263014","NA","NA","NA","NA","476789","475695","NA","474690","NA","474682","476789","1364","477199","NA","NA","475799","1354","1355","476191","474682","1354","475799","477199","morph21_Oliver/Morris","50","37644","58","yes","1280","24"
"250","84.7457627119","84.7457627119","654.93220339","654.93220339","black","no","xpyriment","legacy","legacy","0","207","NA","uniform","53441","1000","0.0187122246964","0","undefined","0","0","58","58","58","0","58","58","58","NA","58","58","0","58","NA","58","58","0","58","NA","58","NA","58","0","0","58","58","0","58","58","59","/","10/02/17 13:45:09","The main experiment item","yes","FIN__AB__M21__7%3A10%3A17.osexp","C:\Users\ERP Testing Room\Desktop\Joanna\morph21","no","mono","no","18","no","white","no","yes","1080","legacy","58","58","C:/Users/ERP Testing Room/Desktop/Joanna/morph21/subject-106.csv","xpyriment","Jazzy James","3.1.4","0","None","NA","NA","NA","NA","space","None","997","NA","NA","NA","NA","261649","997","2","legacy","1024","2","48000","-16","AB_m21","106","even","FILL_W","WEAVE","1354","480082","478491","472081","263014","NA","NA","NA","NA","476789","478988","NA","477991","NA","477982","480079","1364","480332","NA","NA","479082","1354","1355","479482","477982","1354","479082","480332","morph21_Oliver/Morris","50","38641","59","yes","1280","12"
"300","85","85","656.933333333","656.933333333","black","no","xpyriment","legacy","legacy","0","203","NA","uniform","65449","1000","0.0152790722547","1","undefined","1","0","59","59","59","0","59","59","59","NA","59","59","0","59","NA","59","59","0","59","NA","59","NA","59","0","0","59","59","0","59","59","60","z","10/02/17 13:45:09","The main experiment item","yes","FIN__AB__M21__7%3A10%3A17.osexp","C:\Users\ERP Testing Room\Desktop\Joanna\morph21","no","mono","no","18","no","white","no","yes","1080","legacy","59","59","C:/Users/ERP Testing Room/Desktop/Joanna/morph21/subject-106.csv","xpyriment","Jazzy James","3.1.4","0","z","NA","NA","NA","NA","space","z","775","NA","NA","NA","NA","261649","775","2","legacy","1024","2","48000","-16","AB_m21","106","even","NW_S_COMP","CURTITY","1354","484699","481574","483191","263014","NA","NA","NA","NA","483185","482071","NA","481074","NA","481065","483185","1364","484999","NA","NA","482191","1354","1355","482583","481065","1354","482191","484999","morph21_Oliver/Morris","51","39416","60","yes","1280","11"
"300","85.2459016393","85.2459016393","652.983606557","652.983606557","black","no","xpyriment","legacy","legacy","0","207","NA","uniform","74744","1000","0.0133790003211","1","undefined","1","0","60","60","60","0","60","60","60","NA","60","60","0","60","NA","60","60","0","60","NA","60","NA","60","0","0","60","60","0","60","60","61","/","10/02/17 13:45:09","The main experiment item","yes","FIN__AB__M21__7%3A10%3A17.osexp","C:\Users\ERP Testing Room\Desktop\Joanna\morph21","no","mono","no","18","no","white","no","yes","1080","legacy","60","60","C:/Users/ERP Testing Room/Desktop/Joanna/morph21/subject-106.csv","xpyriment","Jazzy James","3.1.4","0","/","NA","NA","NA","NA","space","/","416","NA","NA","NA","NA","261649","416","2","legacy","1024","2","48000","-16","AB_m21","106","even","FILL_W","SICK","1354","487949","486366","483191","263014","NA","NA","NA","NA","487944","486863","NA","485866","NA","485856","487944","1364","488250","NA","NA","486950","1354","1355","487341","485856","1354","486949","488250","morph21_Oliver/Morris","52","39832","61","yes","1280","36"
"350","85.4838709677","85.4838709677","653.774193548","653.774193548","black","no","xpyriment","legacy","legacy","0","208","NA","uniform","71652","1000","0.0139563445542","1","undefined","1","0","61","61","61","0","61","61","61","NA","61","61","0","61","NA","61","61","0","61","NA","61","NA","61","0","0","61","61","0","61","61","62","z","10/02/17 13:45:09","The main experiment item","yes","FIN__AB__M21__7%3A10%3A17.osexp","C:\Users\ERP Testing Room\Desktop\Joanna\morph21","no","mono","no","18","no","white","no","yes","1080","legacy","61","61","C:/Users/ERP Testing Room/Desktop/Joanna/morph21/subject-106.csv","xpyriment","Jazzy James","3.1.4","0","z","NA","NA","NA","NA","space","z","702","NA","NA","NA","NA","261649","702","2","legacy","1024","2","48000","-16","AB_m21","106","even","FILL_NW","JADS","1354","491191","489583","483191","263014","NA","NA","NA","NA","491187","490080","NA","489083","NA","489072","491187","1364","491541","NA","NA","490191","1354","1355","490591","489072","1354","490191","491541","morph21_Oliver/Morris","53","40534","62","yes","1280","31"
"400","84.126984127","84.126984127","659.126984127","659.126984127","black","no","xpyriment","legacy","legacy","0","208","NA","uniform","60817","1000","0.0164427709358","0","undefined","0","0","62","62","62","0","62","62","62","NA","62","62","0","62","NA","62","62","0","62","NA","62","NA","62","0","0","62","62","0","62","62","63","z","10/02/17 13:45:09","The main experiment item","yes","FIN__AB__M21__7%3A10%3A17.osexp","C:\Users\ERP Testing Room\Desktop\Joanna\morph21","no","mono","no","18","no","white","no","yes","1080","legacy","62","62","C:/Users/ERP Testing Room/Desktop/Joanna/morph21/subject-106.csv","xpyriment","Jazzy James","3.1.4","0","None","NA","NA","NA","NA","space","None","991","NA","NA","NA","NA","261649","991","2","legacy","1024","2","48000","-16","AB_m21","106","even","FILL_NW","DROES","1354","495993","492875","494484","263014","NA","NA","NA","NA","491187","493372","NA","492375","NA","492365","494475","1364","496393","NA","NA","493484","1354","1355","493876","492365","1354","493484","496393","morph21_Oliver/Morris","53","41525","63","yes","1280","17"
"200","84.375","84.375","661.609375","661.609375","black","no","xpyriment","legacy","legacy","0","208","NA","uniform","60190","1000","0.0166140554909","1","undefined","1","0","63","63","63","0","63","63","63","NA","63","63","0","63","NA","63","63","0","63","NA","63","NA","63","0","0","63","63","0","63","63","64","z","10/02/17 13:45:09","The main experiment item","yes","FIN__AB__M21__7%3A10%3A17.osexp","C:\Users\ERP Testing Room\Desktop\Joanna\morph21","no","mono","no","18","no","white","no","yes","1080","legacy","63","63","C:/Users/ERP Testing Room/Desktop/Joanna/morph21/subject-106.csv","xpyriment","Jazzy James","3.1.4","0","z","NA","NA","NA","NA","space","z","818","NA","NA","NA","NA","261649","818","2","legacy","1024","2","48000","-16","AB_m21","106","even","FILL_NW","GAIRS","1354","499276","497693","494484","263014","NA","NA","NA","NA","499272","498190","NA","497193","NA","497184","499272","1364","499476","NA","NA","498276","1354","1355","498676","497184","1354","498276","499476","morph21_Oliver/Morris","54","42343","64","yes","1280","23"
"300","83.0769230769","83.0769230769","666.723076923","666.723076923","black","no","xpyriment","legacy","legacy","0","205","NA","uniform","49760","1000","0.0200964630225","0","undefined","0","0","64","64","64","0","64","64","64","NA","64","64","0","64","NA","64","64","0","64","NA","64","NA","64","0","0","64","64","0","64","64","65","z","10/02/17 13:45:09","The main experiment item","yes","FIN__AB__M21__7%3A10%3A17.osexp","C:\Users\ERP Testing Room\Desktop\Joanna\morph21","no","mono","no","18","no","white","no","yes","1080","legacy","64","64","C:/Users/ERP Testing Room/Desktop/Joanna/morph21/subject-106.csv","xpyriment","Jazzy James","3.1.4","0","None","NA","NA","NA","NA","space","None","994","NA","NA","NA","NA","261649","994","2","legacy","1024","2","48000","-16","AB_m21","106","even","NW_S_SIMP","HEIRIG","1354","502443","500851","494484","263014","NA","NA","NA","NA","499272","501348","NA","500351","NA","500345","502437","1364","502743","NA","NA","501443","1354","1355","501834","500345","1354","501443","502743","morph21_Oliver/Morris","54","43337","65","yes","1280","3"
"350","83.3333333333","83.3333333333","666.590909091","666.590909091","black","no","xpyriment","legacy","legacy","0","202","NA","uniform","59107","1000","0.0169184698936","1","undefined","1","0","65","65","65","0","65","65","65","NA","65","65","0","65","NA","65","65","0","65","NA","65","NA","65","0","0","65","65","0","65","65","66","/","10/02/17 13:45:09","The main experiment item","yes","FIN__AB__M21__7%3A10%3A17.osexp","C:\Users\ERP Testing Room\Desktop\Joanna\morph21","no","mono","no","18","no","white","no","yes","1080","legacy","65","65","C:/Users/ERP Testing Room/Desktop/Joanna/morph21/subject-106.csv","xpyriment","Jazzy James","3.1.4","0","/","NA","NA","NA","NA","space","/","658","NA","NA","NA","NA","261649","658","2","legacy","1024","2","48000","-16","AB_m21","106","even","CW_L","SWIMMER","1354","507185","504084","505676","263014","NA","NA","NA","NA","505672","504582","NA","503585","NA","503578","505672","1364","507535","NA","NA","504676","1354","1355","505076","503578","1354","504676","507535","morph21_Oliver/Morris","55","43995","66","yes","1280","5"
"250","82.0895522388","82.0895522388","671.402985075","671.402985075","black","no","xpyriment","legacy","legacy","0","203","NA","uniform","54758","1000","0.0182621717375","0","undefined","0","0","66","66","66","0","66","66","66","NA","66","66","0","66","NA","66","66","0","66","NA","66","NA","66","0","0","66","66","0","66","66","67","z","10/02/17 13:45:09","The main experiment item","yes","FIN__AB__M21__7%3A10%3A17.osexp","C:\Users\ERP Testing Room\Desktop\Joanna\morph21","no","mono","no","18","no","white","no","yes","1080","legacy","66","66","C:/Users/ERP Testing Room/Desktop/Joanna/morph21/subject-106.csv","xpyriment","Jazzy James","3.1.4","0","None","NA","NA","NA","NA","space","None","989","NA","NA","NA","NA","261649","989","2","legacy","1024","2","48000","-16","AB_m21","106","even","NW_S_COMP","LIDARY","1354","510360","508760","505676","263014","NA","NA","NA","NA","505672","509257","NA","508260","NA","508255","510350","1364","510610","NA","NA","509360","1354","1355","509751","508255","1354","509360","510610","morph21_Oliver/Morris","55","44984","67","yes","1280","3"
"250","82.3529411765","82.3529411765","668.102941176","668.102941176","black","no","xpyriment","legacy","legacy","0","207","NA","uniform","76521","1000","0.0130683080462","1","undefined","1","0","67","67","67","0","67","67","67","NA","67","67","0","67","NA","67","67","0","67","NA","67","NA","67","0","0","67","67","0","67","67","68","/","10/02/17 13:45:09","The main experiment item","yes","FIN__AB__M21__7%3A10%3A17.osexp","C:\Users\ERP Testing Room\Desktop\Joanna\morph21","no","mono","no","18","no","white","no","yes","1080","legacy","67","67","C:/Users/ERP Testing Room/Desktop/Joanna/morph21/subject-106.csv","xpyriment","Jazzy James","3.1.4","0","/","NA","NA","NA","NA","space","/","447","NA","NA","NA","NA","261649","447","2","legacy","1024","2","48000","-16","AB_m21","106","even","FILL_W","SOFT","1354","513511","511903","505676","263014","NA","NA","NA","NA","513508","512400","NA","511403","NA","511397","513508","1364","513761","NA","NA","512519","1354","1355","512911","511397","1354","512519","513761","morph21_Oliver/Morris","56","45431","68","yes","1280","43"
"200","82.6086956522","82.6086956522","669.550724638","669.550724638","black","no","xpyriment","legacy","legacy","0","208","NA","uniform","65824","1000","0.0151920272241","1","undefined","1","0","68","68","68","0","68","68","68","NA","68","68","0","68","NA","68","68","0","68","NA","68","NA","68","0","0","68","68","0","68","68","69","z","10/02/17 13:45:09","The main experiment item","yes","FIN__AB__M21__7%3A10%3A17.osexp","C:\Users\ERP Testing Room\Desktop\Joanna\morph21","no","mono","no","18","no","white","no","yes","1080","legacy","68","68","C:/Users/ERP Testing Room/Desktop/Joanna/morph21/subject-106.csv","xpyriment","Jazzy James","3.1.4","0","z","NA","NA","NA","NA","space","z","768","NA","NA","NA","NA","261649","768","2","legacy","1024","2","48000","-16","AB_m21","106","even","FILL_NW","DARM","1354","518186","515094","516678","263014","NA","NA","NA","NA","516671","515591","NA","514594","NA","514584","516671","1364","518386","NA","NA","515678","1354","1355","516069","514584","1354","515678","518386","morph21_Oliver/Morris","57","46199","69","yes","1280","11"
"300","82.8571428571","82.8571428571","667.171428571","667.171428571","black","no","xpyriment","legacy","legacy","0","201","NA","uniform","81353","1000","0.0122921096948","1","undefined","1","0","69","69","69","0","69","69","69","NA","69","69","0","69","NA","69","69","0","69","NA","69","NA","69","0","0","69","69","0","69","69","70","/","10/02/17 13:45:09","The main experiment item","yes","FIN__AB__M21__7%3A10%3A17.osexp","C:\Users\ERP Testing Room\Desktop\Joanna\morph21","no","mono","no","18","no","white","no","yes","1080","legacy","69","69","C:/Users/ERP Testing Room/Desktop/Joanna/morph21/subject-106.csv","xpyriment","Jazzy James","3.1.4","0","/","NA","NA","NA","NA","space","/","503","NA","NA","NA","NA","261649","503","2","legacy","1024","2","48000","-16","AB_m21","106","even","CW_S","GUILTY","1354","521311","519728","516678","263014","NA","NA","NA","NA","521305","520225","NA","519228","NA","519222","521305","1364","521611","NA","NA","520311","1354","1355","520703","519222","1354","520311","521611","morph21_Oliver/Morris","58","46702","70","yes","1280","34"
"300","81.6901408451","81.6901408451","671.690140845","671.690140845","black","no","xpyriment","legacy","legacy","0","204","NA","uniform","57730","1000","0.0173220162827","0","undefined","0","0","70","70","70","0","70","70","70","NA","70","70","0","70","NA","70","70","0","70","NA","70","NA","70","0","0","70","70","0","70","70","71","z","10/02/17 13:45:09","The main experiment item","yes","FIN__AB__M21__7%3A10%3A17.osexp","C:\Users\ERP Testing Room\Desktop\Joanna\morph21","no","mono","no","18","no","white","no","yes","1080","legacy","70","70","C:/Users/ERP Testing Room/Desktop/Joanna/morph21/subject-106.csv","xpyriment","Jazzy James","3.1.4","0","None","NA","NA","NA","NA","space","None","988","NA","NA","NA","NA","261649","988","2","legacy","1024","2","48000","-16","AB_m21","106","even","NW_L_COMP","BINDIC","1354","524445","522870","516678","263014","NA","NA","NA","NA","521305","523367","NA","522370","NA","522361","524441","1364","524745","NA","NA","523453","1354","1355","523845","522361","1354","523453","524745","morph21_Oliver/Morris","58","47690","71","yes","1280","22"
"400","81.9444444444","81.9444444444","670.166666667","670.166666667","black","no","xpyriment","legacy","legacy","0","202","NA","uniform","66102","1000","0.015128135306","1","undefined","1","0","71","71","71","0","71","71","71","NA","71","71","0","71","NA","71","71","0","71","NA","71","NA","71","0","0","71","71","0","71","71","72","/","10/02/17 13:45:09","The main experiment item","yes","FIN__AB__M21__7%3A10%3A17.osexp","C:\Users\ERP Testing Room\Desktop\Joanna\morph21","no","mono","no","18","no","white","no","yes","1080","legacy","71","71","C:/Users/ERP Testing Room/Desktop/Joanna/morph21/subject-106.csv","xpyriment","Jazzy James","3.1.4","0","/","NA","NA","NA","NA","space","/","562","NA","NA","NA","NA","261649","562","2","legacy","1024","2","48000","-16","AB_m21","106","even","CW_L","FAITHFUL","1354","529313","526220","527803","263014","NA","NA","NA","NA","527795","526717","NA","525712","NA","525702","527795","1364","529713","NA","NA","526803","1354","1355","527195","525702","1354","526803","529713","morph21_Oliver/Morris","59","48252","72","yes","1280","20"
"350","82.1917808219","82.1917808219","670.863013699","670.863013699","black","no","xpyriment","legacy","legacy","0","208","NA","uniform","65198","1000","0.0153378938004","1","undefined","1","0","72","72","72","0","72","72","72","NA","72","72","0","72","NA","72","72","0","72","NA","72","NA","72","0","0","72","72","0","72","72","73","z","10/02/17 13:45:09","The main experiment item","yes","FIN__AB__M21__7%3A10%3A17.osexp","C:\Users\ERP Testing Room\Desktop\Joanna\morph21","no","mono","no","18","no","white","no","yes","1080","legacy","72","72","C:/Users/ERP Testing Room/Desktop/Joanna/morph21/subject-106.csv","xpyriment","Jazzy James","3.1.4","0","z","NA","NA","NA","NA","space","z","721","NA","NA","NA","NA","261649","721","2","legacy","1024","2","48000","-16","AB_m21","106","even","FILL_NW","DASP","1354","532621","531013","527803","263014","NA","NA","NA","NA","532613","531510","NA","530513","NA","530508","532613","1364","532971","NA","NA","531621","1354","1355","532013","530508","1354","531621","532971","morph21_Oliver/Morris","60","48973","73","yes","1280","13"
"300","81.0810810811","81.0810810811","671.324324324","671.324324324","black","no","xpyriment","legacy","legacy","0","204","NA","uniform","63577","1000","0.0157289585857","0","undefined","0","0","73","73","73","0","73","73","73","NA","73","73","0","73","NA","73","73","0","73","NA","73","NA","73","0","0","73","73","0","73","73","74","z","10/02/17 13:45:09","The main experiment item","yes","FIN__AB__M21__7%3A10%3A17.osexp","C:\Users\ERP Testing Room\Desktop\Joanna\morph21","no","mono","no","18","no","white","no","yes","1080","legacy","73","73","C:/Users/ERP Testing Room/Desktop/Joanna/morph21/subject-106.csv","xpyriment","Jazzy James","3.1.4","0","/","NA","NA","NA","NA","space","/","705","NA","NA","NA","NA","261649","705","2","legacy","1024","2","48000","-16","AB_m21","106","even","NW_L_COMP","ILLIST","1354","535821","534238","527803","263014","NA","NA","NA","NA","532613","534735","NA","533730","NA","533722","535812","1364","536121","NA","NA","534821","1354","1355","535213","533722","1354","534821","536121","morph21_Oliver/Morris","60","49678","74","yes","1280","9"
"400","81.3333333333","81.3333333333","670.106666667","670.106666667","black","no","xpyriment","legacy","legacy","0","201","NA","uniform","71747","1000","0.0139378649978","undefined","undefined","1","0","74","74","74","0","74","74","74","NA","74","74","0","74","NA","74","74","0","74","NA","74","NA","74","0","0","74","74","0","74","74","75","/","10/02/17 13:45:09","The main experiment item","yes","FIN__AB__M21__7%3A10%3A17.osexp","C:\Users\ERP Testing Room\Desktop\Joanna\morph21","no","mono","no","18","no","white","no","yes","1080","legacy","74","74","C:/Users/ERP Testing Room/Desktop/Joanna/morph21/subject-106.csv","xpyriment","Jazzy James","3.1.4","0","space","space","NA","NA","NA","space","/","57695","57695","NA","NA","NA","261649","580","2","legacy","1024","2","48000","-16","AB_m21","106","even","CW_S","DESIGN","1354","540455","537363","538946","263014","540863","NA","NA","NA","538942","537860","NA","536863","NA","536853","538942","1364","598560","NA","NA","537946","1354","1355","538346","536853","1354","537946","540855","morph21_Oliver/Morris","61","50258","75","yes","1280","19"
"300","81.5789473684","81.5789473684","671.513157895","671.513157895","black","no","xpyriment","legacy","legacy","0","203","NA","uniform","63089","1000","0.015850623722","1","undefined","1","0","75","75","75","0","75","75","75","NA","75","75","0","75","NA","75","75","0","75","NA","75","NA","75","0","0","75","75","0","75","75","76","z","10/02/17 13:45:09","The main experiment item","yes","FIN__AB__M21__7%3A10%3A17.osexp","C:\Users\ERP Testing Room\Desktop\Joanna\morph21","no","mono","no","18","no","white","no","yes","1080","legacy","75","75","C:/Users/ERP Testing Room/Desktop/Joanna/morph21/subject-106.csv","xpyriment","Jazzy James","3.1.4","0","z","space","NA","NA","NA","space","z","777","57695","NA","NA","NA","261649","777","2","legacy","1024","2","48000","-16","AB_m21","106","even","NW_S_COMP","FIGER","1354","601437","599828","538946","263014","540863","NA","NA","NA","601428","600325","NA","599328","NA","599320","601428","1364","601737","NA","NA","600437","1354","1355","600828","599320","1354","600436","601737","morph21_Oliver/Morris","62","51035","76","yes","1280","4"
"350","81.8181818182","81.8181818182","671.311688312","671.311688312","black","no","xpyriment","legacy","legacy","0","206","NA","uniform","67328","1000","0.014852661597","1","undefined","1","0","76","76","76","0","76","76","76","NA","76","76","0","76","NA","76","76","0","76","NA","76","NA","76","0","0","76","76","0","76","76","77","z","10/02/17 13:45:09","The main experiment item","yes","FIN__AB__M21__7%3A10%3A17.osexp","C:\Users\ERP Testing Room\Desktop\Joanna\morph21","no","mono","no","18","no","white","no","yes","1080","legacy","76","76","C:/Users/ERP Testing Room/Desktop/Joanna/morph21/subject-106.csv","xpyriment","Jazzy James","3.1.4","0","z","space","NA","NA","NA","space","z","656","57695","NA","NA","NA","261649","656","2","legacy","1024","2","48000","-16","AB_m21","106","even","NW_L_SIMP","HABITIG","1354","604662","603053","538946","263014","540863","NA","NA","NA","604651","603550","NA","602553","NA","602543","604651","1364","605012","NA","NA","603662","1354","1355","604053","602543","1354","603662","605012","morph21_Oliver/Morris","63","51691","77","yes","1280","7"
"350","82.0512820513","82.0512820513","669.730769231","669.730769231","black","no","xpyriment","legacy","legacy","0","201","NA","uniform","75446","1000","0.0132545131617","1","undefined","1","0","77","77","77","0","77","77","77","NA","77","77","0","77","NA","77","77","0","77","NA","77","NA","77","0","0","77","77","0","77","77","78","/","10/02/17 13:45:09","The main experiment item","yes","FIN__AB__M21__7%3A10%3A17.osexp","C:\Users\ERP Testing Room\Desktop\Joanna\morph21","no","mono","no","18","no","white","no","yes","1080","legacy","77","77","C:/Users/ERP Testing Room/Desktop/Joanna/morph21/subject-106.csv","xpyriment","Jazzy James","3.1.4","0","/","space","NA","NA","NA","space","/","548","57695","NA","NA","NA","261649","548","2","legacy","1024","2","48000","-16","AB_m21","106","even","CW_S","BOSSY","1354","609479","606387","607970","263014","540863","NA","NA","NA","607963","606884","NA","605887","NA","605880","607963","1364","609829","NA","NA","606970","1354","1355","607362","605879","1354","606970","609829","morph21_Oliver/Morris","64","52239","78","yes","1280","49"
"350","82.2784810127","82.2784810127","669.974683544","669.974683544","black","no","xpyriment","legacy","legacy","0","208","NA","uniform","64891","1000","0.0154104575365","1","undefined","1","0","78","78","78","0","78","78","78","NA","78","78","0","78","NA","78","78","0","78","NA","78","NA","78","0","0","78","78","0","78","78","79","z","10/02/17 13:45:09","The main experiment item","yes","FIN__AB__M21__7%3A10%3A17.osexp","C:\Users\ERP Testing Room\Desktop\Joanna\morph21","no","mono","no","18","no","white","no","yes","1080","legacy","78","78","C:/Users/ERP Testing Room/Desktop/Joanna/morph21/subject-106.csv","xpyriment","Jazzy James","3.1.4","0","z","space","NA","NA","NA","space","z","689","57695","NA","NA","NA","261649","689","2","legacy","1024","2","48000","-16","AB_m21","106","even","FILL_NW","HEAS","1354","612645","611045","607970","263014","540863","NA","NA","NA","612639","611542","NA","610545","NA","610533","612639","1364","612995","NA","NA","611645","1354","1355","612037","610533","1354","611645","612995","morph21_Oliver/Morris","65","52928","79","yes","1280","26"
"200","82.5","82.5","670.7625","670.7625","black","no","xpyriment","legacy","legacy","0","208","NA","uniform","64643","1000","0.0154695790728","1","undefined","1","0","79","79","79","0","79","79","79","NA","79","79","0","79","NA","79","79","0","79","NA","79","NA","79","0","0","79","79","0","79","79","80","z","10/02/17 13:45:09","The main experiment item","yes","FIN__AB__M21__7%3A10%3A17.osexp","C:\Users\ERP Testing Room\Desktop\Joanna\morph21","no","mono","no","18","no","white","no","yes","1080","legacy","79","79","C:/Users/ERP Testing Room/Desktop/Joanna/morph21/subject-106.csv","xpyriment","Jazzy James","3.1.4","0","z","space","NA","NA","NA","space","z","733","57695","NA","NA","NA","261649","733","2","legacy","1024","2","48000","-16","AB_m21","106","even","FILL_NW","PUCTS","1354","615930","614345","607970","263014","540863","NA","NA","NA","615923","614843","NA","613845","NA","613842","615923","1364","616130","NA","NA","614929","1354","1355","615320","613842","1354","614929","616130","morph21_Oliver/Morris","66","53661","80","yes","1280","40"
"200","82.7160493827","82.7160493827","667.172839506","667.172839506","black","no","xpyriment","legacy","legacy","0","207","NA","uniform","70122","1000","0.0142608596446","1","undefined","1","0","80","80","80","0","80","80","80","NA","80","80","0","80","NA","80","80","0","80","NA","80","NA","80","0","0","80","80","0","80","80","81","/","10/02/17 13:45:09","The main experiment item","yes","FIN__AB__M21__7%3A10%3A17.osexp","C:\Users\ERP Testing Room\Desktop\Joanna\morph21","no","mono","no","18","no","white","no","yes","1080","legacy","80","80","C:/Users/ERP Testing Room/Desktop/Joanna/morph21/subject-106.csv","xpyriment","Jazzy James","3.1.4","0","/","space","NA","NA","NA","space","/","380","57695","NA","NA","NA","261649","380","2","legacy","1024","2","48000","-16","AB_m21","106","even","FILL_W","STALK","1354","620638","617538","619130","263014","540863","NA","NA","NA","619120","618035","NA","617038","NA","617031","619120","1364","620839","NA","NA","618130","1354","1355","618522","617031","1354","618130","620839","morph21_Oliver/Morris","67","54041","81","yes","1280","27"
"300","82.9268292683","82.9268292683","664.829268293","664.829268293","black","no","xpyriment","legacy","legacy","0","201","NA","uniform","79191","1000","0.0126276975919","1","undefined","1","0","81","81","81","0","81","81","81","NA","81","81","0","81","NA","81","81","0","81","NA","81","NA","81","0","0","81","81","0","81","81","82","/","10/02/17 13:45:09","The main experiment item","yes","FIN__AB__M21__7%3A10%3A17.osexp","C:\Users\ERP Testing Room\Desktop\Joanna\morph21","no","mono","no","18","no","white","no","yes","1080","legacy","81","81","C:/Users/ERP Testing Room/Desktop/Joanna/morph21/subject-106.csv","xpyriment","Jazzy James","3.1.4","0","/","space","NA","NA","NA","space","/","475","57695","NA","NA","NA","261649","475","2","legacy","1024","2","48000","-16","AB_m21","106","even","CW_S","MAGICAL","1354","623747","622172","619130","263014","540863","NA","NA","NA","623744","622669","NA","621672","NA","621661","623744","1364","624047","NA","NA","622755","1354","1355","623147","621661","1354","622755","624047","morph21_Oliver/Morris","68","54516","82","yes","1280","4"
"400","83.1325301205","83.1325301205","663.674698795","663.674698795","black","no","xpyriment","legacy","legacy","0","208","NA","uniform","68545","1000","0.0145889561602","1","undefined","1","0","82","82","82","0","82","82","82","NA","82","82","0","82","NA","82","82","0","82","NA","82","NA","82","0","0","82","82","0","82","82","83","z","10/02/17 13:45:09","The main experiment item","yes","FIN__AB__M21__7%3A10%3A17.osexp","C:\Users\ERP Testing Room\Desktop\Joanna\morph21","no","mono","no","18","no","white","no","yes","1080","legacy","82","82","C:/Users/ERP Testing Room/Desktop/Joanna/morph21/subject-106.csv","xpyriment","Jazzy James","3.1.4","0","z","space","NA","NA","NA","space","z","569","57695","NA","NA","NA","261649","569","2","legacy","1024","2","48000","-16","AB_m21","106","even","FILL_NW","BUTE","1354","626989","625389","619130","263014","540863","NA","NA","NA","626983","625886","NA","624889","NA","624878","626983","1364","627389","NA","NA","625989","1354","1355","626380","624878","1354","625989","627389","morph21_Oliver/Morris","69","55085","83","yes","1280","5"
"250","83.3333333333","83.3333333333","662.392857143","662.392857143","black","no","xpyriment","legacy","legacy","0","207","NA","uniform","72612","1000","0.0137718283479","1","undefined","1","0","83","83","83","0","83","83","83","NA","83","83","0","83","NA","83","83","0","83","NA","83","NA","83","0","0","83","83","0","83","83","84","/","10/02/17 13:45:09","The main experiment item","yes","FIN__AB__M21__7%3A10%3A17.osexp","C:\Users\ERP Testing Room\Desktop\Joanna\morph21","no","mono","no","18","no","white","no","yes","1080","legacy","83","83","C:/Users/ERP Testing Room/Desktop/Joanna/morph21/subject-106.csv","xpyriment","Jazzy James","3.1.4","0","/","space","NA","NA","NA","space","/","556","57695","NA","NA","NA","261649","556","2","legacy","1024","2","48000","-16","AB_m21","106","even","FILL_W","SOUGHT","1354","631831","628739","630322","263014","540863","NA","NA","NA","630313","629236","NA","628230","NA","628219","630313","1364","632081","NA","NA","629322","1354","1355","629714","628219","1354","629322","632081","morph21_Oliver/Morris","70","55641","84","yes","1280","40"
"350","83.5294117647","83.5294117647","660.294117647","660.294117647","black","no","xpyriment","legacy","legacy","0","207","NA","uniform","65128","1000","0.0153543790689","1","undefined","1","0","84","84","84","0","84","84","84","NA","84","84","0","84","NA","84","84","0","84","NA","84","NA","84","0","0","84","84","0","84","84","85","/","10/02/17 13:45:09","The main experiment item","yes","FIN__AB__M21__7%3A10%3A17.osexp","C:\Users\ERP Testing Room\Desktop\Joanna\morph21","no","mono","no","18","no","white","no","yes","1080","legacy","84","84","C:/Users/ERP Testing Room/Desktop/Joanna/morph21/subject-106.csv","xpyriment","Jazzy James","3.1.4","0","/","space","NA","NA","NA","space","/","484","57695","NA","NA","NA","261649","484","2","legacy","1024","2","48000","-16","AB_m21","106","even","FILL_W","LIFT","1354","634882","633298","630322","263014","540863","NA","NA","NA","634873","633795","NA","632797","NA","632793","634873","1364","635232","NA","NA","633882","1354","1355","634273","632793","1354","633882","635232","morph21_Oliver/Morris","71","56125","85","yes","1280","39"
"400","83.7209302326","83.7209302326","657.965116279","657.965116279","black","no","xpyriment","legacy","legacy","0","207","NA","uniform","82874","1000","0.0120665106065","1","undefined","1","0","85","85","85","0","85","85","85","NA","85","85","0","85","NA","85","85","0","85","NA","85","NA","85","0","0","85","85","0","85","85","86","/","10/02/17 13:45:09","The main experiment item","yes","FIN__AB__M21__7%3A10%3A17.osexp","C:\Users\ERP Testing Room\Desktop\Joanna\morph21","no","mono","no","18","no","white","no","yes","1080","legacy","85","85","C:/Users/ERP Testing Room/Desktop/Joanna/morph21/subject-106.csv","xpyriment","Jazzy James","3.1.4","0","/","space","NA","NA","NA","space","/","460","57695","NA","NA","NA","261649","460","2","legacy","1024","2","48000","-16","AB_m21","106","even","FILL_W","QUIT","1354","638082","636482","630322","263014","540863","NA","NA","NA","638076","636979","NA","635982","NA","635978","638076","1364","638482","NA","NA","637082","1354","1355","637473","635978","1354","637082","638482","morph21_Oliver/Morris","72","56585","86","yes","1280","21"
"400","83.908045977","83.908045977","656.862068966","656.862068966","black","no","xpyriment","legacy","legacy","0","207","NA","uniform","63092","1000","0.0158498700311","1","undefined","1","0","86","86","86","0","86","86","86","NA","86","86","0","86","NA","86","86","0","86","NA","86","NA","86","0","0","86","86","0","86","86","87","/","10/02/17 13:45:09","The main experiment item","yes","FIN__AB__M21__7%3A10%3A17.osexp","C:\Users\ERP Testing Room\Desktop\Joanna\morph21","no","mono","no","18","no","white","no","yes","1080","legacy","86","86","C:/Users/ERP Testing Room/Desktop/Joanna/morph21/subject-106.csv","xpyriment","Jazzy James","3.1.4","0","/","space","NA","NA","NA","space","/","562","57695","NA","NA","NA","261649","562","2","legacy","1024","2","48000","-16","AB_m21","106","even","FILL_W","CHIP","1354","642849","639732","641340","263014","540863","NA","NA","NA","641333","640229","NA","639232","NA","639224","641333","1364","643249","NA","NA","640340","1354","1355","640732","639224","1354","640340","643249","morph21_Oliver/Morris","73","57147","87","yes","1280","11"
"200","84.0909090909","84.0909090909","658.409090909","658.409090909","black","no","xpyriment","legacy","legacy","0","205","NA","uniform","67852","1000","0.0147379590874","1","undefined","1","0","87","87","87","0","87","87","87","NA","87","87","0","87","NA","87","87","0","87","NA","87","NA","87","0","0","87","87","0","87","87","88","z","10/02/17 13:45:09","The main experiment item","yes","FIN__AB__M21__7%3A10%3A17.osexp","C:\Users\ERP Testing Room\Desktop\Joanna\morph21","no","mono","no","18","no","white","no","yes","1080","legacy","87","87","C:/Users/ERP Testing Room/Desktop/Joanna/morph21/subject-106.csv","xpyriment","Jazzy James","3.1.4","0","z","space","NA","NA","NA","space","z","793","57695","NA","NA","NA","261649","793","2","legacy","1024","2","48000","-16","AB_m21","106","even","NW_S_SIMP","GUMFIL","1354","646157","644557","641340","263014","540863","NA","NA","NA","646154","645054","NA","644057","NA","644052","646154","1364","646357","NA","NA","645157","1354","1355","645557","644052","1354","645157","646357","morph21_Oliver/Morris","74","57940","88","yes","1280","2"
"250","84.2696629213","84.2696629213","658.674157303","658.674157303","black","no","xpyriment","legacy","legacy","0","201","NA","uniform","63979","1000","0.015630128636","1","undefined","1","0","88","88","88","0","88","88","88","NA","88","88","0","88","NA","88","88","0","88","NA","88","NA","88","0","0","88","88","0","88","88","89","/","10/02/17 13:45:09","The main experiment item","yes","FIN__AB__M21__7%3A10%3A17.osexp","C:\Users\ERP Testing Room\Desktop\Joanna\morph21","no","mono","no","18","no","white","no","yes","1080","legacy","88","88","C:/Users/ERP Testing Room/Desktop/Joanna/morph21/subject-106.csv","xpyriment","Jazzy James","3.1.4","0","/","space","NA","NA","NA","space","/","682","57695","NA","NA","NA","261649","682","2","legacy","1024","2","48000","-16","AB_m21","106","even","CW_S","MILDNESS","1354","649316","647716","641340","263014","540863","NA","NA","NA","649313","648213","NA","647216","NA","647207","649313","1364","649566","NA","NA","648324","1354","1355","648716","647207","1354","648324","649566","morph21_Oliver/Morris","75","58622","89","yes","1280","42"
"250","84.4444444444","84.4444444444","659.255555556","659.255555556","black","no","xpyriment","legacy","legacy","0","204","NA","uniform","58362","1000","0.0171344367911","1","undefined","1","0","89","89","89","0","89","89","89","NA","89","89","0","89","NA","89","89","0","89","NA","89","NA","89","0","0","89","89","0","89","89","90","z","10/02/17 13:45:09","The main experiment item","yes","FIN__AB__M21__7%3A10%3A17.osexp","C:\Users\ERP Testing Room\Desktop\Joanna\morph21","no","mono","no","18","no","white","no","yes","1080","legacy","89","89","C:/Users/ERP Testing Room/Desktop/Joanna/morph21/subject-106.csv","xpyriment","Jazzy James","3.1.4","0","z","space","NA","NA","NA","space","z","711","57695","NA","NA","NA","261649","711","2","legacy","1024","2","48000","-16","AB_m21","106","even","NW_L_COMP","STIRANCE","1354","654067","650967","652558","263014","540863","NA","NA","NA","652556","651464","NA","650467","NA","650457","652556","1364","654317","NA","NA","651567","1354","1355","651958","650457","1354","651567","654317","morph21_Oliver/Morris","76","59333","90","yes","1280","1"
"350","84.6153846154","84.6153846154","656.637362637","656.637362637","black","no","xpyriment","legacy","legacy","0","202","NA","uniform","78895","1000","0.0126750744661","1","undefined","1","0","90","90","90","0","90","90","90","NA","90","90","0","90","NA","90","90","0","90","NA","90","NA","90","0","0","90","90","0","90","90","91","/","10/02/17 13:45:09","The main experiment item","yes","FIN__AB__M21__7%3A10%3A17.osexp","C:\Users\ERP Testing Room\Desktop\Joanna\morph21","no","mono","no","18","no","white","no","yes","1080","legacy","90","90","C:/Users/ERP Testing Room/Desktop/Joanna/morph21/subject-106.csv","xpyriment","Jazzy James","3.1.4","0","/","space","NA","NA","NA","space","/","421","57695","NA","NA","NA","261649","421","2","legacy","1024","2","48000","-16","AB_m21","106","even","CW_L","JUMPING","1354","657209","655600","652558","263014","540863","NA","NA","NA","657201","656097","NA","655100","NA","655093","657201","1364","657559","NA","NA","656209","1354","1355","656600","655093","1354","656209","657559","morph21_Oliver/Morris","77","59754","91","yes","1280","30"
