"ITI","acc","accuracy","average_response_time","avg_rt","background","bidi","canvas_backend","clock_backend","color_backend","compensation","cond_trig","condtrigtime","coordinates","coroutines_cycles","coroutines_duration","coroutines_mean_cycle_duration","correct","correct_instructions_1","correct_new_keyboard_response_1","count_BA_m21","count_ITI","count_blank_screen","count_blink_screen","count_block1","count_break1","count_break2","count_break3_1","count_canvas","count_correct_trigger","count_def_chain","count_end_screen","count_fixation_1","count_getting_started","count_inc_counter","count_incorrect_trigger","count_instructions_1","count_logger","count_logscript","count_new_coroutines","count_new_inline_script","count_new_keyboard_response_1","count_reset_counter_prep","count_reset_counter_run","count_responsescreen","count_sequence","count_start_trigger","count_target_present","count_word_trigger","counter","cresp","datetime","description","disable_garbage_collection","experiment_file","experiment_path","font_bold","font_family","font_italic","font_size","font_underline","foreground","form_clicks","fullscreen","height","keyboard_backend","live_row","live_row_block1","logfile","mouse_backend","opensesame_codename","opensesame_version","repeat_cycle","response","response_break1","response_break2","response_break3_1","response_end_screen","response_instructions_1","response_new_keyboard_response_1","response_time","response_time_break1","response_time_break2","response_time_break3_1","response_time_end_screen","response_time_instructions_1","response_time_new_keyboard_response_1","round_decimals","sampler_backend","sound_buf_size","sound_channels","sound_freq","sound_sample_size","start","subject_nr","subject_parity","targ_type","target","time_BA_m21","time_ITI","time_blank_screen","time_blink_screen","time_block1","time_break1","time_break2","time_break3_1","time_canvas","time_correct_trigger","time_def_chain","time_end_screen","time_fixation_1","time_getting_started","time_inc_counter","time_incorrect_trigger","time_instructions_1","time_logger","time_logscript","time_new_inline_script","time_new_keyboard_response_1","time_reset_counter_prep","time_reset_counter_run","time_responsescreen","time_sequence","time_start_trigger","time_target_present","time_word_trigger","title","total_correct","total_response_time","total_responses","uniform_coordinates","width","word_trig"
"350","0","0","992","992","black","no","xpyriment","legacy","legacy","0","206","NA","uniform","58067","1000","0.0172214855253","0","undefined","0","0","0","0","0","0","0","0","0","NA","0","0","0","0","NA","0","0","0","0","NA","0","NA","0","0","0","0","0","0","0","0","1","z","10/10/18 16:31:39","The main experiment item","yes","FIN__BA__M21__7%3A10%3A17.osexp","C:\Users\ERP Testing Room\Desktop\Joanna\morph21","no","mono","no","18","no","white","no","yes","1080","legacy","0","0","C:/Users/ERP Testing Room/Desktop/Joanna/morph21/subject-140.csv","xpyriment","Jazzy James","3.1.4","0","None","NA","NA","NA","NA","space","None","992","NA","NA","NA","NA","171423","992","2","legacy","1024","2","48000","-16","BA_m21","140","even","NW_L_SIMP","NUTLY","2554","176942","175292","NA","173991","NA","NA","NA","NA","NA","175789","NA","174788","NA","174714","176934","2568","177292","NA","NA","175942","2554","2554","176334","174714","2554","175942","177292","morph21_Oliver/Morris","0","992","1","yes","1280","14"
"300","0","0","993","993","black","no","xpyriment","legacy","legacy","0","202","NA","uniform","57118","1000","0.0175076158129","0","undefined","0","0","1","1","1","0","1","1","1","NA","1","1","0","1","NA","1","1","0","1","NA","1","NA","1","0","0","1","1","0","1","1","2","/","10/10/18 16:31:39","The main experiment item","yes","FIN__BA__M21__7%3A10%3A17.osexp","C:\Users\ERP Testing Room\Desktop\Joanna\morph21","no","mono","no","18","no","white","no","yes","1080","legacy","1","1","C:/Users/ERP Testing Room/Desktop/Joanna/morph21/subject-140.csv","xpyriment","Jazzy James","3.1.4","0","None","NA","NA","NA","NA","space","None","994","NA","NA","NA","NA","171423","994","2","legacy","1024","2","48000","-16","BA_m21","140","even","CW_L","DOUBTFUL","2554","180192","178592","NA","173991","NA","NA","NA","NA","NA","179089","NA","178092","NA","178088","180186","2568","180492","NA","NA","179192","2554","2554","179584","178088","2554","179192","180492","morph21_Oliver/Morris","0","1986","2","yes","1280","21"
"300","0","0","992.333333333","992.333333333","black","no","xpyriment","legacy","legacy","0","206","NA","uniform","55699","1000","0.017953643692","0","undefined","0","0","2","2","2","0","2","2","2","NA","2","2","0","2","NA","2","2","0","2","NA","2","NA","2","0","0","2","2","0","2","2","3","z","10/10/18 16:31:39","The main experiment item","yes","FIN__BA__M21__7%3A10%3A17.osexp","C:\Users\ERP Testing Room\Desktop\Joanna\morph21","no","mono","no","18","no","white","no","yes","1080","legacy","2","2","C:/Users/ERP Testing Room/Desktop/Joanna/morph21/subject-140.csv","xpyriment","Jazzy James","3.1.4","0","None","NA","NA","NA","NA","space","None","991","NA","NA","NA","NA","171423","991","2","legacy","1024","2","48000","-16","BA_m21","140","even","NW_L_SIMP","BEGENCE","2554","184802","181692","183293","173991","NA","NA","NA","NA","NA","182189","NA","181192","NA","181182","183284","2568","185102","NA","NA","182293","2554","2554","182685","181182","2554","182293","185102","morph21_Oliver/Morris","0","2977","3","yes","1280","4"
"250","0","0","991.25","991.25","black","no","xpyriment","legacy","legacy","0","204","NA","uniform","60190","1000","0.0166140554909","0","undefined","0","0","3","3","3","0","3","3","3","NA","3","3","0","3","NA","3","3","0","3","NA","3","NA","3","0","0","3","3","0","3","3","4","z","10/10/18 16:31:39","The main experiment item","yes","FIN__BA__M21__7%3A10%3A17.osexp","C:\Users\ERP Testing Room\Desktop\Joanna\morph21","no","mono","no","18","no","white","no","yes","1080","legacy","3","3","C:/Users/ERP Testing Room/Desktop/Joanna/morph21/subject-140.csv","xpyriment","Jazzy James","3.1.4","0","None","NA","NA","NA","NA","space","None","988","NA","NA","NA","NA","171423","988","2","legacy","1024","2","48000","-16","BA_m21","140","even","NW_L_COMP","MUDLA","2554","187910","186327","183293","173991","NA","NA","NA","NA","NA","186824","NA","185819","NA","185809","187907","2568","188160","NA","NA","186919","2554","2554","187310","185809","2554","186919","188160","morph21_Oliver/Morris","0","3965","4","yes","1280","12"
"300","0","0","991.4","991.4","black","no","xpyriment","legacy","legacy","0","206","NA","uniform","58966","1000","0.0169589254825","0","undefined","0","0","4","4","4","0","4","4","4","NA","4","4","0","4","NA","4","4","0","4","NA","4","NA","4","0","0","4","4","0","4","4","5","z","10/10/18 16:31:39","The main experiment item","yes","FIN__BA__M21__7%3A10%3A17.osexp","C:\Users\ERP Testing Room\Desktop\Joanna\morph21","no","mono","no","18","no","white","no","yes","1080","legacy","4","4","C:/Users/ERP Testing Room/Desktop/Joanna/morph21/subject-140.csv","xpyriment","Jazzy James","3.1.4","0","None","NA","NA","NA","NA","space","None","992","NA","NA","NA","NA","171423","992","2","legacy","1024","2","48000","-16","BA_m21","140","even","NW_L_SIMP","PRAYANCE","2554","190977","189394","183293","173991","NA","NA","NA","NA","NA","189891","NA","188894","NA","188883","190969","2568","191277","NA","NA","189977","2554","2554","190369","188883","2554","189977","191277","morph21_Oliver/Morris","0","4957","5","yes","1280","1"
"300","0","0","991","991","black","no","xpyriment","legacy","legacy","0","201","NA","uniform","57261","1000","0.0174638934004","0","undefined","0","0","5","5","5","0","5","5","5","NA","5","5","0","5","NA","5","5","0","5","NA","5","NA","5","0","0","5","5","0","5","5","6","/","10/10/18 16:31:39","The main experiment item","yes","FIN__BA__M21__7%3A10%3A17.osexp","C:\Users\ERP Testing Room\Desktop\Joanna\morph21","no","mono","no","18","no","white","no","yes","1080","legacy","5","5","C:/Users/ERP Testing Room/Desktop/Joanna/morph21/subject-140.csv","xpyriment","Jazzy James","3.1.4","0","None","NA","NA","NA","NA","space","None","989","NA","NA","NA","NA","171423","989","2","legacy","1024","2","48000","-16","BA_m21","140","even","CW_S","ATTACKER","2554","195627","192519","194119","173991","NA","NA","NA","NA","NA","193016","NA","192011","NA","192001","194116","2568","195927","NA","NA","193127","2554","2554","193519","192001","2554","193127","195927","morph21_Oliver/Morris","0","5946","6","yes","1280","20"
"350","0","0","990.857142857","990.857142857","black","no","xpyriment","legacy","legacy","0","201","NA","uniform","60543","1000","0.0165171861322","0","undefined","0","0","6","6","6","0","6","6","6","NA","6","6","0","6","NA","6","6","0","6","NA","6","NA","6","0","0","6","6","0","6","6","7","/","10/10/18 16:31:39","The main experiment item","yes","FIN__BA__M21__7%3A10%3A17.osexp","C:\Users\ERP Testing Room\Desktop\Joanna\morph21","no","mono","no","18","no","white","no","yes","1080","legacy","6","6","C:/Users/ERP Testing Room/Desktop/Joanna/morph21/subject-140.csv","xpyriment","Jazzy James","3.1.4","0","None","NA","NA","NA","NA","space","None","990","NA","NA","NA","NA","171423","990","2","legacy","1024","2","48000","-16","BA_m21","140","even","CW_S","TEACHER","2554","198777","197186","194119","173991","NA","NA","NA","NA","NA","197683","NA","196686","NA","196677","198767","2568","199128","NA","NA","197777","2554","2554","198169","196677","2554","197777","199128","morph21_Oliver/Morris","0","6936","7","yes","1280","23"
"200","0","0","990.875","990.875","black","no","xpyriment","legacy","legacy","0","208","NA","uniform","53410","1000","0.0187230855645","0","undefined","0","0","7","7","7","0","7","7","7","NA","7","7","0","7","NA","7","7","0","7","NA","7","NA","7","0","0","7","7","0","7","7","8","z","10/10/18 16:31:39","The main experiment item","yes","FIN__BA__M21__7%3A10%3A17.osexp","C:\Users\ERP Testing Room\Desktop\Joanna\morph21","no","mono","no","18","no","white","no","yes","1080","legacy","7","7","C:/Users/ERP Testing Room/Desktop/Joanna/morph21/subject-140.csv","xpyriment","Jazzy James","3.1.4","0","None","NA","NA","NA","NA","space","None","991","NA","NA","NA","NA","171423","991","2","legacy","1024","2","48000","-16","BA_m21","140","even","FILL_NW","FALONS","2554","201904","200320","194119","173991","NA","NA","NA","NA","NA","200817","NA","199820","NA","199811","201895","2568","202104","NA","NA","200904","2554","2554","201295","199811","2554","200904","202104","morph21_Oliver/Morris","0","7927","8","yes","1280","19"
"300","0","0","991.111111111","991.111111111","black","no","xpyriment","legacy","legacy","0","207","NA","uniform","57695","1000","0.0173325244822","0","undefined","0","0","8","8","8","0","8","8","8","NA","8","8","0","8","NA","8","8","0","8","NA","8","NA","8","0","0","8","8","0","8","8","9","/","10/10/18 16:31:39","The main experiment item","yes","FIN__BA__M21__7%3A10%3A17.osexp","C:\Users\ERP Testing Room\Desktop\Joanna\morph21","no","mono","no","18","no","white","no","yes","1080","legacy","8","8","C:/Users/ERP Testing Room/Desktop/Joanna/morph21/subject-140.csv","xpyriment","Jazzy James","3.1.4","0","None","NA","NA","NA","NA","space","None","993","NA","NA","NA","NA","171423","993","2","legacy","1024","2","48000","-16","BA_m21","140","even","FILL_W","BALD","2554","206562","203470","205054","173991","NA","NA","NA","NA","NA","203967","NA","202970","NA","202961","205047","2568","206862","NA","NA","204054","2554","2554","204445","202961","2554","204054","206862","morph21_Oliver/Morris","0","8920","9","yes","1280","3"
"300","0","0","991.1","991.1","black","no","xpyriment","legacy","legacy","0","207","NA","uniform","60594","1000","0.0165032841535","0","undefined","0","0","9","9","9","0","9","9","9","NA","9","9","0","9","NA","9","9","0","9","NA","9","NA","9","0","0","9","9","0","9","9","10","/","10/10/18 16:31:39","The main experiment item","yes","FIN__BA__M21__7%3A10%3A17.osexp","C:\Users\ERP Testing Room\Desktop\Joanna\morph21","no","mono","no","18","no","white","no","yes","1080","legacy","9","9","C:/Users/ERP Testing Room/Desktop/Joanna/morph21/subject-140.csv","xpyriment","Jazzy James","3.1.4","0","None","NA","NA","NA","NA","space","None","991","NA","NA","NA","NA","171423","991","2","legacy","1024","2","48000","-16","BA_m21","140","even","FILL_W","MOURN","2554","209771","208154","205054","173991","NA","NA","NA","NA","NA","208651","NA","207645","NA","207642","209763","2568","210071","NA","NA","208771","2554","2554","209162","207642","2554","208771","210071","morph21_Oliver/Morris","0","9911","10","yes","1280","26"
"400","0","0","991.181818182","991.181818182","black","no","xpyriment","legacy","legacy","0","201","NA","uniform","57132","1000","0.0175033256319","0","undefined","0","0","10","10","10","0","10","10","10","NA","10","10","0","10","NA","10","10","0","10","NA","10","NA","10","0","0","10","10","0","10","10","11","/","10/10/18 16:31:39","The main experiment item","yes","FIN__BA__M21__7%3A10%3A17.osexp","C:\Users\ERP Testing Room\Desktop\Joanna\morph21","no","mono","no","18","no","white","no","yes","1080","legacy","10","10","C:/Users/ERP Testing Room/Desktop/Joanna/morph21/subject-140.csv","xpyriment","Jazzy James","3.1.4","0","None","NA","NA","NA","NA","space","None","992","NA","NA","NA","NA","171423","992","2","legacy","1024","2","48000","-16","BA_m21","140","even","CW_S","DESIGN","2554","212837","211229","205054","173991","NA","NA","NA","NA","NA","211726","NA","210729","NA","210721","212829","2568","213237","NA","NA","211837","2554","2554","212229","210721","2554","211837","213237","morph21_Oliver/Morris","0","10903","11","yes","1280","19"
"400","0","0","991.583333333","991.583333333","black","no","xpyriment","legacy","legacy","0","202","NA","uniform","55773","1000","0.0179298226741","0","undefined","0","0","11","11","11","0","11","11","11","NA","11","11","0","11","NA","11","11","0","11","NA","11","NA","11","0","0","11","11","0","11","11","12","/","10/10/18 16:31:39","The main experiment item","yes","FIN__BA__M21__7%3A10%3A17.osexp","C:\Users\ERP Testing Room\Desktop\Joanna\morph21","no","mono","no","18","no","white","no","yes","1080","legacy","11","11","C:/Users/ERP Testing Room/Desktop/Joanna/morph21/subject-140.csv","xpyriment","Jazzy James","3.1.4","0","None","NA","NA","NA","NA","space","None","996","NA","NA","NA","NA","171423","996","2","legacy","1024","2","48000","-16","BA_m21","140","even","CW_L","SPELLER","2554","217539","214421","216029","173991","NA","NA","NA","NA","NA","214918","NA","213921","NA","213914","216025","2568","217939","NA","NA","215029","2554","2554","215429","213914","2554","215029","217939","morph21_Oliver/Morris","0","11899","12","yes","1280","3"
"350","0","0","991.692307692","991.692307692","black","no","xpyriment","legacy","legacy","0","206","NA","uniform","57032","1000","0.017534015991","0","undefined","0","0","12","12","12","0","12","12","12","NA","12","12","0","12","NA","12","12","0","12","NA","12","NA","12","0","0","12","12","0","12","12","13","z","10/10/18 16:31:39","The main experiment item","yes","FIN__BA__M21__7%3A10%3A17.osexp","C:\Users\ERP Testing Room\Desktop\Joanna\morph21","no","mono","no","18","no","white","no","yes","1080","legacy","12","12","C:/Users/ERP Testing Room/Desktop/Joanna/morph21/subject-140.csv","xpyriment","Jazzy James","3.1.4","0","None","NA","NA","NA","NA","space","None","993","NA","NA","NA","NA","171423","993","2","legacy","1024","2","48000","-16","BA_m21","140","even","NW_L_SIMP","WITCHISH","2554","220747","219147","216029","173991","NA","NA","NA","NA","NA","219644","NA","218647","NA","218639","220740","2568","221097","NA","NA","219747","2554","2554","220139","218638","2554","219747","221097","morph21_Oliver/Morris","0","12892","13","yes","1280","11"
"400","0","0","991.928571429","991.928571429","black","no","xpyriment","legacy","legacy","0","207","NA","uniform","58883","1000","0.0169828303585","0","undefined","0","0","13","13","13","0","13","13","13","NA","13","13","0","13","NA","13","13","0","13","NA","13","NA","13","0","0","13","13","0","13","13","14","/","10/10/18 16:31:39","The main experiment item","yes","FIN__BA__M21__7%3A10%3A17.osexp","C:\Users\ERP Testing Room\Desktop\Joanna\morph21","no","mono","no","18","no","white","no","yes","1080","legacy","13","13","C:/Users/ERP Testing Room/Desktop/Joanna/morph21/subject-140.csv","xpyriment","Jazzy James","3.1.4","0","None","NA","NA","NA","NA","space","None","995","NA","NA","NA","NA","171423","995","2","legacy","1024","2","48000","-16","BA_m21","140","even","FILL_W","EAT","2554","223980","222397","216029","173991","NA","NA","NA","NA","NA","222894","NA","221897","NA","221893","223977","2568","224381","NA","NA","222981","2554","2554","223380","221893","2554","222980","224381","morph21_Oliver/Morris","0","13887","14","yes","1280","25"
"400","0","0","992.133333333","992.133333333","black","no","xpyriment","legacy","legacy","0","202","NA","uniform","61237","1000","0.0163299965707","0","undefined","0","0","14","14","14","0","14","14","14","NA","14","14","0","14","NA","14","14","0","14","NA","14","NA","14","0","0","14","14","0","14","14","15","/","10/10/18 16:31:39","The main experiment item","yes","FIN__BA__M21__7%3A10%3A17.osexp","C:\Users\ERP Testing Room\Desktop\Joanna\morph21","no","mono","no","18","no","white","no","yes","1080","legacy","14","14","C:/Users/ERP Testing Room/Desktop/Joanna/morph21/subject-140.csv","xpyriment","Jazzy James","3.1.4","0","None","NA","NA","NA","NA","space","None","995","NA","NA","NA","NA","171423","995","2","legacy","1024","2","48000","-16","BA_m21","140","even","CW_L","WRONGLY","2554","228631","225539","227122","173991","NA","NA","NA","NA","NA","226036","NA","225039","NA","225033","227118","2568","229031","NA","NA","226122","2554","2554","226522","225032","2554","226122","229031","morph21_Oliver/Morris","0","14882","15","yes","1280","37"
"400","0","0","992.375","992.375","black","no","xpyriment","legacy","legacy","0","202","NA","uniform","57856","1000","0.0172842920354","0","undefined","0","0","15","15","15","0","15","15","15","NA","15","15","0","15","NA","15","15","0","15","NA","15","NA","15","0","0","15","15","0","15","15","16","/","10/10/18 16:31:39","The main experiment item","yes","FIN__BA__M21__7%3A10%3A17.osexp","C:\Users\ERP Testing Room\Desktop\Joanna\morph21","no","mono","no","18","no","white","no","yes","1080","legacy","15","15","C:/Users/ERP Testing Room/Desktop/Joanna/morph21/subject-140.csv","xpyriment","Jazzy James","3.1.4","0","None","NA","NA","NA","NA","space","None","996","NA","NA","NA","NA","171423","996","2","legacy","1024","2","48000","-16","BA_m21","140","even","CW_L","LOCKER","2554","231806","230231","227122","173991","NA","NA","NA","NA","NA","230728","NA","229731","NA","229721","231803","2568","232206","NA","NA","230806","2554","2554","231206","229721","2554","230806","232206","morph21_Oliver/Morris","0","15878","16","yes","1280","8"
"250","0","0","992.470588235","992.470588235","black","no","xpyriment","legacy","legacy","0","201","NA","uniform","56699","1000","0.0176369953615","0","undefined","0","0","16","16","16","0","16","16","16","NA","16","16","0","16","NA","16","16","0","16","NA","16","NA","16","0","0","16","16","0","16","16","17","/","10/10/18 16:31:39","The main experiment item","yes","FIN__BA__M21__7%3A10%3A17.osexp","C:\Users\ERP Testing Room\Desktop\Joanna\morph21","no","mono","no","18","no","white","no","yes","1080","legacy","16","16","C:/Users/ERP Testing Room/Desktop/Joanna/morph21/subject-140.csv","xpyriment","Jazzy James","3.1.4","0","None","NA","NA","NA","NA","space","None","994","NA","NA","NA","NA","171423","994","2","legacy","1024","2","48000","-16","BA_m21","140","even","CW_S","PLANNER","2554","234965","233381","227122","173991","NA","NA","NA","NA","NA","233878","NA","232881","NA","232873","234958","2568","235215","NA","NA","233964","2554","2554","234357","232873","2554","233964","235215","morph21_Oliver/Morris","0","16872","17","yes","1280","22"
"350","0","0","992.277777778","992.277777778","black","no","xpyriment","legacy","legacy","0","202","NA","uniform","60347","1000","0.0165708320215","0","undefined","0","0","17","17","17","0","17","17","17","NA","17","17","0","17","NA","17","17","0","17","NA","17","NA","17","0","0","17","17","0","17","17","18","/","10/10/18 16:31:39","The main experiment item","yes","FIN__BA__M21__7%3A10%3A17.osexp","C:\Users\ERP Testing Room\Desktop\Joanna\morph21","no","mono","no","18","no","white","no","yes","1080","legacy","17","17","C:/Users/ERP Testing Room/Desktop/Joanna/morph21/subject-140.csv","xpyriment","Jazzy James","3.1.4","0","None","NA","NA","NA","NA","space","None","989","NA","NA","NA","NA","171423","989","2","legacy","1024","2","48000","-16","BA_m21","140","even","CW_L","KICKING","2554","239616","236515","238107","173991","NA","NA","NA","NA","NA","237013","NA","236015","NA","236008","238097","2568","239966","NA","NA","237107","2554","2554","237499","236008","2554","237107","239966","morph21_Oliver/Morris","0","17861","18","yes","1280","23"
"400","0","0","992.263157895","992.263157895","black","no","xpyriment","legacy","legacy","0","207","NA","uniform","59150","1000","0.0169061707523","0","undefined","0","0","18","18","18","0","18","18","18","NA","18","18","0","18","NA","18","18","0","18","NA","18","NA","18","0","0","18","18","0","18","18","19","/","10/10/18 16:31:39","The main experiment item","yes","FIN__BA__M21__7%3A10%3A17.osexp","C:\Users\ERP Testing Room\Desktop\Joanna\morph21","no","mono","no","18","no","white","no","yes","1080","legacy","18","18","C:/Users/ERP Testing Room/Desktop/Joanna/morph21/subject-140.csv","xpyriment","Jazzy James","3.1.4","0","None","NA","NA","NA","NA","space","None","992","NA","NA","NA","NA","171423","992","2","legacy","1024","2","48000","-16","BA_m21","140","even","FILL_W","CEASE","2554","242766","241182","238107","173991","NA","NA","NA","NA","NA","241679","NA","240682","NA","240679","242758","2568","243166","NA","NA","241766","2554","2554","242157","240679","2554","241766","243166","morph21_Oliver/Morris","0","18853","19","yes","1280","18"
"200","0","0","992.25","992.25","black","no","xpyriment","legacy","legacy","0","206","NA","uniform","59193","1000","0.0168938894802","0","undefined","0","0","19","19","19","0","19","19","19","NA","19","19","0","19","NA","19","19","0","19","NA","19","NA","19","0","0","19","19","0","19","19","20","z","10/10/18 16:31:39","The main experiment item","yes","FIN__BA__M21__7%3A10%3A17.osexp","C:\Users\ERP Testing Room\Desktop\Joanna\morph21","no","mono","no","18","no","white","no","yes","1080","legacy","19","19","C:/Users/ERP Testing Room/Desktop/Joanna/morph21/subject-140.csv","xpyriment","Jazzy James","3.1.4","0","None","NA","NA","NA","NA","space","None","992","NA","NA","NA","NA","171423","992","2","legacy","1024","2","48000","-16","BA_m21","140","even","NW_L_SIMP","TOWERLY","2554","246024","244424","238107","173991","NA","NA","NA","NA","NA","244921","NA","243924","NA","243913","246016","2568","246224","NA","NA","245024","2554","2554","245416","243912","2554","245024","246224","morph21_Oliver/Morris","0","19845","20","yes","1280","15"
"200","0","0","992.238095238","992.238095238","black","no","xpyriment","legacy","legacy","0","203","NA","uniform","56568","1000","0.017677839061","0","undefined","0","0","20","20","20","0","20","20","20","NA","20","20","0","20","NA","20","20","0","20","NA","20","NA","20","0","0","20","20","0","20","20","21","z","10/10/18 16:31:39","The main experiment item","yes","FIN__BA__M21__7%3A10%3A17.osexp","C:\Users\ERP Testing Room\Desktop\Joanna\morph21","no","mono","no","18","no","white","no","yes","1080","legacy","20","20","C:/Users/ERP Testing Room/Desktop/Joanna/morph21/subject-140.csv","xpyriment","Jazzy James","3.1.4","0","None","NA","NA","NA","NA","space","None","992","NA","NA","NA","NA","171423","992","2","legacy","1024","2","48000","-16","BA_m21","140","even","NW_S_COMP","ELMILT","2554","250499","247399","248991","173991","NA","NA","NA","NA","NA","247896","NA","246899","NA","246888","248984","2568","250700","NA","NA","247991","2554","2554","248383","246888","2554","247991","250700","morph21_Oliver/Morris","0","20837","21","yes","1280","10"
"400","0","0","992.090909091","992.090909091","black","no","xpyriment","legacy","legacy","0","208","NA","uniform","59495","1000","0.0168081351374","0","undefined","0","0","21","21","21","0","21","21","21","NA","21","21","0","21","NA","21","21","0","21","NA","21","NA","21","0","0","21","21","0","21","21","22","z","10/10/18 16:31:39","The main experiment item","yes","FIN__BA__M21__7%3A10%3A17.osexp","C:\Users\ERP Testing Room\Desktop\Joanna\morph21","no","mono","no","18","no","white","no","yes","1080","legacy","21","21","C:/Users/ERP Testing Room/Desktop/Joanna/morph21/subject-140.csv","xpyriment","Jazzy James","3.1.4","0","None","NA","NA","NA","NA","space","None","989","NA","NA","NA","NA","171423","989","2","legacy","1024","2","48000","-16","BA_m21","140","even","FILL_NW","CORG","2554","253534","251900","248991","173991","NA","NA","NA","NA","NA","252398","NA","251399","NA","251395","253523","2568","253934","NA","NA","252534","2554","2554","252925","251395","2554","252534","253934","morph21_Oliver/Morris","0","21826","22","yes","1280","7"
"200","0","0","992.173913043","992.173913043","black","no","xpyriment","legacy","legacy","0","207","NA","uniform","60836","1000","0.0164376356105","0","undefined","0","0","22","22","22","0","22","22","22","NA","22","22","0","22","NA","22","22","0","22","NA","22","NA","22","0","0","22","22","0","22","22","23","/","10/10/18 16:31:39","The main experiment item","yes","FIN__BA__M21__7%3A10%3A17.osexp","C:\Users\ERP Testing Room\Desktop\Joanna\morph21","no","mono","no","18","no","white","no","yes","1080","legacy","22","22","C:/Users/ERP Testing Room/Desktop/Joanna/morph21/subject-140.csv","xpyriment","Jazzy James","3.1.4","0","None","NA","NA","NA","NA","space","None","994","NA","NA","NA","NA","171423","994","2","legacy","1024","2","48000","-16","BA_m21","140","even","FILL_W","GOLF","2554","256759","255159","248991","173991","NA","NA","NA","NA","NA","255656","NA","254659","NA","254654","256753","2568","256959","NA","NA","255759","2554","2554","256151","254654","2554","255759","256959","morph21_Oliver/Morris","0","22820","23","yes","1280","28"
"400","0","0","992.333333333","992.333333333","black","no","xpyriment","legacy","legacy","0","201","NA","uniform","61059","1000","0.0163776019915","0","undefined","0","0","23","23","23","0","23","23","23","NA","23","23","0","23","NA","23","23","0","23","NA","23","NA","23","0","0","23","23","0","23","23","24","/","10/10/18 16:31:39","The main experiment item","yes","FIN__BA__M21__7%3A10%3A17.osexp","C:\Users\ERP Testing Room\Desktop\Joanna\morph21","no","mono","no","18","no","white","no","yes","1080","legacy","23","23","C:/Users/ERP Testing Room/Desktop/Joanna/morph21/subject-140.csv","xpyriment","Jazzy James","3.1.4","0","None","NA","NA","NA","NA","space","None","996","NA","NA","NA","NA","171423","996","2","legacy","1024","2","48000","-16","BA_m21","140","even","CW_S","DIETARY","2554","261384","258267","259876","173991","NA","NA","NA","NA","NA","258765","NA","257767","NA","257763","259872","2568","261784","NA","NA","258876","2554","2554","259276","257763","2554","258876","261784","morph21_Oliver/Morris","0","23816","24","yes","1280","6"
"250","0","0","992.16","992.16","black","no","xpyriment","legacy","legacy","0","201","NA","uniform","53861","1000","0.0185663095746","0","undefined","0","0","24","24","24","0","24","24","24","NA","24","24","0","24","NA","24","24","0","24","NA","24","NA","24","0","0","24","24","0","24","24","25","/","10/10/18 16:31:39","The main experiment item","yes","FIN__BA__M21__7%3A10%3A17.osexp","C:\Users\ERP Testing Room\Desktop\Joanna\morph21","no","mono","no","18","no","white","no","yes","1080","legacy","24","24","C:/Users/ERP Testing Room/Desktop/Joanna/morph21/subject-140.csv","xpyriment","Jazzy James","3.1.4","0","None","NA","NA","NA","NA","space","None","988","NA","NA","NA","NA","171423","988","2","legacy","1024","2","48000","-16","BA_m21","140","even","CW_S","PEAKING","2554","264559","262976","259876","173991","NA","NA","NA","NA","NA","263473","NA","262476","NA","262465","264556","2568","264809","NA","NA","263568","2554","2554","263959","262465","2554","263568","264809","morph21_Oliver/Morris","0","24804","25","yes","1280","28"
"400","0","0","992.115384615","992.115384615","black","no","xpyriment","legacy","legacy","0","202","NA","uniform","58207","1000","0.0171800642534","0","undefined","0","0","25","25","25","0","25","25","25","NA","25","25","0","25","NA","25","25","0","25","NA","25","NA","25","0","0","25","25","0","25","25","26","/","10/10/18 16:31:39","The main experiment item","yes","FIN__BA__M21__7%3A10%3A17.osexp","C:\Users\ERP Testing Room\Desktop\Joanna\morph21","no","mono","no","18","no","white","no","yes","1080","legacy","25","25","C:/Users/ERP Testing Room/Desktop/Joanna/morph21/subject-140.csv","xpyriment","Jazzy James","3.1.4","0","None","NA","NA","NA","NA","space","None","991","NA","NA","NA","NA","171423","991","2","legacy","1024","2","48000","-16","BA_m21","140","even","CW_L","COOLING","2554","267634","266026","259876","173991","NA","NA","NA","NA","NA","266523","NA","265526","NA","265521","267626","2568","268035","NA","NA","266635","2554","2554","267026","265521","2554","266635","268035","morph21_Oliver/Morris","0","25795","26","yes","1280","24"
"350","0","0","992.074074074","992.074074074","black","no","xpyriment","legacy","legacy","0","205","NA","uniform","61511","1000","0.0162572548","0","undefined","0","0","26","26","26","0","26","26","26","NA","26","26","0","26","NA","26","26","0","26","NA","26","NA","26","0","0","26","26","0","26","26","27","z","10/10/18 16:31:39","The main experiment item","yes","FIN__BA__M21__7%3A10%3A17.osexp","C:\Users\ERP Testing Room\Desktop\Joanna\morph21","no","mono","no","18","no","white","no","yes","1080","legacy","26","26","C:/Users/ERP Testing Room/Desktop/Joanna/morph21/subject-140.csv","xpyriment","Jazzy James","3.1.4","0","None","NA","NA","NA","NA","space","None","991","NA","NA","NA","NA","171423","991","2","legacy","1024","2","48000","-16","BA_m21","140","even","NW_S_SIMP","BASKORY","2554","272402","269302","270894","173991","NA","NA","NA","NA","NA","269799","NA","268801","NA","268798","270886","2568","272753","NA","NA","269894","2554","2554","270286","268798","2554","269894","272753","morph21_Oliver/Morris","0","26786","27","yes","1280","10"
"300","0","0","992.035714286","992.035714286","black","no","xpyriment","legacy","legacy","0","201","NA","uniform","56070","1000","0.0178348492955","0","undefined","0","0","27","27","27","0","27","27","27","NA","27","27","0","27","NA","27","27","0","27","NA","27","NA","27","0","0","27","27","0","27","27","28","/","10/10/18 16:31:39","The main experiment item","yes","FIN__BA__M21__7%3A10%3A17.osexp","C:\Users\ERP Testing Room\Desktop\Joanna\morph21","no","mono","no","18","no","white","no","yes","1080","legacy","27","27","C:/Users/ERP Testing Room/Desktop/Joanna/morph21/subject-140.csv","xpyriment","Jazzy James","3.1.4","0","None","NA","NA","NA","NA","space","None","991","NA","NA","NA","NA","171423","991","2","legacy","1024","2","48000","-16","BA_m21","140","even","CW_S","MAGICAL","2554","275569","273969","270894","173991","NA","NA","NA","NA","NA","274466","NA","273469","NA","273462","275561","2568","275869","NA","NA","274569","2554","2554","274961","273462","2554","274569","275869","morph21_Oliver/Morris","0","27777","28","yes","1280","4"
"200","0","0","992.103448276","992.103448276","black","no","xpyriment","legacy","legacy","0","204","NA","uniform","56789","1000","0.017609044005","0","undefined","0","0","28","28","28","0","28","28","28","NA","28","28","0","28","NA","28","28","0","28","NA","28","NA","28","0","0","28","28","0","28","28","29","z","10/10/18 16:31:39","The main experiment item","yes","FIN__BA__M21__7%3A10%3A17.osexp","C:\Users\ERP Testing Room\Desktop\Joanna\morph21","no","mono","no","18","no","white","no","yes","1080","legacy","28","28","C:/Users/ERP Testing Room/Desktop/Joanna/morph21/subject-140.csv","xpyriment","Jazzy James","3.1.4","0","None","NA","NA","NA","NA","space","None","994","NA","NA","NA","NA","171423","994","2","legacy","1024","2","48000","-16","BA_m21","140","even","NW_L_COMP","GASFIL","2554","278811","277211","270894","173991","NA","NA","NA","NA","NA","277708","NA","276711","NA","276704","278807","2568","279011","NA","NA","277811","2554","2554","278211","276704","2554","277811","279011","morph21_Oliver/Morris","0","28771","29","yes","1280","6"
"350","0","0","992.266666667","992.266666667","black","no","xpyriment","legacy","legacy","0","206","NA","uniform","55443","1000","0.0180365420342","0","undefined","0","0","29","29","29","0","29","29","29","NA","29","29","0","29","NA","29","29","0","29","NA","29","NA","29","0","0","29","29","0","29","29","30","z","10/10/18 16:31:39","The main experiment item","yes","FIN__BA__M21__7%3A10%3A17.osexp","C:\Users\ERP Testing Room\Desktop\Joanna\morph21","no","mono","no","18","no","white","no","yes","1080","legacy","29","29","C:/Users/ERP Testing Room/Desktop/Joanna/morph21/subject-140.csv","xpyriment","Jazzy James","3.1.4","0","None","NA","NA","NA","NA","space","None","997","NA","NA","NA","NA","171423","997","2","legacy","1024","2","48000","-16","BA_m21","140","even","NW_L_SIMP","CRITICANCE","2554","283378","280261","281869","173991","NA","NA","NA","NA","NA","280758","NA","279761","NA","279750","281866","2568","283728","NA","NA","280869","2554","2554","281269","279750","2554","280869","283728","morph21_Oliver/Morris","0","29768","30","yes","1280","22"
"250","0","0","992.129032258","992.129032258","black","no","xpyriment","legacy","legacy","0","203","NA","uniform","60114","1000","0.0166350600526","0","undefined","0","0","30","30","30","0","30","30","30","NA","30","30","0","30","NA","30","30","0","30","NA","30","NA","30","0","0","30","30","0","30","30","31","z","10/10/18 16:31:39","The main experiment item","yes","FIN__BA__M21__7%3A10%3A17.osexp","C:\Users\ERP Testing Room\Desktop\Joanna\morph21","no","mono","no","18","no","white","no","yes","1080","legacy","30","30","C:/Users/ERP Testing Room/Desktop/Joanna/morph21/subject-140.csv","xpyriment","Jazzy James","3.1.4","0","None","NA","NA","NA","NA","space","None","988","NA","NA","NA","NA","171423","988","2","legacy","1024","2","48000","-16","BA_m21","140","even","NW_S_COMP","TREASONIME","2554","286536","284936","281869","173991","NA","NA","NA","NA","NA","285433","NA","284436","NA","284432","286533","2568","286786","NA","NA","285545","2554","2554","285936","284432","2554","285545","286786","morph21_Oliver/Morris","0","30756","31","yes","1280","14"
"200","0","0","992.21875","992.21875","black","no","xpyriment","legacy","legacy","0","207","NA","uniform","55122","1000","0.0181415768659","0","undefined","0","0","31","31","31","0","31","31","31","NA","31","31","0","31","NA","31","31","0","31","NA","31","NA","31","0","0","31","31","0","31","31","32","/","10/10/18 16:31:39","The main experiment item","yes","FIN__BA__M21__7%3A10%3A17.osexp","C:\Users\ERP Testing Room\Desktop\Joanna\morph21","no","mono","no","18","no","white","no","yes","1080","legacy","31","31","C:/Users/ERP Testing Room/Desktop/Joanna/morph21/subject-140.csv","xpyriment","Jazzy James","3.1.4","0","None","NA","NA","NA","NA","space","None","995","NA","NA","NA","NA","171423","995","2","legacy","1024","2","48000","-16","BA_m21","140","even","FILL_W","OLD","2554","289521","287937","281869","173991","NA","NA","NA","NA","NA","288434","NA","287437","NA","287433","289516","2568","289721","NA","NA","288521","2554","2554","288921","287433","2554","288521","289721","morph21_Oliver/Morris","0","31751","32","yes","1280","44"
"200","0","0","992.272727273","992.272727273","black","no","xpyriment","legacy","legacy","0","203","NA","uniform","56389","1000","0.017733955204","0","undefined","0","0","32","32","32","0","32","32","32","NA","32","32","0","32","NA","32","32","0","32","NA","32","NA","32","0","0","32","32","0","32","32","33","z","10/10/18 16:31:39","The main experiment item","yes","FIN__BA__M21__7%3A10%3A17.osexp","C:\Users\ERP Testing Room\Desktop\Joanna\morph21","no","mono","no","18","no","white","no","yes","1080","legacy","32","32","C:/Users/ERP Testing Room/Desktop/Joanna/morph21/subject-140.csv","xpyriment","Jazzy James","3.1.4","0","None","NA","NA","NA","NA","space","None","994","NA","NA","NA","NA","171423","994","2","legacy","1024","2","48000","-16","BA_m21","140","even","NW_S_COMP","PILLIME","2554","294063","290971","292554","173991","NA","NA","NA","NA","NA","291468","NA","290471","NA","290460","292548","2568","294263","NA","NA","291554","2554","2554","291946","290460","2554","291554","294263","morph21_Oliver/Morris","0","32745","33","yes","1280","13"
"300","0","0","992.205882353","992.205882353","black","no","xpyriment","legacy","legacy","0","205","NA","uniform","54684","1000","0.0182868846463","0","undefined","0","0","33","33","33","0","33","33","33","NA","33","33","0","33","NA","33","33","0","33","NA","33","NA","33","0","0","33","33","0","33","33","34","z","10/10/18 16:31:39","The main experiment item","yes","FIN__BA__M21__7%3A10%3A17.osexp","C:\Users\ERP Testing Room\Desktop\Joanna\morph21","no","mono","no","18","no","white","no","yes","1080","legacy","33","33","C:/Users/ERP Testing Room/Desktop/Joanna/morph21/subject-140.csv","xpyriment","Jazzy James","3.1.4","0","None","NA","NA","NA","NA","space","None","990","NA","NA","NA","NA","171423","990","2","legacy","1024","2","48000","-16","BA_m21","140","even","NW_S_SIMP","TILTARY","2554","297004","295421","292554","173991","NA","NA","NA","NA","NA","295918","NA","294921","NA","294915","296994","2568","297305","NA","NA","296004","2554","2554","296396","294915","2554","296004","297305","morph21_Oliver/Morris","0","33735","34","yes","1280","17"
"250","0","0","992.257142857","992.257142857","black","no","xpyriment","legacy","legacy","0","207","NA","uniform","59329","1000","0.0168551635794","0","undefined","0","0","34","34","34","0","34","34","34","NA","34","34","0","34","NA","34","34","0","34","NA","34","NA","34","0","0","34","34","0","34","34","35","/","10/10/18 16:31:39","The main experiment item","yes","FIN__BA__M21__7%3A10%3A17.osexp","C:\Users\ERP Testing Room\Desktop\Joanna\morph21","no","mono","no","18","no","white","no","yes","1080","legacy","34","34","C:/Users/ERP Testing Room/Desktop/Joanna/morph21/subject-140.csv","xpyriment","Jazzy James","3.1.4","0","None","NA","NA","NA","NA","space","None","994","NA","NA","NA","NA","171423","994","2","legacy","1024","2","48000","-16","BA_m21","140","even","FILL_W","SOFT","2554","300155","298571","292554","173991","NA","NA","NA","NA","NA","299068","NA","298071","NA","298066","300148","2568","300405","NA","NA","299154","2554","2554","299546","298066","2554","299154","300405","morph21_Oliver/Morris","0","34729","35","yes","1280","43"
"300","0","0","992.333333333","992.333333333","black","no","xpyriment","legacy","legacy","0","204","NA","uniform","56003","1000","0.0178561862757","0","undefined","0","0","35","35","35","0","35","35","35","NA","35","35","0","35","NA","35","35","0","35","NA","35","NA","35","0","0","35","35","0","35","35","36","z","10/10/18 16:31:39","The main experiment item","yes","FIN__BA__M21__7%3A10%3A17.osexp","C:\Users\ERP Testing Room\Desktop\Joanna\morph21","no","mono","no","18","no","white","no","yes","1080","legacy","35","35","C:/Users/ERP Testing Room/Desktop/Joanna/morph21/subject-140.csv","xpyriment","Jazzy James","3.1.4","0","None","NA","NA","NA","NA","space","None","995","NA","NA","NA","NA","171423","995","2","legacy","1024","2","48000","-16","BA_m21","140","even","NW_L_COMP","FELLOWOES","2554","304706","301605","303196","173991","NA","NA","NA","NA","NA","302102","NA","301105","NA","301097","303192","2568","305006","NA","NA","302196","2554","2554","302596","301097","2554","302196","305006","morph21_Oliver/Morris","0","35724","36","yes","1280","17"
"400","0","0","992.297297297","992.297297297","black","no","xpyriment","legacy","legacy","0","208","NA","uniform","55816","1000","0.0179160097463","0","undefined","0","0","36","36","36","0","36","36","36","NA","36","36","0","36","NA","36","36","0","36","NA","36","NA","36","0","0","36","36","0","36","36","37","z","10/10/18 16:31:39","The main experiment item","yes","FIN__BA__M21__7%3A10%3A17.osexp","C:\Users\ERP Testing Room\Desktop\Joanna\morph21","no","mono","no","18","no","white","no","yes","1080","legacy","36","36","C:/Users/ERP Testing Room/Desktop/Joanna/morph21/subject-140.csv","xpyriment","Jazzy James","3.1.4","0","None","NA","NA","NA","NA","space","None","991","NA","NA","NA","NA","171423","991","2","legacy","1024","2","48000","-16","BA_m21","140","even","FILL_NW","GIKE","2554","307839","306239","303196","173991","NA","NA","NA","NA","NA","306736","NA","305739","NA","305735","307830","2568","308239","NA","NA","306839","2554","2554","307231","305735","2554","306839","308239","morph21_Oliver/Morris","0","36715","37","yes","1280","24"
"400","0","0","992.342105263","992.342105263","black","no","xpyriment","legacy","legacy","0","202","NA","uniform","56702","1000","0.01763606222","0","undefined","0","0","37","37","37","0","37","37","37","NA","37","37","0","37","NA","37","37","0","37","NA","37","NA","37","0","0","37","37","0","37","37","38","/","10/10/18 16:31:39","The main experiment item","yes","FIN__BA__M21__7%3A10%3A17.osexp","C:\Users\ERP Testing Room\Desktop\Joanna\morph21","no","mono","no","18","no","white","no","yes","1080","legacy","37","37","C:/Users/ERP Testing Room/Desktop/Joanna/morph21/subject-140.csv","xpyriment","Jazzy James","3.1.4","0","None","NA","NA","NA","NA","space","None","994","NA","NA","NA","NA","171423","994","2","legacy","1024","2","48000","-16","BA_m21","140","even","CW_L","CLEANER","2554","311064","309456","303196","173991","NA","NA","NA","NA","NA","309953","NA","308956","NA","308951","311058","2568","311465","NA","NA","310064","2554","2554","310456","308951","2554","310064","311465","morph21_Oliver/Morris","0","37709","38","yes","1280","15"
"300","0","0","992.41025641","992.41025641","black","no","xpyriment","legacy","legacy","0","201","NA","uniform","57006","1000","0.0175420131214","0","undefined","0","0","38","38","38","0","38","38","38","NA","38","38","0","38","NA","38","38","0","38","NA","38","NA","38","0","0","38","38","0","38","38","39","/","10/10/18 16:31:39","The main experiment item","yes","FIN__BA__M21__7%3A10%3A17.osexp","C:\Users\ERP Testing Room\Desktop\Joanna\morph21","no","mono","no","18","no","white","no","yes","1080","legacy","38","38","C:/Users/ERP Testing Room/Desktop/Joanna/morph21/subject-140.csv","xpyriment","Jazzy James","3.1.4","0","None","NA","NA","NA","NA","space","None","995","NA","NA","NA","NA","171423","995","2","legacy","1024","2","48000","-16","BA_m21","140","even","CW_S","GUILTY","2554","315840","312731","314331","173991","NA","NA","NA","NA","NA","313228","NA","312231","NA","312222","314326","2568","316140","NA","NA","313331","2554","2554","313731","312222","2554","313331","316140","morph21_Oliver/Morris","0","38704","39","yes","1280","34"
"250","0","0","992.375","992.375","black","no","xpyriment","legacy","legacy","0","206","NA","uniform","56321","1000","0.0177553665595","0","undefined","0","0","39","39","39","0","39","39","39","NA","39","39","0","39","NA","39","39","0","39","NA","39","NA","39","0","0","39","39","0","39","39","40","z","10/10/18 16:31:39","The main experiment item","yes","FIN__BA__M21__7%3A10%3A17.osexp","C:\Users\ERP Testing Room\Desktop\Joanna\morph21","no","mono","no","18","no","white","no","yes","1080","legacy","39","39","C:/Users/ERP Testing Room/Desktop/Joanna/morph21/subject-140.csv","xpyriment","Jazzy James","3.1.4","0","None","NA","NA","NA","NA","space","None","991","NA","NA","NA","NA","171423","991","2","legacy","1024","2","48000","-16","BA_m21","140","even","NW_L_SIMP"," DRESSORY","2554","318956","317365","314331","173991","NA","NA","NA","NA","NA","317862","NA","316865","NA","316854","318947","2568","319206","NA","NA","317956","2554","2554","318348","316854","2554","317956","319206","morph21_Oliver/Morris","0","39695","40","yes","1280","21"
"350","0","0","992.341463415","992.341463415","black","no","xpyriment","legacy","legacy","0","203","NA","uniform","54866","1000","0.0182262238909","0","undefined","0","0","40","40","40","0","40","40","40","NA","40","40","0","40","NA","40","40","0","40","NA","40","NA","40","0","0","40","40","0","40","40","41","z","10/10/18 16:31:39","The main experiment item","yes","FIN__BA__M21__7%3A10%3A17.osexp","C:\Users\ERP Testing Room\Desktop\Joanna\morph21","no","mono","no","18","no","white","no","yes","1080","legacy","40","40","C:/Users/ERP Testing Room/Desktop/Joanna/morph21/subject-140.csv","xpyriment","Jazzy James","3.1.4","0","None","NA","NA","NA","NA","space","None","991","NA","NA","NA","NA","171423","991","2","legacy","1024","2","48000","-16","BA_m21","140","even","NW_S_COMP","HUMIDOES","2554","321957","320373","314331","173991","NA","NA","NA","NA","NA","320870","NA","319873","NA","319869","321948","2568","322308","NA","NA","320957","2554","2554","321348","319869","2554","320956","322308","morph21_Oliver/Morris","0","40686","41","yes","1280","25"
"350","0","0","992.30952381","992.30952381","black","no","xpyriment","legacy","legacy","0","208","NA","uniform","58794","1000","0.0170085382862","0","undefined","0","0","41","41","41","0","41","41","41","NA","41","41","0","41","NA","41","41","0","41","NA","41","NA","41","0","0","41","41","0","41","41","42","z","10/10/18 16:31:39","The main experiment item","yes","FIN__BA__M21__7%3A10%3A17.osexp","C:\Users\ERP Testing Room\Desktop\Joanna\morph21","no","mono","no","18","no","white","no","yes","1080","legacy","41","41","C:/Users/ERP Testing Room/Desktop/Joanna/morph21/subject-140.csv","xpyriment","Jazzy James","3.1.4","0","None","NA","NA","NA","NA","space","None","991","NA","NA","NA","NA","171423","991","2","legacy","1024","2","48000","-16","BA_m21","140","even","FILL_NW","DARF","2554","326624","323516","325116","173991","NA","NA","NA","NA","NA","324013","NA","323016","NA","323008","325107","2568","326975","NA","NA","324116","2554","2554","324508","323008","2554","324116","326975","morph21_Oliver/Morris","0","41677","42","yes","1280","10"
"250","0","0","992.395348837","992.395348837","black","no","xpyriment","legacy","legacy","0","208","NA","uniform","49526","1000","0.0201914146105","0","undefined","0","0","42","42","42","0","42","42","42","NA","42","42","0","42","NA","42","42","0","42","NA","42","NA","42","0","0","42","42","0","42","42","43","z","10/10/18 16:31:39","The main experiment item","yes","FIN__BA__M21__7%3A10%3A17.osexp","C:\Users\ERP Testing Room\Desktop\Joanna\morph21","no","mono","no","18","no","white","no","yes","1080","legacy","42","42","C:/Users/ERP Testing Room/Desktop/Joanna/morph21/subject-140.csv","xpyriment","Jazzy James","3.1.4","0","None","NA","NA","NA","NA","space","None","996","NA","NA","NA","NA","171423","996","2","legacy","1024","2","48000","-16","BA_m21","140","even","FILL_NW","LOLDS","2554","329833","328241","325116","173991","NA","NA","NA","NA","NA","328738","NA","327741","NA","327738","329829","2568","330083","NA","NA","328833","2554","2554","329233","327738","2554","328833","330083","morph21_Oliver/Morris","0","42673","43","yes","1280","34"
"350","0","0","992.409090909","992.409090909","black","no","xpyriment","legacy","legacy","0","207","NA","uniform","53609","1000","0.0186535842862","0","undefined","0","0","43","43","43","0","43","43","43","NA","43","43","0","43","NA","43","43","0","43","NA","43","NA","43","0","0","43","43","0","43","43","44","/","10/10/18 16:31:39","The main experiment item","yes","FIN__BA__M21__7%3A10%3A17.osexp","C:\Users\ERP Testing Room\Desktop\Joanna\morph21","no","mono","no","18","no","white","no","yes","1080","legacy","43","43","C:/Users/ERP Testing Room/Desktop/Joanna/morph21/subject-140.csv","xpyriment","Jazzy James","3.1.4","0","None","NA","NA","NA","NA","space","None","993","NA","NA","NA","NA","171423","993","2","legacy","1024","2","48000","-16","BA_m21","140","even","FILL_W","FOLLOW","2554","332850","331266","325116","173991","NA","NA","NA","NA","NA","331763","NA","330766","NA","330759","332843","2568","333200","NA","NA","331850","2554","2554","332241","330759","2554","331850","333200","morph21_Oliver/Morris","0","43666","44","yes","1280","17"
"200","0","0","992.377777778","992.377777778","black","no","xpyriment","legacy","legacy","0","203","NA","uniform","61109","1000","0.0163642016724","0","undefined","0","0","44","44","44","0","44","44","44","NA","44","44","0","44","NA","44","44","0","44","NA","44","NA","44","0","0","44","44","0","44","44","45","z","10/10/18 16:31:39","The main experiment item","yes","FIN__BA__M21__7%3A10%3A17.osexp","C:\Users\ERP Testing Room\Desktop\Joanna\morph21","no","mono","no","18","no","white","no","yes","1080","legacy","44","44","C:/Users/ERP Testing Room/Desktop/Joanna/morph21/subject-140.csv","xpyriment","Jazzy James","3.1.4","0","None","NA","NA","NA","NA","space","None","991","NA","NA","NA","NA","171423","991","2","legacy","1024","2","48000","-16","BA_m21","140","even","NW_S_COMP","FANFIL","2554","337508","334416","336000","173991","NA","NA","NA","NA","NA","334914","NA","333916","NA","333909","335991","2568","337708","NA","NA","335000","2554","2554","335391","333909","2554","335000","337708","morph21_Oliver/Morris","0","44657","45","yes","1280","6"
"350","0","0","992.434782609","992.434782609","black","no","xpyriment","legacy","legacy","0","201","NA","uniform","61497","1000","0.016260955819","0","undefined","0","0","45","45","45","0","45","45","45","NA","45","45","0","45","NA","45","45","0","45","NA","45","NA","45","0","0","45","45","0","45","45","46","/","10/10/18 16:31:39","The main experiment item","yes","FIN__BA__M21__7%3A10%3A17.osexp","C:\Users\ERP Testing Room\Desktop\Joanna\morph21","no","mono","no","18","no","white","no","yes","1080","legacy","45","45","C:/Users/ERP Testing Room/Desktop/Joanna/morph21/subject-140.csv","xpyriment","Jazzy James","3.1.4","0","None","NA","NA","NA","NA","space","None","995","NA","NA","NA","NA","171423","995","2","legacy","1024","2","48000","-16","BA_m21","140","even","CW_S","BOSSY","2554","340476","338867","336000","173991","NA","NA","NA","NA","NA","339364","NA","338367","NA","338362","340472","2568","340826","NA","NA","339476","2554","2554","339876","338362","2554","339476","340826","morph21_Oliver/Morris","0","45652","46","yes","1280","49"
"400","0","0","992.340425532","992.340425532","black","no","xpyriment","legacy","legacy","0","207","NA","uniform","56891","1000","0.017577472711","0","undefined","0","0","46","46","46","0","46","46","46","NA","46","46","0","46","NA","46","46","0","46","NA","46","NA","46","0","0","46","46","0","46","46","47","/","10/10/18 16:31:39","The main experiment item","yes","FIN__BA__M21__7%3A10%3A17.osexp","C:\Users\ERP Testing Room\Desktop\Joanna\morph21","no","mono","no","18","no","white","no","yes","1080","legacy","46","46","C:/Users/ERP Testing Room/Desktop/Joanna/morph21/subject-140.csv","xpyriment","Jazzy James","3.1.4","0","None","NA","NA","NA","NA","space","None","988","NA","NA","NA","NA","171423","988","2","legacy","1024","2","48000","-16","BA_m21","140","even","FILL_W","DRUNK","2554","343626","342034","336000","173991","NA","NA","NA","NA","NA","342532","NA","341534","NA","341526","343623","2568","344026","NA","NA","342635","2554","2554","343026","341526","2554","342634","344026","morph21_Oliver/Morris","0","46640","47","yes","1280","19"
"300","0","0","992.333333333","992.333333333","black","no","xpyriment","legacy","legacy","0","202","NA","uniform","58375","1000","0.017130620985","0","undefined","0","0","47","47","47","0","47","47","47","NA","47","47","0","47","NA","47","47","0","47","NA","47","NA","47","0","0","47","47","0","47","47","48","/","10/10/18 16:31:39","The main experiment item","yes","FIN__BA__M21__7%3A10%3A17.osexp","C:\Users\ERP Testing Room\Desktop\Joanna\morph21","no","mono","no","18","no","white","no","yes","1080","legacy","47","47","C:/Users/ERP Testing Room/Desktop/Joanna/morph21/subject-140.csv","xpyriment","Jazzy James","3.1.4","0","None","NA","NA","NA","NA","space","None","992","NA","NA","NA","NA","171423","992","2","legacy","1024","2","48000","-16","BA_m21","140","even","CW_L","MADNESS","2554","348360","345226","346851","173991","NA","NA","NA","NA","NA","345723","NA","344726","NA","344721","346843","2568","348660","NA","NA","345851","2554","2554","346243","344721","2554","345851","348660","morph21_Oliver/Morris","0","47632","48","yes","1280","41"
"200","0","0","992.346938776","992.346938776","black","no","xpyriment","legacy","legacy","0","205","NA","uniform","60358","1000","0.0165678120547","0","undefined","0","0","48","48","48","0","48","48","48","NA","48","48","0","48","NA","48","48","0","48","NA","48","NA","48","0","0","48","48","0","48","48","49","z","10/10/18 16:31:39","The main experiment item","yes","FIN__BA__M21__7%3A10%3A17.osexp","C:\Users\ERP Testing Room\Desktop\Joanna\morph21","no","mono","no","18","no","white","no","yes","1080","legacy","48","48","C:/Users/ERP Testing Room/Desktop/Joanna/morph21/subject-140.csv","xpyriment","Jazzy James","3.1.4","0","None","NA","NA","NA","NA","space","None","993","NA","NA","NA","NA","171423","993","2","legacy","1024","2","48000","-16","BA_m21","140","even","NW_S_SIMP","JAWLY","2554","351443","349860","346851","173991","NA","NA","NA","NA","NA","350357","NA","349360","NA","349351","351436","2568","351643","NA","NA","350443","2554","2554","350835","349351","2554","350443","351643","morph21_Oliver/Morris","0","48625","49","yes","1280","7"
"400","0","0","992.4","992.4","black","no","xpyriment","legacy","legacy","0","201","NA","uniform","56052","1000","0.0178405766074","0","undefined","0","0","49","49","49","0","49","49","49","NA","49","49","0","49","NA","49","49","0","49","NA","49","NA","49","0","0","49","49","0","49","49","50","/","10/10/18 16:31:39","The main experiment item","yes","FIN__BA__M21__7%3A10%3A17.osexp","C:\Users\ERP Testing Room\Desktop\Joanna\morph21","no","mono","no","18","no","white","no","yes","1080","legacy","49","49","C:/Users/ERP Testing Room/Desktop/Joanna/morph21/subject-140.csv","xpyriment","Jazzy James","3.1.4","0","None","NA","NA","NA","NA","space","None","995","NA","NA","NA","NA","171423","995","2","legacy","1024","2","48000","-16","BA_m21","140","even","CW_S","EFFORTLESS","2554","354485","352877","346851","173991","NA","NA","NA","NA","NA","353374","NA","352377","NA","352372","354481","2568","354885","NA","NA","353485","2554","2554","353885","352372","2554","353485","354885","morph21_Oliver/Morris","0","49620","50","yes","1280","30"
"250","0","0","992.392156863","992.392156863","black","no","xpyriment","legacy","legacy","0","206","NA","uniform","58959","1000","0.0169609389576","0","undefined","0","0","50","50","50","0","50","50","50","NA","50","50","0","50","NA","50","50","0","50","NA","50","NA","50","0","0","50","50","0","50","50","51","z","10/10/18 16:31:39","The main experiment item","yes","FIN__BA__M21__7%3A10%3A17.osexp","C:\Users\ERP Testing Room\Desktop\Joanna\morph21","no","mono","no","18","no","white","no","yes","1080","legacy","50","50","C:/Users/ERP Testing Room/Desktop/Joanna/morph21/subject-140.csv","xpyriment","Jazzy James","3.1.4","0","None","NA","NA","NA","NA","space","None","992","NA","NA","NA","NA","171423","992","2","legacy","1024","2","48000","-16","BA_m21","140","even","NW_L_SIMP","SHOOTMENT","2554","359295","356202","357786","173991","NA","NA","NA","NA","NA","356699","NA","355693","NA","355685","357778","2568","359545","NA","NA","356786","2554","2554","357178","355685","2554","356786","359545","morph21_Oliver/Morris","0","50612","51","yes","1280","16"
"250","0","0","992.384615385","992.384615385","black","no","xpyriment","legacy","legacy","0","207","NA","uniform","57938","1000","0.0172598294729","0","undefined","0","0","51","51","51","0","51","51","51","NA","51","51","0","51","NA","51","51","0","51","NA","51","NA","51","0","0","51","51","0","51","51","52","/","10/10/18 16:31:39","The main experiment item","yes","FIN__BA__M21__7%3A10%3A17.osexp","C:\Users\ERP Testing Room\Desktop\Joanna\morph21","no","mono","no","18","no","white","no","yes","1080","legacy","51","51","C:/Users/ERP Testing Room/Desktop/Joanna/morph21/subject-140.csv","xpyriment","Jazzy James","3.1.4","0","None","NA","NA","NA","NA","space","None","992","NA","NA","NA","NA","171423","992","2","legacy","1024","2","48000","-16","BA_m21","140","even","FILL_W","PREACH","2554","362336","360753","357786","173991","NA","NA","NA","NA","NA","361250","NA","360253","NA","360248","362329","2568","362586","NA","NA","361336","2554","2554","361728","360248","2554","361336","362586","morph21_Oliver/Morris","0","51604","52","yes","1280","7"
"350","0","0","992.377358491","992.377358491","black","no","xpyriment","legacy","legacy","0","207","NA","uniform","57534","1000","0.0173810268711","0","undefined","0","0","52","52","52","0","52","52","52","NA","52","52","0","52","NA","52","52","0","52","NA","52","NA","52","0","0","52","52","0","52","52","53","/","10/10/18 16:31:39","The main experiment item","yes","FIN__BA__M21__7%3A10%3A17.osexp","C:\Users\ERP Testing Room\Desktop\Joanna\morph21","no","mono","no","18","no","white","no","yes","1080","legacy","52","52","C:/Users/ERP Testing Room/Desktop/Joanna/morph21/subject-140.csv","xpyriment","Jazzy James","3.1.4","0","None","NA","NA","NA","NA","space","None","992","NA","NA","NA","NA","171423","992","2","legacy","1024","2","48000","-16","BA_m21","140","even","FILL_W","LIFT","2554","365428","363803","357786","173991","NA","NA","NA","NA","NA","364300","NA","363303","NA","363293","365420","2568","365778","NA","NA","364428","2554","2554","364820","363293","2554","364428","365778","morph21_Oliver/Morris","0","52596","53","yes","1280","39"
"350","0","0","992.407407407","992.407407407","black","no","xpyriment","legacy","legacy","0","201","NA","uniform","61431","1000","0.0162784262018","0","undefined","0","0","53","53","53","0","53","53","53","NA","53","53","0","53","NA","53","53","0","53","NA","53","NA","53","0","0","53","53","0","53","53","54","/","10/10/18 16:31:39","The main experiment item","yes","FIN__BA__M21__7%3A10%3A17.osexp","C:\Users\ERP Testing Room\Desktop\Joanna\morph21","no","mono","no","18","no","white","no","yes","1080","legacy","53","53","C:/Users/ERP Testing Room/Desktop/Joanna/morph21/subject-140.csv","xpyriment","Jazzy James","3.1.4","0","None","NA","NA","NA","NA","space","None","994","NA","NA","NA","NA","171423","994","2","legacy","1024","2","48000","-16","BA_m21","140","even","CW_S","NEATLY","2554","370203","367070","368695","173991","NA","NA","NA","NA","NA","367567","NA","366570","NA","366565","368690","2568","370554","NA","NA","367695","2554","2554","368095","366565","2554","367695","370554","morph21_Oliver/Morris","0","53590","54","yes","1280","33"
"250","0","0","992.4","992.4","black","no","xpyriment","legacy","legacy","0","203","NA","uniform","55860","1000","0.0179018976011","0","undefined","0","0","54","54","54","0","54","54","54","NA","54","54","0","54","NA","54","54","0","54","NA","54","NA","54","0","0","54","54","0","54","54","55","z","10/10/18 16:31:39","The main experiment item","yes","FIN__BA__M21__7%3A10%3A17.osexp","C:\Users\ERP Testing Room\Desktop\Joanna\morph21","no","mono","no","18","no","white","no","yes","1080","legacy","54","54","C:/Users/ERP Testing Room/Desktop/Joanna/morph21/subject-140.csv","xpyriment","Jazzy James","3.1.4","0","None","NA","NA","NA","NA","space","None","992","NA","NA","NA","NA","171423","992","2","legacy","1024","2","48000","-16","BA_m21","140","even","NW_S_COMP","LIDADY","2554","373378","371795","368695","173991","NA","NA","NA","NA","NA","372292","NA","371295","NA","371285","373371","2568","373628","NA","NA","372378","2554","2554","372770","371285","2554","372378","373628","morph21_Oliver/Morris","0","54582","55","yes","1280","3"
"300","0","0","992.375","992.375","black","no","xpyriment","legacy","legacy","0","206","NA","uniform","53419","1000","0.0187199311107","0","undefined","0","0","55","55","55","0","55","55","55","NA","55","55","0","55","NA","55","55","0","55","NA","55","NA","55","0","0","55","55","0","55","55","56","z","10/10/18 16:31:39","The main experiment item","yes","FIN__BA__M21__7%3A10%3A17.osexp","C:\Users\ERP Testing Room\Desktop\Joanna\morph21","no","mono","no","18","no","white","no","yes","1080","legacy","55","55","C:/Users/ERP Testing Room/Desktop/Joanna/morph21/subject-140.csv","xpyriment","Jazzy James","3.1.4","0","None","NA","NA","NA","NA","space","None","991","NA","NA","NA","NA","171423","991","2","legacy","1024","2","48000","-16","BA_m21","140","even","NW_L_SIMP","BEANISH","2554","376405","374813","368695","173991","NA","NA","NA","NA","NA","375310","NA","374313","NA","374309","376396","2568","376705","NA","NA","375405","2554","2554","375796","374309","2554","375405","376705","morph21_Oliver/Morris","0","55573","56","yes","1280","8"
"350","0","0","992.350877193","992.350877193","black","no","xpyriment","legacy","legacy","0","206","NA","uniform","61097","1000","0.0163674157487","0","undefined","0","0","56","56","56","0","56","56","56","NA","56","56","0","56","NA","56","56","0","56","NA","56","NA","56","0","0","56","56","0","56","56","57","z","10/10/18 16:31:39","The main experiment item","yes","FIN__BA__M21__7%3A10%3A17.osexp","C:\Users\ERP Testing Room\Desktop\Joanna\morph21","no","mono","no","18","no","white","no","yes","1080","legacy","56","56","C:/Users/ERP Testing Room/Desktop/Joanna/morph21/subject-140.csv","xpyriment","Jazzy James","3.1.4","0","None","NA","NA","NA","NA","space","None","991","NA","NA","NA","NA","171423","991","2","legacy","1024","2","48000","-16","BA_m21","140","even","NW_L_SIMP","PICKENCE","2554","381105","377988","379596","173991","NA","NA","NA","NA","NA","378485","NA","377488","NA","377483","379587","2568","381455","NA","NA","378596","2554","2554","378988","377483","2554","378596","381455","morph21_Oliver/Morris","0","56564","57","yes","1280","5"
"300","0","0","992.25862069","992.25862069","black","no","xpyriment","legacy","legacy","0","202","NA","uniform","56711","1000","0.0176332633881","0","undefined","0","0","57","57","57","0","57","57","57","NA","57","57","0","57","NA","57","57","0","57","NA","57","NA","57","0","0","57","57","0","57","57","58","/","10/10/18 16:31:39","The main experiment item","yes","FIN__BA__M21__7%3A10%3A17.osexp","C:\Users\ERP Testing Room\Desktop\Joanna\morph21","no","mono","no","18","no","white","no","yes","1080","legacy","57","57","C:/Users/ERP Testing Room/Desktop/Joanna/morph21/subject-140.csv","xpyriment","Jazzy James","3.1.4","0","None","NA","NA","NA","NA","space","None","987","NA","NA","NA","NA","171423","987","2","legacy","1024","2","48000","-16","BA_m21","140","even","CW_L","WEEDY","2554","384313","382705","379596","173991","NA","NA","NA","NA","NA","383202","NA","382205","NA","382196","384310","2568","384613","NA","NA","383322","2554","2554","383713","382196","2554","383322","384613","morph21_Oliver/Morris","0","57551","58","yes","1280","48"
"200","0","0","992.322033898","992.322033898","black","no","xpyriment","legacy","legacy","0","208","NA","uniform","63098","1000","0.0158483628641","0","undefined","0","0","58","58","58","0","58","58","58","NA","58","58","0","58","NA","58","58","0","58","NA","58","NA","58","0","0","58","58","0","58","58","59","z","10/10/18 16:31:39","The main experiment item","yes","FIN__BA__M21__7%3A10%3A17.osexp","C:\Users\ERP Testing Room\Desktop\Joanna\morph21","no","mono","no","18","no","white","no","yes","1080","legacy","58","58","C:/Users/ERP Testing Room/Desktop/Joanna/morph21/subject-140.csv","xpyriment","Jazzy James","3.1.4","0","None","NA","NA","NA","NA","space","None","996","NA","NA","NA","NA","171423","996","2","legacy","1024","2","48000","-16","BA_m21","140","even","FILL_NW","HESK","2554","387530","385922","379596","173991","NA","NA","NA","NA","NA","386419","NA","385413","NA","385404","387519","2568","387730","NA","NA","386522","2554","2554","386922","385404","2554","386522","387730","morph21_Oliver/Morris","0","58547","59","yes","1280","29"
"300","0","0","992.3","992.3","black","no","xpyriment","legacy","legacy","0","204","NA","uniform","55120","1000","0.0181422351234","0","undefined","0","0","59","59","59","0","59","59","59","NA","59","59","0","59","NA","59","59","0","59","NA","59","NA","59","0","0","59","59","0","59","59","60","z","10/10/18 16:31:39","The main experiment item","yes","FIN__BA__M21__7%3A10%3A17.osexp","C:\Users\ERP Testing Room\Desktop\Joanna\morph21","no","mono","no","18","no","white","no","yes","1080","legacy","59","59","C:/Users/ERP Testing Room/Desktop/Joanna/morph21/subject-140.csv","xpyriment","Jazzy James","3.1.4","0","None","NA","NA","NA","NA","space","None","991","NA","NA","NA","NA","171423","991","2","legacy","1024","2","48000","-16","BA_m21","140","even","NW_L_COMP","SHEETEL","2554","392231","389114","390722","173991","NA","NA","NA","NA","NA","389611","NA","388614","NA","388608","390713","2568","392531","NA","NA","389722","2554","2554","390114","388608","2554","389722","392531","morph21_Oliver/Morris","0","59538","60","yes","1280","5"
"400","0","0","992.245901639","992.245901639","black","no","xpyriment","legacy","legacy","0","206","NA","uniform","52465","1000","0.0190603259316","0","undefined","0","0","60","60","60","0","60","60","60","NA","60","60","0","60","NA","60","60","0","60","NA","60","NA","60","0","0","60","60","0","60","60","61","z","10/10/18 16:31:39","The main experiment item","yes","FIN__BA__M21__7%3A10%3A17.osexp","C:\Users\ERP Testing Room\Desktop\Joanna\morph21","no","mono","no","18","no","white","no","yes","1080","legacy","60","60","C:/Users/ERP Testing Room/Desktop/Joanna/morph21/subject-140.csv","xpyriment","Jazzy James","3.1.4","0","None","NA","NA","NA","NA","space","None","989","NA","NA","NA","NA","171423","989","2","legacy","1024","2","48000","-16","BA_m21","140","even","NW_L_SIMP","BOGARY","2554","395365","393781","390722","173991","NA","NA","NA","NA","NA","394279","NA","393281","NA","393277","395362","2568","395765","NA","NA","394373","2554","2554","394765","393277","2554","394373","395765","morph21_Oliver/Morris","0","60527","61","yes","1280","2"
"250","0","0","992.209677419","992.209677419","black","no","xpyriment","legacy","legacy","0","207","NA","uniform","60742","1000","0.0164630733265","0","undefined","0","0","61","61","61","0","61","61","61","NA","61","61","0","61","NA","61","61","0","61","NA","61","NA","61","0","0","61","61","0","61","61","62","/","10/10/18 16:31:39","The main experiment item","yes","FIN__BA__M21__7%3A10%3A17.osexp","C:\Users\ERP Testing Room\Desktop\Joanna\morph21","no","mono","no","18","no","white","no","yes","1080","legacy","61","61","C:/Users/ERP Testing Room/Desktop/Joanna/morph21/subject-140.csv","xpyriment","Jazzy James","3.1.4","0","None","NA","NA","NA","NA","space","None","990","NA","NA","NA","NA","171423","990","2","legacy","1024","2","48000","-16","BA_m21","140","even","FILL_W","STARVE","2554","398673","397082","390722","173991","NA","NA","NA","NA","NA","397579","NA","396582","NA","396572","398663","2568","398923","NA","NA","397673","2554","2554","398065","396572","2554","397673","398923","morph21_Oliver/Morris","0","61517","62","yes","1280","15"
"400","0","0","992.19047619","992.19047619","black","no","xpyriment","legacy","legacy","0","206","NA","uniform","53563","1000","0.0186696040177","0","undefined","0","0","62","62","62","0","62","62","62","NA","62","62","0","62","NA","62","62","0","62","NA","62","NA","62","0","0","62","62","0","62","62","63","z","10/10/18 16:31:39","The main experiment item","yes","FIN__BA__M21__7%3A10%3A17.osexp","C:\Users\ERP Testing Room\Desktop\Joanna\morph21","no","mono","no","18","no","white","no","yes","1080","legacy","62","62","C:/Users/ERP Testing Room/Desktop/Joanna/morph21/subject-140.csv","xpyriment","Jazzy James","3.1.4","0","None","NA","NA","NA","NA","space","None","991","NA","NA","NA","NA","171423","991","2","legacy","1024","2","48000","-16","BA_m21","140","even","NW_L_SIMP","VALIDER","2554","403290","400157","401782","173991","NA","NA","NA","NA","NA","400654","NA","399657","NA","399653","401774","2568","403690","NA","NA","400782","2554","2554","401173","399652","2554","400782","403690","morph21_Oliver/Morris","0","62508","63","yes","1280","23"
"250","0","0","992.234375","992.234375","black","no","xpyriment","legacy","legacy","0","202","NA","uniform","61285","1000","0.0163172064942","0","undefined","0","0","63","63","63","0","63","63","63","NA","63","63","0","63","NA","63","63","0","63","NA","63","NA","63","0","0","63","63","0","63","63","64","/","10/10/18 16:31:39","The main experiment item","yes","FIN__BA__M21__7%3A10%3A17.osexp","C:\Users\ERP Testing Room\Desktop\Joanna\morph21","no","mono","no","18","no","white","no","yes","1080","legacy","63","63","C:/Users/ERP Testing Room/Desktop/Joanna/morph21/subject-140.csv","xpyriment","Jazzy James","3.1.4","0","None","NA","NA","NA","NA","space","None","995","NA","NA","NA","NA","171423","995","2","legacy","1024","2","48000","-16","BA_m21","140","even","CW_L","DREAMER","2554","406507","404923","401782","173991","NA","NA","NA","NA","NA","405421","NA","404423","NA","404419","406502","2568","406757","NA","NA","405507","2554","2554","405907","404419","2554","405507","406757","morph21_Oliver/Morris","0","63503","64","yes","1280","12"
"250","0","0","992.230769231","992.230769231","black","no","xpyriment","legacy","legacy","0","202","NA","uniform","57465","1000","0.0174018968068","0","undefined","0","0","64","64","64","0","64","64","64","NA","64","64","0","64","NA","64","64","0","64","NA","64","NA","64","0","0","64","64","0","64","64","65","/","10/10/18 16:31:39","The main experiment item","yes","FIN__BA__M21__7%3A10%3A17.osexp","C:\Users\ERP Testing Room\Desktop\Joanna\morph21","no","mono","no","18","no","white","no","yes","1080","legacy","64","64","C:/Users/ERP Testing Room/Desktop/Joanna/morph21/subject-140.csv","xpyriment","Jazzy James","3.1.4","0","None","NA","NA","NA","NA","space","None","992","NA","NA","NA","NA","171423","992","2","legacy","1024","2","48000","-16","BA_m21","140","even","CW_L","STRIKER","2554","409591","408007","401782","173991","NA","NA","NA","NA","NA","408504","NA","407507","NA","407499","409583","2568","409841","NA","NA","408590","2554","2554","408982","407499","2554","408590","409841","morph21_Oliver/Morris","0","64495","65","yes","1280","17"
"400","0","0","992.136363636","992.136363636","black","no","xpyriment","legacy","legacy","0","202","NA","uniform","55778","1000","0.0179282154254","0","undefined","0","0","65","65","65","0","65","65","65","NA","65","65","0","65","NA","65","65","0","65","NA","65","NA","65","0","0","65","65","0","65","65","66","/","10/10/18 16:31:39","The main experiment item","yes","FIN__BA__M21__7%3A10%3A17.osexp","C:\Users\ERP Testing Room\Desktop\Joanna\morph21","no","mono","no","18","no","white","no","yes","1080","legacy","65","65","C:/Users/ERP Testing Room/Desktop/Joanna/morph21/subject-140.csv","xpyriment","Jazzy James","3.1.4","0","None","NA","NA","NA","NA","space","None","986","NA","NA","NA","NA","171423","986","2","legacy","1024","2","48000","-16","BA_m21","140","even","CW_L","FAITHFUL","2554","414267","411167","412758","173991","NA","NA","NA","NA","NA","411664","NA","410666","NA","410659","412754","2568","414667","NA","NA","411767","2554","2554","412158","410659","2554","411767","414667","morph21_Oliver/Morris","0","65481","66","yes","1280","20"
"300","0","0","992.119402985","992.119402985","black","no","xpyriment","legacy","legacy","0","208","NA","uniform","57892","1000","0.0172735438403","0","undefined","0","0","66","66","66","0","66","66","66","NA","66","66","0","66","NA","66","66","0","66","NA","66","NA","66","0","0","66","66","0","66","66","67","z","10/10/18 16:31:39","The main experiment item","yes","FIN__BA__M21__7%3A10%3A17.osexp","C:\Users\ERP Testing Room\Desktop\Joanna\morph21","no","mono","no","18","no","white","no","yes","1080","legacy","66","66","C:/Users/ERP Testing Room/Desktop/Joanna/morph21/subject-140.csv","xpyriment","Jazzy James","3.1.4","0","None","NA","NA","NA","NA","space","None","991","NA","NA","NA","NA","171423","991","2","legacy","1024","2","48000","-16","BA_m21","140","even","FILL_NW","HEEM","2554","417450","415867","412758","173991","NA","NA","NA","NA","NA","416364","NA","415367","NA","415361","417442","2568","417750","NA","NA","416450","2554","2554","416842","415361","2554","416450","417750","morph21_Oliver/Morris","0","66472","67","yes","1280","27"
"200","0","0","992.102941176","992.102941176","black","no","xpyriment","legacy","legacy","0","208","NA","uniform","57502","1000","0.0173906994539","0","undefined","0","0","67","67","67","0","67","67","67","NA","67","67","0","67","NA","67","67","0","67","NA","67","NA","67","0","0","67","67","0","67","67","68","z","10/10/18 16:31:39","The main experiment item","yes","FIN__BA__M21__7%3A10%3A17.osexp","C:\Users\ERP Testing Room\Desktop\Joanna\morph21","no","mono","no","18","no","white","no","yes","1080","legacy","67","67","C:/Users/ERP Testing Room/Desktop/Joanna/morph21/subject-140.csv","xpyriment","Jazzy James","3.1.4","0","None","NA","NA","NA","NA","space","None","991","NA","NA","NA","NA","171423","991","2","legacy","1024","2","48000","-16","BA_m21","140","even","FILL_NW","PORDS","2554","420575","418984","412758","173991","NA","NA","NA","NA","NA","419481","NA","418483","NA","418472","420566","2568","420775","NA","NA","419575","2554","2554","419967","418472","2554","419575","420775","morph21_Oliver/Morris","0","67463","68","yes","1280","39"
"250","0","0","992.072463768","992.072463768","black","no","xpyriment","legacy","legacy","0","207","NA","uniform","55783","1000","0.0179266084649","0","undefined","0","0","68","68","68","0","68","68","68","NA","68","68","0","68","NA","68","68","0","68","NA","68","NA","68","0","0","68","68","0","68","68","69","/","10/10/18 16:31:39","The main experiment item","yes","FIN__BA__M21__7%3A10%3A17.osexp","C:\Users\ERP Testing Room\Desktop\Joanna\morph21","no","mono","no","18","no","white","no","yes","1080","legacy","68","68","C:/Users/ERP Testing Room/Desktop/Joanna/morph21/subject-140.csv","xpyriment","Jazzy James","3.1.4","0","None","NA","NA","NA","NA","space","None","990","NA","NA","NA","NA","171423","990","2","legacy","1024","2","48000","-16","BA_m21","140","even","FILL_W","SHIP","2554","425117","422009","423609","173991","NA","NA","NA","NA","NA","422506","NA","421509","NA","421505","423599","2568","425367","NA","NA","422609","2554","2554","423000","421505","2554","422609","425367","morph21_Oliver/Morris","0","68453","69","yes","1280","37"
"200","0","0","992.071428571","992.071428571","black","no","xpyriment","legacy","legacy","0","204","NA","uniform","59494","1000","0.0168084176556","0","undefined","0","0","69","69","69","0","69","69","69","NA","69","69","0","69","NA","69","69","0","69","NA","69","NA","69","0","0","69","69","0","69","69","70","z","10/10/18 16:31:39","The main experiment item","yes","FIN__BA__M21__7%3A10%3A17.osexp","C:\Users\ERP Testing Room\Desktop\Joanna\morph21","no","mono","no","18","no","white","no","yes","1080","legacy","69","69","C:/Users/ERP Testing Room/Desktop/Joanna/morph21/subject-140.csv","xpyriment","Jazzy James","3.1.4","0","None","NA","NA","NA","NA","space","None","992","NA","NA","NA","NA","171423","992","2","legacy","1024","2","48000","-16","BA_m21","140","even","NW_L_COMP","PITCHODY","2554","428168","426567","423609","173991","NA","NA","NA","NA","NA","427064","NA","426067","NA","426063","428160","2568","428368","NA","NA","427168","2554","2554","427560","426063","2554","427168","428368","morph21_Oliver/Morris","0","69445","70","yes","1280","25"
"400","0","0","992.028169014","992.028169014","black","no","xpyriment","legacy","legacy","0","203","NA","uniform","58769","1000","0.0170157736221","0","undefined","0","0","70","70","70","0","70","70","70","NA","70","70","0","70","NA","70","70","0","70","NA","70","NA","70","0","0","70","70","0","70","70","71","z","10/10/18 16:31:39","The main experiment item","yes","FIN__BA__M21__7%3A10%3A17.osexp","C:\Users\ERP Testing Room\Desktop\Joanna\morph21","no","mono","no","18","no","white","no","yes","1080","legacy","70","70","C:/Users/ERP Testing Room/Desktop/Joanna/morph21/subject-140.csv","xpyriment","Jazzy James","3.1.4","0","None","NA","NA","NA","NA","space","None","989","NA","NA","NA","NA","171423","989","2","legacy","1024","2","48000","-16","BA_m21","140","even","NW_S_COMP","ARIDILM","2554","431260","429685","423609","173991","NA","NA","NA","NA","NA","430182","NA","429185","NA","429180","431257","2568","431660","NA","NA","430268","2554","2554","430660","429180","2554","430268","431660","morph21_Oliver/Morris","0","70434","71","yes","1280","9"
"250","0","0","992.027777778","992.027777778","black","no","xpyriment","legacy","legacy","0","205","NA","uniform","56848","1000","0.0175907683648","0","undefined","0","0","71","71","71","0","71","71","71","NA","71","71","0","71","NA","71","71","0","71","NA","71","NA","71","0","0","71","71","0","71","71","72","z","10/10/18 16:31:39","The main experiment item","yes","FIN__BA__M21__7%3A10%3A17.osexp","C:\Users\ERP Testing Room\Desktop\Joanna\morph21","no","mono","no","18","no","white","no","yes","1080","legacy","71","71","C:/Users/ERP Testing Room/Desktop/Joanna/morph21/subject-140.csv","xpyriment","Jazzy James","3.1.4","0","None","NA","NA","NA","NA","space","None","992","NA","NA","NA","NA","171423","992","2","legacy","1024","2","48000","-16","BA_m21","140","even","NW_S_SIMP","DIGORY","2554","436052","432952","434543","173991","NA","NA","NA","NA","NA","433449","NA","432452","NA","432444","434536","2568","436302","NA","NA","433544","2554","2554","433935","432444","2554","433543","436302","morph21_Oliver/Morris","0","71426","72","yes","1280","11"
"400","0","0","992.01369863","992.01369863","black","no","xpyriment","legacy","legacy","0","205","NA","uniform","59009","1000","0.0169465674728","0","undefined","0","0","72","72","72","0","72","72","72","NA","72","72","0","72","NA","72","72","0","72","NA","72","NA","72","0","0","72","72","0","72","72","73","z","10/10/18 16:31:39","The main experiment item","yes","FIN__BA__M21__7%3A10%3A17.osexp","C:\Users\ERP Testing Room\Desktop\Joanna\morph21","no","mono","no","18","no","white","no","yes","1080","legacy","72","72","C:/Users/ERP Testing Room/Desktop/Joanna/morph21/subject-140.csv","xpyriment","Jazzy James","3.1.4","0","None","NA","NA","NA","NA","space","None","991","NA","NA","NA","NA","171423","991","2","legacy","1024","2","48000","-16","BA_m21","140","even","NW_S_SIMP","SCHEMENESS","2554","439110","437510","434543","173991","NA","NA","NA","NA","NA","438007","NA","437010","NA","437004","439101","2568","439510","NA","NA","438110","2554","2554","438502","437004","2554","438110","439510","morph21_Oliver/Morris","0","72417","73","yes","1280","15"
"200","0","0","991.986486486","991.986486486","black","no","xpyriment","legacy","legacy","0","203","NA","uniform","59340","1000","0.0168520390967","0","undefined","0","0","73","73","73","0","73","73","73","NA","73","73","0","73","NA","73","73","0","73","NA","73","NA","73","0","0","73","73","0","73","73","74","z","10/10/18 16:31:39","The main experiment item","yes","FIN__BA__M21__7%3A10%3A17.osexp","C:\Users\ERP Testing Room\Desktop\Joanna\morph21","no","mono","no","18","no","white","no","yes","1080","legacy","73","73","C:/Users/ERP Testing Room/Desktop/Joanna/morph21/subject-140.csv","xpyriment","Jazzy James","3.1.4","0","None","NA","NA","NA","NA","space","None","990","NA","NA","NA","NA","171423","990","2","legacy","1024","2","48000","-16","BA_m21","140","even","NW_S_COMP","ANTILM","2554","442294","440702","434543","173991","NA","NA","NA","NA","NA","441199","NA","440202","NA","440195","442284","2568","442494","NA","NA","441294","2554","2554","441685","440195","2554","441294","442494","morph21_Oliver/Morris","0","73407","74","yes","1280","8"
"300","0","0","991.986666667","991.986666667","black","no","xpyriment","legacy","legacy","0","205","NA","uniform","52812","1000","0.0189350905097","undefined","undefined","0","0","74","74","74","0","74","74","74","NA","74","74","0","74","NA","74","74","0","74","NA","74","NA","74","0","0","74","74","0","74","74","75","z","10/10/18 16:31:39","The main experiment item","yes","FIN__BA__M21__7%3A10%3A17.osexp","C:\Users\ERP Testing Room\Desktop\Joanna\morph21","no","mono","no","18","no","white","no","yes","1080","legacy","74","74","C:/Users/ERP Testing Room/Desktop/Joanna/morph21/subject-140.csv","xpyriment","Jazzy James","3.1.4","0","space","space","NA","NA","NA","space","None","9221","9221","NA","NA","NA","171423","992","2","legacy","1024","2","48000","-16","BA_m21","140","even","NW_S_SIMP","FEVERIZE","2554","446862","443761","445353","173991","447170","NA","NA","NA","NA","444258","NA","443261","NA","443254","445345","2568","456392","NA","NA","444353","2554","2554","444745","443253","2554","444353","447162","morph21_Oliver/Morris","0","74399","75","yes","1280","24"
"350","0","0","992.013157895","992.013157895","black","no","xpyriment","legacy","legacy","0","206","NA","uniform","52571","1000","0.0190218942002","0","undefined","0","0","75","75","75","0","75","75","75","NA","75","75","0","75","NA","75","75","0","75","NA","75","NA","75","0","0","75","75","0","75","75","76","z","10/10/18 16:31:39","The main experiment item","yes","FIN__BA__M21__7%3A10%3A17.osexp","C:\Users\ERP Testing Room\Desktop\Joanna\morph21","no","mono","no","18","no","white","no","yes","1080","legacy","75","75","C:/Users/ERP Testing Room/Desktop/Joanna/morph21/subject-140.csv","xpyriment","Jazzy James","3.1.4","0","None","space","NA","NA","NA","space","None","994","9221","NA","NA","NA","171423","994","2","legacy","1024","2","48000","-16","BA_m21","140","even","NW_L_SIMP","WIGISH","2554","459229","457629","445353","173991","447170","NA","NA","NA","NA","458126","NA","457129","NA","457119","459223","2568","459579","NA","NA","458229","2554","2554","458621","457118","2554","458229","459579","morph21_Oliver/Morris","0","75393","76","yes","1280","9"
"200","0","0","991.974025974","991.974025974","black","no","xpyriment","legacy","legacy","0","201","NA","uniform","58715","1000","0.0170314229754","0","undefined","0","0","76","76","76","0","76","76","76","NA","76","76","0","76","NA","76","76","0","76","NA","76","NA","76","0","0","76","76","0","76","76","77","/","10/10/18 16:31:39","The main experiment item","yes","FIN__BA__M21__7%3A10%3A17.osexp","C:\Users\ERP Testing Room\Desktop\Joanna\morph21","no","mono","no","18","no","white","no","yes","1080","legacy","76","76","C:/Users/ERP Testing Room/Desktop/Joanna/morph21/subject-140.csv","xpyriment","Jazzy James","3.1.4","0","None","space","NA","NA","NA","space","None","989","9221","NA","NA","NA","171423","989","2","legacy","1024","2","48000","-16","BA_m21","140","even","CW_S","ENJOYMENT","2554","462455","460862","445353","173991","447170","NA","NA","NA","NA","461359","NA","460362","NA","460353","462451","2568","462655","NA","NA","461462","2554","2554","461855","460353","2554","461462","462655","morph21_Oliver/Morris","0","76382","77","yes","1280","40"
"250","0","0","992.025641026","992.025641026","black","no","xpyriment","legacy","legacy","0","201","NA","uniform","58497","1000","0.0170948937552","0","undefined","0","0","77","77","77","0","77","77","77","NA","77","77","0","77","NA","77","77","0","77","NA","77","NA","77","0","0","77","77","0","77","77","78","/","10/10/18 16:31:39","The main experiment item","yes","FIN__BA__M21__7%3A10%3A17.osexp","C:\Users\ERP Testing Room\Desktop\Joanna\morph21","no","mono","no","18","no","white","no","yes","1080","legacy","77","77","C:/Users/ERP Testing Room/Desktop/Joanna/morph21/subject-140.csv","xpyriment","Jazzy James","3.1.4","0","None","space","NA","NA","NA","space","None","996","9221","NA","NA","NA","171423","996","2","legacy","1024","2","48000","-16","BA_m21","140","even","CW_S","AWARENESS","2554","466997","463905","465488","173991","447170","NA","NA","NA","NA","464402","NA","463405","NA","463398","465484","2568","467247","NA","NA","464488","2554","2554","464888","463398","2554","464488","467247","morph21_Oliver/Morris","0","77378","78","yes","1280","44"
"400","0","0","992.050632911","992.050632911","black","no","xpyriment","legacy","legacy","0","205","NA","uniform","60409","1000","0.0165538247612","0","undefined","0","0","78","78","78","0","78","78","78","NA","78","78","0","78","NA","78","78","0","78","NA","78","NA","78","0","0","78","78","0","78","78","79","z","10/10/18 16:31:39","The main experiment item","yes","FIN__BA__M21__7%3A10%3A17.osexp","C:\Users\ERP Testing Room\Desktop\Joanna\morph21","no","mono","no","18","no","white","no","yes","1080","legacy","78","78","C:/Users/ERP Testing Room/Desktop/Joanna/morph21/subject-140.csv","xpyriment","Jazzy James","3.1.4","0","None","space","NA","NA","NA","space","None","994","9221","NA","NA","NA","171423","994","2","legacy","1024","2","48000","-16","BA_m21","140","even","NW_S_SIMP","RAMPIZE","2554","470097","468472","465488","173991","447170","NA","NA","NA","NA","468969","NA","467972","NA","467961","470092","2568","470497","NA","NA","469097","2554","2554","469497","467961","2554","469097","470497","morph21_Oliver/Morris","0","78372","79","yes","1280","6"
"300","0","0","992.0375","992.0375","black","no","xpyriment","legacy","legacy","0","208","NA","uniform","55525","1000","0.018009905448","0","undefined","0","0","79","79","79","0","79","79","79","NA","79","79","0","79","NA","79","79","0","79","NA","79","NA","79","0","0","79","79","0","79","79","80","z","10/10/18 16:31:39","The main experiment item","yes","FIN__BA__M21__7%3A10%3A17.osexp","C:\Users\ERP Testing Room\Desktop\Joanna\morph21","no","mono","no","18","no","white","no","yes","1080","legacy","79","79","C:/Users/ERP Testing Room/Desktop/Joanna/morph21/subject-140.csv","xpyriment","Jazzy James","3.1.4","0","None","space","NA","NA","NA","space","None","991","9221","NA","NA","NA","171423","991","2","legacy","1024","2","48000","-16","BA_m21","140","even","FILL_NW","DASK","2554","473314","471722","465488","173991","447170","NA","NA","NA","NA","472219","NA","471222","NA","471214","473305","2568","473614","NA","NA","472314","2554","2554","472706","471214","2554","472314","473614","morph21_Oliver/Morris","0","79363","80","yes","1280","12"
"200","0","0","992","992","black","no","xpyriment","legacy","legacy","0","203","NA","uniform","58952","1000","0.0169629529108","0","undefined","0","0","80","80","80","0","80","80","80","NA","80","80","0","80","NA","80","80","0","80","NA","80","NA","80","0","0","80","80","0","80","80","81","z","10/10/18 16:31:39","The main experiment item","yes","FIN__BA__M21__7%3A10%3A17.osexp","C:\Users\ERP Testing Room\Desktop\Joanna\morph21","no","mono","no","18","no","white","no","yes","1080","legacy","80","80","C:/Users/ERP Testing Room/Desktop/Joanna/morph21/subject-140.csv","xpyriment","Jazzy James","3.1.4","0","None","space","NA","NA","NA","space","None","989","9221","NA","NA","NA","171423","989","2","legacy","1024","2","48000","-16","BA_m21","140","even","NW_S_COMP","ADOPTISH","2554","477972","474839","476464","173991","447170","NA","NA","NA","NA","475336","NA","474339","NA","474331","476453","2568","478173","NA","NA","475464","2554","2554","475856","474331","2554","475464","478173","morph21_Oliver/Morris","0","80352","81","yes","1280","19"
"400","0","0","991.975609756","991.975609756","black","no","xpyriment","legacy","legacy","0","202","NA","uniform","55873","1000","0.0178977323573","0","undefined","0","0","81","81","81","0","81","81","81","NA","81","81","0","81","NA","81","81","0","81","NA","81","NA","81","0","0","81","81","0","81","81","82","/","10/10/18 16:31:39","The main experiment item","yes","FIN__BA__M21__7%3A10%3A17.osexp","C:\Users\ERP Testing Room\Desktop\Joanna\morph21","no","mono","no","18","no","white","no","yes","1080","legacy","81","81","C:/Users/ERP Testing Room/Desktop/Joanna/morph21/subject-140.csv","xpyriment","Jazzy James","3.1.4","0","None","space","NA","NA","NA","space","None","990","9221","NA","NA","NA","171423","990","2","legacy","1024","2","48000","-16","BA_m21","140","even","CW_L","QUIETLY","2554","481024","479398","476464","173991","447170","NA","NA","NA","NA","479896","NA","478897","NA","478887","481014","2568","481424","NA","NA","480024","2554","2554","480415","478887","2554","480024","481424","morph21_Oliver/Morris","0","81342","82","yes","1280","36"
"300","0","0","991.975903614","991.975903614","black","no","xpyriment","legacy","legacy","0","205","NA","uniform","58663","1000","0.017046519953","0","undefined","0","0","82","82","82","0","82","82","82","NA","82","82","0","82","NA","82","82","0","82","NA","82","NA","82","0","0","82","82","0","82","82","83","z","10/10/18 16:31:39","The main experiment item","yes","FIN__BA__M21__7%3A10%3A17.osexp","C:\Users\ERP Testing Room\Desktop\Joanna\morph21","no","mono","no","18","no","white","no","yes","1080","legacy","82","82","C:/Users/ERP Testing Room/Desktop/Joanna/morph21/subject-140.csv","xpyriment","Jazzy James","3.1.4","0","None","space","NA","NA","NA","space","None","992","9221","NA","NA","NA","171423","992","2","legacy","1024","2","48000","-16","BA_m21","140","even","NW_S_SIMP","WARNORY","2554","484199","482615","476464","173991","447170","NA","NA","NA","NA","483112","NA","482115","NA","482106","484191","2568","484499","NA","NA","483199","2554","2554","483590","482106","2554","483199","484499","morph21_Oliver/Morris","0","82334","83","yes","1280","12"
"200","0","0","991.952380952","991.952380952","black","no","xpyriment","legacy","legacy","0","204","NA","uniform","59962","1000","0.0166772289116","0","undefined","0","0","83","83","83","0","83","83","83","NA","83","83","0","83","NA","83","83","0","83","NA","83","NA","83","0","0","83","83","0","83","83","84","z","10/10/18 16:31:39","The main experiment item","yes","FIN__BA__M21__7%3A10%3A17.osexp","C:\Users\ERP Testing Room\Desktop\Joanna\morph21","no","mono","no","18","no","white","no","yes","1080","legacy","83","83","C:/Users/ERP Testing Room/Desktop/Joanna/morph21/subject-140.csv","xpyriment","Jazzy James","3.1.4","0","None","space","NA","NA","NA","space","None","990","9221","NA","NA","NA","171423","990","2","legacy","1024","2","48000","-16","BA_m21","140","even","NW_L_COMP","FLIPODY","2554","488882","485782","487374","173991","447170","NA","NA","NA","NA","486279","NA","485282","NA","485277","487364","2568","489082","NA","NA","486374","2554","2554","486765","485277","2554","486374","489082","morph21_Oliver/Morris","0","83324","84","yes","1280","16"
"350","0","0","991.894117647","991.894117647","black","no","xpyriment","legacy","legacy","0","202","NA","uniform","55337","1000","0.0180710916746","0","undefined","0","0","84","84","84","0","84","84","84","NA","84","84","0","84","NA","84","84","0","84","NA","84","NA","84","0","0","84","84","0","84","84","85","/","10/10/18 16:31:39","The main experiment item","yes","FIN__BA__M21__7%3A10%3A17.osexp","C:\Users\ERP Testing Room\Desktop\Joanna\morph21","no","mono","no","18","no","white","no","yes","1080","legacy","84","84","C:/Users/ERP Testing Room/Desktop/Joanna/morph21/subject-140.csv","xpyriment","Jazzy James","3.1.4","0","None","space","NA","NA","NA","space","None","987","9221","NA","NA","NA","171423","987","2","legacy","1024","2","48000","-16","BA_m21","140","even","CW_L","EDITOR","2554","491874","490274","487374","173991","447170","NA","NA","NA","NA","490771","NA","489774","NA","489771","491870","2568","492224","NA","NA","490882","2554","2554","491274","489771","2554","490882","492224","morph21_Oliver/Morris","0","84311","85","yes","1280","45"
"350","0","0","991.906976744","991.906976744","black","no","xpyriment","legacy","legacy","0","204","NA","uniform","58382","1000","0.0171285670241","0","undefined","0","0","85","85","85","0","85","85","85","NA","85","85","0","85","NA","85","85","0","85","NA","85","NA","85","0","0","85","85","0","85","85","86","z","10/10/18 16:31:39","The main experiment item","yes","FIN__BA__M21__7%3A10%3A17.osexp","C:\Users\ERP Testing Room\Desktop\Joanna\morph21","no","mono","no","18","no","white","no","yes","1080","legacy","85","85","C:/Users/ERP Testing Room/Desktop/Joanna/morph21/subject-140.csv","xpyriment","Jazzy James","3.1.4","0","None","space","NA","NA","NA","space","None","993","9221","NA","NA","NA","171423","993","2","legacy","1024","2","48000","-16","BA_m21","140","even","NW_L_COMP","MOUTHIME","2554","495024","493441","487374","173991","447170","NA","NA","NA","NA","493938","NA","492941","NA","492929","495017","2568","495374","NA","NA","494024","2554","2554","494416","492929","2554","494024","495374","morph21_Oliver/Morris","0","85304","86","yes","1280","11"
"250","0","0","991.896551724","991.896551724","black","no","xpyriment","legacy","legacy","0","207","NA","uniform","60071","1000","0.0166469677548","0","undefined","0","0","86","86","86","0","86","86","86","NA","86","86","0","86","NA","86","86","0","86","NA","86","NA","86","0","0","86","86","0","86","86","87","/","10/10/18 16:31:39","The main experiment item","yes","FIN__BA__M21__7%3A10%3A17.osexp","C:\Users\ERP Testing Room\Desktop\Joanna\morph21","no","mono","no","18","no","white","no","yes","1080","legacy","86","86","C:/Users/ERP Testing Room/Desktop/Joanna/morph21/subject-140.csv","xpyriment","Jazzy James","3.1.4","0","None","space","NA","NA","NA","space","None","991","9221","NA","NA","NA","171423","991","2","legacy","1024","2","48000","-16","BA_m21","140","even","FILL_W","SPLICE","2554","499742","496642","498234","173991","447170","NA","NA","NA","NA","497139","NA","496141","NA","496137","498225","2568","499992","NA","NA","497234","2554","2554","497625","496137","2554","497234","499992","morph21_Oliver/Morris","0","86295","87","yes","1280","22"
"350","0","0","991.920454545","991.920454545","black","no","xpyriment","legacy","legacy","0","201","NA","uniform","55360","1000","0.018063583815","0","undefined","0","0","87","87","87","0","87","87","87","NA","87","87","0","87","NA","87","87","0","87","NA","87","NA","87","0","0","87","87","0","87","87","88","/","10/10/18 16:31:39","The main experiment item","yes","FIN__BA__M21__7%3A10%3A17.osexp","C:\Users\ERP Testing Room\Desktop\Joanna\morph21","no","mono","no","18","no","white","no","yes","1080","legacy","87","87","C:/Users/ERP Testing Room/Desktop/Joanna/morph21/subject-140.csv","xpyriment","Jazzy James","3.1.4","0","None","space","NA","NA","NA","space","None","994","9221","NA","NA","NA","171423","994","2","legacy","1024","2","48000","-16","BA_m21","140","even","CW_S","TOASTER","2554","502926","501325","498234","173991","447170","NA","NA","NA","NA","501823","NA","500825","NA","500821","502920","2568","503276","NA","NA","501925","2554","2554","502317","500821","2554","501925","503276","morph21_Oliver/Morris","0","87289","88","yes","1280","10"
"400","0","0","991.898876404","991.898876404","black","no","xpyriment","legacy","legacy","0","208","NA","uniform","54809","1000","0.0182451787115","0","undefined","0","0","88","88","88","0","88","88","88","NA","88","88","0","88","NA","88","88","0","88","NA","88","NA","88","0","0","88","88","0","88","88","89","z","10/10/18 16:31:39","The main experiment item","yes","FIN__BA__M21__7%3A10%3A17.osexp","C:\Users\ERP Testing Room\Desktop\Joanna\morph21","no","mono","no","18","no","white","no","yes","1080","legacy","88","88","C:/Users/ERP Testing Room/Desktop/Joanna/morph21/subject-140.csv","xpyriment","Jazzy James","3.1.4","0","None","space","NA","NA","NA","space","None","990","9221","NA","NA","NA","171423","990","2","legacy","1024","2","48000","-16","BA_m21","140","even","FILL_NW","FROES","2554","506192","504584","498234","173991","447170","NA","NA","NA","NA","505081","NA","504084","NA","504076","506182","2568","506592","NA","NA","505192","2554","2554","505584","504076","2554","505192","506592","morph21_Oliver/Morris","0","88279","89","yes","1280","21"
"400","0","0","991.855555556","991.855555556","black","no","xpyriment","legacy","legacy","0","208","NA","uniform","55016","1000","0.0181765304639","0","undefined","0","0","89","89","89","0","89","89","89","NA","89","89","0","89","NA","89","89","0","89","NA","89","NA","89","0","0","89","89","0","89","89","90","z","10/10/18 16:31:39","The main experiment item","yes","FIN__BA__M21__7%3A10%3A17.osexp","C:\Users\ERP Testing Room\Desktop\Joanna\morph21","no","mono","no","18","no","white","no","yes","1080","legacy","89","89","C:/Users/ERP Testing Room/Desktop/Joanna/morph21/subject-140.csv","xpyriment","Jazzy James","3.1.4","0","None","space","NA","NA","NA","space","None","988","9221","NA","NA","NA","171423","988","2","legacy","1024","2","48000","-16","BA_m21","140","even","FILL_NW","ULNS","2554","511001","507884","509492","173991","447170","NA","NA","NA","NA","508381","NA","507384","NA","507380","509489","2568","511401","NA","NA","508501","2554","2554","508892","507380","2554","508501","511401","morph21_Oliver/Morris","0","89267","90","yes","1280","45"
"250","0","0","991.901098901","991.901098901","black","no","xpyriment","legacy","legacy","0","206","NA","uniform","60943","1000","0.0164087754131","0","undefined","0","0","90","90","90","0","90","90","90","NA","90","90","0","90","NA","90","90","0","90","NA","90","NA","90","0","0","90","90","0","90","90","91","z","10/10/18 16:31:39","The main experiment item","yes","FIN__BA__M21__7%3A10%3A17.osexp","C:\Users\ERP Testing Room\Desktop\Joanna\morph21","no","mono","no","18","no","white","no","yes","1080","legacy","90","90","C:/Users/ERP Testing Room/Desktop/Joanna/morph21/subject-140.csv","xpyriment","Jazzy James","3.1.4","0","None","space","NA","NA","NA","space","None","996","9221","NA","NA","NA","171423","996","2","legacy","1024","2","48000","-16","BA_m21","140","even","NW_L_SIMP","BEARIST","2554","514219","512618","509492","173991","447170","NA","NA","NA","NA","513115","NA","512118","NA","512110","514214","2568","514469","NA","NA","513218","2554","2554","513618","512109","2554","513218","514469","morph21_Oliver/Morris","0","90263","91","yes","1280","25"
"350","0","0","991.869565217","991.869565217","black","no","xpyriment","legacy","legacy","0","202","NA","uniform","56257","1000","0.0177755657074","0","undefined","0","0","91","91","91","0","91","91","91","NA","91","91","0","91","NA","91","91","0","91","NA","91","NA","91","0","0","91","91","0","91","91","92","/","10/10/18 16:31:39","The main experiment item","yes","FIN__BA__M21__7%3A10%3A17.osexp","C:\Users\ERP Testing Room\Desktop\Joanna\morph21","no","mono","no","18","no","white","no","yes","1080","legacy","91","91","C:/Users/ERP Testing Room/Desktop/Joanna/morph21/subject-140.csv","xpyriment","Jazzy James","3.1.4","0","None","space","NA","NA","NA","space","None","989","9221","NA","NA","NA","171423","989","2","legacy","1024","2","48000","-16","BA_m21","140","even","CW_L","HUNTER","2554","517302","515702","509492","173991","447170","NA","NA","NA","NA","516199","NA","515202","NA","515196","517291","2568","517652","NA","NA","516302","2554","2554","516694","515196","2554","516302","517652","morph21_Oliver/Morris","0","91252","92","yes","1280","10"
