"ITI","acc","accuracy","average_response_time","avg_rt","background","bidi","canvas_backend","clock_backend","color_backend","compensation","cond_trig","condtrigtime","coordinates","coroutines_cycles","coroutines_duration","coroutines_mean_cycle_duration","correct","correct_instructions_1","correct_new_keyboard_response_1","count_AB_m21","count_ITI","count_blank_screen","count_blink_screen","count_block1","count_break1","count_break2","count_break3_1","count_canvas","count_correct_trigger","count_def_chain","count_end_screen","count_fixation_1","count_getting_started","count_inc_counter","count_incorrect_trigger","count_instructions_1","count_logger","count_logscript","count_new_coroutines","count_new_inline_script","count_new_keyboard_response_1","count_reset_counter_prep","count_reset_counter_run","count_responsescreen","count_sequence","count_start_trigger","count_target_present","count_word_trigger","counter","cresp","datetime","description","disable_garbage_collection","experiment_file","experiment_path","font_bold","font_family","font_italic","font_size","font_underline","foreground","form_clicks","fullscreen","height","keyboard_backend","live_row","live_row_block1","logfile","mouse_backend","opensesame_codename","opensesame_version","repeat_cycle","response","response_break1","response_break2","response_break3_1","response_end_screen","response_instructions_1","response_new_keyboard_response_1","response_time","response_time_break1","response_time_break2","response_time_break3_1","response_time_end_screen","response_time_instructions_1","response_time_new_keyboard_response_1","round_decimals","sampler_backend","sound_buf_size","sound_channels","sound_freq","sound_sample_size","start","subject_nr","subject_parity","targ_type","target","time_AB_m21","time_ITI","time_blank_screen","time_blink_screen","time_block1","time_break1","time_break2","time_break3_1","time_canvas","time_correct_trigger","time_def_chain","time_end_screen","time_fixation_1","time_getting_started","time_inc_counter","time_incorrect_trigger","time_instructions_1","time_logger","time_logscript","time_new_inline_script","time_new_keyboard_response_1","time_reset_counter_prep","time_reset_counter_run","time_responsescreen","time_sequence","time_start_trigger","time_target_present","time_word_trigger","title","total_correct","total_response_time","total_responses","uniform_coordinates","width","word_trig"
"300","100","100","569","569","black","no","xpyriment","legacy","legacy","0","202","NA","uniform","67235","1000","0.0148732059195","1","undefined","1","0","0","0","0","0","0","0","0","NA","0","0","0","0","NA","0","0","0","0","NA","0","NA","0","0","0","0","0","0","0","0","1","/","04/21/18 11:45:42","The main experiment item","yes","FIN__AB__M21__7%3A10%3A17.osexp","C:\Users\ERP Testing Room\Desktop\Joanna\morph21","no","mono","no","18","no","white","no","yes","1080","legacy","0","0","C:/Users/ERP Testing Room/Desktop/Joanna/morph21/subject-128.csv","xpyriment","Jazzy James","3.1.4","0","/","NA","NA","NA","NA","/","/","569","NA","NA","NA","NA","91439","569","2","legacy","1024","2","48000","-16","AB_m21","128","even","CW_L","HEATER","1589","95919","94319","NA","93048","NA","NA","NA","NA","95909","94816","NA","93813","NA","93746","95909","1609","96219","NA","NA","94919","1589","1589","95311","93746","1589","94919","96219","morph21_Oliver/Morris","1","569","1","yes","1280","16"
"350","100","100","660.5","660.5","black","no","xpyriment","legacy","legacy","0","205","NA","uniform","65682","1000","0.0152248713498","1","undefined","1","0","1","1","1","0","1","1","1","NA","1","1","0","1","NA","1","1","0","1","NA","1","NA","1","0","0","1","1","0","1","1","2","z","04/21/18 11:45:42","The main experiment item","yes","FIN__AB__M21__7%3A10%3A17.osexp","C:\Users\ERP Testing Room\Desktop\Joanna\morph21","no","mono","no","18","no","white","no","yes","1080","legacy","1","1","C:/Users/ERP Testing Room/Desktop/Joanna/morph21/subject-128.csv","xpyriment","Jazzy James","3.1.4","0","z","NA","NA","NA","NA","/","z","752","NA","NA","NA","NA","91439","752","2","legacy","1024","2","48000","-16","AB_m21","128","even","NW_S_SIMP","BASKODY","1589","99104","97519","NA","93048","NA","NA","NA","NA","99096","98016","NA","97019","NA","97014","99096","1609","99454","NA","NA","98104","1589","1589","98495","97014","1589","98104","99454","morph21_Oliver/Morris","2","1321","2","yes","1280","10"
"300","100","100","686","686","black","no","xpyriment","legacy","legacy","0","208","NA","uniform","64925","1000","0.01540238737","1","undefined","1","0","2","2","2","0","2","2","2","NA","2","2","0","2","NA","2","2","0","2","NA","2","NA","2","0","0","2","2","0","2","2","3","z","04/21/18 11:45:42","The main experiment item","yes","FIN__AB__M21__7%3A10%3A17.osexp","C:\Users\ERP Testing Room\Desktop\Joanna\morph21","no","mono","no","18","no","white","no","yes","1080","legacy","2","2","C:/Users/ERP Testing Room/Desktop/Joanna/morph21/subject-128.csv","xpyriment","Jazzy James","3.1.4","0","z","NA","NA","NA","NA","/","z","737","NA","NA","NA","NA","91439","737","2","legacy","1024","2","48000","-16","AB_m21","128","even","FILL_NW","TREMP","1589","103804","100695","102295","93048","NA","NA","NA","NA","102287","101192","NA","100195","NA","100191","102287","1609","104104","NA","NA","101295","1589","1589","101687","100191","1589","101295","104104","morph21_Oliver/Morris","3","2058","3","yes","1280","20"
"200","100","100","721.5","721.5","black","no","xpyriment","legacy","legacy","0","203","NA","uniform","61266","1000","0.0163222668364","1","undefined","1","0","3","3","3","0","3","3","3","NA","3","3","0","3","NA","3","3","0","3","NA","3","NA","3","0","0","3","3","0","3","3","4","z","04/21/18 11:45:42","The main experiment item","yes","FIN__AB__M21__7%3A10%3A17.osexp","C:\Users\ERP Testing Room\Desktop\Joanna\morph21","no","mono","no","18","no","white","no","yes","1080","legacy","3","3","C:/Users/ERP Testing Room/Desktop/Joanna/morph21/subject-128.csv","xpyriment","Jazzy James","3.1.4","0","z","NA","NA","NA","NA","/","z","828","NA","NA","NA","NA","91439","828","2","legacy","1024","2","48000","-16","AB_m21","128","even","NW_S_COMP","YANKORY","1589","106996","105412","102295","93048","NA","NA","NA","NA","106987","105909","NA","104912","NA","104904","106987","1609","107196","NA","NA","105996","1589","1589","106387","104904","1589","105996","107196","morph21_Oliver/Morris","4","2886","4","yes","1280","23"
"350","80","80","775.8","775.8","black","no","xpyriment","legacy","legacy","0","203","NA","uniform","58336","1000","0.0171420735052","0","undefined","0","0","4","4","4","0","4","4","4","NA","4","4","0","4","NA","4","4","0","4","NA","4","NA","4","0","0","4","4","0","4","4","5","z","04/21/18 11:45:42","The main experiment item","yes","FIN__AB__M21__7%3A10%3A17.osexp","C:\Users\ERP Testing Room\Desktop\Joanna\morph21","no","mono","no","18","no","white","no","yes","1080","legacy","4","4","C:/Users/ERP Testing Room/Desktop/Joanna/morph21/subject-128.csv","xpyriment","Jazzy James","3.1.4","0","None","NA","NA","NA","NA","/","None","993","NA","NA","NA","NA","91439","993","2","legacy","1024","2","48000","-16","AB_m21","128","even","NW_S_COMP","EJECTENCE","1589","110062","108479","102295","93048","NA","NA","NA","NA","106987","108976","NA","107979","NA","107976","110055","1609","110412","NA","NA","109062","1589","1589","109454","107976","1589","109062","110412","morph21_Oliver/Morris","4","3879","5","yes","1280","20"
"200","83.3333333333","83.3333333333","718.333333333","718.333333333","black","no","xpyriment","legacy","legacy","0","207","NA","uniform","79905","1000","0.0125148613979","1","undefined","1","0","5","5","5","0","5","5","5","NA","5","5","0","5","NA","5","5","0","5","NA","5","NA","5","0","0","5","5","0","5","5","6","/","04/21/18 11:45:42","The main experiment item","yes","FIN__AB__M21__7%3A10%3A17.osexp","C:\Users\ERP Testing Room\Desktop\Joanna\morph21","no","mono","no","18","no","white","no","yes","1080","legacy","5","5","C:/Users/ERP Testing Room/Desktop/Joanna/morph21/subject-128.csv","xpyriment","Jazzy James","3.1.4","0","/","NA","NA","NA","NA","/","/","431","NA","NA","NA","NA","91439","431","2","legacy","1024","2","48000","-16","AB_m21","128","even","FILL_W","FLOAT","1589","114838","111729","113329","93048","NA","NA","NA","NA","113323","112226","NA","111229","NA","111220","113323","1609","115038","NA","NA","112329","1589","1589","112721","111220","1589","112329","115038","morph21_Oliver/Morris","5","4310","6","yes","1280","30"
"250","85.7142857143","85.7142857143","704.857142857","704.857142857","black","no","xpyriment","legacy","legacy","0","207","NA","uniform","66594","1000","0.0150163678409","1","undefined","1","0","6","6","6","0","6","6","6","NA","6","6","0","6","NA","6","6","0","6","NA","6","NA","6","0","0","6","6","0","6","6","7","/","04/21/18 11:45:42","The main experiment item","yes","FIN__AB__M21__7%3A10%3A17.osexp","C:\Users\ERP Testing Room\Desktop\Joanna\morph21","no","mono","no","18","no","white","no","yes","1080","legacy","6","6","C:/Users/ERP Testing Room/Desktop/Joanna/morph21/subject-128.csv","xpyriment","Jazzy James","3.1.4","0","/","NA","NA","NA","NA","/","/","624","NA","NA","NA","NA","91439","624","2","legacy","1024","2","48000","-16","AB_m21","128","even","FILL_W","SOUGHT","1589","117872","116239","113329","93048","NA","NA","NA","NA","117867","116736","NA","115739","NA","115735","117867","1609","118122","NA","NA","116872","1589","1589","117272","115734","1589","116872","118122","morph21_Oliver/Morris","6","4934","7","yes","1280","40"
"350","87.5","87.5","711.875","711.875","black","no","xpyriment","legacy","legacy","0","204","NA","uniform","58512","1000","0.0170905113481","1","undefined","1","0","7","7","7","0","7","7","7","NA","7","7","0","7","NA","7","7","0","7","NA","7","NA","7","0","0","7","7","0","7","7","8","z","04/21/18 11:45:42","The main experiment item","yes","FIN__AB__M21__7%3A10%3A17.osexp","C:\Users\ERP Testing Room\Desktop\Joanna\morph21","no","mono","no","18","no","white","no","yes","1080","legacy","7","7","C:/Users/ERP Testing Room/Desktop/Joanna/morph21/subject-128.csv","xpyriment","Jazzy James","3.1.4","0","z","NA","NA","NA","NA","/","z","761","NA","NA","NA","NA","91439","761","2","legacy","1024","2","48000","-16","AB_m21","128","even","NW_L_COMP","MOUTHIZE","1589","121047","119447","113329","93048","NA","NA","NA","NA","121037","119944","NA","118947","NA","118940","121037","1609","121397","NA","NA","120047","1589","1589","120439","118940","1589","120047","121397","morph21_Oliver/Morris","7","5695","8","yes","1280","11"
"200","88.8888888889","88.8888888889","703","703","black","no","xpyriment","legacy","legacy","0","205","NA","uniform","68837","1000","0.0145270711972","1","undefined","1","0","8","8","8","0","8","8","8","NA","8","8","0","8","NA","8","8","0","8","NA","8","NA","8","0","0","8","8","0","8","8","9","z","04/21/18 11:45:42","The main experiment item","yes","FIN__AB__M21__7%3A10%3A17.osexp","C:\Users\ERP Testing Room\Desktop\Joanna\morph21","no","mono","no","18","no","white","no","yes","1080","legacy","8","8","C:/Users/ERP Testing Room/Desktop/Joanna/morph21/subject-128.csv","xpyriment","Jazzy James","3.1.4","0","z","NA","NA","NA","NA","/","z","632","NA","NA","NA","NA","91439","632","2","legacy","1024","2","48000","-16","AB_m21","128","even","NW_S_SIMP","GUMFIL","1589","125772","122622","124264","93048","NA","NA","NA","NA","124254","123119","NA","122122","NA","122111","124254","1609","125973","NA","NA","123264","1589","1589","123656","122111","1589","123264","125973","morph21_Oliver/Morris","8","6327","9","yes","1280","2"
"200","90","90","707.9","707.9","black","no","xpyriment","legacy","legacy","0","205","NA","uniform","64926","1000","0.0154021501402","1","undefined","1","0","9","9","9","0","9","9","9","NA","9","9","0","9","NA","9","9","0","9","NA","9","NA","9","0","0","9","9","0","9","9","10","z","04/21/18 11:45:42","The main experiment item","yes","FIN__AB__M21__7%3A10%3A17.osexp","C:\Users\ERP Testing Room\Desktop\Joanna\morph21","no","mono","no","18","no","white","no","yes","1080","legacy","9","9","C:/Users/ERP Testing Room/Desktop/Joanna/morph21/subject-128.csv","xpyriment","Jazzy James","3.1.4","0","z","NA","NA","NA","NA","/","z","752","NA","NA","NA","NA","91439","752","2","legacy","1024","2","48000","-16","AB_m21","128","even","NW_S_SIMP","THRILLANGE","1589","128847","127256","124264","93048","NA","NA","NA","NA","128845","127753","NA","126756","NA","126751","128845","1609","129048","NA","NA","127856","1589","1589","128248","126751","1589","127856","129048","morph21_Oliver/Morris","9","7079","10","yes","1280","22"
"350","90.9090909091","90.9090909091","688.272727273","688.272727273","black","no","xpyriment","legacy","legacy","0","202","NA","uniform","74088","1000","0.0134974624771","1","undefined","1","0","10","10","10","0","10","10","10","NA","10","10","0","10","NA","10","10","0","10","NA","10","NA","10","0","0","10","10","0","10","10","11","/","04/21/18 11:45:42","The main experiment item","yes","FIN__AB__M21__7%3A10%3A17.osexp","C:\Users\ERP Testing Room\Desktop\Joanna\morph21","no","mono","no","18","no","white","no","yes","1080","legacy","10","10","C:/Users/ERP Testing Room/Desktop/Joanna/morph21/subject-128.csv","xpyriment","Jazzy James","3.1.4","0","/","NA","NA","NA","NA","/","/","492","NA","NA","NA","NA","91439","492","2","legacy","1024","2","48000","-16","AB_m21","128","even","CW_L","GUARDING","1589","131948","130364","124264","93048","NA","NA","NA","NA","131944","130861","NA","129864","NA","129856","131944","1609","132298","NA","NA","130948","1589","1589","131348","129856","1589","130948","132298","morph21_Oliver/Morris","10","7571","11","yes","1280","26"
"400","91.6666666667","91.6666666667","683.75","683.75","black","no","xpyriment","legacy","legacy","0","204","NA","uniform","68166","1000","0.0146700701229","1","undefined","1","0","11","11","11","0","11","11","11","NA","11","11","0","11","NA","11","11","0","11","NA","11","NA","11","0","0","11","11","0","11","11","12","z","04/21/18 11:45:42","The main experiment item","yes","FIN__AB__M21__7%3A10%3A17.osexp","C:\Users\ERP Testing Room\Desktop\Joanna\morph21","no","mono","no","18","no","white","no","yes","1080","legacy","11","11","C:/Users/ERP Testing Room/Desktop/Joanna/morph21/subject-128.csv","xpyriment","Jazzy James","3.1.4","0","z","NA","NA","NA","NA","/","z","634","NA","NA","NA","NA","91439","634","2","legacy","1024","2","48000","-16","AB_m21","128","even","NW_L_COMP","PASSMENT","1589","136682","133590","135174","93048","NA","NA","NA","NA","135168","134088","NA","133090","NA","133081","135168","1609","137082","NA","NA","134174","1589","1589","134565","133081","1589","134174","137082","morph21_Oliver/Morris","11","8205","12","yes","1280","14"
"200","92.3076923077","92.3076923077","680.384615385","680.384615385","black","no","xpyriment","legacy","legacy","0","201","NA","uniform","67944","1000","0.0147180030613","1","undefined","1","0","12","12","12","0","12","12","12","NA","12","12","0","12","NA","12","12","0","12","NA","12","NA","12","0","0","12","12","0","12","12","13","/","04/21/18 11:45:42","The main experiment item","yes","FIN__AB__M21__7%3A10%3A17.osexp","C:\Users\ERP Testing Room\Desktop\Joanna\morph21","no","mono","no","18","no","white","no","yes","1080","legacy","12","12","C:/Users/ERP Testing Room/Desktop/Joanna/morph21/subject-128.csv","xpyriment","Jazzy James","3.1.4","0","/","NA","NA","NA","NA","/","/","640","NA","NA","NA","NA","91439","640","2","legacy","1024","2","48000","-16","AB_m21","128","even","CW_S","ANGELIC","1589","140024","138407","135174","93048","NA","NA","NA","NA","140018","138904","NA","137907","NA","137902","140018","1609","140224","NA","NA","139024","1589","1589","139416","137901","1589","139024","140224","morph21_Oliver/Morris","12","8845","13","yes","1280","25"
"200","92.8571428571","92.8571428571","677.785714286","677.785714286","black","no","xpyriment","legacy","legacy","0","207","NA","uniform","73262","1000","0.0136496410144","1","undefined","1","0","13","13","13","0","13","13","13","NA","13","13","0","13","NA","13","13","0","13","NA","13","NA","13","0","0","13","13","0","13","13","14","/","04/21/18 11:45:42","The main experiment item","yes","FIN__AB__M21__7%3A10%3A17.osexp","C:\Users\ERP Testing Room\Desktop\Joanna\morph21","no","mono","no","18","no","white","no","yes","1080","legacy","13","13","C:/Users/ERP Testing Room/Desktop/Joanna/morph21/subject-128.csv","xpyriment","Jazzy James","3.1.4","0","/","NA","NA","NA","NA","/","/","644","NA","NA","NA","NA","91439","644","2","legacy","1024","2","48000","-16","AB_m21","128","even","FILL_W","WRECK","1589","143124","141516","135174","93048","NA","NA","NA","NA","143118","142013","NA","141016","NA","141008","143118","1609","143324","NA","NA","142124","1589","1589","142516","141008","1589","142124","143324","morph21_Oliver/Morris","13","9489","14","yes","1280","13"
"400","93.3333333333","93.3333333333","671.666666667","671.666666667","black","no","xpyriment","legacy","legacy","0","202","NA","uniform","69929","1000","0.0143002187933","1","undefined","1","0","14","14","14","0","14","14","14","NA","14","14","0","14","NA","14","14","0","14","NA","14","NA","14","0","0","14","14","0","14","14","15","/","04/21/18 11:45:42","The main experiment item","yes","FIN__AB__M21__7%3A10%3A17.osexp","C:\Users\ERP Testing Room\Desktop\Joanna\morph21","no","mono","no","18","no","white","no","yes","1080","legacy","14","14","C:/Users/ERP Testing Room/Desktop/Joanna/morph21/subject-128.csv","xpyriment","Jazzy James","3.1.4","0","/","NA","NA","NA","NA","/","/","586","NA","NA","NA","NA","91439","586","2","legacy","1024","2","48000","-16","AB_m21","128","even","CW_L","SPELLER","1589","147683","144591","146174","93048","NA","NA","NA","NA","146165","145088","NA","144091","NA","144081","146165","1609","148083","NA","NA","145174","1589","1589","145566","144081","1589","145174","148083","morph21_Oliver/Morris","14","10075","15","yes","1280","3"
"200","93.75","93.75","673.6875","673.6875","black","no","xpyriment","legacy","legacy","0","205","NA","uniform","62429","1000","0.0160181966714","1","undefined","1","0","15","15","15","0","15","15","15","NA","15","15","0","15","NA","15","15","0","15","NA","15","NA","15","0","0","15","15","0","15","15","16","z","04/21/18 11:45:42","The main experiment item","yes","FIN__AB__M21__7%3A10%3A17.osexp","C:\Users\ERP Testing Room\Desktop\Joanna\morph21","no","mono","no","18","no","white","no","yes","1080","legacy","15","15","C:/Users/ERP Testing Room/Desktop/Joanna/morph21/subject-128.csv","xpyriment","Jazzy James","3.1.4","0","z","NA","NA","NA","NA","/","z","704","NA","NA","NA","NA","91439","704","2","legacy","1024","2","48000","-16","AB_m21","128","even","NW_S_SIMP","NULLITH","1589","151009","149399","146174","93048","NA","NA","NA","NA","150999","149897","NA","148899","NA","148894","150999","1609","151209","NA","NA","150008","1589","1589","150400","148894","1589","150008","151209","morph21_Oliver/Morris","15","10779","16","yes","1280","23"
"400","94.1176470588","94.1176470588","675.705882353","675.705882353","black","no","xpyriment","legacy","legacy","0","205","NA","uniform","62920","1000","0.0158931977114","1","undefined","1","0","16","16","16","0","16","16","16","NA","16","16","0","16","NA","16","16","0","16","NA","16","NA","16","0","0","16","16","0","16","16","17","z","04/21/18 11:45:42","The main experiment item","yes","FIN__AB__M21__7%3A10%3A17.osexp","C:\Users\ERP Testing Room\Desktop\Joanna\morph21","no","mono","no","18","no","white","no","yes","1080","legacy","16","16","C:/Users/ERP Testing Room/Desktop/Joanna/morph21/subject-128.csv","xpyriment","Jazzy James","3.1.4","0","z","NA","NA","NA","NA","/","z","708","NA","NA","NA","NA","91439","708","2","legacy","1024","2","48000","-16","AB_m21","128","even","NW_S_SIMP","ADVERTISELA","1589","154076","152467","146174","93048","NA","NA","NA","NA","154066","152964","NA","151967","NA","151957","154066","1609","154476","NA","NA","153076","1589","1589","153467","151957","1589","153076","154476","morph21_Oliver/Morris","16","11487","17","yes","1280","25"
"400","94.4444444444","94.4444444444","691.111111111","691.111111111","black","no","xpyriment","legacy","legacy","0","208","NA","uniform","54714","1000","0.0182768578426","1","undefined","1","0","17","17","17","0","17","17","17","NA","17","17","0","17","NA","17","17","0","17","NA","17","NA","17","0","0","17","17","0","17","17","18","z","04/21/18 11:45:42","The main experiment item","yes","FIN__AB__M21__7%3A10%3A17.osexp","C:\Users\ERP Testing Room\Desktop\Joanna\morph21","no","mono","no","18","no","white","no","yes","1080","legacy","17","17","C:/Users/ERP Testing Room/Desktop/Joanna/morph21/subject-128.csv","xpyriment","Jazzy James","3.1.4","0","z","NA","NA","NA","NA","/","z","953","NA","NA","NA","NA","91439","953","2","legacy","1024","2","48000","-16","AB_m21","128","even","FILL_NW","CORG","1589","158851","155726","157342","93048","NA","NA","NA","NA","157340","156223","NA","155226","NA","155221","157340","1609","159251","NA","NA","156351","1589","1589","156742","155221","1589","156351","159251","morph21_Oliver/Morris","17","12440","18","yes","1280","7"
"250","89.4736842105","89.4736842105","706.947368421","706.947368421","black","no","xpyriment","legacy","legacy","0","204","NA","uniform","56329","1000","0.0177528448934","0","undefined","0","0","18","18","18","0","18","18","18","NA","18","18","0","18","NA","18","18","0","18","NA","18","NA","18","0","0","18","18","0","18","18","19","z","04/21/18 11:45:42","The main experiment item","yes","FIN__AB__M21__7%3A10%3A17.osexp","C:\Users\ERP Testing Room\Desktop\Joanna\morph21","no","mono","no","18","no","white","no","yes","1080","legacy","18","18","C:/Users/ERP Testing Room/Desktop/Joanna/morph21/subject-128.csv","xpyriment","Jazzy James","3.1.4","0","None","NA","NA","NA","NA","/","None","992","NA","NA","NA","NA","91439","992","2","legacy","1024","2","48000","-16","AB_m21","128","even","NW_L_COMP","FREENESS","1589","162143","160559","157342","93048","NA","NA","NA","NA","157340","161056","NA","160059","NA","160055","162135","1609","162393","NA","NA","161143","1589","1589","161534","160055","1589","161143","162393","morph21_Oliver/Morris","17","13432","19","yes","1280","15"
"400","85","85","721.25","721.25","black","no","xpyriment","legacy","legacy","0","203","NA","uniform","50695","1000","0.019725811224","0","undefined","0","0","19","19","19","0","19","19","19","NA","19","19","0","19","NA","19","19","0","19","NA","19","NA","19","0","0","19","19","0","19","19","20","z","04/21/18 11:45:42","The main experiment item","yes","FIN__AB__M21__7%3A10%3A17.osexp","C:\Users\ERP Testing Room\Desktop\Joanna\morph21","no","mono","no","18","no","white","no","yes","1080","legacy","19","19","C:/Users/ERP Testing Room/Desktop/Joanna/morph21/subject-128.csv","xpyriment","Jazzy James","3.1.4","0","None","NA","NA","NA","NA","/","None","993","NA","NA","NA","NA","91439","993","2","legacy","1024","2","48000","-16","AB_m21","128","even","NW_S_COMP","TRUENESS","1589","165334","163743","157342","93048","NA","NA","NA","NA","157340","164240","NA","163243","NA","163231","165329","1609","165735","NA","NA","164335","1589","1589","164726","163231","1589","164334","165735","morph21_Oliver/Morris","17","14425","20","yes","1280","15"
"250","85.7142857143","85.7142857143","718.666666667","718.666666667","black","no","xpyriment","legacy","legacy","0","202","NA","uniform","68282","1000","0.0146451480624","1","undefined","1","0","20","20","20","0","20","20","20","NA","20","20","0","20","NA","20","20","0","20","NA","20","NA","20","0","0","20","20","0","20","20","21","/","04/21/18 11:45:42","The main experiment item","yes","FIN__AB__M21__7%3A10%3A17.osexp","C:\Users\ERP Testing Room\Desktop\Joanna\morph21","no","mono","no","18","no","white","no","yes","1080","legacy","20","20","C:/Users/ERP Testing Room/Desktop/Joanna/morph21/subject-128.csv","xpyriment","Jazzy James","3.1.4","0","/","NA","NA","NA","NA","/","/","667","NA","NA","NA","NA","91439","667","2","legacy","1024","2","48000","-16","AB_m21","128","even","CW_L","DANCER","1589","170194","167076","168686","93048","NA","NA","NA","NA","168679","167573","NA","166576","NA","166572","168679","1609","170444","NA","NA","167685","1589","1589","168077","166572","1589","167685","170444","morph21_Oliver/Morris","18","15092","21","yes","1280","11"
"400","86.3636363636","86.3636363636","713.909090909","713.909090909","black","no","xpyriment","legacy","legacy","0","205","NA","uniform","70331","1000","0.0142184811818","1","undefined","1","0","21","21","21","0","21","21","21","NA","21","21","0","21","NA","21","21","0","21","NA","21","NA","21","0","0","21","21","0","21","21","22","z","04/21/18 11:45:42","The main experiment item","yes","FIN__AB__M21__7%3A10%3A17.osexp","C:\Users\ERP Testing Room\Desktop\Joanna\morph21","no","mono","no","18","no","white","no","yes","1080","legacy","21","21","C:/Users/ERP Testing Room/Desktop/Joanna/morph21/subject-128.csv","xpyriment","Jazzy James","3.1.4","0","z","NA","NA","NA","NA","/","z","614","NA","NA","NA","NA","91439","614","2","legacy","1024","2","48000","-16","AB_m21","128","even","NW_S_SIMP","AIDIG","1589","173394","171811","168686","93048","NA","NA","NA","NA","173388","172308","NA","171311","NA","171302","173388","1609","173794","NA","NA","172394","1589","1589","172786","171302","1589","172394","173794","morph21_Oliver/Morris","19","15706","22","yes","1280","4"
"350","86.9565217391","86.9565217391","706.782608696","706.782608696","black","no","xpyriment","legacy","legacy","0","201","NA","uniform","64564","1000","0.0154885075274","1","undefined","1","0","22","22","22","0","22","22","22","NA","22","22","0","22","NA","22","22","0","22","NA","22","NA","22","0","0","22","22","0","22","22","23","/","04/21/18 11:45:42","The main experiment item","yes","FIN__AB__M21__7%3A10%3A17.osexp","C:\Users\ERP Testing Room\Desktop\Joanna\morph21","no","mono","no","18","no","white","no","yes","1080","legacy","22","22","C:/Users/ERP Testing Room/Desktop/Joanna/morph21/subject-128.csv","xpyriment","Jazzy James","3.1.4","0","/","NA","NA","NA","NA","/","/","550","NA","NA","NA","NA","91439","550","2","legacy","1024","2","48000","-16","AB_m21","128","even","CW_S","TOASTER","1589","176578","174978","168686","93048","NA","NA","NA","NA","176568","175475","NA","174478","NA","174471","176568","1609","176928","NA","NA","175578","1589","1589","175969","174471","1589","175578","176928","morph21_Oliver/Morris","20","16256","23","yes","1280","10"
"400","87.5","87.5","709.541666667","709.541666667","black","no","xpyriment","legacy","legacy","0","207","NA","uniform","64486","1000","0.015507241882","1","undefined","1","0","23","23","23","0","23","23","23","NA","23","23","0","23","NA","23","23","0","23","NA","23","NA","23","0","0","23","23","0","23","23","24","/","04/21/18 11:45:42","The main experiment item","yes","FIN__AB__M21__7%3A10%3A17.osexp","C:\Users\ERP Testing Room\Desktop\Joanna\morph21","no","mono","no","18","no","white","no","yes","1080","legacy","23","23","C:/Users/ERP Testing Room/Desktop/Joanna/morph21/subject-128.csv","xpyriment","Jazzy James","3.1.4","0","/","NA","NA","NA","NA","/","/","773","NA","NA","NA","NA","91439","773","2","legacy","1024","2","48000","-16","AB_m21","128","even","FILL_W","LITHE","1589","181311","178219","179803","93048","NA","NA","NA","NA","179794","178716","NA","177719","NA","177709","179794","1609","181711","NA","NA","178803","1589","1589","179194","177708","1589","178803","181711","morph21_Oliver/Morris","21","17029","24","yes","1280","23"
"200","88","88","705.04","705.04","black","no","xpyriment","legacy","legacy","0","201","NA","uniform","59939","1000","0.0166836283555","1","undefined","1","0","24","24","24","0","24","24","24","NA","24","24","0","24","NA","24","24","0","24","NA","24","NA","24","0","0","24","24","0","24","24","25","/","04/21/18 11:45:42","The main experiment item","yes","FIN__AB__M21__7%3A10%3A17.osexp","C:\Users\ERP Testing Room\Desktop\Joanna\morph21","no","mono","no","18","no","white","no","yes","1080","legacy","24","24","C:/Users/ERP Testing Room/Desktop/Joanna/morph21/subject-128.csv","xpyriment","Jazzy James","3.1.4","0","/","NA","NA","NA","NA","/","/","597","NA","NA","NA","NA","91439","597","2","legacy","1024","2","48000","-16","AB_m21","128","even","CW_S","AMUSEMENT","1589","184570","182945","179803","93048","NA","NA","NA","NA","184565","183442","NA","182445","NA","182435","184565","1609","184770","NA","NA","183570","1589","1589","183970","182435","1589","183570","184770","morph21_Oliver/Morris","22","17626","25","yes","1280","38"
"300","88.4615384615","88.4615384615","702.615384615","702.615384615","black","no","xpyriment","legacy","legacy","0","205","NA","uniform","71655","1000","0.01395576024","1","undefined","1","0","25","25","25","0","25","25","25","NA","25","25","0","25","NA","25","25","0","25","NA","25","NA","25","0","0","25","25","0","25","25","26","z","04/21/18 11:45:42","The main experiment item","yes","FIN__AB__M21__7%3A10%3A17.osexp","C:\Users\ERP Testing Room\Desktop\Joanna\morph21","no","mono","no","18","no","white","no","yes","1080","legacy","25","25","C:/Users/ERP Testing Room/Desktop/Joanna/morph21/subject-128.csv","xpyriment","Jazzy James","3.1.4","0","z","NA","NA","NA","NA","/","z","642","NA","NA","NA","NA","91439","642","2","legacy","1024","2","48000","-16","AB_m21","128","even","NW_S_SIMP","SOCKETEL","1589","187654","186054","179803","93048","NA","NA","NA","NA","187651","186551","NA","185554","NA","185547","187651","1609","187954","NA","NA","186662","1589","1589","187054","185547","1589","186662","187954","morph21_Oliver/Morris","23","18268","26","yes","1280","1"
"200","88.8888888889","88.8888888889","707.814814815","707.814814815","black","no","xpyriment","legacy","legacy","0","208","NA","uniform","67788","1000","0.0147518734879","1","undefined","1","0","26","26","26","0","26","26","26","NA","26","26","0","26","NA","26","26","0","26","NA","26","NA","26","0","0","26","26","0","26","26","27","z","04/21/18 11:45:42","The main experiment item","yes","FIN__AB__M21__7%3A10%3A17.osexp","C:\Users\ERP Testing Room\Desktop\Joanna\morph21","no","mono","no","18","no","white","no","yes","1080","legacy","26","26","C:/Users/ERP Testing Room/Desktop/Joanna/morph21/subject-128.csv","xpyriment","Jazzy James","3.1.4","0","z","NA","NA","NA","NA","/","z","843","NA","NA","NA","NA","91439","843","2","legacy","1024","2","48000","-16","AB_m21","128","even","FILL_NW","FROT","1589","192346","189229","190837","93048","NA","NA","NA","NA","190832","189726","NA","188729","NA","188721","190832","1609","192546","NA","NA","189837","1589","1589","190237","188721","1589","189837","192546","morph21_Oliver/Morris","24","19111","27","yes","1280","22"
"200","89.2857142857","89.2857142857","709.678571429","709.678571429","black","no","xpyriment","legacy","legacy","0","208","NA","uniform","60450","1000","0.0165425971878","1","undefined","1","0","27","27","27","0","27","27","27","NA","27","27","0","27","NA","27","27","0","27","NA","27","NA","27","0","0","27","27","0","27","27","28","z","04/21/18 11:45:42","The main experiment item","yes","FIN__AB__M21__7%3A10%3A17.osexp","C:\Users\ERP Testing Room\Desktop\Joanna\morph21","no","mono","no","18","no","white","no","yes","1080","legacy","27","27","C:/Users/ERP Testing Room/Desktop/Joanna/morph21/subject-128.csv","xpyriment","Jazzy James","3.1.4","0","z","NA","NA","NA","NA","/","z","760","NA","NA","NA","NA","91439","760","2","legacy","1024","2","48000","-16","AB_m21","128","even","FILL_NW","PORDS","1589","195488","193896","190837","93048","NA","NA","NA","NA","195480","194393","NA","193396","NA","193387","195480","1609","195688","NA","NA","194488","1589","1589","194879","193387","1589","194488","195688","morph21_Oliver/Morris","25","19871","28","yes","1280","39"
"400","89.6551724138","89.6551724138","712.206896552","712.206896552","black","no","xpyriment","legacy","legacy","0","208","NA","uniform","60858","1000","0.0164316934503","1","undefined","1","0","28","28","28","0","28","28","28","NA","28","28","0","28","NA","28","28","0","28","NA","28","NA","28","0","0","28","28","0","28","28","29","z","04/21/18 11:45:42","The main experiment item","yes","FIN__AB__M21__7%3A10%3A17.osexp","C:\Users\ERP Testing Room\Desktop\Joanna\morph21","no","mono","no","18","no","white","no","yes","1080","legacy","28","28","C:/Users/ERP Testing Room/Desktop/Joanna/morph21/subject-128.csv","xpyriment","Jazzy James","3.1.4","0","z","NA","NA","NA","NA","/","z","783","NA","NA","NA","NA","91439","783","2","legacy","1024","2","48000","-16","AB_m21","128","even","FILL_NW","BALFS","1589","198521","196938","190837","93048","NA","NA","NA","NA","198514","197435","NA","196438","NA","196429","198514","1609","198921","NA","NA","197521","1589","1589","197913","196429","1589","197521","198921","morph21_Oliver/Morris","26","20654","29","yes","1280","2"
"350","90","90","710.166666667","710.166666667","black","no","xpyriment","legacy","legacy","0","208","NA","uniform","67979","1000","0.0147104252784","1","undefined","1","0","29","29","29","0","29","29","29","NA","29","29","0","29","NA","29","29","0","29","NA","29","NA","29","0","0","29","29","0","29","29","30","z","04/21/18 11:45:42","The main experiment item","yes","FIN__AB__M21__7%3A10%3A17.osexp","C:\Users\ERP Testing Room\Desktop\Joanna\morph21","no","mono","no","18","no","white","no","yes","1080","legacy","29","29","C:/Users/ERP Testing Room/Desktop/Joanna/morph21/subject-128.csv","xpyriment","Jazzy James","3.1.4","0","z","NA","NA","NA","NA","/","z","651","NA","NA","NA","NA","91439","651","2","legacy","1024","2","48000","-16","AB_m21","128","even","FILL_NW","DARF","1589","203331","200238","201821","93048","NA","NA","NA","NA","201814","200735","NA","199738","NA","199733","201814","1609","203681","NA","NA","200821","1589","1589","201213","199733","1589","200821","203681","morph21_Oliver/Morris","27","21305","30","yes","1280","10"
"400","90.3225806452","90.3225806452","707.290322581","707.290322581","black","no","xpyriment","legacy","legacy","0","207","NA","uniform","71066","1000","0.0140714265612","1","undefined","1","0","30","30","30","0","30","30","30","NA","30","30","0","30","NA","30","30","0","30","NA","30","NA","30","0","0","30","30","0","30","30","31","/","04/21/18 11:45:42","The main experiment item","yes","FIN__AB__M21__7%3A10%3A17.osexp","C:\Users\ERP Testing Room\Desktop\Joanna\morph21","no","mono","no","18","no","white","no","yes","1080","legacy","30","30","C:/Users/ERP Testing Room/Desktop/Joanna/morph21/subject-128.csv","xpyriment","Jazzy James","3.1.4","0","/","NA","NA","NA","NA","/","/","621","NA","NA","NA","NA","91439","621","2","legacy","1024","2","48000","-16","AB_m21","128","even","FILL_W","CRUNCH","1589","206531","204931","201821","93048","NA","NA","NA","NA","206527","205428","NA","204431","NA","204420","206527","1609","206931","NA","NA","205531","1589","1589","205931","204420","1589","205531","206931","morph21_Oliver/Morris","28","21926","31","yes","1280","20"
"350","90.625","90.625","702.25","702.25","black","no","xpyriment","legacy","legacy","0","202","NA","uniform","76690","1000","0.0130395097144","1","undefined","1","0","31","31","31","0","31","31","31","NA","31","31","0","31","NA","31","31","0","31","NA","31","NA","31","0","0","31","31","0","31","31","32","/","04/21/18 11:45:42","The main experiment item","yes","FIN__AB__M21__7%3A10%3A17.osexp","C:\Users\ERP Testing Room\Desktop\Joanna\morph21","no","mono","no","18","no","white","no","yes","1080","legacy","31","31","C:/Users/ERP Testing Room/Desktop/Joanna/morph21/subject-128.csv","xpyriment","Jazzy James","3.1.4","0","/","NA","NA","NA","NA","/","/","546","NA","NA","NA","NA","91439","546","2","legacy","1024","2","48000","-16","AB_m21","128","even","CW_L","PARKING","1589","209806","208223","201821","93048","NA","NA","NA","NA","209798","208720","NA","207723","NA","207713","209798","1609","210156","NA","NA","208806","1589","1589","209198","207713","1589","208806","210156","morph21_Oliver/Morris","29","22472","32","yes","1280","25"
"400","90.9090909091","90.9090909091","700.333333333","700.333333333","black","no","xpyriment","legacy","legacy","0","208","NA","uniform","70776","1000","0.0141290833051","1","undefined","1","0","32","32","32","0","32","32","32","NA","32","32","0","32","NA","32","32","0","32","NA","32","NA","32","0","0","32","32","0","32","32","33","z","04/21/18 11:45:42","The main experiment item","yes","FIN__AB__M21__7%3A10%3A17.osexp","C:\Users\ERP Testing Room\Desktop\Joanna\morph21","no","mono","no","18","no","white","no","yes","1080","legacy","32","32","C:/Users/ERP Testing Room/Desktop/Joanna/morph21/subject-128.csv","xpyriment","Jazzy James","3.1.4","0","z","NA","NA","NA","NA","/","z","639","NA","NA","NA","NA","91439","639","2","legacy","1024","2","48000","-16","AB_m21","128","even","FILL_NW","BORMS","1589","214590","211481","213081","93048","NA","NA","NA","NA","213076","211978","NA","210981","NA","210974","213076","1609","214990","NA","NA","212081","1589","1589","212481","210974","1589","212081","214990","morph21_Oliver/Morris","30","23111","33","yes","1280","50"
"350","91.1764705882","91.1764705882","697.823529412","697.823529412","black","no","xpyriment","legacy","legacy","0","202","NA","uniform","69911","1000","0.0143039006737","1","undefined","1","0","33","33","33","0","33","33","33","NA","33","33","0","33","NA","33","33","0","33","NA","33","NA","33","0","0","33","33","0","33","33","34","/","04/21/18 11:45:42","The main experiment item","yes","FIN__AB__M21__7%3A10%3A17.osexp","C:\Users\ERP Testing Room\Desktop\Joanna\morph21","no","mono","no","18","no","white","no","yes","1080","legacy","33","33","C:/Users/ERP Testing Room/Desktop/Joanna/morph21/subject-128.csv","xpyriment","Jazzy James","3.1.4","0","/","NA","NA","NA","NA","/","/","615","NA","NA","NA","NA","91439","615","2","legacy","1024","2","48000","-16","AB_m21","128","even","CW_L","EDITOR","1589","217865","216273","213081","93048","NA","NA","NA","NA","217859","216770","NA","215773","NA","215764","217859","1609","218215","NA","NA","216865","1589","1589","217256","215764","1589","216865","218215","morph21_Oliver/Morris","31","23726","34","yes","1280","45"
"200","91.4285714286","91.4285714286","693.114285714","693.114285714","black","no","xpyriment","legacy","legacy","0","207","NA","uniform","78310","1000","0.0127697612055","1","undefined","1","0","34","34","34","0","34","34","34","NA","34","34","0","34","NA","34","34","0","34","NA","34","NA","34","0","0","34","34","0","34","34","35","/","04/21/18 11:45:42","The main experiment item","yes","FIN__AB__M21__7%3A10%3A17.osexp","C:\Users\ERP Testing Room\Desktop\Joanna\morph21","no","mono","no","18","no","white","no","yes","1080","legacy","34","34","C:/Users/ERP Testing Room/Desktop/Joanna/morph21/subject-128.csv","xpyriment","Jazzy James","3.1.4","0","/","NA","NA","NA","NA","/","/","533","NA","NA","NA","NA","91439","533","2","legacy","1024","2","48000","-16","AB_m21","128","even","FILL_W","SAVE","1589","221124","219523","213081","93048","NA","NA","NA","NA","221117","220020","NA","219023","NA","219015","221117","1609","221324","NA","NA","220123","1589","1589","220516","219015","1589","220123","221324","morph21_Oliver/Morris","32","24259","35","yes","1280","46"
"300","91.6666666667","91.6666666667","691.861111111","691.861111111","black","no","xpyriment","legacy","legacy","0","206","NA","uniform","72642","1000","0.0137661408001","1","undefined","1","0","35","35","35","0","35","35","35","NA","35","35","0","35","NA","35","35","0","35","NA","35","NA","35","0","0","35","35","0","35","35","36","z","04/21/18 11:45:42","The main experiment item","yes","FIN__AB__M21__7%3A10%3A17.osexp","C:\Users\ERP Testing Room\Desktop\Joanna\morph21","no","mono","no","18","no","white","no","yes","1080","legacy","35","35","C:/Users/ERP Testing Room/Desktop/Joanna/morph21/subject-128.csv","xpyriment","Jazzy James","3.1.4","0","z","NA","NA","NA","NA","/","z","648","NA","NA","NA","NA","91439","648","2","legacy","1024","2","48000","-16","AB_m21","128","even","NW_L_SIMP","LONGNELS","1589","225716","222624","224208","93048","NA","NA","NA","NA","224199","223121","NA","222124","NA","222116","224199","1609","226016","NA","NA","223208","1589","1589","223599","222116","1589","223208","226016","morph21_Oliver/Morris","33","24907","36","yes","1280","17"
"250","91.8918918919","91.8918918919","690.567567568","690.567567568","black","no","xpyriment","legacy","legacy","0","206","NA","uniform","74082","1000","0.0134985556545","1","undefined","1","0","36","36","36","0","36","36","36","NA","36","36","0","36","NA","36","36","0","36","NA","36","NA","36","0","0","36","36","0","36","36","37","z","04/21/18 11:45:42","The main experiment item","yes","FIN__AB__M21__7%3A10%3A17.osexp","C:\Users\ERP Testing Room\Desktop\Joanna\morph21","no","mono","no","18","no","white","no","yes","1080","legacy","36","36","C:/Users/ERP Testing Room/Desktop/Joanna/morph21/subject-128.csv","xpyriment","Jazzy James","3.1.4","0","z","NA","NA","NA","NA","/","z","644","NA","NA","NA","NA","91439","644","2","legacy","1024","2","48000","-16","AB_m21","128","even","NW_L_SIMP","BEARILT","1589","228916","227299","224208","93048","NA","NA","NA","NA","228911","227797","NA","226799","NA","226790","228911","1609","229166","NA","NA","227916","1589","1589","228308","226790","1589","227916","229166","morph21_Oliver/Morris","34","25551","37","yes","1280","25"
"250","92.1052631579","92.1052631579","686.5","686.5","black","no","xpyriment","legacy","legacy","0","201","NA","uniform","69658","1000","0.0143558528812","1","undefined","1","0","37","37","37","0","37","37","37","NA","37","37","0","37","NA","37","37","0","37","NA","37","NA","37","0","0","37","37","0","37","37","38","/","04/21/18 11:45:42","The main experiment item","yes","FIN__AB__M21__7%3A10%3A17.osexp","C:\Users\ERP Testing Room\Desktop\Joanna\morph21","no","mono","no","18","no","white","no","yes","1080","legacy","37","37","C:/Users/ERP Testing Room/Desktop/Joanna/morph21/subject-128.csv","xpyriment","Jazzy James","3.1.4","0","/","NA","NA","NA","NA","/","/","536","NA","NA","NA","NA","91439","536","2","legacy","1024","2","48000","-16","AB_m21","128","even","CW_S","TOSSING","1589","232000","230400","224208","93048","NA","NA","NA","NA","231995","230897","NA","229900","NA","229895","231995","1609","232250","NA","NA","231000","1589","1589","231400","229895","1589","231000","232250","morph21_Oliver/Morris","35","26087","38","yes","1280","26"
"200","92.3076923077","92.3076923077","684.743589744","684.743589744","black","no","xpyriment","legacy","legacy","0","208","NA","uniform","68192","1000","0.0146644767715","1","undefined","1","0","38","38","38","0","38","38","38","NA","38","38","0","38","NA","38","38","0","38","NA","38","NA","38","0","0","38","38","0","38","38","39","z","04/21/18 11:45:42","The main experiment item","yes","FIN__AB__M21__7%3A10%3A17.osexp","C:\Users\ERP Testing Room\Desktop\Joanna\morph21","no","mono","no","18","no","white","no","yes","1080","legacy","38","38","C:/Users/ERP Testing Room/Desktop/Joanna/morph21/subject-128.csv","xpyriment","Jazzy James","3.1.4","0","z","NA","NA","NA","NA","/","z","618","NA","NA","NA","NA","91439","618","2","legacy","1024","2","48000","-16","AB_m21","128","even","FILL_NW","TUEER","1589","236666","233550","235158","93048","NA","NA","NA","NA","235155","234047","NA","233050","NA","233039","235155","1609","236867","NA","NA","234166","1589","1589","234558","233039","1589","234166","236867","morph21_Oliver/Morris","36","26705","39","yes","1280","44"
"400","92.5","92.5","681.725","681.725","black","no","xpyriment","legacy","legacy","0","202","NA","uniform","70500","1000","0.0141843971631","1","undefined","1","0","39","39","39","0","39","39","39","NA","39","39","0","39","NA","39","39","0","39","NA","39","NA","39","0","0","39","39","0","39","39","40","/","04/21/18 11:45:42","The main experiment item","yes","FIN__AB__M21__7%3A10%3A17.osexp","C:\Users\ERP Testing Room\Desktop\Joanna\morph21","no","mono","no","18","no","white","no","yes","1080","legacy","39","39","C:/Users/ERP Testing Room/Desktop/Joanna/morph21/subject-128.csv","xpyriment","Jazzy James","3.1.4","0","/","NA","NA","NA","NA","/","/","564","NA","NA","NA","NA","91439","564","2","legacy","1024","2","48000","-16","AB_m21","128","even","CW_L","LOCKER","1589","239668","238068","235158","93048","NA","NA","NA","NA","239659","238565","NA","237566","NA","237558","239659","1609","240068","NA","NA","238668","1589","1589","239059","237558","1589","238668","240068","morph21_Oliver/Morris","37","27269","40","yes","1280","8"
"400","92.6829268293","92.6829268293","680","680","black","no","xpyriment","legacy","legacy","0","206","NA","uniform","73115","1000","0.0136770840457","1","undefined","1","0","40","40","40","0","40","40","40","NA","40","40","0","40","NA","40","40","0","40","NA","40","NA","40","0","0","40","40","0","40","40","41","z","04/21/18 11:45:42","The main experiment item","yes","FIN__AB__M21__7%3A10%3A17.osexp","C:\Users\ERP Testing Room\Desktop\Joanna\morph21","no","mono","no","18","no","white","no","yes","1080","legacy","40","40","C:/Users/ERP Testing Room/Desktop/Joanna/morph21/subject-128.csv","xpyriment","Jazzy James","3.1.4","0","z","NA","NA","NA","NA","/","z","611","NA","NA","NA","NA","91439","611","2","legacy","1024","2","48000","-16","AB_m21","128","even","NW_L_SIMP","CLASSOES","1589","242909","241309","235158","93048","NA","NA","NA","NA","242906","241807","NA","240809","NA","240801","242906","1609","243310","NA","NA","241909","1589","1589","242309","240801","1589","241909","243310","morph21_Oliver/Morris","38","27880","41","yes","1280","18"
"300","92.8571428571","92.8571428571","678.69047619","678.69047619","black","no","xpyriment","legacy","legacy","0","205","NA","uniform","67081","1000","0.0149073508147","1","undefined","1","0","41","41","41","0","41","41","41","NA","41","41","0","41","NA","41","41","0","41","NA","41","NA","41","0","0","41","41","0","41","41","42","z","04/21/18 11:45:42","The main experiment item","yes","FIN__AB__M21__7%3A10%3A17.osexp","C:\Users\ERP Testing Room\Desktop\Joanna\morph21","no","mono","no","18","no","white","no","yes","1080","legacy","41","41","C:/Users/ERP Testing Room/Desktop/Joanna/morph21/subject-128.csv","xpyriment","Jazzy James","3.1.4","0","z","NA","NA","NA","NA","/","z","625","NA","NA","NA","NA","91439","625","2","legacy","1024","2","48000","-16","AB_m21","128","even","NW_S_SIMP","HELMETOES","1589","247651","244559","246143","93048","NA","NA","NA","NA","246140","245057","NA","244059","NA","244055","246140","1609","247951","NA","NA","245151","1589","1589","245543","244055","1589","245151","247951","morph21_Oliver/Morris","39","28505","42","yes","1280","14"
"250","93.023255814","93.023255814","676.069767442","676.069767442","black","no","xpyriment","legacy","legacy","0","207","NA","uniform","72219","1000","0.0138467716252","1","undefined","1","0","42","42","42","0","42","42","42","NA","42","42","0","42","NA","42","42","0","42","NA","42","NA","42","0","0","42","42","0","42","42","43","/","04/21/18 11:45:42","The main experiment item","yes","FIN__AB__M21__7%3A10%3A17.osexp","C:\Users\ERP Testing Room\Desktop\Joanna\morph21","no","mono","no","18","no","white","no","yes","1080","legacy","42","42","C:/Users/ERP Testing Room/Desktop/Joanna/morph21/subject-128.csv","xpyriment","Jazzy James","3.1.4","0","/","NA","NA","NA","NA","/","/","566","NA","NA","NA","NA","91439","566","2","legacy","1024","2","48000","-16","AB_m21","128","even","FILL_W","SLIM","1589","250826","249210","246143","93048","NA","NA","NA","NA","250819","249707","NA","248710","NA","248706","250819","1609","251076","NA","NA","249826","1589","1589","250218","248706","1589","249826","251076","morph21_Oliver/Morris","40","29071","43","yes","1280","6"
"200","93.1818181818","93.1818181818","673","673","black","no","xpyriment","legacy","legacy","0","208","NA","uniform","71675","1000","0.0139518660621","1","undefined","1","0","43","43","43","0","43","43","43","NA","43","43","0","43","NA","43","43","0","43","NA","43","NA","43","0","0","43","43","0","43","43","44","z","04/21/18 11:45:42","The main experiment item","yes","FIN__AB__M21__7%3A10%3A17.osexp","C:\Users\ERP Testing Room\Desktop\Joanna\morph21","no","mono","no","18","no","white","no","yes","1080","legacy","43","43","C:/Users/ERP Testing Room/Desktop/Joanna/morph21/subject-128.csv","xpyriment","Jazzy James","3.1.4","0","z","NA","NA","NA","NA","/","z","541","NA","NA","NA","NA","91439","541","2","legacy","1024","2","48000","-16","AB_m21","128","even","FILL_NW","GILN","1589","254027","252435","246143","93048","NA","NA","NA","NA","254023","252932","NA","251935","NA","251928","254023","1609","254227","NA","NA","253027","1589","1589","253427","251928","1589","253026","254227","morph21_Oliver/Morris","41","29612","44","yes","1280","25"
"350","93.3333333333","93.3333333333","671.644444444","671.644444444","black","no","xpyriment","legacy","legacy","0","206","NA","uniform","64348","1000","0.0155404985392","1","undefined","1","0","44","44","44","0","44","44","44","NA","44","44","0","44","NA","44","44","0","44","NA","44","NA","44","0","0","44","44","0","44","44","45","z","04/21/18 11:45:42","The main experiment item","yes","FIN__AB__M21__7%3A10%3A17.osexp","C:\Users\ERP Testing Room\Desktop\Joanna\morph21","no","mono","no","18","no","white","no","yes","1080","legacy","44","44","C:/Users/ERP Testing Room/Desktop/Joanna/morph21/subject-128.csv","xpyriment","Jazzy James","3.1.4","0","z","NA","NA","NA","NA","/","z","612","NA","NA","NA","NA","91439","612","2","legacy","1024","2","48000","-16","AB_m21","128","even","NW_L_SIMP","NUTLA","1589","258769","255636","257261","93048","NA","NA","NA","NA","257255","256133","NA","255135","NA","255131","257255","1609","259120","NA","NA","256261","1589","1589","256653","255131","1589","256261","259120","morph21_Oliver/Morris","42","30224","45","yes","1280","14"
"400","93.4782608696","93.4782608696","672.304347826","672.304347826","black","no","xpyriment","legacy","legacy","0","205","NA","uniform","69969","1000","0.0142920436193","1","undefined","1","0","45","45","45","0","45","45","45","NA","45","45","0","45","NA","45","45","0","45","NA","45","NA","45","0","0","45","45","0","45","45","46","z","04/21/18 11:45:42","The main experiment item","yes","FIN__AB__M21__7%3A10%3A17.osexp","C:\Users\ERP Testing Room\Desktop\Joanna\morph21","no","mono","no","18","no","white","no","yes","1080","legacy","45","45","C:/Users/ERP Testing Room/Desktop/Joanna/morph21/subject-128.csv","xpyriment","Jazzy James","3.1.4","0","z","NA","NA","NA","NA","/","z","702","NA","NA","NA","NA","91439","702","2","legacy","1024","2","48000","-16","AB_m21","128","even","NW_S_SIMP","RAMPIME","1589","261978","260370","257261","93048","NA","NA","NA","NA","261969","260867","NA","259870","NA","259860","261969","1609","262378","NA","NA","260978","1589","1589","261370","259860","1589","260978","262378","morph21_Oliver/Morris","43","30926","46","yes","1280","6"
"200","93.6170212766","93.6170212766","673.744680851","673.744680851","black","no","xpyriment","legacy","legacy","0","201","NA","uniform","68390","1000","0.0146220207633","1","undefined","1","0","46","46","46","0","46","46","46","NA","46","46","0","46","NA","46","46","0","46","NA","46","NA","46","0","0","46","46","0","46","46","47","/","04/21/18 11:45:42","The main experiment item","yes","FIN__AB__M21__7%3A10%3A17.osexp","C:\Users\ERP Testing Room\Desktop\Joanna\morph21","no","mono","no","18","no","white","no","yes","1080","legacy","46","46","C:/Users/ERP Testing Room/Desktop/Joanna/morph21/subject-128.csv","xpyriment","Jazzy James","3.1.4","0","/","NA","NA","NA","NA","/","/","740","NA","NA","NA","NA","91439","740","2","legacy","1024","2","48000","-16","AB_m21","128","even","CW_S","LISTENER","1589","265236","263636","257261","93048","NA","NA","NA","NA","265231","264133","NA","263136","NA","263127","265231","1609","265436","NA","NA","264236","1589","1589","264628","263127","1589","264236","265436","morph21_Oliver/Morris","44","31666","47","yes","1280","18"
"200","93.75","93.75","674.5625","674.5625","black","no","xpyriment","legacy","legacy","0","203","NA","uniform","60084","1000","0.0166433659543","1","undefined","1","0","47","47","47","0","47","47","47","NA","47","47","0","47","NA","47","47","0","47","NA","47","NA","47","0","0","47","47","0","47","47","48","z","04/21/18 11:45:42","The main experiment item","yes","FIN__AB__M21__7%3A10%3A17.osexp","C:\Users\ERP Testing Room\Desktop\Joanna\morph21","no","mono","no","18","no","white","no","yes","1080","legacy","47","47","C:/Users/ERP Testing Room/Desktop/Joanna/morph21/subject-128.csv","xpyriment","Jazzy James","3.1.4","0","z","NA","NA","NA","NA","/","z","713","NA","NA","NA","NA","91439","713","2","legacy","1024","2","48000","-16","AB_m21","128","even","NW_S_COMP","MELTANCE","1589","269820","266712","268312","93048","NA","NA","NA","NA","268305","267209","NA","266212","NA","266202","268305","1609","270020","NA","NA","267311","1589","1589","267703","266202","1589","267311","270020","morph21_Oliver/Morris","45","32379","48","yes","1280","1"
"250","93.8775510204","93.8775510204","672.12244898","672.12244898","black","no","xpyriment","legacy","legacy","0","201","NA","uniform","75554","1000","0.0132355666146","1","undefined","1","0","48","48","48","0","48","48","48","NA","48","48","0","48","NA","48","48","0","48","NA","48","NA","48","0","0","48","48","0","48","48","49","/","04/21/18 11:45:42","The main experiment item","yes","FIN__AB__M21__7%3A10%3A17.osexp","C:\Users\ERP Testing Room\Desktop\Joanna\morph21","no","mono","no","18","no","white","no","yes","1080","legacy","48","48","C:/Users/ERP Testing Room/Desktop/Joanna/morph21/subject-128.csv","xpyriment","Jazzy James","3.1.4","0","/","NA","NA","NA","NA","/","/","555","NA","NA","NA","NA","91439","555","2","legacy","1024","2","48000","-16","AB_m21","128","even","CW_S","AWARENESS","1589","272838","271237","268312","93048","NA","NA","NA","NA","272835","271734","NA","270737","NA","270731","272835","1609","273088","NA","NA","271845","1589","1589","272237","270731","1589","271845","273088","morph21_Oliver/Morris","46","32934","49","yes","1280","44"
"300","94","94","671.1","671.1","black","no","xpyriment","legacy","legacy","0","205","NA","uniform","70202","1000","0.0142446084157","1","undefined","1","0","49","49","49","0","49","49","49","NA","49","49","0","49","NA","49","49","0","49","NA","49","NA","49","0","0","49","49","0","49","49","50","z","04/21/18 11:45:42","The main experiment item","yes","FIN__AB__M21__7%3A10%3A17.osexp","C:\Users\ERP Testing Room\Desktop\Joanna\morph21","no","mono","no","18","no","white","no","yes","1080","legacy","49","49","C:/Users/ERP Testing Room/Desktop/Joanna/morph21/subject-128.csv","xpyriment","Jazzy James","3.1.4","0","z","NA","NA","NA","NA","/","z","621","NA","NA","NA","NA","91439","621","2","legacy","1024","2","48000","-16","AB_m21","128","even","NW_S_SIMP","TILTADY","1589","275963","274363","268312","93048","NA","NA","NA","NA","275956","274860","NA","273863","NA","273854","275956","1609","276263","NA","NA","274963","1589","1589","275354","273854","1589","274963","276263","morph21_Oliver/Morris","47","33555","50","yes","1280","17"
"350","94.1176470588","94.1176470588","668.392156863","668.392156863","black","no","xpyriment","legacy","legacy","0","202","NA","uniform","69344","1000","0.0144208583295","1","undefined","1","0","50","50","50","0","50","50","50","NA","50","50","0","50","NA","50","50","0","50","NA","50","NA","50","0","0","50","50","0","50","50","51","/","04/21/18 11:45:42","The main experiment item","yes","FIN__AB__M21__7%3A10%3A17.osexp","C:\Users\ERP Testing Room\Desktop\Joanna\morph21","no","mono","no","18","no","white","no","yes","1080","legacy","50","50","C:/Users/ERP Testing Room/Desktop/Joanna/morph21/subject-128.csv","xpyriment","Jazzy James","3.1.4","0","/","NA","NA","NA","NA","/","/","533","NA","NA","NA","NA","91439","533","2","legacy","1024","2","48000","-16","AB_m21","128","even","CW_L","RENTER","1589","280663","277546","279155","93048","NA","NA","NA","NA","279150","278043","NA","277046","NA","277037","279150","1609","281013","NA","NA","278155","1589","1589","278555","277037","1589","278155","281013","morph21_Oliver/Morris","48","34088","51","yes","1280","9"
"300","94.2307692308","94.2307692308","666.75","666.75","black","no","xpyriment","legacy","legacy","0","202","NA","uniform","65168","1000","0.0153449545789","1","undefined","1","0","51","51","51","0","51","51","51","NA","51","51","0","51","NA","51","51","0","51","NA","51","NA","51","0","0","51","51","0","51","51","52","/","04/21/18 11:45:42","The main experiment item","yes","FIN__AB__M21__7%3A10%3A17.osexp","C:\Users\ERP Testing Room\Desktop\Joanna\morph21","no","mono","no","18","no","white","no","yes","1080","legacy","51","51","C:/Users/ERP Testing Room/Desktop/Joanna/morph21/subject-128.csv","xpyriment","Jazzy James","3.1.4","0","/","NA","NA","NA","NA","/","/","583","NA","NA","NA","NA","91439","583","2","legacy","1024","2","48000","-16","AB_m21","128","even","CW_L","DOUBTFUL","1589","283913","282296","279155","93048","NA","NA","NA","NA","283907","282794","NA","281797","NA","281792","283907","1609","284213","NA","NA","282913","1589","1589","283305","281792","1589","282913","284213","morph21_Oliver/Morris","49","34671","52","yes","1280","21"
"300","94.3396226415","94.3396226415","666.943396226","666.943396226","black","no","xpyriment","legacy","legacy","0","205","NA","uniform","64405","1000","0.0155267448179","1","undefined","1","0","52","52","52","0","52","52","52","NA","52","52","0","52","NA","52","52","0","52","NA","52","NA","52","0","0","52","52","0","52","52","53","z","04/21/18 11:45:42","The main experiment item","yes","FIN__AB__M21__7%3A10%3A17.osexp","C:\Users\ERP Testing Room\Desktop\Joanna\morph21","no","mono","no","18","no","white","no","yes","1080","legacy","52","52","C:/Users/ERP Testing Room/Desktop/Joanna/morph21/subject-128.csv","xpyriment","Jazzy James","3.1.4","0","z","NA","NA","NA","NA","/","z","677","NA","NA","NA","NA","91439","677","2","legacy","1024","2","48000","-16","AB_m21","128","even","NW_S_SIMP","BOLTOES","1589","287155","285538","279155","93048","NA","NA","NA","NA","287149","286035","NA","285038","NA","285033","287149","1609","287455","NA","NA","286155","1589","1589","286547","285033","1589","286155","287455","morph21_Oliver/Morris","50","35348","53","yes","1280","13"
"200","94.4444444444","94.4444444444","664.037037037","664.037037037","black","no","xpyriment","legacy","legacy","0","202","NA","uniform","74141","1000","0.0134878137603","1","undefined","1","0","53","53","53","0","53","53","53","NA","53","53","0","53","NA","53","53","0","53","NA","53","NA","53","0","0","53","53","0","53","53","54","/","04/21/18 11:45:42","The main experiment item","yes","FIN__AB__M21__7%3A10%3A17.osexp","C:\Users\ERP Testing Room\Desktop\Joanna\morph21","no","mono","no","18","no","white","no","yes","1080","legacy","53","53","C:/Users/ERP Testing Room/Desktop/Joanna/morph21/subject-128.csv","xpyriment","Jazzy James","3.1.4","0","/","NA","NA","NA","NA","/","/","510","NA","NA","NA","NA","91439","510","2","legacy","1024","2","48000","-16","AB_m21","128","even","CW_L","SHAMEFUL","1589","291823","288722","290314","93048","NA","NA","NA","NA","290309","289219","NA","288222","NA","288216","290309","1609","292023","NA","NA","289313","1589","1589","289713","288216","1589","289313","292023","morph21_Oliver/Morris","51","35858","54","yes","1280","19"
"350","94.5454545455","94.5454545455","664.327272727","664.327272727","black","no","xpyriment","legacy","legacy","0","208","NA","uniform","58613","1000","0.0170610615392","1","undefined","1","0","54","54","54","0","54","54","54","NA","54","54","0","54","NA","54","54","0","54","NA","54","NA","54","0","0","54","54","0","54","54","55","z","04/21/18 11:45:42","The main experiment item","yes","FIN__AB__M21__7%3A10%3A17.osexp","C:\Users\ERP Testing Room\Desktop\Joanna\morph21","no","mono","no","18","no","white","no","yes","1080","legacy","54","54","C:/Users/ERP Testing Room/Desktop/Joanna/morph21/subject-128.csv","xpyriment","Jazzy James","3.1.4","0","z","NA","NA","NA","NA","/","z","680","NA","NA","NA","NA","91439","680","2","legacy","1024","2","48000","-16","AB_m21","128","even","FILL_NW","KRAISE","1589","294840","293240","290314","93048","NA","NA","NA","NA","294836","293737","NA","292740","NA","292728","294836","1609","295190","NA","NA","293840","1589","1589","294240","292728","1589","293840","295190","morph21_Oliver/Morris","52","36538","55","yes","1280","33"
"350","94.6428571429","94.6428571429","661.035714286","661.035714286","black","no","xpyriment","legacy","legacy","0","202","NA","uniform","77157","1000","0.0129605868554","1","undefined","1","0","55","55","55","0","55","55","55","NA","55","55","0","55","NA","55","55","0","55","NA","55","NA","55","0","0","55","55","0","55","55","56","/","04/21/18 11:45:42","The main experiment item","yes","FIN__AB__M21__7%3A10%3A17.osexp","C:\Users\ERP Testing Room\Desktop\Joanna\morph21","no","mono","no","18","no","white","no","yes","1080","legacy","55","55","C:/Users/ERP Testing Room/Desktop/Joanna/morph21/subject-128.csv","xpyriment","Jazzy James","3.1.4","0","/","NA","NA","NA","NA","/","/","480","NA","NA","NA","NA","91439","480","2","legacy","1024","2","48000","-16","AB_m21","128","even","CW_L","KICKING","1589","298056","296431","290314","93048","NA","NA","NA","NA","298053","296929","NA","295931","NA","295922","298053","1609","298407","NA","NA","297056","1589","1589","297456","295921","1589","297056","298407","morph21_Oliver/Morris","53","37018","56","yes","1280","23"
"350","94.7368421053","94.7368421053","666.473684211","666.473684211","black","no","xpyriment","legacy","legacy","0","206","NA","uniform","62071","1000","0.016110583042","1","undefined","1","0","56","56","56","0","56","56","56","NA","56","56","0","56","NA","56","56","0","56","NA","56","NA","56","0","0","56","56","0","56","56","57","z","04/21/18 11:45:42","The main experiment item","yes","FIN__AB__M21__7%3A10%3A17.osexp","C:\Users\ERP Testing Room\Desktop\Joanna\morph21","no","mono","no","18","no","white","no","yes","1080","legacy","56","56","C:/Users/ERP Testing Room/Desktop/Joanna/morph21/subject-128.csv","xpyriment","Jazzy James","3.1.4","0","z","NA","NA","NA","NA","/","z","971","NA","NA","NA","NA","91439","971","2","legacy","1024","2","48000","-16","AB_m21","128","even","NW_L_SIMP","WITCHITH","1589","302673","299557","301165","93048","NA","NA","NA","NA","301162","300054","NA","299057","NA","299047","301162","1609","303024","NA","NA","300173","1589","1589","300565","299047","1589","300173","303024","morph21_Oliver/Morris","54","37989","57","yes","1280","11"
"300","93.1034482759","93.1034482759","672.137931034","672.137931034","black","no","xpyriment","legacy","legacy","0","208","NA","uniform","56122","1000","0.0178183243648","0","undefined","0","0","57","57","57","0","57","57","57","NA","57","57","0","57","NA","57","57","0","57","NA","57","NA","57","0","0","57","57","0","57","57","58","z","04/21/18 11:45:42","The main experiment item","yes","FIN__AB__M21__7%3A10%3A17.osexp","C:\Users\ERP Testing Room\Desktop\Joanna\morph21","no","mono","no","18","no","white","no","yes","1080","legacy","57","57","C:/Users/ERP Testing Room/Desktop/Joanna/morph21/subject-128.csv","xpyriment","Jazzy James","3.1.4","0","None","NA","NA","NA","NA","/","None","995","NA","NA","NA","NA","91439","995","2","legacy","1024","2","48000","-16","AB_m21","128","even","FILL_NW","HEEM","1589","305873","304290","301165","93048","NA","NA","NA","NA","301162","304787","NA","303790","NA","303782","305869","1609","306173","NA","NA","304873","1589","1589","305273","303782","1589","304873","306173","morph21_Oliver/Morris","54","38984","58","yes","1280","27"
"350","93.2203389831","93.2203389831","671.271186441","671.271186441","black","no","xpyriment","legacy","legacy","0","208","NA","uniform","73861","1000","0.0135389447746","1","undefined","1","0","58","58","58","0","58","58","58","NA","58","58","0","58","NA","58","58","0","58","NA","58","NA","58","0","0","58","58","0","58","58","59","z","04/21/18 11:45:42","The main experiment item","yes","FIN__AB__M21__7%3A10%3A17.osexp","C:\Users\ERP Testing Room\Desktop\Joanna\morph21","no","mono","no","18","no","white","no","yes","1080","legacy","58","58","C:/Users/ERP Testing Room/Desktop/Joanna/morph21/subject-128.csv","xpyriment","Jazzy James","3.1.4","0","z","NA","NA","NA","NA","/","z","621","NA","NA","NA","NA","91439","621","2","legacy","1024","2","48000","-16","AB_m21","128","even","FILL_NW","DELP","1589","309091","307482","301165","93048","NA","NA","NA","NA","309083","307979","NA","306982","NA","306978","309083","1609","309441","NA","NA","308091","1589","1589","308483","306977","1589","308091","309441","morph21_Oliver/Morris","55","39605","59","yes","1280","14"
"400","93.3333333333","93.3333333333","670.5","670.5","black","no","xpyriment","legacy","legacy","0","208","NA","uniform","65389","1000","0.0152930921103","1","undefined","1","0","59","59","59","0","59","59","59","NA","59","59","0","59","NA","59","59","0","59","NA","59","NA","59","0","0","59","59","0","59","59","60","z","04/21/18 11:45:42","The main experiment item","yes","FIN__AB__M21__7%3A10%3A17.osexp","C:\Users\ERP Testing Room\Desktop\Joanna\morph21","no","mono","no","18","no","white","no","yes","1080","legacy","59","59","C:/Users/ERP Testing Room/Desktop/Joanna/morph21/subject-128.csv","xpyriment","Jazzy James","3.1.4","0","z","NA","NA","NA","NA","/","z","625","NA","NA","NA","NA","91439","625","2","legacy","1024","2","48000","-16","AB_m21","128","even","FILL_NW","ULNS","1589","313883","310766","312375","93048","NA","NA","NA","NA","312368","311263","NA","310266","NA","310254","312368","1609","314283","NA","NA","311375","1589","1589","311766","310254","1589","311375","314283","morph21_Oliver/Morris","56","40230","60","yes","1280","45"
"200","93.4426229508","93.4426229508","669","669","black","no","xpyriment","legacy","legacy","0","202","NA","uniform","68853","1000","0.0145236954091","1","undefined","1","0","60","60","60","0","60","60","60","NA","60","60","0","60","NA","60","60","0","60","NA","60","NA","60","0","0","60","60","0","60","60","61","/","04/21/18 11:45:42","The main experiment item","yes","FIN__AB__M21__7%3A10%3A17.osexp","C:\Users\ERP Testing Room\Desktop\Joanna\morph21","no","mono","no","18","no","white","no","yes","1080","legacy","60","60","C:/Users/ERP Testing Room/Desktop/Joanna/morph21/subject-128.csv","xpyriment","Jazzy James","3.1.4","0","/","NA","NA","NA","NA","/","/","579","NA","NA","NA","NA","91439","579","2","legacy","1024","2","48000","-16","AB_m21","128","even","CW_L","VERBAL","1589","317125","315517","312375","93048","NA","NA","NA","NA","317119","316014","NA","315017","NA","315006","317119","1609","317325","NA","NA","316125","1589","1589","316517","315006","1589","316125","317325","morph21_Oliver/Morris","57","40809","61","yes","1280","50"
"250","93.5483870968","93.5483870968","670.177419355","670.177419355","black","no","xpyriment","legacy","legacy","0","203","NA","uniform","62345","1000","0.0160397786511","1","undefined","1","0","61","61","61","0","61","61","61","NA","61","61","0","61","NA","61","61","0","61","NA","61","NA","61","0","0","61","61","0","61","61","62","z","04/21/18 11:45:42","The main experiment item","yes","FIN__AB__M21__7%3A10%3A17.osexp","C:\Users\ERP Testing Room\Desktop\Joanna\morph21","no","mono","no","18","no","white","no","yes","1080","legacy","61","61","C:/Users/ERP Testing Room/Desktop/Joanna/morph21/subject-128.csv","xpyriment","Jazzy James","3.1.4","0","z","NA","NA","NA","NA","/","z","742","NA","NA","NA","NA","91439","742","2","legacy","1024","2","48000","-16","AB_m21","128","even","NW_S_COMP","TREASONIZE","1589","320250","318642","312375","93048","NA","NA","NA","NA","320247","319139","NA","318142","NA","318132","320247","1609","320500","NA","NA","319258","1589","1589","319650","318132","1589","319258","320500","morph21_Oliver/Morris","58","41551","62","yes","1280","14"
"300","93.6507936508","93.6507936508","667.80952381","667.80952381","black","no","xpyriment","legacy","legacy","0","201","NA","uniform","69047","1000","0.0144828884673","1","undefined","1","0","62","62","62","0","62","62","62","NA","62","62","0","62","NA","62","62","0","62","NA","62","NA","62","0","0","62","62","0","62","62","63","/","04/21/18 11:45:42","The main experiment item","yes","FIN__AB__M21__7%3A10%3A17.osexp","C:\Users\ERP Testing Room\Desktop\Joanna\morph21","no","mono","no","18","no","white","no","yes","1080","legacy","62","62","C:/Users/ERP Testing Room/Desktop/Joanna/morph21/subject-128.csv","xpyriment","Jazzy James","3.1.4","0","/","NA","NA","NA","NA","/","/","521","NA","NA","NA","NA","91439","521","2","legacy","1024","2","48000","-16","AB_m21","128","even","CW_S","RISKY","1589","324875","321767","323367","93048","NA","NA","NA","NA","323363","322264","NA","321267","NA","321255","323363","1609","325175","NA","NA","322375","1589","1589","322767","321255","1589","322375","325175","morph21_Oliver/Morris","59","42072","63","yes","1280","50"
"300","93.75","93.75","667.09375","667.09375","black","no","xpyriment","legacy","legacy","0","205","NA","uniform","69517","1000","0.0143849705827","1","undefined","1","0","63","63","63","0","63","63","63","NA","63","63","0","63","NA","63","63","0","63","NA","63","NA","63","0","0","63","63","0","63","63","64","z","04/21/18 11:45:42","The main experiment item","yes","FIN__AB__M21__7%3A10%3A17.osexp","C:\Users\ERP Testing Room\Desktop\Joanna\morph21","no","mono","no","18","no","white","no","yes","1080","legacy","63","63","C:/Users/ERP Testing Room/Desktop/Joanna/morph21/subject-128.csv","xpyriment","Jazzy James","3.1.4","0","z","NA","NA","NA","NA","/","z","622","NA","NA","NA","NA","91439","622","2","legacy","1024","2","48000","-16","AB_m21","128","even","NW_S_SIMP","WINKIDY","1589","328010","326426","323367","93048","NA","NA","NA","NA","328002","326924","NA","325926","NA","325916","328002","1609","328310","NA","NA","327010","1589","1589","327401","325916","1589","327010","328310","morph21_Oliver/Morris","60","42694","64","yes","1280","21"
"400","93.8461538462","93.8461538462","666.892307692","666.892307692","black","no","xpyriment","legacy","legacy","0","204","NA","uniform","71940","1000","0.0139004726161","1","undefined","1","0","64","64","64","0","64","64","64","NA","64","64","0","64","NA","64","64","0","64","NA","64","NA","64","0","0","64","64","0","64","64","65","z","04/21/18 11:45:42","The main experiment item","yes","FIN__AB__M21__7%3A10%3A17.osexp","C:\Users\ERP Testing Room\Desktop\Joanna\morph21","no","mono","no","18","no","white","no","yes","1080","legacy","64","64","C:/Users/ERP Testing Room/Desktop/Joanna/morph21/subject-128.csv","xpyriment","Jazzy James","3.1.4","0","z","NA","NA","NA","NA","/","z","654","NA","NA","NA","NA","91439","654","2","legacy","1024","2","48000","-16","AB_m21","128","even","NW_L_COMP","FLITENCE","1589","331202","329610","323367","93048","NA","NA","NA","NA","331198","330107","NA","329101","NA","329095","331198","1609","331602","NA","NA","330202","1589","1589","330602","329095","1589","330201","331602","morph21_Oliver/Morris","61","43348","65","yes","1280","3"
"350","93.9393939394","93.9393939394","665.727272727","665.727272727","black","no","xpyriment","legacy","legacy","0","201","NA","uniform","71138","1000","0.0140571846271","1","undefined","1","0","65","65","65","0","65","65","65","NA","65","65","0","65","NA","65","65","0","65","NA","65","NA","65","0","0","65","65","0","65","65","66","/","04/21/18 11:45:42","The main experiment item","yes","FIN__AB__M21__7%3A10%3A17.osexp","C:\Users\ERP Testing Room\Desktop\Joanna\morph21","no","mono","no","18","no","white","no","yes","1080","legacy","65","65","C:/Users/ERP Testing Room/Desktop/Joanna/morph21/subject-128.csv","xpyriment","Jazzy James","3.1.4","0","/","NA","NA","NA","NA","/","/","590","NA","NA","NA","NA","91439","590","2","legacy","1024","2","48000","-16","AB_m21","128","even","CW_S","RICHNESS","1589","335910","332810","334402","93048","NA","NA","NA","NA","334397","333307","NA","332310","NA","332302","334397","1609","336260","NA","NA","333402","1589","1589","333802","332302","1589","333402","336260","morph21_Oliver/Morris","62","43938","66","yes","1280","45"
"250","92.5373134328","92.5373134328","670.626865672","670.626865672","black","no","xpyriment","legacy","legacy","0","203","NA","uniform","59993","1000","0.016668611338","0","undefined","0","0","66","66","66","0","66","66","66","NA","66","66","0","66","NA","66","66","0","66","NA","66","NA","66","0","0","66","66","0","66","66","67","z","04/21/18 11:45:42","The main experiment item","yes","FIN__AB__M21__7%3A10%3A17.osexp","C:\Users\ERP Testing Room\Desktop\Joanna\morph21","no","mono","no","18","no","white","no","yes","1080","legacy","66","66","C:/Users/ERP Testing Room/Desktop/Joanna/morph21/subject-128.csv","xpyriment","Jazzy James","3.1.4","0","None","NA","NA","NA","NA","/","None","994","NA","NA","NA","NA","91439","994","2","legacy","1024","2","48000","-16","AB_m21","128","even","NW_S_COMP","LIDARY","1589","339068","337485","334402","93048","NA","NA","NA","NA","334397","337982","NA","336985","NA","336974","339063","1609","339319","NA","NA","338069","1589","1589","338460","336974","1589","338068","339319","morph21_Oliver/Morris","62","44932","67","yes","1280","3"
"250","92.6470588235","92.6470588235","667.926470588","667.926470588","black","no","xpyriment","legacy","legacy","0","208","NA","uniform","71836","1000","0.0139205969152","1","undefined","1","0","67","67","67","0","67","67","67","NA","67","67","0","67","NA","67","67","0","67","NA","67","NA","67","0","0","67","67","0","67","67","68","z","04/21/18 11:45:42","The main experiment item","yes","FIN__AB__M21__7%3A10%3A17.osexp","C:\Users\ERP Testing Room\Desktop\Joanna\morph21","no","mono","no","18","no","white","no","yes","1080","legacy","67","67","C:/Users/ERP Testing Room/Desktop/Joanna/morph21/subject-128.csv","xpyriment","Jazzy James","3.1.4","0","z","NA","NA","NA","NA","/","z","487","NA","NA","NA","NA","91439","487","2","legacy","1024","2","48000","-16","AB_m21","128","even","FILL_NW","PHEEKS","1589","342177","340560","334402","93048","NA","NA","NA","NA","342167","341057","NA","340060","NA","340056","342167","1609","342427","NA","NA","341177","1589","1589","341569","340055","1589","341177","342427","morph21_Oliver/Morris","63","45419","68","yes","1280","35"
"300","92.7536231884","92.7536231884","664.753623188","664.753623188","black","no","xpyriment","legacy","legacy","0","202","NA","uniform","76016","1000","0.0131551252368","1","undefined","1","0","68","68","68","0","68","68","68","NA","68","68","0","68","NA","68","68","0","68","NA","68","NA","68","0","0","68","68","0","68","68","69","/","04/21/18 11:45:42","The main experiment item","yes","FIN__AB__M21__7%3A10%3A17.osexp","C:\Users\ERP Testing Room\Desktop\Joanna\morph21","no","mono","no","18","no","white","no","yes","1080","legacy","68","68","C:/Users/ERP Testing Room/Desktop/Joanna/morph21/subject-128.csv","xpyriment","Jazzy James","3.1.4","0","/","NA","NA","NA","NA","/","/","449","NA","NA","NA","NA","91439","449","2","legacy","1024","2","48000","-16","AB_m21","128","even","CW_L","COMPOSER","1589","346803","343686","345295","93048","NA","NA","NA","NA","345290","344184","NA","343186","NA","343178","345290","1609","347103","NA","NA","344295","1589","1589","344695","343178","1589","344295","347103","morph21_Oliver/Morris","64","45868","69","yes","1280","6"
"350","92.8571428571","92.8571428571","661.857142857","661.857142857","black","no","xpyriment","legacy","legacy","0","201","NA","uniform","69293","1000","0.0144314721545","1","undefined","1","0","69","69","69","0","69","69","69","NA","69","69","0","69","NA","69","69","0","69","NA","69","NA","69","0","0","69","69","0","69","69","70","/","04/21/18 11:45:42","The main experiment item","yes","FIN__AB__M21__7%3A10%3A17.osexp","C:\Users\ERP Testing Room\Desktop\Joanna\morph21","no","mono","no","18","no","white","no","yes","1080","legacy","69","69","C:/Users/ERP Testing Room/Desktop/Joanna/morph21/subject-128.csv","xpyriment","Jazzy James","3.1.4","0","/","NA","NA","NA","NA","/","/","462","NA","NA","NA","NA","91439","462","2","legacy","1024","2","48000","-16","AB_m21","128","even","CW_S","TEACHER","1589","349978","348370","345295","93048","NA","NA","NA","NA","349972","348867","NA","347870","NA","347858","349972","1609","350328","NA","NA","348978","1589","1589","349370","347858","1589","348978","350328","morph21_Oliver/Morris","65","46330","70","yes","1280","23"
"200","92.9577464789","92.9577464789","660.267605634","660.267605634","black","no","xpyriment","legacy","legacy","0","207","NA","uniform","71173","1000","0.0140502718728","1","undefined","1","0","70","70","70","0","70","70","70","NA","70","70","0","70","NA","70","70","0","70","NA","70","NA","70","0","0","70","70","0","70","70","71","/","04/21/18 11:45:42","The main experiment item","yes","FIN__AB__M21__7%3A10%3A17.osexp","C:\Users\ERP Testing Room\Desktop\Joanna\morph21","no","mono","no","18","no","white","no","yes","1080","legacy","70","70","C:/Users/ERP Testing Room/Desktop/Joanna/morph21/subject-128.csv","xpyriment","Jazzy James","3.1.4","0","/","NA","NA","NA","NA","/","/","549","NA","NA","NA","NA","91439","549","2","legacy","1024","2","48000","-16","AB_m21","128","even","FILL_W","LEGAL","1589","353204","351595","345295","93048","NA","NA","NA","NA","353195","352092","NA","351095","NA","351083","353195","1609","353404","NA","NA","352203","1589","1589","352595","351083","1589","352203","353404","morph21_Oliver/Morris","66","46879","71","yes","1280","35"
"200","93.0555555556","93.0555555556","659.444444444","659.444444444","black","no","xpyriment","legacy","legacy","0","208","NA","uniform","75584","1000","0.0132303132938","1","undefined","1","0","71","71","71","0","71","71","71","NA","71","71","0","71","NA","71","71","0","71","NA","71","NA","71","0","0","71","71","0","71","71","72","z","04/21/18 11:45:42","The main experiment item","yes","FIN__AB__M21__7%3A10%3A17.osexp","C:\Users\ERP Testing Room\Desktop\Joanna\morph21","no","mono","no","18","no","white","no","yes","1080","legacy","71","71","C:/Users/ERP Testing Room/Desktop/Joanna/morph21/subject-128.csv","xpyriment","Jazzy James","3.1.4","0","z","NA","NA","NA","NA","/","z","601","NA","NA","NA","NA","91439","601","2","legacy","1024","2","48000","-16","AB_m21","128","even","FILL_NW","HESK","1589","357804","354704","356295","93048","NA","NA","NA","NA","356290","355201","NA","354204","NA","354193","356290","1609","358004","NA","NA","355295","1589","1589","355687","354193","1589","355295","358004","morph21_Oliver/Morris","67","47480","72","yes","1280","29"
"250","93.1506849315","93.1506849315","661.643835616","661.643835616","black","no","xpyriment","legacy","legacy","0","201","NA","uniform","62914","1000","0.0158947134183","1","undefined","1","0","72","72","72","0","72","72","72","NA","72","72","0","72","NA","72","72","0","72","NA","72","NA","72","0","0","72","72","0","72","72","73","/","04/21/18 11:45:42","The main experiment item","yes","FIN__AB__M21__7%3A10%3A17.osexp","C:\Users\ERP Testing Room\Desktop\Joanna\morph21","no","mono","no","18","no","white","no","yes","1080","legacy","72","72","C:/Users/ERP Testing Room/Desktop/Joanna/morph21/subject-128.csv","xpyriment","Jazzy James","3.1.4","0","/","NA","NA","NA","NA","/","/","820","NA","NA","NA","NA","91439","820","2","legacy","1024","2","48000","-16","AB_m21","128","even","CW_S","TUTORING","1589","360821","359229","356295","93048","NA","NA","NA","NA","360811","359726","NA","358729","NA","358725","360811","1609","361071","NA","NA","359821","1589","1589","360213","358725","1589","359820","361071","morph21_Oliver/Morris","68","48300","73","yes","1280","27"
"250","91.8918918919","91.8918918919","666.135135135","666.135135135","black","no","xpyriment","legacy","legacy","0","201","NA","uniform","56907","1000","0.0175725306201","0","undefined","0","0","73","73","73","0","73","73","73","NA","73","73","0","73","NA","73","73","0","73","NA","73","NA","73","0","0","73","73","0","73","73","74","/","04/21/18 11:45:42","The main experiment item","yes","FIN__AB__M21__7%3A10%3A17.osexp","C:\Users\ERP Testing Room\Desktop\Joanna\morph21","no","mono","no","18","no","white","no","yes","1080","legacy","73","73","C:/Users/ERP Testing Room/Desktop/Joanna/morph21/subject-128.csv","xpyriment","Jazzy James","3.1.4","0","None","NA","NA","NA","NA","/","None","994","NA","NA","NA","NA","91439","994","2","legacy","1024","2","48000","-16","AB_m21","128","even","CW_S","GRIMLY","1589","363888","362272","356295","93048","NA","NA","NA","NA","360811","362769","NA","361772","NA","361761","363882","1609","364138","NA","NA","362888","1589","1589","363280","361761","1589","362888","364138","morph21_Oliver/Morris","68","49294","74","yes","1280","31"
"400","92","92","668.96","668.96","black","no","xpyriment","legacy","legacy","0","203","NA","uniform","56898","1000","0.0175753102042","undefined","undefined","1","0","74","74","74","0","74","74","74","NA","74","74","0","74","NA","74","74","0","74","NA","74","NA","74","0","0","74","74","0","74","74","75","z","04/21/18 11:45:42","The main experiment item","yes","FIN__AB__M21__7%3A10%3A17.osexp","C:\Users\ERP Testing Room\Desktop\Joanna\morph21","no","mono","no","18","no","white","no","yes","1080","legacy","74","74","C:/Users/ERP Testing Room/Desktop/Joanna/morph21/subject-128.csv","xpyriment","Jazzy James","3.1.4","0","space","space","NA","NA","NA","/","z","20425","20425","NA","NA","NA","91439","878","2","legacy","1024","2","48000","-16","AB_m21","128","even","NW_S_COMP","ALTARIC","1589","368439","365330","366930","93048","368847","NA","NA","NA","366923","365827","NA","364830","NA","364821","366923","1609","389274","NA","NA","365930","1589","1589","366322","364821","1589","365930","368839","morph21_Oliver/Morris","69","50172","75","yes","1280","7"
"250","92.1052631579","92.1052631579","668.552631579","668.552631579","black","no","xpyriment","legacy","legacy","0","201","NA","uniform","73534","1000","0.013599151413","1","undefined","1","0","75","75","75","0","75","75","75","NA","75","75","0","75","NA","75","75","0","75","NA","75","NA","75","0","0","75","75","0","75","75","76","/","04/21/18 11:45:42","The main experiment item","yes","FIN__AB__M21__7%3A10%3A17.osexp","C:\Users\ERP Testing Room\Desktop\Joanna\morph21","no","mono","no","18","no","white","no","yes","1080","legacy","75","75","C:/Users/ERP Testing Room/Desktop/Joanna/morph21/subject-128.csv","xpyriment","Jazzy James","3.1.4","0","/","space","NA","NA","NA","/","/","638","20425","NA","NA","NA","91439","638","2","legacy","1024","2","48000","-16","AB_m21","128","even","CW_S","COSTLY","1589","392074","390482","366930","93048","368847","NA","NA","NA","392068","390979","NA","389982","NA","389974","392068","1609","392324","NA","NA","391074","1589","1589","391465","389974","1589","391074","392324","morph21_Oliver/Morris","70","50810","76","yes","1280","36"
"300","92.2077922078","92.2077922078","667.077922078","667.077922078","black","no","xpyriment","legacy","legacy","0","201","NA","uniform","69244","1000","0.0144416844781","1","undefined","1","0","76","76","76","0","76","76","76","NA","76","76","0","76","NA","76","76","0","76","NA","76","NA","76","0","0","76","76","0","76","76","77","/","04/21/18 11:45:42","The main experiment item","yes","FIN__AB__M21__7%3A10%3A17.osexp","C:\Users\ERP Testing Room\Desktop\Joanna\morph21","no","mono","no","18","no","white","no","yes","1080","legacy","76","76","C:/Users/ERP Testing Room/Desktop/Joanna/morph21/subject-128.csv","xpyriment","Jazzy James","3.1.4","0","/","space","NA","NA","NA","/","/","555","20425","NA","NA","NA","91439","555","2","legacy","1024","2","48000","-16","AB_m21","128","even","CW_S","INSISTENT","1589","395142","393557","366930","93048","368847","NA","NA","NA","395133","394054","NA","393057","NA","393051","395133","1609","395442","NA","NA","394141","1589","1589","394532","393051","1589","394141","395442","morph21_Oliver/Morris","71","51365","77","yes","1280","9"
"350","91.0256410256","91.0256410256","671.243589744","671.243589744","black","no","xpyriment","legacy","legacy","0","202","NA","uniform","55140","1000","0.0181356546971","0","undefined","0","0","77","77","77","0","77","77","77","NA","77","77","0","77","NA","77","77","0","77","NA","77","NA","77","0","0","77","77","0","77","77","78","/","04/21/18 11:45:42","The main experiment item","yes","FIN__AB__M21__7%3A10%3A17.osexp","C:\Users\ERP Testing Room\Desktop\Joanna\morph21","no","mono","no","18","no","white","no","yes","1080","legacy","77","77","C:/Users/ERP Testing Room/Desktop/Joanna/morph21/subject-128.csv","xpyriment","Jazzy James","3.1.4","0","None","space","NA","NA","NA","/","None","992","20425","NA","NA","NA","91439","992","2","legacy","1024","2","48000","-16","AB_m21","128","even","CW_L","GUILELESS","1589","399809","396717","398300","93048","368847","NA","NA","NA","395133","397214","NA","396217","NA","396210","398292","1609","400159","NA","NA","397300","1589","1589","397692","396210","1589","397300","400159","morph21_Oliver/Morris","71","52357","78","yes","1280","31"
"250","91.1392405063","91.1392405063","671.911392405","671.911392405","black","no","xpyriment","legacy","legacy","0","208","NA","uniform","71587","1000","0.0139690167209","1","undefined","1","0","78","78","78","0","78","78","78","NA","78","78","0","78","NA","78","78","0","78","NA","78","NA","78","0","0","78","78","0","78","78","79","z","04/21/18 11:45:42","The main experiment item","yes","FIN__AB__M21__7%3A10%3A17.osexp","C:\Users\ERP Testing Room\Desktop\Joanna\morph21","no","mono","no","18","no","white","no","yes","1080","legacy","78","78","C:/Users/ERP Testing Room/Desktop/Joanna/morph21/subject-128.csv","xpyriment","Jazzy James","3.1.4","0","z","space","NA","NA","NA","/","z","724","20425","NA","NA","NA","91439","724","2","legacy","1024","2","48000","-16","AB_m21","128","even","FILL_NW","PIFTH","1589","403100","401475","398300","93048","368847","NA","NA","NA","403094","401972","NA","400975","NA","400964","403094","1609","403350","NA","NA","402100","1589","1589","402492","400964","1589","402100","403350","morph21_Oliver/Morris","72","53081","79","yes","1280","36"
"300","90","90","675.9625","675.9625","black","no","xpyriment","legacy","legacy","0","206","NA","uniform","53986","1000","0.018523320861","0","undefined","0","0","79","79","79","0","79","79","79","NA","79","79","0","79","NA","79","79","0","79","NA","79","NA","79","0","0","79","79","0","79","79","80","z","04/21/18 11:45:42","The main experiment item","yes","FIN__AB__M21__7%3A10%3A17.osexp","C:\Users\ERP Testing Room\Desktop\Joanna\morph21","no","mono","no","18","no","white","no","yes","1080","legacy","79","79","C:/Users/ERP Testing Room/Desktop/Joanna/morph21/subject-128.csv","xpyriment","Jazzy James","3.1.4","0","None","space","NA","NA","NA","/","None","996","20425","NA","NA","NA","91439","996","2","legacy","1024","2","48000","-16","AB_m21","128","even","NW_L_SIMP","EARILT","1589","406234","404634","398300","93048","368847","NA","NA","NA","403094","405131","NA","404134","NA","404126","406230","1609","406534","NA","NA","405234","1589","1589","405634","404126","1589","405234","406534","morph21_Oliver/Morris","72","54077","80","yes","1280","12"
"400","90.1234567901","90.1234567901","674.938271605","674.938271605","black","no","xpyriment","legacy","legacy","0","201","NA","uniform","71570","1000","0.0139723347771","1","undefined","1","0","80","80","80","0","80","80","80","NA","80","80","0","80","NA","80","80","0","80","NA","80","NA","80","0","0","80","80","0","80","80","81","/","04/21/18 11:45:42","The main experiment item","yes","FIN__AB__M21__7%3A10%3A17.osexp","C:\Users\ERP Testing Room\Desktop\Joanna\morph21","no","mono","no","18","no","white","no","yes","1080","legacy","80","80","C:/Users/ERP Testing Room/Desktop/Joanna/morph21/subject-128.csv","xpyriment","Jazzy James","3.1.4","0","/","space","NA","NA","NA","/","/","593","20425","NA","NA","NA","91439","593","2","legacy","1024","2","48000","-16","AB_m21","128","even","CW_S","WIDOWED","1589","410867","407767","409359","93048","368847","NA","NA","NA","409350","408264","NA","407267","NA","407262","409350","1609","411268","NA","NA","408359","1589","1589","408750","407262","1589","408359","411268","morph21_Oliver/Morris","73","54670","81","yes","1280","7"
"300","90.243902439","90.243902439","675.414634146","675.414634146","black","no","xpyriment","legacy","legacy","0","203","NA","uniform","62811","1000","0.0159207782076","1","undefined","1","0","81","81","81","0","81","81","81","NA","81","81","0","81","NA","81","81","0","81","NA","81","NA","81","0","0","81","81","0","81","81","82","z","04/21/18 11:45:42","The main experiment item","yes","FIN__AB__M21__7%3A10%3A17.osexp","C:\Users\ERP Testing Room\Desktop\Joanna\morph21","no","mono","no","18","no","white","no","yes","1080","legacy","81","81","C:/Users/ERP Testing Room/Desktop/Joanna/morph21/subject-128.csv","xpyriment","Jazzy James","3.1.4","0","z","space","NA","NA","NA","/","z","714","20425","NA","NA","NA","91439","714","2","legacy","1024","2","48000","-16","AB_m21","128","even","NW_S_COMP","FIGER","1589","414110","412501","409359","93048","368847","NA","NA","NA","414100","412998","NA","412001","NA","411996","414100","1609","414410","NA","NA","413110","1589","1589","413502","411996","1589","413110","414410","morph21_Oliver/Morris","74","55384","82","yes","1280","4"
"250","90.3614457831","90.3614457831","674.337349398","674.337349398","black","no","xpyriment","legacy","legacy","0","207","NA","uniform","74316","1000","0.0134560525324","1","undefined","1","0","82","82","82","0","82","82","82","NA","82","82","0","82","NA","82","82","0","82","NA","82","NA","82","0","0","82","82","0","82","82","83","/","04/21/18 11:45:42","The main experiment item","yes","FIN__AB__M21__7%3A10%3A17.osexp","C:\Users\ERP Testing Room\Desktop\Joanna\morph21","no","mono","no","18","no","white","no","yes","1080","legacy","82","82","C:/Users/ERP Testing Room/Desktop/Joanna/morph21/subject-128.csv","xpyriment","Jazzy James","3.1.4","0","/","space","NA","NA","NA","/","/","586","20425","NA","NA","NA","91439","586","2","legacy","1024","2","48000","-16","AB_m21","128","even","FILL_W","TASTE","1589","417294","415669","409359","93048","368847","NA","NA","NA","417283","416166","NA","415169","NA","415157","417283","1609","417544","NA","NA","416294","1589","1589","416685","415157","1589","416293","417544","morph21_Oliver/Morris","75","55970","83","yes","1280","34"
"250","90.4761904762","90.4761904762","673.916666667","673.916666667","black","no","xpyriment","legacy","legacy","0","207","NA","uniform","59185","1000","0.0168961730168","1","undefined","1","0","83","83","83","0","83","83","83","NA","83","83","0","83","NA","83","83","0","83","NA","83","NA","83","0","0","83","83","0","83","83","84","/","04/21/18 11:45:42","The main experiment item","yes","FIN__AB__M21__7%3A10%3A17.osexp","C:\Users\ERP Testing Room\Desktop\Joanna\morph21","no","mono","no","18","no","white","no","yes","1080","legacy","83","83","C:/Users/ERP Testing Room/Desktop/Joanna/morph21/subject-128.csv","xpyriment","Jazzy James","3.1.4","0","/","space","NA","NA","NA","/","/","639","20425","NA","NA","NA","91439","639","2","legacy","1024","2","48000","-16","AB_m21","128","even","FILL_W","WEAVE","1589","421885","418794","420377","93048","368847","NA","NA","NA","420368","419291","NA","418294","NA","418289","420368","1609","422136","NA","NA","419377","1589","1589","419769","418289","1589","419377","422136","morph21_Oliver/Morris","76","56609","84","yes","1280","12"
"250","90.5882352941","90.5882352941","673.588235294","673.588235294","black","no","xpyriment","legacy","legacy","0","207","NA","uniform","72231","1000","0.0138444712104","1","undefined","1","0","84","84","84","0","84","84","84","NA","84","84","0","84","NA","84","84","0","84","NA","84","NA","84","0","0","84","84","0","84","84","85","/","04/21/18 11:45:42","The main experiment item","yes","FIN__AB__M21__7%3A10%3A17.osexp","C:\Users\ERP Testing Room\Desktop\Joanna\morph21","no","mono","no","18","no","white","no","yes","1080","legacy","84","84","C:/Users/ERP Testing Room/Desktop/Joanna/morph21/subject-128.csv","xpyriment","Jazzy James","3.1.4","0","/","space","NA","NA","NA","/","/","646","20425","NA","NA","NA","91439","646","2","legacy","1024","2","48000","-16","AB_m21","128","even","FILL_W","SUIT","1589","424994","423410","420377","93048","368847","NA","NA","NA","424985","423908","NA","422910","NA","422906","424985","1609","425244","NA","NA","423994","1589","1589","424386","422906","1589","423994","425244","morph21_Oliver/Morris","77","57255","85","yes","1280","49"
"350","89.5348837209","89.5348837209","671.430232558","671.430232558","black","no","xpyriment","legacy","legacy","0","204","NA","uniform","75847","1000","0.0131844370905","0","undefined","0","0","85","85","85","0","85","85","85","NA","85","85","0","85","NA","85","85","0","85","NA","85","NA","85","0","0","85","85","0","85","85","86","z","04/21/18 11:45:42","The main experiment item","yes","FIN__AB__M21__7%3A10%3A17.osexp","C:\Users\ERP Testing Room\Desktop\Joanna\morph21","no","mono","no","18","no","white","no","yes","1080","legacy","85","85","C:/Users/ERP Testing Room/Desktop/Joanna/morph21/subject-128.csv","xpyriment","Jazzy James","3.1.4","0","/","space","NA","NA","NA","/","/","488","20425","NA","NA","NA","91439","488","2","legacy","1024","2","48000","-16","AB_m21","128","even","NW_L_COMP","AGREELY","1589","428152","426544","420377","93048","368847","NA","NA","NA","424985","427041","NA","426044","NA","426038","428148","1609","428502","NA","NA","427152","1589","1589","427552","426038","1589","427152","428502","morph21_Oliver/Morris","77","57743","86","yes","1280","24"
"350","89.6551724138","89.6551724138","670.137931034","670.137931034","black","no","xpyriment","legacy","legacy","0","202","NA","uniform","70750","1000","0.0141342756184","1","undefined","1","0","86","86","86","0","86","86","86","NA","86","86","0","86","NA","86","86","0","86","NA","86","NA","86","0","0","86","86","0","86","86","87","/","04/21/18 11:45:42","The main experiment item","yes","FIN__AB__M21__7%3A10%3A17.osexp","C:\Users\ERP Testing Room\Desktop\Joanna\morph21","no","mono","no","18","no","white","no","yes","1080","legacy","86","86","C:/Users/ERP Testing Room/Desktop/Joanna/morph21/subject-128.csv","xpyriment","Jazzy James","3.1.4","0","/","space","NA","NA","NA","/","/","559","20425","NA","NA","NA","91439","559","2","legacy","1024","2","48000","-16","AB_m21","128","even","CW_L","SWIMMER","1589","432887","429777","431379","93048","368847","NA","NA","NA","431369","430275","NA","429277","NA","429268","431369","1609","433237","NA","NA","430378","1589","1589","430770","429267","1589","430378","433237","morph21_Oliver/Morris","78","58302","87","yes","1280","5"
"400","89.7727272727","89.7727272727","669.534090909","669.534090909","black","no","xpyriment","legacy","legacy","0","208","NA","uniform","65250","1000","0.0153256704981","1","undefined","1","0","87","87","87","0","87","87","87","NA","87","87","0","87","NA","87","87","0","87","NA","87","NA","87","0","0","87","87","0","87","87","88","z","04/21/18 11:45:42","The main experiment item","yes","FIN__AB__M21__7%3A10%3A17.osexp","C:\Users\ERP Testing Room\Desktop\Joanna\morph21","no","mono","no","18","no","white","no","yes","1080","legacy","87","87","C:/Users/ERP Testing Room/Desktop/Joanna/morph21/subject-128.csv","xpyriment","Jazzy James","3.1.4","0","z","space","NA","NA","NA","/","z","617","20425","NA","NA","NA","91439","617","2","legacy","1024","2","48000","-16","AB_m21","128","even","FILL_NW","DROES","1589","436087","434487","431379","93048","368847","NA","NA","NA","436082","434984","NA","433987","NA","433978","436082","1609","436487","NA","NA","435087","1589","1589","435487","433978","1589","435087","436487","morph21_Oliver/Morris","79","58919","88","yes","1280","17"
"200","89.8876404494","89.8876404494","668.337078652","668.337078652","black","no","xpyriment","legacy","legacy","0","207","NA","uniform","66130","1000","0.0151217299259","1","undefined","1","0","88","88","88","0","88","88","88","NA","88","88","0","88","NA","88","88","0","88","NA","88","NA","88","0","0","88","88","0","88","88","89","/","04/21/18 11:45:42","The main experiment item","yes","FIN__AB__M21__7%3A10%3A17.osexp","C:\Users\ERP Testing Room\Desktop\Joanna\morph21","no","mono","no","18","no","white","no","yes","1080","legacy","88","88","C:/Users/ERP Testing Room/Desktop/Joanna/morph21/subject-128.csv","xpyriment","Jazzy James","3.1.4","0","/","space","NA","NA","NA","/","/","563","20425","NA","NA","NA","91439","563","2","legacy","1024","2","48000","-16","AB_m21","128","even","FILL_W","BRASS","1589","439429","437804","431379","93048","368847","NA","NA","NA","439419","438301","NA","437304","NA","437300","439419","1609","439629","NA","NA","438429","1589","1589","438820","437300","1589","438429","439629","morph21_Oliver/Morris","80","59482","89","yes","1280","10"
"300","90","90","667.833333333","667.833333333","black","no","xpyriment","legacy","legacy","0","205","NA","uniform","67123","1000","0.0148980230323","1","undefined","1","0","89","89","89","0","89","89","89","NA","89","89","0","89","NA","89","89","0","89","NA","89","NA","89","0","0","89","89","0","89","89","90","z","04/21/18 11:45:42","The main experiment item","yes","FIN__AB__M21__7%3A10%3A17.osexp","C:\Users\ERP Testing Room\Desktop\Joanna\morph21","no","mono","no","18","no","white","no","yes","1080","legacy","89","89","C:/Users/ERP Testing Room/Desktop/Joanna/morph21/subject-128.csv","xpyriment","Jazzy James","3.1.4","0","z","space","NA","NA","NA","/","z","623","20425","NA","NA","NA","91439","623","2","legacy","1024","2","48000","-16","AB_m21","128","even","NW_S_SIMP","WARNODY","1589","444037","440929","442529","93048","368847","NA","NA","NA","442520","441426","NA","440429","NA","440419","442520","1609","444338","NA","NA","441529","1589","1589","441921","440419","1589","441529","444338","morph21_Oliver/Morris","81","60105","90","yes","1280","12"
"250","90.1098901099","90.1098901099","667.78021978","667.78021978","black","no","xpyriment","legacy","legacy","0","205","NA","uniform","68927","1000","0.0145081027754","1","undefined","1","0","90","90","90","0","90","90","90","NA","90","90","0","90","NA","90","90","0","90","NA","90","NA","90","0","0","90","90","0","90","90","91","z","04/21/18 11:45:42","The main experiment item","yes","FIN__AB__M21__7%3A10%3A17.osexp","C:\Users\ERP Testing Room\Desktop\Joanna\morph21","no","mono","no","18","no","white","no","yes","1080","legacy","90","90","C:/Users/ERP Testing Room/Desktop/Joanna/morph21/subject-128.csv","xpyriment","Jazzy James","3.1.4","0","z","space","NA","NA","NA","/","z","663","20425","NA","NA","NA","91439","663","2","legacy","1024","2","48000","-16","AB_m21","128","even","NW_S_SIMP","DIGODY","1589","447129","445546","442529","93048","368847","NA","NA","NA","447123","446043","NA","445046","NA","445042","447123","1609","447379","NA","NA","446129","1589","1589","446521","445042","1589","446129","447379","morph21_Oliver/Morris","82","60768","91","yes","1280","11"
