"ITI","acc","accuracy","average_response_time","avg_rt","background","bidi","canvas_backend","clock_backend","color_backend","compensation","cond_trig","condtrigtime","coordinates","coroutines_cycles","coroutines_duration","coroutines_mean_cycle_duration","correct","correct_instructions_1","correct_new_keyboard_response_1","count_AB_m21","count_ITI","count_blank_screen","count_blink_screen","count_block1","count_break1","count_break2","count_break3_1","count_canvas","count_correct_trigger","count_def_chain","count_end_screen","count_fixation_1","count_getting_started","count_inc_counter","count_incorrect_trigger","count_instructions_1","count_logger","count_logscript","count_new_coroutines","count_new_inline_script","count_new_keyboard_response_1","count_reset_counter_prep","count_reset_counter_run","count_responsescreen","count_sequence","count_start_trigger","count_target_present","count_word_trigger","counter","cresp","datetime","description","disable_garbage_collection","experiment_file","experiment_path","font_bold","font_family","font_italic","font_size","font_underline","foreground","form_clicks","fullscreen","height","keyboard_backend","live_row","live_row_block1","logfile","mouse_backend","opensesame_codename","opensesame_version","repeat_cycle","response","response_break1","response_break2","response_break3_1","response_end_screen","response_instructions_1","response_new_keyboard_response_1","response_time","response_time_break1","response_time_break2","response_time_break3_1","response_time_end_screen","response_time_instructions_1","response_time_new_keyboard_response_1","round_decimals","sampler_backend","sound_buf_size","sound_channels","sound_freq","sound_sample_size","start","subject_nr","subject_parity","targ_type","target","time_AB_m21","time_ITI","time_blank_screen","time_blink_screen","time_block1","time_break1","time_break2","time_break3_1","time_canvas","time_correct_trigger","time_def_chain","time_end_screen","time_fixation_1","time_getting_started","time_inc_counter","time_incorrect_trigger","time_instructions_1","time_logger","time_logscript","time_new_inline_script","time_new_keyboard_response_1","time_reset_counter_prep","time_reset_counter_run","time_responsescreen","time_sequence","time_start_trigger","time_target_present","time_word_trigger","title","total_correct","total_response_time","total_responses","uniform_coordinates","width","word_trig"
"350","100","100","898","898","black","no","xpyriment","legacy","legacy","0","208","NA","uniform","58708","1000","0.0170334537031","1","undefined","1","0","0","0","0","0","0","0","0","NA","0","0","0","0","NA","0","0","0","0","NA","0","NA","0","0","0","0","0","0","0","0","1","z","03/25/19 15:35:59","The main experiment item","yes","FIN__AB__M21__7%3A10%3A17.osexp","C:\Users\ERP Testing Room\Desktop\Joanna\morph21","no","mono","no","18","no","white","no","yes","1080","legacy","0","0","C:/Users/ERP Testing Room/Desktop/Joanna/morph21/subject-168.csv","xpyriment","Kafkaesque Koffka","3.2.5","0","z","NA","NA","NA","NA","space","z","898","NA","NA","NA","NA","152763","898","2","legacy","1024","2","48000","-16","AB_m21","168","even","FILL_NW","KRAISE","2032","157661","155994","NA","154807","NA","NA","NA","NA","157655","156491","NA","155490","NA","155418","157655","2044","158011","NA","NA","156661","2032","2032","157053","155417","2032","156661","158011","morph21_Oliver/Morris","1","898","1","yes","1280","33"
"250","100","100","802","802","black","no","xpyriment","legacy","legacy","0","205","NA","uniform","64427","1000","0.0155214428733","1","undefined","1","0","1","1","1","0","1","1","1","NA","1","1","0","1","NA","1","1","0","1","NA","1","NA","1","0","0","1","1","0","1","1","2","z","03/25/19 15:35:59","The main experiment item","yes","FIN__AB__M21__7%3A10%3A17.osexp","C:\Users\ERP Testing Room\Desktop\Joanna\morph21","no","mono","no","18","no","white","no","yes","1080","legacy","1","1","C:/Users/ERP Testing Room/Desktop/Joanna/morph21/subject-168.csv","xpyriment","Kafkaesque Koffka","3.2.5","0","z","NA","NA","NA","NA","space","z","706","NA","NA","NA","NA","152763","706","2","legacy","1024","2","48000","-16","AB_m21","168","even","NW_S_SIMP","ZOOMFIL","2032","160853","159161","NA","154807","NA","NA","NA","NA","160848","159658","NA","158661","NA","158656","160848","2044","161103","NA","NA","159853","2032","2032","160253","158656","2032","159853","161103","morph21_Oliver/Morris","2","1604","2","yes","1280","19"
"400","100","100","756","756","black","no","xpyriment","legacy","legacy","0","208","NA","uniform","63545","1000","0.0157368793768","1","undefined","1","0","2","2","2","0","2","2","2","NA","2","2","0","2","NA","2","2","0","2","NA","2","NA","2","0","0","2","2","0","2","2","3","z","03/25/19 15:35:59","The main experiment item","yes","FIN__AB__M21__7%3A10%3A17.osexp","C:\Users\ERP Testing Room\Desktop\Joanna\morph21","no","mono","no","18","no","white","no","yes","1080","legacy","2","2","C:/Users/ERP Testing Room/Desktop/Joanna/morph21/subject-168.csv","xpyriment","Kafkaesque Koffka","3.2.5","0","z","NA","NA","NA","NA","space","z","664","NA","NA","NA","NA","152763","664","2","legacy","1024","2","48000","-16","AB_m21","168","even","FILL_NW","BALFS","2032","165579","162361","164069","154807","NA","NA","NA","NA","164060","162858","NA","161861","NA","161850","164060","2044","165979","NA","NA","163070","2032","2032","163461","161850","2032","163070","165979","morph21_Oliver/Morris","3","2268","3","yes","1280","2"
"250","100","100","740.75","740.75","black","no","xpyriment","legacy","legacy","0","201","NA","uniform","66368","1000","0.0150675024108","1","undefined","1","0","3","3","3","0","3","3","3","NA","3","3","0","3","NA","3","3","0","3","NA","3","NA","3","0","0","3","3","0","3","3","4","/","03/25/19 15:35:59","The main experiment item","yes","FIN__AB__M21__7%3A10%3A17.osexp","C:\Users\ERP Testing Room\Desktop\Joanna\morph21","no","mono","no","18","no","white","no","yes","1080","legacy","3","3","C:/Users/ERP Testing Room/Desktop/Joanna/morph21/subject-168.csv","xpyriment","Kafkaesque Koffka","3.2.5","0","/","NA","NA","NA","NA","space","/","695","NA","NA","NA","NA","152763","695","2","legacy","1024","2","48000","-16","AB_m21","168","even","CW_S","SEEKER","2032","168887","167204","164069","154807","NA","NA","NA","NA","168883","167701","NA","166704","NA","166700","168883","2044","169137","NA","NA","167896","2032","2032","168287","166700","2032","167896","169137","morph21_Oliver/Morris","4","2963","4","yes","1280","16"
"200","100","100","721.6","721.6","black","no","xpyriment","legacy","legacy","0","201","NA","uniform","65980","1000","0.0151561079115","1","undefined","1","0","4","4","4","0","4","4","4","NA","4","4","0","4","NA","4","4","0","4","NA","4","NA","4","0","0","4","4","0","4","4","5","/","03/25/19 15:35:59","The main experiment item","yes","FIN__AB__M21__7%3A10%3A17.osexp","C:\Users\ERP Testing Room\Desktop\Joanna\morph21","no","mono","no","18","no","white","no","yes","1080","legacy","4","4","C:/Users/ERP Testing Room/Desktop/Joanna/morph21/subject-168.csv","xpyriment","Kafkaesque Koffka","3.2.5","0","/","NA","NA","NA","NA","space","/","645","NA","NA","NA","NA","152763","645","2","legacy","1024","2","48000","-16","AB_m21","168","even","CW_S","LOCALLY","2032","171937","170246","164069","154807","NA","NA","NA","NA","171934","170743","NA","169746","NA","169741","171934","2044","172138","NA","NA","170938","2032","2032","171337","169741","2032","170937","172138","morph21_Oliver/Morris","5","3608","5","yes","1280","37"
"300","83.3333333333","83.3333333333","751.333333333","751.333333333","black","no","xpyriment","legacy","legacy","0","205","NA","uniform","59694","1000","0.0167521023888","0","undefined","0","0","5","5","5","0","5","5","5","NA","5","5","0","5","NA","5","5","0","5","NA","5","NA","5","0","0","5","5","0","5","5","6","z","03/25/19 15:35:59","The main experiment item","yes","FIN__AB__M21__7%3A10%3A17.osexp","C:\Users\ERP Testing Room\Desktop\Joanna\morph21","no","mono","no","18","no","white","no","yes","1080","legacy","5","5","C:/Users/ERP Testing Room/Desktop/Joanna/morph21/subject-168.csv","xpyriment","Kafkaesque Koffka","3.2.5","0","/","NA","NA","NA","NA","space","/","900","NA","NA","NA","NA","152763","900","2","legacy","1024","2","48000","-16","AB_m21","168","even","NW_S_SIMP","HELMETOES","2032","176479","173321","174971","154807","NA","NA","NA","NA","171934","173818","NA","172821","NA","172814","174965","2044","176780","NA","NA","173971","2032","2032","174363","172814","2032","173971","176780","morph21_Oliver/Morris","5","4508","6","yes","1280","14"
"350","85.7142857143","85.7142857143","738.142857143","738.142857143","black","no","xpyriment","legacy","legacy","0","207","NA","uniform","60244","1000","0.0165991634022","1","undefined","1","0","6","6","6","0","6","6","6","NA","6","6","0","6","NA","6","6","0","6","NA","6","NA","6","0","0","6","6","0","6","6","7","/","03/25/19 15:35:59","The main experiment item","yes","FIN__AB__M21__7%3A10%3A17.osexp","C:\Users\ERP Testing Room\Desktop\Joanna\morph21","no","mono","no","18","no","white","no","yes","1080","legacy","6","6","C:/Users/ERP Testing Room/Desktop/Joanna/morph21/subject-168.csv","xpyriment","Kafkaesque Koffka","3.2.5","0","/","NA","NA","NA","NA","space","/","659","NA","NA","NA","NA","152763","659","2","legacy","1024","2","48000","-16","AB_m21","168","even","FILL_W","BRISK","2032","179588","177896","174971","154807","NA","NA","NA","NA","179579","178393","NA","177396","NA","177393","179579","2044","179938","NA","NA","178588","2032","2032","178979","177393","2032","178588","179938","morph21_Oliver/Morris","6","5167","7","yes","1280","8"
"300","87.5","87.5","743.25","743.25","black","no","xpyriment","legacy","legacy","0","205","NA","uniform","58820","1000","0.0170010200612","1","undefined","1","0","7","7","7","0","7","7","7","NA","7","7","0","7","NA","7","7","0","7","NA","7","NA","7","0","0","7","7","0","7","7","8","z","03/25/19 15:35:59","The main experiment item","yes","FIN__AB__M21__7%3A10%3A17.osexp","C:\Users\ERP Testing Room\Desktop\Joanna\morph21","no","mono","no","18","no","white","no","yes","1080","legacy","7","7","C:/Users/ERP Testing Room/Desktop/Joanna/morph21/subject-168.csv","xpyriment","Kafkaesque Koffka","3.2.5","0","z","NA","NA","NA","NA","space","z","779","NA","NA","NA","NA","152763","779","2","legacy","1024","2","48000","-16","AB_m21","168","even","NW_S_SIMP","TILTADY","2032","182772","181113","174971","154807","NA","NA","NA","NA","182767","181610","NA","180613","NA","180603","182767","2044","183072","NA","NA","181780","2032","2032","182164","180603","2032","181780","183072","morph21_Oliver/Morris","7","5946","8","yes","1280","17"
"350","77.7777777778","77.7777777778","745.777777778","745.777777778","black","no","xpyriment","legacy","legacy","0","203","NA","uniform","62616","1000","0.0159703590137","0","undefined","0","0","8","8","8","0","8","8","8","NA","8","8","0","8","NA","8","8","0","8","NA","8","NA","8","0","0","8","8","0","8","8","9","z","03/25/19 15:35:59","The main experiment item","yes","FIN__AB__M21__7%3A10%3A17.osexp","C:\Users\ERP Testing Room\Desktop\Joanna\morph21","no","mono","no","18","no","white","no","yes","1080","legacy","8","8","C:/Users/ERP Testing Room/Desktop/Joanna/morph21/subject-168.csv","xpyriment","Kafkaesque Koffka","3.2.5","0","/","NA","NA","NA","NA","space","/","766","NA","NA","NA","NA","152763","766","2","legacy","1024","2","48000","-16","AB_m21","168","even","NW_S_COMP","HEIGHTENCE","2032","187406","184247","185897","154807","NA","NA","NA","NA","182767","184745","NA","183747","NA","183740","185889","2044","187756","NA","NA","184897","2032","2032","185289","183740","2032","184897","187756","morph21_Oliver/Morris","7","6712","9","yes","1280","18"
"250","80","80","764.9","764.9","black","no","xpyriment","legacy","legacy","0","203","NA","uniform","57767","1000","0.0173109214603","1","undefined","1","0","9","9","9","0","9","9","9","NA","9","9","0","9","NA","9","9","0","9","NA","9","NA","9","0","0","9","9","0","9","9","10","z","03/25/19 15:35:59","The main experiment item","yes","FIN__AB__M21__7%3A10%3A17.osexp","C:\Users\ERP Testing Room\Desktop\Joanna\morph21","no","mono","no","18","no","white","no","yes","1080","legacy","9","9","C:/Users/ERP Testing Room/Desktop/Joanna/morph21/subject-168.csv","xpyriment","Kafkaesque Koffka","3.2.5","0","z","NA","NA","NA","NA","space","z","937","NA","NA","NA","NA","152763","937","2","legacy","1024","2","48000","-16","AB_m21","168","even","NW_S_COMP","BEERER","2032","190606","188914","185897","154807","NA","NA","NA","NA","190598","189411","NA","188414","NA","188407","190598","2044","190856","NA","NA","189606","2032","2032","189998","188407","2032","189606","190856","morph21_Oliver/Morris","8","7649","10","yes","1280","5"
"350","81.8181818182","81.8181818182","756.272727273","756.272727273","black","no","xpyriment","legacy","legacy","0","203","NA","uniform","58020","1000","0.0172354360565","1","undefined","1","0","10","10","10","0","10","10","10","NA","10","10","0","10","NA","10","10","0","10","NA","10","NA","10","0","0","10","10","0","10","10","11","z","03/25/19 15:35:59","The main experiment item","yes","FIN__AB__M21__7%3A10%3A17.osexp","C:\Users\ERP Testing Room\Desktop\Joanna\morph21","no","mono","no","18","no","white","no","yes","1080","legacy","10","10","C:/Users/ERP Testing Room/Desktop/Joanna/morph21/subject-168.csv","xpyriment","Kafkaesque Koffka","3.2.5","0","z","NA","NA","NA","NA","space","z","670","NA","NA","NA","NA","152763","670","2","legacy","1024","2","48000","-16","AB_m21","168","even","NW_S_COMP","WELDIC","2032","193681","192014","185897","154807","NA","NA","NA","NA","193672","192512","NA","191514","NA","191509","193672","2044","194031","NA","NA","192681","2032","2032","193073","191509","2032","192681","194031","morph21_Oliver/Morris","9","8319","11","yes","1280","21"
"300","83.3333333333","83.3333333333","743.166666667","743.166666667","black","no","xpyriment","legacy","legacy","0","202","NA","uniform","68802","1000","0.0145344612075","1","undefined","1","0","11","11","11","0","11","11","11","NA","11","11","0","11","NA","11","11","0","11","NA","11","NA","11","0","0","11","11","0","11","11","12","/","03/25/19 15:35:59","The main experiment item","yes","FIN__AB__M21__7%3A10%3A17.osexp","C:\Users\ERP Testing Room\Desktop\Joanna\morph21","no","mono","no","18","no","white","no","yes","1080","legacy","11","11","C:/Users/ERP Testing Room/Desktop/Joanna/morph21/subject-168.csv","xpyriment","Kafkaesque Koffka","3.2.5","0","/","NA","NA","NA","NA","space","/","599","NA","NA","NA","NA","152763","599","2","legacy","1024","2","48000","-16","AB_m21","168","even","CW_L","HEATER","2032","198348","195156","196840","154807","NA","NA","NA","NA","196831","195653","NA","194656","NA","194647","196831","2044","198648","NA","NA","195840","2032","2032","196231","194647","2032","195840","198648","morph21_Oliver/Morris","10","8918","12","yes","1280","16"
"250","84.6153846154","84.6153846154","735","735","black","no","xpyriment","legacy","legacy","0","208","NA","uniform","64472","1000","0.0155106092567","1","undefined","1","0","12","12","12","0","12","12","12","NA","12","12","0","12","NA","12","12","0","12","NA","12","NA","12","0","0","12","12","0","12","12","13","z","03/25/19 15:35:59","The main experiment item","yes","FIN__AB__M21__7%3A10%3A17.osexp","C:\Users\ERP Testing Room\Desktop\Joanna\morph21","no","mono","no","18","no","white","no","yes","1080","legacy","12","12","C:/Users/ERP Testing Room/Desktop/Joanna/morph21/subject-168.csv","xpyriment","Kafkaesque Koffka","3.2.5","0","z","NA","NA","NA","NA","space","z","637","NA","NA","NA","NA","152763","637","2","legacy","1024","2","48000","-16","AB_m21","168","even","FILL_NW","PLAODS","2032","201466","199816","196840","154807","NA","NA","NA","NA","201458","200313","NA","199316","NA","199305","201458","2044","201716","NA","NA","200466","2032","2032","200857","199305","2032","200466","201716","morph21_Oliver/Morris","11","9555","13","yes","1280","37"
"250","85.7142857143","85.7142857143","737.642857143","737.642857143","black","no","xpyriment","legacy","legacy","0","207","NA","uniform","61921","1000","0.0161496099869","1","undefined","1","0","13","13","13","0","13","13","13","NA","13","13","0","13","NA","13","13","0","13","NA","13","NA","13","0","0","13","13","0","13","13","14","/","03/25/19 15:35:59","The main experiment item","yes","FIN__AB__M21__7%3A10%3A17.osexp","C:\Users\ERP Testing Room\Desktop\Joanna\morph21","no","mono","no","18","no","white","no","yes","1080","legacy","13","13","C:/Users/ERP Testing Room/Desktop/Joanna/morph21/subject-168.csv","xpyriment","Kafkaesque Koffka","3.2.5","0","/","NA","NA","NA","NA","space","/","772","NA","NA","NA","NA","152763","772","2","legacy","1024","2","48000","-16","AB_m21","168","even","FILL_W","SPLICE","2032","204491","202841","196840","154807","NA","NA","NA","NA","204484","203338","NA","202341","NA","202333","204484","2044","204741","NA","NA","203491","2032","2032","203883","202333","2032","203491","204741","morph21_Oliver/Morris","12","10327","14","yes","1280","22"
"350","86.6666666667","86.6666666667","747.066666667","747.066666667","black","no","xpyriment","legacy","legacy","0","204","NA","uniform","54418","1000","0.0183762725569","1","undefined","1","0","14","14","14","0","14","14","14","NA","14","14","0","14","NA","14","14","0","14","NA","14","NA","14","0","0","14","14","0","14","14","15","z","03/25/19 15:35:59","The main experiment item","yes","FIN__AB__M21__7%3A10%3A17.osexp","C:\Users\ERP Testing Room\Desktop\Joanna\morph21","no","mono","no","18","no","white","no","yes","1080","legacy","14","14","C:/Users/ERP Testing Room/Desktop/Joanna/morph21/subject-168.csv","xpyriment","Kafkaesque Koffka","3.2.5","0","z","NA","NA","NA","NA","space","z","879","NA","NA","NA","NA","152763","879","2","legacy","1024","2","48000","-16","AB_m21","168","even","NW_L_COMP","MOUTHIZE","2032","209116","205949","207608","154807","NA","NA","NA","NA","207599","206446","NA","205449","NA","205440","207599","2044","209466","NA","NA","206608","2032","2032","206999","205440","2032","206608","209466","morph21_Oliver/Morris","13","11206","15","yes","1280","11"
"200","87.5","87.5","733.875","733.875","black","no","xpyriment","legacy","legacy","0","201","NA","uniform","73952","1000","0.0135222847252","1","undefined","1","0","15","15","15","0","15","15","15","NA","15","15","0","15","NA","15","15","0","15","NA","15","NA","15","0","0","15","15","0","15","15","16","/","03/25/19 15:35:59","The main experiment item","yes","FIN__AB__M21__7%3A10%3A17.osexp","C:\Users\ERP Testing Room\Desktop\Joanna\morph21","no","mono","no","18","no","white","no","yes","1080","legacy","15","15","C:/Users/ERP Testing Room/Desktop/Joanna/morph21/subject-168.csv","xpyriment","Kafkaesque Koffka","3.2.5","0","/","NA","NA","NA","NA","space","/","536","NA","NA","NA","NA","152763","536","2","legacy","1024","2","48000","-16","AB_m21","168","even","CW_S","AMUSEMENT","2032","212383","210683","207608","154807","NA","NA","NA","NA","212377","211180","NA","210175","NA","210169","212377","2044","212583","NA","NA","211383","2032","2032","211775","210169","2032","211383","212583","morph21_Oliver/Morris","14","11742","16","yes","1280","38"
"400","82.3529411765","82.3529411765","723.647058824","723.647058824","black","no","xpyriment","legacy","legacy","0","204","NA","uniform","68725","1000","0.0145507457257","0","undefined","0","0","16","16","16","0","16","16","16","NA","16","16","0","16","NA","16","16","0","16","NA","16","NA","16","0","0","16","16","0","16","16","17","z","03/25/19 15:35:59","The main experiment item","yes","FIN__AB__M21__7%3A10%3A17.osexp","C:\Users\ERP Testing Room\Desktop\Joanna\morph21","no","mono","no","18","no","white","no","yes","1080","legacy","16","16","C:/Users/ERP Testing Room/Desktop/Joanna/morph21/subject-168.csv","xpyriment","Kafkaesque Koffka","3.2.5","0","/","NA","NA","NA","NA","space","/","560","NA","NA","NA","NA","152763","560","2","legacy","1024","2","48000","-16","AB_m21","168","even","NW_L_COMP","COLDITY","2032","215375","213716","207608","154807","NA","NA","NA","NA","212377","214213","NA","213216","NA","213210","215368","2044","215775","NA","NA","214375","2032","2032","214766","213210","2032","214375","215775","morph21_Oliver/Morris","14","12302","17","yes","1280","10"
"250","83.3333333333","83.3333333333","715.555555556","715.555555556","black","no","xpyriment","legacy","legacy","0","202","NA","uniform","71856","1000","0.0139167223336","1","undefined","1","0","17","17","17","0","17","17","17","NA","17","17","0","17","NA","17","17","0","17","NA","17","NA","17","0","0","17","17","0","17","17","18","/","03/25/19 15:35:59","The main experiment item","yes","FIN__AB__M21__7%3A10%3A17.osexp","C:\Users\ERP Testing Room\Desktop\Joanna\morph21","no","mono","no","18","no","white","no","yes","1080","legacy","17","17","C:/Users/ERP Testing Room/Desktop/Joanna/morph21/subject-168.csv","xpyriment","Kafkaesque Koffka","3.2.5","0","/","NA","NA","NA","NA","space","/","578","NA","NA","NA","NA","152763","578","2","legacy","1024","2","48000","-16","AB_m21","168","even","CW_L","CREAMY","2032","220226","217051","218717","154807","NA","NA","NA","NA","218709","217548","NA","216550","NA","216542","218709","2044","220476","NA","NA","217717","2032","2032","218109","216542","2032","217717","220476","morph21_Oliver/Morris","15","12880","18","yes","1280","49"
"400","78.9473684211","78.9473684211","721.736842105","721.736842105","black","no","xpyriment","legacy","legacy","0","204","NA","uniform","54421","1000","0.0183752595505","0","undefined","0","0","18","18","18","0","18","18","18","NA","18","18","0","18","NA","18","18","0","18","NA","18","NA","18","0","0","18","18","0","18","18","19","z","03/25/19 15:35:59","The main experiment item","yes","FIN__AB__M21__7%3A10%3A17.osexp","C:\Users\ERP Testing Room\Desktop\Joanna\morph21","no","mono","no","18","no","white","no","yes","1080","legacy","18","18","C:/Users/ERP Testing Room/Desktop/Joanna/morph21/subject-168.csv","xpyriment","Kafkaesque Koffka","3.2.5","0","/","NA","NA","NA","NA","space","/","833","NA","NA","NA","NA","152763","833","2","legacy","1024","2","48000","-16","AB_m21","168","even","NW_L_COMP","ANGELISH","2032","223326","221626","218717","154807","NA","NA","NA","NA","218709","222123","NA","221126","NA","221116","223317","2044","223726","NA","NA","222326","2032","2032","222718","221116","2032","222326","223726","morph21_Oliver/Morris","15","13713","19","yes","1280","7"
"200","75","75","709.75","709.75","black","no","xpyriment","legacy","legacy","0","204","NA","uniform","74653","1000","0.0133953089628","0","undefined","0","0","19","19","19","0","19","19","19","NA","19","19","0","19","NA","19","19","0","19","NA","19","NA","19","0","0","19","19","0","19","19","20","z","03/25/19 15:35:59","The main experiment item","yes","FIN__AB__M21__7%3A10%3A17.osexp","C:\Users\ERP Testing Room\Desktop\Joanna\morph21","no","mono","no","18","no","white","no","yes","1080","legacy","19","19","C:/Users/ERP Testing Room/Desktop/Joanna/morph21/subject-168.csv","xpyriment","Kafkaesque Koffka","3.2.5","0","/","NA","NA","NA","NA","space","/","482","NA","NA","NA","NA","152763","482","2","legacy","1024","2","48000","-16","AB_m21","168","even","NW_L_COMP","GASFUL","2032","226693","224968","218717","154807","NA","NA","NA","NA","218709","225465","NA","224468","NA","224463","226685","2044","226893","NA","NA","225693","2032","2032","226084","224463","2032","225693","226893","morph21_Oliver/Morris","15","14195","20","yes","1280","6"
"250","76.1904761905","76.1904761905","708.142857143","708.142857143","black","no","xpyriment","legacy","legacy","0","206","NA","uniform","66894","1000","0.0149490238287","1","undefined","1","0","20","20","20","0","20","20","20","NA","20","20","0","20","NA","20","20","0","20","NA","20","NA","20","0","0","20","20","0","20","20","21","z","03/25/19 15:35:59","The main experiment item","yes","FIN__AB__M21__7%3A10%3A17.osexp","C:\Users\ERP Testing Room\Desktop\Joanna\morph21","no","mono","no","18","no","white","no","yes","1080","legacy","20","20","C:/Users/ERP Testing Room/Desktop/Joanna/morph21/subject-168.csv","xpyriment","Kafkaesque Koffka","3.2.5","0","z","NA","NA","NA","NA","space","z","676","NA","NA","NA","NA","152763","676","2","legacy","1024","2","48000","-16","AB_m21","168","even","NW_L_SIMP"," DRESSODY","2032","231343","228126","229835","154807","NA","NA","NA","NA","229831","228623","NA","227626","NA","227615","229831","2044","231593","NA","NA","228843","2032","2032","229235","227615","2032","228843","231593","morph21_Oliver/Morris","16","14871","21","yes","1280","21"
"350","77.2727272727","77.2727272727","700.909090909","700.909090909","black","no","xpyriment","legacy","legacy","0","201","NA","uniform","66902","1000","0.014947236256","1","undefined","1","0","21","21","21","0","21","21","21","NA","21","21","0","21","NA","21","21","0","21","NA","21","NA","21","0","0","21","21","0","21","21","22","/","03/25/19 15:35:59","The main experiment item","yes","FIN__AB__M21__7%3A10%3A17.osexp","C:\Users\ERP Testing Room\Desktop\Joanna\morph21","no","mono","no","18","no","white","no","yes","1080","legacy","21","21","C:/Users/ERP Testing Room/Desktop/Joanna/morph21/subject-168.csv","xpyriment","Kafkaesque Koffka","3.2.5","0","/","NA","NA","NA","NA","space","/","549","NA","NA","NA","NA","152763","549","2","legacy","1024","2","48000","-16","AB_m21","168","even","CW_S","RICHNESS","2032","234394","232735","229835","154807","NA","NA","NA","NA","234385","233232","NA","232235","NA","232227","234385","2044","234744","NA","NA","233393","2032","2032","233785","232227","2032","233393","234744","morph21_Oliver/Morris","17","15420","22","yes","1280","45"
"350","78.2608695652","78.2608695652","693.869565217","693.869565217","black","no","xpyriment","legacy","legacy","0","201","NA","uniform","69745","1000","0.0143379453724","1","undefined","1","0","22","22","22","0","22","22","22","NA","22","22","0","22","NA","22","22","0","22","NA","22","NA","22","0","0","22","22","0","22","22","23","/","03/25/19 15:35:59","The main experiment item","yes","FIN__AB__M21__7%3A10%3A17.osexp","C:\Users\ERP Testing Room\Desktop\Joanna\morph21","no","mono","no","18","no","white","no","yes","1080","legacy","22","22","C:/Users/ERP Testing Room/Desktop/Joanna/morph21/subject-168.csv","xpyriment","Kafkaesque Koffka","3.2.5","0","/","NA","NA","NA","NA","space","/","539","NA","NA","NA","NA","152763","539","2","legacy","1024","2","48000","-16","AB_m21","168","even","CW_S","LENDER","2032","237636","235986","229835","154807","NA","NA","NA","NA","237633","236483","NA","235486","NA","235475","237633","2044","237986","NA","NA","236644","2032","2032","237036","235475","2032","236644","237986","morph21_Oliver/Morris","18","15959","23","yes","1280","11"
"300","75","75","685.333333333","685.333333333","black","no","xpyriment","legacy","legacy","0","208","NA","uniform","73863","1000","0.0135385781785","0","undefined","0","0","23","23","23","0","23","23","23","NA","23","23","0","23","NA","23","23","0","23","NA","23","NA","23","0","0","23","23","0","23","23","24","z","03/25/19 15:35:59","The main experiment item","yes","FIN__AB__M21__7%3A10%3A17.osexp","C:\Users\ERP Testing Room\Desktop\Joanna\morph21","no","mono","no","18","no","white","no","yes","1080","legacy","23","23","C:/Users/ERP Testing Room/Desktop/Joanna/morph21/subject-168.csv","xpyriment","Kafkaesque Koffka","3.2.5","0","/","NA","NA","NA","NA","space","/","489","NA","NA","NA","NA","152763","489","2","legacy","1024","2","48000","-16","AB_m21","168","even","FILL_NW","SCURE","2032","242386","239178","240878","154807","NA","NA","NA","NA","237633","239675","NA","238678","NA","238673","240874","2044","242686","NA","NA","239886","2032","2032","240278","238673","2032","239886","242686","morph21_Oliver/Morris","18","16448","24","yes","1280","41"
"350","76","76","678.96","678.96","black","no","xpyriment","legacy","legacy","0","202","NA","uniform","71357","1000","0.0140140420702","1","undefined","1","0","24","24","24","0","24","24","24","NA","24","24","0","24","NA","24","24","0","24","NA","24","NA","24","0","0","24","24","0","24","24","25","/","03/25/19 15:35:59","The main experiment item","yes","FIN__AB__M21__7%3A10%3A17.osexp","C:\Users\ERP Testing Room\Desktop\Joanna\morph21","no","mono","no","18","no","white","no","yes","1080","legacy","24","24","C:/Users/ERP Testing Room/Desktop/Joanna/morph21/subject-168.csv","xpyriment","Kafkaesque Koffka","3.2.5","0","/","NA","NA","NA","NA","space","/","526","NA","NA","NA","NA","152763","526","2","legacy","1024","2","48000","-16","AB_m21","168","even","CW_L","FEEDER","2032","245561","243853","240878","154807","NA","NA","NA","NA","245556","244350","NA","243353","NA","243342","245556","2044","245911","NA","NA","244561","2032","2032","244961","243342","2032","244561","245911","morph21_Oliver/Morris","19","16974","25","yes","1280","14"
"300","73.0769230769","73.0769230769","679.769230769","679.769230769","black","no","xpyriment","legacy","legacy","0","206","NA","uniform","63745","1000","0.0156875049023","0","undefined","0","0","25","25","25","0","25","25","25","NA","25","25","0","25","NA","25","25","0","25","NA","25","NA","25","0","0","25","25","0","25","25","26","z","03/25/19 15:35:59","The main experiment item","yes","FIN__AB__M21__7%3A10%3A17.osexp","C:\Users\ERP Testing Room\Desktop\Joanna\morph21","no","mono","no","18","no","white","no","yes","1080","legacy","25","25","C:/Users/ERP Testing Room/Desktop/Joanna/morph21/subject-168.csv","xpyriment","Kafkaesque Koffka","3.2.5","0","/","NA","NA","NA","NA","space","/","700","NA","NA","NA","NA","152763","700","2","legacy","1024","2","48000","-16","AB_m21","168","even","NW_L_SIMP","BEGENGE","2032","248811","247145","240878","154807","NA","NA","NA","NA","245556","247642","NA","246645","NA","246638","248801","2044","249111","NA","NA","247811","2032","2032","248203","246638","2032","247811","249111","morph21_Oliver/Morris","19","17674","26","yes","1280","4"
"200","70.3703703704","70.3703703704","680.888888889","680.888888889","black","no","xpyriment","legacy","legacy","0","208","NA","uniform","64357","1000","0.0155383252793","0","undefined","0","0","26","26","26","0","26","26","26","NA","26","26","0","26","NA","26","26","0","26","NA","26","NA","26","0","0","26","26","0","26","26","27","z","03/25/19 15:35:59","The main experiment item","yes","FIN__AB__M21__7%3A10%3A17.osexp","C:\Users\ERP Testing Room\Desktop\Joanna\morph21","no","mono","no","18","no","white","no","yes","1080","legacy","26","26","C:/Users/ERP Testing Room/Desktop/Joanna/morph21/subject-168.csv","xpyriment","Kafkaesque Koffka","3.2.5","0","/","NA","NA","NA","NA","space","/","710","NA","NA","NA","NA","152763","710","2","legacy","1024","2","48000","-16","AB_m21","168","even","FILL_NW","BLAYS","2032","253429","250228","251921","154807","NA","NA","NA","NA","245556","250725","NA","249728","NA","249718","251912","2044","253629","NA","NA","250920","2032","2032","251312","249718","2032","250920","253629","morph21_Oliver/Morris","19","18384","27","yes","1280","8"
"250","71.4285714286","71.4285714286","675.892857143","675.892857143","black","no","xpyriment","legacy","legacy","0","201","NA","uniform","64282","1000","0.0155564543729","1","undefined","1","0","27","27","27","0","27","27","27","NA","27","27","0","27","NA","27","27","0","27","NA","27","NA","27","0","0","27","27","0","27","27","28","/","03/25/19 15:35:59","The main experiment item","yes","FIN__AB__M21__7%3A10%3A17.osexp","C:\Users\ERP Testing Room\Desktop\Joanna\morph21","no","mono","no","18","no","white","no","yes","1080","legacy","27","27","C:/Users/ERP Testing Room/Desktop/Joanna/morph21/subject-168.csv","xpyriment","Kafkaesque Koffka","3.2.5","0","/","NA","NA","NA","NA","space","/","541","NA","NA","NA","NA","152763","541","2","legacy","1024","2","48000","-16","AB_m21","168","even","CW_S","JAILER","2032","256538","254863","251921","154807","NA","NA","NA","NA","256535","255360","NA","254363","NA","254355","256535","2044","256788","NA","NA","255546","2032","2032","255938","254355","2032","255546","256788","morph21_Oliver/Morris","20","18925","28","yes","1280","13"
"350","72.4137931034","72.4137931034","670.827586207","670.827586207","black","no","xpyriment","legacy","legacy","0","207","NA","uniform","67576","1000","0.0147981531905","1","undefined","1","0","28","28","28","0","28","28","28","NA","28","28","0","28","NA","28","28","0","28","NA","28","NA","28","0","0","28","28","0","28","28","29","/","03/25/19 15:35:59","The main experiment item","yes","FIN__AB__M21__7%3A10%3A17.osexp","C:\Users\ERP Testing Room\Desktop\Joanna\morph21","no","mono","no","18","no","white","no","yes","1080","legacy","28","28","C:/Users/ERP Testing Room/Desktop/Joanna/morph21/subject-168.csv","xpyriment","Kafkaesque Koffka","3.2.5","0","/","NA","NA","NA","NA","space","/","529","NA","NA","NA","NA","152763","529","2","legacy","1024","2","48000","-16","AB_m21","168","even","FILL_W","GLOOM","2032","259638","257946","251921","154807","NA","NA","NA","NA","259632","258443","NA","257446","NA","257434","259632","2044","259988","NA","NA","258638","2032","2032","259030","257434","2032","258638","259988","morph21_Oliver/Morris","21","19454","29","yes","1280","14"
"350","70","70","670.766666667","670.766666667","black","no","xpyriment","legacy","legacy","0","206","NA","uniform","56281","1000","0.0177679856435","0","undefined","0","0","29","29","29","0","29","29","29","NA","29","29","0","29","NA","29","29","0","29","NA","29","NA","29","0","0","29","29","0","29","29","30","z","03/25/19 15:35:59","The main experiment item","yes","FIN__AB__M21__7%3A10%3A17.osexp","C:\Users\ERP Testing Room\Desktop\Joanna\morph21","no","mono","no","18","no","white","no","yes","1080","legacy","29","29","C:/Users/ERP Testing Room/Desktop/Joanna/morph21/subject-168.csv","xpyriment","Kafkaesque Koffka","3.2.5","0","/","NA","NA","NA","NA","space","/","669","NA","NA","NA","NA","152763","669","2","legacy","1024","2","48000","-16","AB_m21","168","even","NW_L_SIMP","WIGITH","2032","264238","261055","262730","154807","NA","NA","NA","NA","259632","261552","NA","260555","NA","260548","262726","2044","264588","NA","NA","261730","2032","2032","262130","260548","2032","261730","264588","morph21_Oliver/Morris","21","20123","30","yes","1280","9"
"400","70.9677419355","70.9677419355","679.129032258","679.129032258","black","no","xpyriment","legacy","legacy","0","208","NA","uniform","51869","1000","0.0192793383331","1","undefined","1","0","30","30","30","0","30","30","30","NA","30","30","0","30","NA","30","30","0","30","NA","30","NA","30","0","0","30","30","0","30","30","31","z","03/25/19 15:35:59","The main experiment item","yes","FIN__AB__M21__7%3A10%3A17.osexp","C:\Users\ERP Testing Room\Desktop\Joanna\morph21","no","mono","no","18","no","white","no","yes","1080","legacy","30","30","C:/Users/ERP Testing Room/Desktop/Joanna/morph21/subject-168.csv","xpyriment","Kafkaesque Koffka","3.2.5","0","z","NA","NA","NA","NA","space","z","930","NA","NA","NA","NA","152763","930","2","legacy","1024","2","48000","-16","AB_m21","168","even","FILL_NW","VELT","2032","267405","265755","262730","154807","NA","NA","NA","NA","267396","266252","NA","265255","NA","265249","267396","2044","267805","NA","NA","266405","2032","2032","266797","265248","2032","266405","267805","morph21_Oliver/Morris","22","21053","31","yes","1280","46"
"400","71.875","71.875","675.6875","675.6875","black","no","xpyriment","legacy","legacy","0","207","NA","uniform","71776","1000","0.0139322336157","1","undefined","1","0","31","31","31","0","31","31","31","NA","31","31","0","31","NA","31","31","0","31","NA","31","NA","31","0","0","31","31","0","31","31","32","/","03/25/19 15:35:59","The main experiment item","yes","FIN__AB__M21__7%3A10%3A17.osexp","C:\Users\ERP Testing Room\Desktop\Joanna\morph21","no","mono","no","18","no","white","no","yes","1080","legacy","31","31","C:/Users/ERP Testing Room/Desktop/Joanna/morph21/subject-168.csv","xpyriment","Kafkaesque Koffka","3.2.5","0","/","NA","NA","NA","NA","space","/","569","NA","NA","NA","NA","152763","569","2","legacy","1024","2","48000","-16","AB_m21","168","even","FILL_W","CRUNCH","2032","270614","268905","262730","154807","NA","NA","NA","NA","270609","269402","NA","268405","NA","268397","270609","2044","271014","NA","NA","269614","2032","2032","270014","268397","2032","269614","271014","morph21_Oliver/Morris","23","21622","32","yes","1280","20"
"350","72.7272727273","72.7272727273","675.666666667","675.666666667","black","no","xpyriment","legacy","legacy","0","202","NA","uniform","64224","1000","0.0155705032387","1","undefined","1","0","32","32","32","0","32","32","32","NA","32","32","0","32","NA","32","32","0","32","NA","32","NA","32","0","0","32","32","0","32","32","33","/","03/25/19 15:35:59","The main experiment item","yes","FIN__AB__M21__7%3A10%3A17.osexp","C:\Users\ERP Testing Room\Desktop\Joanna\morph21","no","mono","no","18","no","white","no","yes","1080","legacy","32","32","C:/Users/ERP Testing Room/Desktop/Joanna/morph21/subject-168.csv","xpyriment","Kafkaesque Koffka","3.2.5","0","/","NA","NA","NA","NA","space","/","675","NA","NA","NA","NA","152763","675","2","legacy","1024","2","48000","-16","AB_m21","168","even","CW_L","GUILELESS","2032","275456","272214","273948","154807","NA","NA","NA","NA","273938","272712","NA","271714","NA","271704","273938","2044","275806","NA","NA","272948","2032","2032","273339","271704","2032","272948","275806","morph21_Oliver/Morris","24","22297","33","yes","1280","31"
"250","73.5294117647","73.5294117647","670.205882353","670.205882353","black","no","xpyriment","legacy","legacy","0","207","NA","uniform","71171","1000","0.0140506667041","1","undefined","1","0","33","33","33","0","33","33","33","NA","33","33","0","33","NA","33","33","0","33","NA","33","NA","33","0","0","33","33","0","33","33","34","/","03/25/19 15:35:59","The main experiment item","yes","FIN__AB__M21__7%3A10%3A17.osexp","C:\Users\ERP Testing Room\Desktop\Joanna\morph21","no","mono","no","18","no","white","no","yes","1080","legacy","33","33","C:/Users/ERP Testing Room/Desktop/Joanna/morph21/subject-168.csv","xpyriment","Kafkaesque Koffka","3.2.5","0","/","NA","NA","NA","NA","space","/","490","NA","NA","NA","NA","152763","490","2","legacy","1024","2","48000","-16","AB_m21","168","even","FILL_W","SLIM","2032","278573","276898","273948","154807","NA","NA","NA","NA","278563","277395","NA","276398","NA","276393","278563","2044","278823","NA","NA","277573","2032","2032","277965","276393","2032","277573","278823","morph21_Oliver/Morris","25","22787","34","yes","1280","6"
"250","74.2857142857","74.2857142857","667.571428571","667.571428571","black","no","xpyriment","legacy","legacy","0","201","NA","uniform","64756","1000","0.0154425844709","1","undefined","1","0","34","34","34","0","34","34","34","NA","34","34","0","34","NA","34","34","0","34","NA","34","NA","34","0","0","34","34","0","34","34","35","/","03/25/19 15:35:59","The main experiment item","yes","FIN__AB__M21__7%3A10%3A17.osexp","C:\Users\ERP Testing Room\Desktop\Joanna\morph21","no","mono","no","18","no","white","no","yes","1080","legacy","34","34","C:/Users/ERP Testing Room/Desktop/Joanna/morph21/subject-168.csv","xpyriment","Kafkaesque Koffka","3.2.5","0","/","NA","NA","NA","NA","space","/","578","NA","NA","NA","NA","152763","578","2","legacy","1024","2","48000","-16","AB_m21","168","even","CW_S","TUTORING","2032","281565","279890","273948","154807","NA","NA","NA","NA","281560","280387","NA","279390","NA","279380","281560","2044","281815","NA","NA","280565","2032","2032","280965","279380","2032","280565","281815","morph21_Oliver/Morris","26","23365","35","yes","1280","27"
"250","72.2222222222","72.2222222222","664.083333333","664.083333333","black","no","xpyriment","legacy","legacy","0","204","NA","uniform","64907","1000","0.0154066587579","0","undefined","0","0","35","35","35","0","35","35","35","NA","35","35","0","35","NA","35","35","0","35","NA","35","NA","35","0","0","35","35","0","35","35","36","z","03/25/19 15:35:59","The main experiment item","yes","FIN__AB__M21__7%3A10%3A17.osexp","C:\Users\ERP Testing Room\Desktop\Joanna\morph21","no","mono","no","18","no","white","no","yes","1080","legacy","35","35","C:/Users/ERP Testing Room/Desktop/Joanna/morph21/subject-168.csv","xpyriment","Kafkaesque Koffka","3.2.5","0","/","NA","NA","NA","NA","space","/","542","NA","NA","NA","NA","152763","542","2","legacy","1024","2","48000","-16","AB_m21","168","even","NW_L_COMP","BREAKITY","2032","286173","282973","284665","154807","NA","NA","NA","NA","281560","283470","NA","282473","NA","282469","284661","2044","286424","NA","NA","283673","2032","2032","284065","282469","2032","283673","286424","morph21_Oliver/Morris","26","23907","36","yes","1280","23"
"200","70.2702702703","70.2702702703","663","663","black","no","xpyriment","legacy","legacy","0","203","NA","uniform","67813","1000","0.0147464350493","0","undefined","0","0","36","36","36","0","36","36","36","NA","36","36","0","36","NA","36","36","0","36","NA","36","NA","36","0","0","36","36","0","36","36","37","z","03/25/19 15:35:59","The main experiment item","yes","FIN__AB__M21__7%3A10%3A17.osexp","C:\Users\ERP Testing Room\Desktop\Joanna\morph21","no","mono","no","18","no","white","no","yes","1080","legacy","36","36","C:/Users/ERP Testing Room/Desktop/Joanna/morph21/subject-168.csv","xpyriment","Kafkaesque Koffka","3.2.5","0","/","NA","NA","NA","NA","space","/","624","NA","NA","NA","NA","152763","624","2","legacy","1024","2","48000","-16","AB_m21","168","even","NW_S_COMP","DUMBITY","2032","289399","287691","284665","154807","NA","NA","NA","NA","281560","288188","NA","287191","NA","287187","289392","2044","289600","NA","NA","288399","2032","2032","288791","287187","2032","288399","289600","morph21_Oliver/Morris","26","24531","37","yes","1280","12"
"350","68.4210526316","68.4210526316","664.421052632","664.421052632","black","no","xpyriment","legacy","legacy","0","204","NA","uniform","65855","1000","0.0151848758636","0","undefined","0","0","37","37","37","0","37","37","37","NA","37","37","0","37","NA","37","37","0","37","NA","37","NA","37","0","0","37","37","0","37","37","38","z","03/25/19 15:35:59","The main experiment item","yes","FIN__AB__M21__7%3A10%3A17.osexp","C:\Users\ERP Testing Room\Desktop\Joanna\morph21","no","mono","no","18","no","white","no","yes","1080","legacy","37","37","C:/Users/ERP Testing Room/Desktop/Joanna/morph21/subject-168.csv","xpyriment","Kafkaesque Koffka","3.2.5","0","/","NA","NA","NA","NA","space","/","717","NA","NA","NA","NA","152763","717","2","legacy","1024","2","48000","-16","AB_m21","168","even","NW_L_COMP","INKISM","2032","292666","290941","284665","154807","NA","NA","NA","NA","281560","291438","NA","290441","NA","290433","292658","2044","293016","NA","NA","291666","2032","2032","292058","290433","2032","291666","293016","morph21_Oliver/Morris","26","25248","38","yes","1280","8"
"200","69.2307692308","69.2307692308","665.538461538","665.538461538","black","no","xpyriment","legacy","legacy","0","208","NA","uniform","58671","1000","0.0170441955992","1","undefined","1","0","38","38","38","0","38","38","38","NA","38","38","0","38","NA","38","38","0","38","NA","38","NA","38","0","0","38","38","0","38","38","39","z","03/25/19 15:35:59","The main experiment item","yes","FIN__AB__M21__7%3A10%3A17.osexp","C:\Users\ERP Testing Room\Desktop\Joanna\morph21","no","mono","no","18","no","white","no","yes","1080","legacy","38","38","C:/Users/ERP Testing Room/Desktop/Joanna/morph21/subject-168.csv","xpyriment","Kafkaesque Koffka","3.2.5","0","z","NA","NA","NA","NA","space","z","708","NA","NA","NA","NA","152763","708","2","legacy","1024","2","48000","-16","AB_m21","168","even","FILL_NW","PORDS","2032","297383","294216","295875","154807","NA","NA","NA","NA","295872","294713","NA","293716","NA","293712","295872","2044","297583","NA","NA","294883","2032","2032","295275","293712","2032","294883","297583","morph21_Oliver/Morris","27","25956","39","yes","1280","39"
"400","70","70","665.55","665.55","black","no","xpyriment","legacy","legacy","0","206","NA","uniform","61041","1000","0.0163824314805","1","undefined","1","0","39","39","39","0","39","39","39","NA","39","39","0","39","NA","39","39","0","39","NA","39","NA","39","0","0","39","39","0","39","39","40","z","03/25/19 15:35:59","The main experiment item","yes","FIN__AB__M21__7%3A10%3A17.osexp","C:\Users\ERP Testing Room\Desktop\Joanna\morph21","no","mono","no","18","no","white","no","yes","1080","legacy","39","39","C:/Users/ERP Testing Room/Desktop/Joanna/morph21/subject-168.csv","xpyriment","Kafkaesque Koffka","3.2.5","0","z","NA","NA","NA","NA","space","z","666","NA","NA","NA","NA","152763","666","2","legacy","1024","2","48000","-16","AB_m21","168","even","NW_L_SIMP","POORIDY","2032","300517","298833","295875","154807","NA","NA","NA","NA","300513","299330","NA","298333","NA","298327","300513","2044","300917","NA","NA","299525","2032","2032","299917","298327","2032","299525","300917","morph21_Oliver/Morris","28","26622","40","yes","1280","13"
"400","70.7317073171","70.7317073171","667.902439024","667.902439024","black","no","xpyriment","legacy","legacy","0","204","NA","uniform","52586","1000","0.0190164682615","1","undefined","1","0","40","40","40","0","40","40","40","NA","40","40","0","40","NA","40","40","0","40","NA","40","NA","40","0","0","40","40","0","40","40","41","z","03/25/19 15:35:59","The main experiment item","yes","FIN__AB__M21__7%3A10%3A17.osexp","C:\Users\ERP Testing Room\Desktop\Joanna\morph21","no","mono","no","18","no","white","no","yes","1080","legacy","40","40","C:/Users/ERP Testing Room/Desktop/Joanna/morph21/subject-168.csv","xpyriment","Kafkaesque Koffka","3.2.5","0","z","NA","NA","NA","NA","space","z","762","NA","NA","NA","NA","152763","762","2","legacy","1024","2","48000","-16","AB_m21","168","even","NW_L_COMP","FLITENCE","2032","303725","302075","295875","154807","NA","NA","NA","NA","303722","302572","NA","301575","NA","301567","303722","2044","304125","NA","NA","302725","2032","2032","303125","301567","2032","302725","304125","morph21_Oliver/Morris","29","27384","41","yes","1280","3"
"200","71.4285714286","71.4285714286","666.5","666.5","black","no","xpyriment","legacy","legacy","0","201","NA","uniform","68260","1000","0.0146498681512","1","undefined","1","0","41","41","41","0","41","41","41","NA","41","41","0","41","NA","41","41","0","41","NA","41","NA","41","0","0","41","41","0","41","41","42","/","03/25/19 15:35:59","The main experiment item","yes","FIN__AB__M21__7%3A10%3A17.osexp","C:\Users\ERP Testing Room\Desktop\Joanna\morph21","no","mono","no","18","no","white","no","yes","1080","legacy","41","41","C:/Users/ERP Testing Room/Desktop/Joanna/morph21/subject-168.csv","xpyriment","Kafkaesque Koffka","3.2.5","0","/","NA","NA","NA","NA","space","/","609","NA","NA","NA","NA","152763","609","2","legacy","1024","2","48000","-16","AB_m21","168","even","CW_S","ANGELIC","2032","308418","305251","306909","154807","NA","NA","NA","NA","306902","305748","NA","304751","NA","304742","306902","2044","308618","NA","NA","305910","2032","2032","306301","304742","2032","305909","308618","morph21_Oliver/Morris","30","27993","42","yes","1280","25"
"250","69.7674418605","69.7674418605","664.11627907","664.11627907","black","no","xpyriment","legacy","legacy","0","204","NA","uniform","71183","1000","0.0140482980487","0","undefined","0","0","42","42","42","0","42","42","42","NA","42","42","0","42","NA","42","42","0","42","NA","42","NA","42","0","0","42","42","0","42","42","43","z","03/25/19 15:35:59","The main experiment item","yes","FIN__AB__M21__7%3A10%3A17.osexp","C:\Users\ERP Testing Room\Desktop\Joanna\morph21","no","mono","no","18","no","white","no","yes","1080","legacy","42","42","C:/Users/ERP Testing Room/Desktop/Joanna/morph21/subject-168.csv","xpyriment","Kafkaesque Koffka","3.2.5","0","/","NA","NA","NA","NA","space","/","564","NA","NA","NA","NA","152763","564","2","legacy","1024","2","48000","-16","AB_m21","168","even","NW_L_COMP","FREENESS","2032","311626","309926","306909","154807","NA","NA","NA","NA","306902","310423","NA","309426","NA","309416","311623","2044","311876","NA","NA","310635","2032","2032","311026","309416","2032","310635","311876","morph21_Oliver/Morris","30","28557","43","yes","1280","15"
"350","70.4545454545","70.4545454545","661.022727273","661.022727273","black","no","xpyriment","legacy","legacy","0","201","NA","uniform","69574","1000","0.0143731853853","1","undefined","1","0","43","43","43","0","43","43","43","NA","43","43","0","43","NA","43","43","0","43","NA","43","NA","43","0","0","43","43","0","43","43","44","/","03/25/19 15:35:59","The main experiment item","yes","FIN__AB__M21__7%3A10%3A17.osexp","C:\Users\ERP Testing Room\Desktop\Joanna\morph21","no","mono","no","18","no","white","no","yes","1080","legacy","43","43","C:/Users/ERP Testing Room/Desktop/Joanna/morph21/subject-168.csv","xpyriment","Kafkaesque Koffka","3.2.5","0","/","NA","NA","NA","NA","space","/","528","NA","NA","NA","NA","152763","528","2","legacy","1024","2","48000","-16","AB_m21","168","even","CW_S","TOASTER","2032","314735","313043","306909","154807","NA","NA","NA","NA","314729","313540","NA","312543","NA","312536","314729","2044","315085","NA","NA","313735","2032","2032","314127","312536","2032","313735","315085","morph21_Oliver/Morris","31","29085","44","yes","1280","10"
"250","71.1111111111","71.1111111111","664.088888889","664.088888889","black","no","xpyriment","legacy","legacy","0","203","NA","uniform","57368","1000","0.0174313205968","1","undefined","1","0","44","44","44","0","44","44","44","NA","44","44","0","44","NA","44","44","0","44","NA","44","NA","44","0","0","44","44","0","44","44","45","z","03/25/19 15:35:59","The main experiment item","yes","FIN__AB__M21__7%3A10%3A17.osexp","C:\Users\ERP Testing Room\Desktop\Joanna\morph21","no","mono","no","18","no","white","no","yes","1080","legacy","44","44","C:/Users/ERP Testing Room/Desktop/Joanna/morph21/subject-168.csv","xpyriment","Kafkaesque Koffka","3.2.5","0","z","NA","NA","NA","NA","space","z","799","NA","NA","NA","NA","152763","799","2","legacy","1024","2","48000","-16","AB_m21","168","even","NW_S_COMP","LIDARY","2032","319460","316243","317952","154807","NA","NA","NA","NA","317943","316740","NA","315743","NA","315739","317943","2044","319710","NA","NA","316952","2032","2032","317343","315739","2032","316952","319710","morph21_Oliver/Morris","32","29884","45","yes","1280","3"
"200","71.7391304348","71.7391304348","663.391304348","663.391304348","black","no","xpyriment","legacy","legacy","0","208","NA","uniform","60987","1000","0.0163969370522","1","undefined","1","0","45","45","45","0","45","45","45","NA","45","45","0","45","NA","45","45","0","45","NA","45","NA","45","0","0","45","45","0","45","45","46","z","03/25/19 15:35:59","The main experiment item","yes","FIN__AB__M21__7%3A10%3A17.osexp","C:\Users\ERP Testing Room\Desktop\Joanna\morph21","no","mono","no","18","no","white","no","yes","1080","legacy","45","45","C:/Users/ERP Testing Room/Desktop/Joanna/morph21/subject-168.csv","xpyriment","Kafkaesque Koffka","3.2.5","0","z","NA","NA","NA","NA","space","z","632","NA","NA","NA","NA","152763","632","2","legacy","1024","2","48000","-16","AB_m21","168","even","FILL_NW","BROUPS","2032","322545","320852","317952","154807","NA","NA","NA","NA","322541","321349","NA","320352","NA","320348","322541","2044","322745","NA","NA","321552","2032","2032","321944","320348","2032","321552","322745","morph21_Oliver/Morris","33","30516","46","yes","1280","4"
"300","72.3404255319","72.3404255319","660.617021277","660.617021277","black","no","xpyriment","legacy","legacy","0","201","NA","uniform","68652","1000","0.0145662180272","1","undefined","1","0","46","46","46","0","46","46","46","NA","46","46","0","46","NA","46","46","0","46","NA","46","NA","46","0","0","46","46","0","46","46","47","/","03/25/19 15:35:59","The main experiment item","yes","FIN__AB__M21__7%3A10%3A17.osexp","C:\Users\ERP Testing Room\Desktop\Joanna\morph21","no","mono","no","18","no","white","no","yes","1080","legacy","46","46","C:/Users/ERP Testing Room/Desktop/Joanna/morph21/subject-168.csv","xpyriment","Kafkaesque Koffka","3.2.5","0","/","NA","NA","NA","NA","space","/","533","NA","NA","NA","NA","152763","533","2","legacy","1024","2","48000","-16","AB_m21","168","even","CW_S","MAGICAL","2032","325578","323886","317952","154807","NA","NA","NA","NA","325571","324383","NA","323386","NA","323381","325571","2044","325878","NA","NA","324578","2032","2032","324970","323381","2032","324578","325878","morph21_Oliver/Morris","34","31049","47","yes","1280","4"
"250","72.9166666667","72.9166666667","657.4375","657.4375","black","no","xpyriment","legacy","legacy","0","208","NA","uniform","61206","1000","0.0163382674901","1","undefined","1","0","47","47","47","0","47","47","47","NA","47","47","0","47","NA","47","47","0","47","NA","47","NA","47","0","0","47","47","0","47","47","48","z","03/25/19 15:35:59","The main experiment item","yes","FIN__AB__M21__7%3A10%3A17.osexp","C:\Users\ERP Testing Room\Desktop\Joanna\morph21","no","mono","no","18","no","white","no","yes","1080","legacy","47","47","C:/Users/ERP Testing Room/Desktop/Joanna/morph21/subject-168.csv","xpyriment","Kafkaesque Koffka","3.2.5","0","z","NA","NA","NA","NA","space","z","508","NA","NA","NA","NA","152763","508","2","legacy","1024","2","48000","-16","AB_m21","168","even","FILL_NW","BUWL","2032","330303","327095","328795","154807","NA","NA","NA","NA","328791","327592","NA","326595","NA","326586","328791","2044","330553","NA","NA","327803","2032","2032","328195","326586","2032","327803","330553","morph21_Oliver/Morris","35","31557","48","yes","1280","9"
"250","73.4693877551","73.4693877551","653.428571429","653.428571429","black","no","xpyriment","legacy","legacy","0","201","NA","uniform","65523","1000","0.0152618164614","1","undefined","1","0","48","48","48","0","48","48","48","NA","48","48","0","48","NA","48","48","0","48","NA","48","NA","48","0","0","48","48","0","48","48","49","/","03/25/19 15:35:59","The main experiment item","yes","FIN__AB__M21__7%3A10%3A17.osexp","C:\Users\ERP Testing Room\Desktop\Joanna\morph21","no","mono","no","18","no","white","no","yes","1080","legacy","48","48","C:/Users/ERP Testing Room/Desktop/Joanna/morph21/subject-168.csv","xpyriment","Kafkaesque Koffka","3.2.5","0","/","NA","NA","NA","NA","space","/","461","NA","NA","NA","NA","152763","461","2","legacy","1024","2","48000","-16","AB_m21","168","even","CW_S","MOSSY","2032","333370","331720","328795","154807","NA","NA","NA","NA","333364","332217","NA","331212","NA","331201","333364","2044","333620","NA","NA","332370","2032","2032","332762","331201","2032","332370","333620","morph21_Oliver/Morris","36","32018","49","yes","1280","47"
"200","74","74","650.64","650.64","black","no","xpyriment","legacy","legacy","0","201","NA","uniform","65074","1000","0.015367120509","1","undefined","1","0","49","49","49","0","49","49","49","NA","49","49","0","49","NA","49","49","0","49","NA","49","NA","49","0","0","49","49","0","49","49","50","/","03/25/19 15:35:59","The main experiment item","yes","FIN__AB__M21__7%3A10%3A17.osexp","C:\Users\ERP Testing Room\Desktop\Joanna\morph21","no","mono","no","18","no","white","no","yes","1080","legacy","49","49","C:/Users/ERP Testing Room/Desktop/Joanna/morph21/subject-168.csv","xpyriment","Kafkaesque Koffka","3.2.5","0","/","NA","NA","NA","NA","space","/","514","NA","NA","NA","NA","152763","514","2","legacy","1024","2","48000","-16","AB_m21","168","even","CW_S","CAMPAIGNER","2032","336437","334787","328795","154807","NA","NA","NA","NA","336429","335284","NA","334287","NA","334282","336429","2044","336637","NA","NA","335437","2032","2032","335828","334282","2032","335437","336637","morph21_Oliver/Morris","37","32532","50","yes","1280","15"
"200","74.5098039216","74.5098039216","653.058823529","653.058823529","black","no","xpyriment","legacy","legacy","0","208","NA","uniform","55220","1000","0.0181093806592","1","undefined","1","0","50","50","50","0","50","50","50","NA","50","50","0","50","NA","50","50","0","50","NA","50","NA","50","0","0","50","50","0","50","50","51","z","03/25/19 15:35:59","The main experiment item","yes","FIN__AB__M21__7%3A10%3A17.osexp","C:\Users\ERP Testing Room\Desktop\Joanna\morph21","no","mono","no","18","no","white","no","yes","1080","legacy","50","50","C:/Users/ERP Testing Room/Desktop/Joanna/morph21/subject-168.csv","xpyriment","Kafkaesque Koffka","3.2.5","0","z","NA","NA","NA","NA","space","z","774","NA","NA","NA","NA","152763","774","2","legacy","1024","2","48000","-16","AB_m21","168","even","FILL_NW","FROT","2032","341071","337895","339563","154807","NA","NA","NA","NA","339559","338392","NA","337395","NA","337384","339559","2044","341272","NA","NA","338570","2032","2032","338962","337384","2032","338570","341272","morph21_Oliver/Morris","38","33306","51","yes","1280","22"
"350","75","75","652.096153846","652.096153846","black","no","xpyriment","legacy","legacy","0","201","NA","uniform","66420","1000","0.0150557061126","1","undefined","1","0","51","51","51","0","51","51","51","NA","51","51","0","51","NA","51","51","0","51","NA","51","NA","51","0","0","51","51","0","51","51","52","/","03/25/19 15:35:59","The main experiment item","yes","FIN__AB__M21__7%3A10%3A17.osexp","C:\Users\ERP Testing Room\Desktop\Joanna\morph21","no","mono","no","18","no","white","no","yes","1080","legacy","51","51","C:/Users/ERP Testing Room/Desktop/Joanna/morph21/subject-168.csv","xpyriment","Kafkaesque Koffka","3.2.5","0","/","NA","NA","NA","NA","space","/","603","NA","NA","NA","NA","152763","603","2","legacy","1024","2","48000","-16","AB_m21","168","even","CW_S","NEATLY","2032","344188","342480","339563","154807","NA","NA","NA","NA","344181","342977","NA","341980","NA","341972","344181","2044","344538","NA","NA","343188","2032","2032","343580","341972","2032","343188","344538","morph21_Oliver/Morris","39","33909","52","yes","1280","33"
"400","75.4716981132","75.4716981132","650.754716981","650.754716981","black","no","xpyriment","legacy","legacy","0","206","NA","uniform","62257","1000","0.0160624508087","1","undefined","1","0","52","52","52","0","52","52","52","NA","52","52","0","52","NA","52","52","0","52","NA","52","NA","52","0","0","52","52","0","52","52","53","z","03/25/19 15:35:59","The main experiment item","yes","FIN__AB__M21__7%3A10%3A17.osexp","C:\Users\ERP Testing Room\Desktop\Joanna\morph21","no","mono","no","18","no","white","no","yes","1080","legacy","52","52","C:/Users/ERP Testing Room/Desktop/Joanna/morph21/subject-168.csv","xpyriment","Kafkaesque Koffka","3.2.5","0","z","NA","NA","NA","NA","space","z","581","NA","NA","NA","NA","152763","581","2","legacy","1024","2","48000","-16","AB_m21","168","even","NW_L_SIMP","VALIDEL","2032","347538","345863","339563","154807","NA","NA","NA","NA","347532","346360","NA","345363","NA","345351","347532","2044","347938","NA","NA","346538","2032","2032","346930","345351","2032","346538","347938","morph21_Oliver/Morris","40","34490","53","yes","1280","23"
"400","75.9259259259","75.9259259259","649.796296296","649.796296296","black","no","xpyriment","legacy","legacy","0","202","NA","uniform","64556","1000","0.0154904269162","1","undefined","1","0","53","53","53","0","53","53","53","NA","53","53","0","53","NA","53","53","0","53","NA","53","NA","53","0","0","53","53","0","53","53","54","/","03/25/19 15:35:59","The main experiment item","yes","FIN__AB__M21__7%3A10%3A17.osexp","C:\Users\ERP Testing Room\Desktop\Joanna\morph21","no","mono","no","18","no","white","no","yes","1080","legacy","53","53","C:/Users/ERP Testing Room/Desktop/Joanna/morph21/subject-168.csv","xpyriment","Kafkaesque Koffka","3.2.5","0","/","NA","NA","NA","NA","space","/","599","NA","NA","NA","NA","152763","599","2","legacy","1024","2","48000","-16","AB_m21","168","even","CW_L","DRYNESS","2032","352380","349180","350872","154807","NA","NA","NA","NA","350866","349677","NA","348680","NA","348675","350866","2044","352780","NA","NA","349872","2032","2032","350263","348675","2032","349872","352780","morph21_Oliver/Morris","41","35089","54","yes","1280","42"
"200","74.5454545455","74.5454545455","651.672727273","651.672727273","black","no","xpyriment","legacy","legacy","0","201","NA","uniform","61294","1000","0.016314810585","0","undefined","0","0","54","54","54","0","54","54","54","NA","54","54","0","54","NA","54","54","0","54","NA","54","NA","54","0","0","54","54","0","54","54","55","/","03/25/19 15:35:59","The main experiment item","yes","FIN__AB__M21__7%3A10%3A17.osexp","C:\Users\ERP Testing Room\Desktop\Joanna\morph21","no","mono","no","18","no","white","no","yes","1080","legacy","54","54","C:/Users/ERP Testing Room/Desktop/Joanna/morph21/subject-168.csv","xpyriment","Kafkaesque Koffka","3.2.5","0","z","NA","NA","NA","NA","space","z","753","NA","NA","NA","NA","152763","753","2","legacy","1024","2","48000","-16","AB_m21","168","even","CW_S","THRUSTER","2032","355630","353955","350872","154807","NA","NA","NA","NA","350866","354452","NA","353455","NA","353449","355621","2044","355830","NA","NA","354630","2032","2032","355022","353449","2032","354630","355830","morph21_Oliver/Morris","41","35842","55","yes","1280","24"
"250","75","75","648.75","648.75","black","no","xpyriment","legacy","legacy","0","207","NA","uniform","73182","1000","0.0136645623241","1","undefined","1","0","55","55","55","0","55","55","55","NA","55","55","0","55","NA","55","55","0","55","NA","55","NA","55","0","0","55","55","0","55","55","56","/","03/25/19 15:35:59","The main experiment item","yes","FIN__AB__M21__7%3A10%3A17.osexp","C:\Users\ERP Testing Room\Desktop\Joanna\morph21","no","mono","no","18","no","white","no","yes","1080","legacy","55","55","C:/Users/ERP Testing Room/Desktop/Joanna/morph21/subject-168.csv","xpyriment","Kafkaesque Koffka","3.2.5","0","/","NA","NA","NA","NA","space","/","488","NA","NA","NA","NA","152763","488","2","legacy","1024","2","48000","-16","AB_m21","168","even","FILL_W","TREAT","2032","358598","356923","350872","154807","NA","NA","NA","NA","358595","357420","NA","356422","NA","356419","358595","2044","358848","NA","NA","357607","2032","2032","357998","356419","2032","357606","358848","morph21_Oliver/Morris","42","36330","56","yes","1280","48"
"250","75.4385964912","75.4385964912","646.754385965","646.754385965","black","no","xpyriment","legacy","legacy","0","207","NA","uniform","64388","1000","0.0155308442567","1","undefined","1","0","56","56","56","0","56","56","56","NA","56","56","0","56","NA","56","56","0","56","NA","56","NA","56","0","0","56","56","0","56","56","57","/","03/25/19 15:35:59","The main experiment item","yes","FIN__AB__M21__7%3A10%3A17.osexp","C:\Users\ERP Testing Room\Desktop\Joanna\morph21","no","mono","no","18","no","white","no","yes","1080","legacy","56","56","C:/Users/ERP Testing Room/Desktop/Joanna/morph21/subject-168.csv","xpyriment","Kafkaesque Koffka","3.2.5","0","/","NA","NA","NA","NA","space","/","535","NA","NA","NA","NA","152763","535","2","legacy","1024","2","48000","-16","AB_m21","168","even","FILL_W","SMOKE","2032","363140","359998","361632","154807","NA","NA","NA","NA","361624","360495","NA","359498","NA","359489","361624","2044","363390","NA","NA","360632","2032","2032","361023","359489","2032","360631","363390","morph21_Oliver/Morris","43","36865","57","yes","1280","50"
"250","75.8620689655","75.8620689655","646.482758621","646.482758621","black","no","xpyriment","legacy","legacy","0","208","NA","uniform","69627","1000","0.0143622445316","1","undefined","1","0","57","57","57","0","57","57","57","NA","57","57","0","57","NA","57","57","0","57","NA","57","NA","57","0","0","57","57","0","57","57","58","z","03/25/19 15:35:59","The main experiment item","yes","FIN__AB__M21__7%3A10%3A17.osexp","C:\Users\ERP Testing Room\Desktop\Joanna\morph21","no","mono","no","18","no","white","no","yes","1080","legacy","57","57","C:/Users/ERP Testing Room/Desktop/Joanna/morph21/subject-168.csv","xpyriment","Kafkaesque Koffka","3.2.5","0","z","NA","NA","NA","NA","space","z","631","NA","NA","NA","NA","152763","631","2","legacy","1024","2","48000","-16","AB_m21","168","even","FILL_NW","POLT","2032","366248","364557","361632","154807","NA","NA","NA","NA","366242","365054","NA","364057","NA","364052","366242","2044","366498","NA","NA","365248","2032","2032","365640","364052","2032","365248","366498","morph21_Oliver/Morris","44","37496","58","yes","1280","38"
"350","76.2711864407","76.2711864407","644.610169492","644.610169492","black","no","xpyriment","legacy","legacy","0","201","NA","uniform","65537","1000","0.0152585562354","1","undefined","1","0","58","58","58","0","58","58","58","NA","58","58","0","58","NA","58","58","0","58","NA","58","NA","58","0","0","58","58","0","58","58","59","/","03/25/19 15:35:59","The main experiment item","yes","FIN__AB__M21__7%3A10%3A17.osexp","C:\Users\ERP Testing Room\Desktop\Joanna\morph21","no","mono","no","18","no","white","no","yes","1080","legacy","58","58","C:/Users/ERP Testing Room/Desktop/Joanna/morph21/subject-168.csv","xpyriment","Kafkaesque Koffka","3.2.5","0","/","NA","NA","NA","NA","space","/","536","NA","NA","NA","NA","152763","536","2","legacy","1024","2","48000","-16","AB_m21","168","even","CW_S","BOSSY","2032","369398","367648","361632","154807","NA","NA","NA","NA","369388","368146","NA","367148","NA","367144","369388","2044","369749","NA","NA","368399","2032","2032","368790","367144","2032","368399","369749","morph21_Oliver/Morris","45","38032","59","yes","1280","49"
"350","75","75","642.15","642.15","black","no","xpyriment","legacy","legacy","0","203","NA","uniform","67929","1000","0.0147212530731","0","undefined","0","0","59","59","59","0","59","59","59","NA","59","59","0","59","NA","59","59","0","59","NA","59","NA","59","0","0","59","59","0","59","59","60","z","03/25/19 15:35:59","The main experiment item","yes","FIN__AB__M21__7%3A10%3A17.osexp","C:\Users\ERP Testing Room\Desktop\Joanna\morph21","no","mono","no","18","no","white","no","yes","1080","legacy","59","59","C:/Users/ERP Testing Room/Desktop/Joanna/morph21/subject-168.csv","xpyriment","Kafkaesque Koffka","3.2.5","0","/","NA","NA","NA","NA","space","/","497","NA","NA","NA","NA","152763","497","2","legacy","1024","2","48000","-16","AB_m21","168","even","NW_S_COMP","HUMIDOUS","2032","374090","370849","372582","154807","NA","NA","NA","NA","369388","371346","NA","370349","NA","370341","372578","2044","374441","NA","NA","371590","2032","2032","371982","370341","2032","371590","374441","morph21_Oliver/Morris","45","38529","60","yes","1280","25"
"300","75.4098360656","75.4098360656","640.360655738","640.360655738","black","no","xpyriment","legacy","legacy","0","202","NA","uniform","70841","1000","0.0141161191965","1","undefined","1","0","60","60","60","0","60","60","60","NA","60","60","0","60","NA","60","60","0","60","NA","60","NA","60","0","0","60","60","0","60","60","61","/","03/25/19 15:35:59","The main experiment item","yes","FIN__AB__M21__7%3A10%3A17.osexp","C:\Users\ERP Testing Room\Desktop\Joanna\morph21","no","mono","no","18","no","white","no","yes","1080","legacy","60","60","C:/Users/ERP Testing Room/Desktop/Joanna/morph21/subject-168.csv","xpyriment","Kafkaesque Koffka","3.2.5","0","/","NA","NA","NA","NA","space","/","533","NA","NA","NA","NA","152763","533","2","legacy","1024","2","48000","-16","AB_m21","168","even","CW_L","COMPOSER","2032","377258","375575","372582","154807","NA","NA","NA","NA","377251","376072","NA","375066","NA","375058","377251","2044","377558","NA","NA","376258","2032","2032","376650","375058","2032","376258","377558","morph21_Oliver/Morris","46","39062","61","yes","1280","6"
"350","75.8064516129","75.8064516129","640.241935484","640.241935484","black","no","xpyriment","legacy","legacy","0","208","NA","uniform","69159","1000","0.0144594340578","1","undefined","1","0","61","61","61","0","61","61","61","NA","61","61","0","61","NA","61","61","0","61","NA","61","NA","61","0","0","61","61","0","61","61","62","z","03/25/19 15:35:59","The main experiment item","yes","FIN__AB__M21__7%3A10%3A17.osexp","C:\Users\ERP Testing Room\Desktop\Joanna\morph21","no","mono","no","18","no","white","no","yes","1080","legacy","61","61","C:/Users/ERP Testing Room/Desktop/Joanna/morph21/subject-168.csv","xpyriment","Kafkaesque Koffka","3.2.5","0","z","NA","NA","NA","NA","space","z","633","NA","NA","NA","NA","152763","633","2","legacy","1024","2","48000","-16","AB_m21","168","even","FILL_NW","DELP","2032","380350","378700","372582","154807","NA","NA","NA","NA","380345","379197","NA","378200","NA","378190","380345","2044","380700","NA","NA","379350","2032","2032","379750","378190","2032","379350","380700","morph21_Oliver/Morris","47","39695","62","yes","1280","14"
"300","76.1904761905","76.1904761905","641.238095238","641.238095238","black","no","xpyriment","legacy","legacy","0","205","NA","uniform","58997","1000","0.0169500144075","1","undefined","1","0","62","62","62","0","62","62","62","NA","62","62","0","62","NA","62","62","0","62","NA","62","NA","62","0","0","62","62","0","62","62","63","z","03/25/19 15:35:59","The main experiment item","yes","FIN__AB__M21__7%3A10%3A17.osexp","C:\Users\ERP Testing Room\Desktop\Joanna\morph21","no","mono","no","18","no","white","no","yes","1080","legacy","62","62","C:/Users/ERP Testing Room/Desktop/Joanna/morph21/subject-168.csv","xpyriment","Kafkaesque Koffka","3.2.5","0","z","NA","NA","NA","NA","space","z","703","NA","NA","NA","NA","152763","703","2","legacy","1024","2","48000","-16","AB_m21","168","even","NW_S_SIMP","NEXTNELS","2032","385100","381942","383592","154807","NA","NA","NA","NA","383585","382439","NA","381442","NA","381433","383585","2044","385400","NA","NA","382592","2032","2032","382983","381433","2032","382592","385400","morph21_Oliver/Morris","48","40398","63","yes","1280","9"
"400","76.5625","76.5625","639.4375","639.4375","black","no","xpyriment","legacy","legacy","0","202","NA","uniform","64817","1000","0.0154280512828","1","undefined","1","0","63","63","63","0","63","63","63","NA","63","63","0","63","NA","63","63","0","63","NA","63","NA","63","0","0","63","63","0","63","63","64","/","03/25/19 15:35:59","The main experiment item","yes","FIN__AB__M21__7%3A10%3A17.osexp","C:\Users\ERP Testing Room\Desktop\Joanna\morph21","no","mono","no","18","no","white","no","yes","1080","legacy","63","63","C:/Users/ERP Testing Room/Desktop/Joanna/morph21/subject-168.csv","xpyriment","Kafkaesque Koffka","3.2.5","0","/","NA","NA","NA","NA","space","/","526","NA","NA","NA","NA","152763","526","2","legacy","1024","2","48000","-16","AB_m21","168","even","CW_L","CLEANER","2032","388200","386542","383592","154807","NA","NA","NA","NA","388196","387039","NA","386042","NA","386037","388196","2044","388600","NA","NA","387209","2032","2032","387600","386037","2032","387209","388600","morph21_Oliver/Morris","49","40924","64","yes","1280","15"
"250","76.9230769231","76.9230769231","639.015384615","639.015384615","black","no","xpyriment","legacy","legacy","0","205","NA","uniform","62598","1000","0.0159749512764","1","undefined","1","0","64","64","64","0","64","64","64","NA","64","64","0","64","NA","64","64","0","64","NA","64","NA","64","0","0","64","64","0","64","64","65","z","03/25/19 15:35:59","The main experiment item","yes","FIN__AB__M21__7%3A10%3A17.osexp","C:\Users\ERP Testing Room\Desktop\Joanna\morph21","no","mono","no","18","no","white","no","yes","1080","legacy","64","64","C:/Users/ERP Testing Room/Desktop/Joanna/morph21/subject-168.csv","xpyriment","Kafkaesque Koffka","3.2.5","0","z","NA","NA","NA","NA","space","z","612","NA","NA","NA","NA","152763","612","2","legacy","1024","2","48000","-16","AB_m21","168","even","NW_S_SIMP","DIGODY","2032","391475","389767","383592","154807","NA","NA","NA","NA","391472","390264","NA","389267","NA","389260","391472","2044","391725","NA","NA","390475","2032","2032","390875","389260","2032","390475","391725","morph21_Oliver/Morris","50","41536","65","yes","1280","11"
"350","77.2727272727","77.2727272727","637.560606061","637.560606061","black","no","xpyriment","legacy","legacy","0","202","NA","uniform","70304","1000","0.0142239417387","1","undefined","1","0","65","65","65","0","65","65","65","NA","65","65","0","65","NA","65","65","0","65","NA","65","NA","65","0","0","65","65","0","65","65","66","/","03/25/19 15:35:59","The main experiment item","yes","FIN__AB__M21__7%3A10%3A17.osexp","C:\Users\ERP Testing Room\Desktop\Joanna\morph21","no","mono","no","18","no","white","no","yes","1080","legacy","65","65","C:/Users/ERP Testing Room/Desktop/Joanna/morph21/subject-168.csv","xpyriment","Kafkaesque Koffka","3.2.5","0","/","NA","NA","NA","NA","space","/","543","NA","NA","NA","NA","152763","543","2","legacy","1024","2","48000","-16","AB_m21","168","even","CW_L","PUNCHER","2032","396068","392910","394560","154807","NA","NA","NA","NA","394554","393407","NA","392402","NA","392392","394554","2044","396419","NA","NA","393560","2032","2032","393952","392392","2032","393560","396419","morph21_Oliver/Morris","51","42079","66","yes","1280","1"
"300","77.6119402985","77.6119402985","637.388059701","637.388059701","black","no","xpyriment","legacy","legacy","0","208","NA","uniform","65383","1000","0.0152944955111","1","undefined","1","0","66","66","66","0","66","66","66","NA","66","66","0","66","NA","66","66","0","66","NA","66","NA","66","0","0","66","66","0","66","66","67","z","03/25/19 15:35:59","The main experiment item","yes","FIN__AB__M21__7%3A10%3A17.osexp","C:\Users\ERP Testing Room\Desktop\Joanna\morph21","no","mono","no","18","no","white","no","yes","1080","legacy","66","66","C:/Users/ERP Testing Room/Desktop/Joanna/morph21/subject-168.csv","xpyriment","Kafkaesque Koffka","3.2.5","0","z","NA","NA","NA","NA","space","z","626","NA","NA","NA","NA","152763","626","2","legacy","1024","2","48000","-16","AB_m21","168","even","FILL_NW","VOGS","2032","399277","397585","394560","154807","NA","NA","NA","NA","399268","398082","NA","397085","NA","397075","399268","2044","399577","NA","NA","398277","2032","2032","398668","397075","2032","398277","399577","morph21_Oliver/Morris","52","42705","67","yes","1280","47"
"300","77.9411764706","77.9411764706","637.485294118","637.485294118","black","no","xpyriment","legacy","legacy","0","201","NA","uniform","65334","1000","0.0153059662657","1","undefined","1","0","67","67","67","0","67","67","67","NA","67","67","0","67","NA","67","67","0","67","NA","67","NA","67","0","0","67","67","0","67","67","68","/","03/25/19 15:35:59","The main experiment item","yes","FIN__AB__M21__7%3A10%3A17.osexp","C:\Users\ERP Testing Room\Desktop\Joanna\morph21","no","mono","no","18","no","white","no","yes","1080","legacy","67","67","C:/Users/ERP Testing Room/Desktop/Joanna/morph21/subject-168.csv","xpyriment","Kafkaesque Koffka","3.2.5","0","/","NA","NA","NA","NA","space","/","644","NA","NA","NA","NA","152763","644","2","legacy","1024","2","48000","-16","AB_m21","168","even","CW_S","DETECTABLE","2032","402410","400719","394560","154807","NA","NA","NA","NA","402406","401216","NA","400219","NA","400214","402406","2044","402710","NA","NA","401419","2032","2032","401810","400214","2032","401419","402710","morph21_Oliver/Morris","53","43349","68","yes","1280","1"
"300","78.2608695652","78.2608695652","637.695652174","637.695652174","black","no","xpyriment","legacy","legacy","0","208","NA","uniform","63258","1000","0.0158082772139","1","undefined","1","0","68","68","68","0","68","68","68","NA","68","68","0","68","NA","68","68","0","68","NA","68","NA","68","0","0","68","68","0","68","68","69","z","03/25/19 15:35:59","The main experiment item","yes","FIN__AB__M21__7%3A10%3A17.osexp","C:\Users\ERP Testing Room\Desktop\Joanna\morph21","no","mono","no","18","no","white","no","yes","1080","legacy","68","68","C:/Users/ERP Testing Room/Desktop/Joanna/morph21/subject-168.csv","xpyriment","Kafkaesque Koffka","3.2.5","0","z","NA","NA","NA","NA","space","z","652","NA","NA","NA","NA","152763","652","2","legacy","1024","2","48000","-16","AB_m21","168","even","FILL_NW","DULKS","2032","407135","403944","405627","154807","NA","NA","NA","NA","405622","404441","NA","403444","NA","403437","405622","2044","407436","NA","NA","404627","2032","2032","405027","403437","2032","404627","407436","morph21_Oliver/Morris","54","44001","69","yes","1280","18"
"350","78.5714285714","78.5714285714","636.385714286","636.385714286","black","no","xpyriment","legacy","legacy","0","207","NA","uniform","66918","1000","0.0149436623928","1","undefined","1","0","69","69","69","0","69","69","69","NA","69","69","0","69","NA","69","69","0","69","NA","69","NA","69","0","0","69","69","0","69","69","70","/","03/25/19 15:35:59","The main experiment item","yes","FIN__AB__M21__7%3A10%3A17.osexp","C:\Users\ERP Testing Room\Desktop\Joanna\morph21","no","mono","no","18","no","white","no","yes","1080","legacy","69","69","C:/Users/ERP Testing Room/Desktop/Joanna/morph21/subject-168.csv","xpyriment","Kafkaesque Koffka","3.2.5","0","/","NA","NA","NA","NA","space","/","546","NA","NA","NA","NA","152763","546","2","legacy","1024","2","48000","-16","AB_m21","168","even","FILL_W","FOLLOW","2032","410278","408577","405627","154807","NA","NA","NA","NA","410270","409074","NA","408077","NA","408067","410270","2044","410628","NA","NA","409278","2032","2032","409670","408067","2032","409278","410628","morph21_Oliver/Morris","55","44547","70","yes","1280","17"
"350","78.8732394366","78.8732394366","634.61971831","634.61971831","black","no","xpyriment","legacy","legacy","0","207","NA","uniform","72122","1000","0.0138653947478","1","undefined","1","0","70","70","70","0","70","70","70","NA","70","70","0","70","NA","70","70","0","70","NA","70","NA","70","0","0","70","70","0","70","70","71","/","03/25/19 15:35:59","The main experiment item","yes","FIN__AB__M21__7%3A10%3A17.osexp","C:\Users\ERP Testing Room\Desktop\Joanna\morph21","no","mono","no","18","no","white","no","yes","1080","legacy","70","70","C:/Users/ERP Testing Room/Desktop/Joanna/morph21/subject-168.csv","xpyriment","Kafkaesque Koffka","3.2.5","0","/","NA","NA","NA","NA","space","/","511","NA","NA","NA","NA","152763","511","2","legacy","1024","2","48000","-16","AB_m21","168","even","FILL_W","WEIRD","2032","413528","411853","405627","154807","NA","NA","NA","NA","413523","412350","NA","411353","NA","411343","413523","2044","413878","NA","NA","412528","2032","2032","412920","411343","2032","412528","413878","morph21_Oliver/Morris","56","45058","71","yes","1280","2"
"300","79.1666666667","79.1666666667","633.708333333","633.708333333","black","no","xpyriment","legacy","legacy","0","207","NA","uniform","67004","1000","0.0149244821205","1","undefined","1","0","71","71","71","0","71","71","71","NA","71","71","0","71","NA","71","71","0","71","NA","71","NA","71","0","0","71","71","0","71","71","72","/","03/25/19 15:35:59","The main experiment item","yes","FIN__AB__M21__7%3A10%3A17.osexp","C:\Users\ERP Testing Room\Desktop\Joanna\morph21","no","mono","no","18","no","white","no","yes","1080","legacy","71","71","C:/Users/ERP Testing Room/Desktop/Joanna/morph21/subject-168.csv","xpyriment","Kafkaesque Koffka","3.2.5","0","/","NA","NA","NA","NA","space","/","569","NA","NA","NA","NA","152763","569","2","legacy","1024","2","48000","-16","AB_m21","168","even","FILL_W","BALD","2032","418379","415203","416870","154807","NA","NA","NA","NA","416865","415701","NA","414703","NA","414695","416865","2044","418679","NA","NA","415870","2032","2032","416270","414695","2032","415870","418679","morph21_Oliver/Morris","57","45627","72","yes","1280","3"
"400","79.4520547945","79.4520547945","632.219178082","632.219178082","black","no","xpyriment","legacy","legacy","0","202","NA","uniform","67381","1000","0.014840978911","1","undefined","1","0","72","72","72","0","72","72","72","NA","72","72","0","72","NA","72","72","0","72","NA","72","NA","72","0","0","72","72","0","72","72","73","/","03/25/19 15:35:59","The main experiment item","yes","FIN__AB__M21__7%3A10%3A17.osexp","C:\Users\ERP Testing Room\Desktop\Joanna\morph21","no","mono","no","18","no","white","no","yes","1080","legacy","72","72","C:/Users/ERP Testing Room/Desktop/Joanna/morph21/subject-168.csv","xpyriment","Kafkaesque Koffka","3.2.5","0","/","NA","NA","NA","NA","space","/","525","NA","NA","NA","NA","152763","525","2","legacy","1024","2","48000","-16","AB_m21","168","even","CW_L","SHAPELY","2032","421554","419862","416870","154807","NA","NA","NA","NA","421548","420359","NA","419362","NA","419350","421548","2044","421954","NA","NA","420554","2032","2032","420945","419350","2032","420554","421954","morph21_Oliver/Morris","58","46152","73","yes","1280","35"
"400","79.7297297297","79.7297297297","633.472972973","633.472972973","black","no","xpyriment","legacy","legacy","0","201","NA","uniform","65679","1000","0.0152255667717","1","undefined","1","0","73","73","73","0","73","73","73","NA","73","73","0","73","NA","73","73","0","73","NA","73","NA","73","0","0","73","73","0","73","73","74","/","03/25/19 15:35:59","The main experiment item","yes","FIN__AB__M21__7%3A10%3A17.osexp","C:\Users\ERP Testing Room\Desktop\Joanna\morph21","no","mono","no","18","no","white","no","yes","1080","legacy","73","73","C:/Users/ERP Testing Room/Desktop/Joanna/morph21/subject-168.csv","xpyriment","Kafkaesque Koffka","3.2.5","0","/","NA","NA","NA","NA","space","/","725","NA","NA","NA","NA","152763","725","2","legacy","1024","2","48000","-16","AB_m21","168","even","CW_S","RAIDER","2032","424771","423137","416870","154807","NA","NA","NA","NA","424766","423634","NA","422637","NA","422627","424766","2044","425171","NA","NA","423770","2032","2032","424170","422627","2032","423770","425171","morph21_Oliver/Morris","59","46877","74","yes","1280","12"
"200","78.6666666667","78.6666666667","632.226666667","632.226666667","black","no","xpyriment","legacy","legacy","0","203","NA","uniform","70446","1000","0.014195270136","undefined","undefined","0","0","74","74","74","0","74","74","74","NA","74","74","0","74","NA","74","74","0","74","NA","74","NA","74","0","0","74","74","0","74","74","75","z","03/25/19 15:35:59","The main experiment item","yes","FIN__AB__M21__7%3A10%3A17.osexp","C:\Users\ERP Testing Room\Desktop\Joanna\morph21","no","mono","no","18","no","white","no","yes","1080","legacy","74","74","C:/Users/ERP Testing Room/Desktop/Joanna/morph21/subject-168.csv","xpyriment","Kafkaesque Koffka","3.2.5","0","space","space","NA","NA","NA","space","/","15048","15048","NA","NA","NA","152763","540","2","legacy","1024","2","48000","-16","AB_m21","168","even","NW_S_COMP","FANFUL","2032","429480","426296","427972","154807","429688","NA","NA","NA","424766","426793","NA","425796","NA","425790","427962","2044","444736","NA","NA","426972","2032","2032","427363","425790","2032","426972","429680","morph21_Oliver/Morris","59","47417","75","yes","1280","6"
"350","78.9473684211","78.9473684211","631.434210526","631.434210526","black","no","xpyriment","legacy","legacy","0","201","NA","uniform","67762","1000","0.014757533721","1","undefined","1","0","75","75","75","0","75","75","75","NA","75","75","0","75","NA","75","75","0","75","NA","75","NA","75","0","0","75","75","0","75","75","76","/","03/25/19 15:35:59","The main experiment item","yes","FIN__AB__M21__7%3A10%3A17.osexp","C:\Users\ERP Testing Room\Desktop\Joanna\morph21","no","mono","no","18","no","white","no","yes","1080","legacy","75","75","C:/Users/ERP Testing Room/Desktop/Joanna/morph21/subject-168.csv","xpyriment","Kafkaesque Koffka","3.2.5","0","/","space","NA","NA","NA","space","/","572","15048","NA","NA","NA","152763","572","2","legacy","1024","2","48000","-16","AB_m21","168","even","CW_S","BEARDED","2032","447515","445832","427972","154807","429688","NA","NA","NA","447511","446329","NA","445332","NA","445328","447511","2044","447865","NA","NA","446523","2032","2032","446915","445328","2032","446523","447865","morph21_Oliver/Morris","60","47989","76","yes","1280","8"
"350","79.2207792208","79.2207792208","629.701298701","629.701298701","black","no","xpyriment","legacy","legacy","0","207","NA","uniform","74198","1000","0.0134774522224","1","undefined","1","0","76","76","76","0","76","76","76","NA","76","76","0","76","NA","76","76","0","76","NA","76","NA","76","0","0","76","76","0","76","76","77","/","03/25/19 15:35:59","The main experiment item","yes","FIN__AB__M21__7%3A10%3A17.osexp","C:\Users\ERP Testing Room\Desktop\Joanna\morph21","no","mono","no","18","no","white","no","yes","1080","legacy","76","76","C:/Users/ERP Testing Room/Desktop/Joanna/morph21/subject-168.csv","xpyriment","Kafkaesque Koffka","3.2.5","0","/","space","NA","NA","NA","space","/","498","15048","NA","NA","NA","152763","498","2","legacy","1024","2","48000","-16","AB_m21","168","even","FILL_W","FAINT","2032","450757","449107","427972","154807","429688","NA","NA","NA","450749","449604","NA","448607","NA","448601","450749","2044","451107","NA","NA","449757","2032","2032","450149","448601","2032","449757","451107","morph21_Oliver/Morris","61","48487","77","yes","1280","31"
"400","79.4871794872","79.4871794872","631.166666667","631.166666667","black","no","xpyriment","legacy","legacy","0","206","NA","uniform","63643","1000","0.0157126471097","1","undefined","1","0","77","77","77","0","77","77","77","NA","77","77","0","77","NA","77","77","0","77","NA","77","NA","77","0","0","77","77","0","77","77","78","z","03/25/19 15:35:59","The main experiment item","yes","FIN__AB__M21__7%3A10%3A17.osexp","C:\Users\ERP Testing Room\Desktop\Joanna\morph21","no","mono","no","18","no","white","no","yes","1080","legacy","77","77","C:/Users/ERP Testing Room/Desktop/Joanna/morph21/subject-168.csv","xpyriment","Kafkaesque Koffka","3.2.5","0","z","space","NA","NA","NA","space","z","744","15048","NA","NA","NA","152763","744","2","legacy","1024","2","48000","-16","AB_m21","168","even","NW_L_SIMP","CLASSOES","2032","455524","452290","454015","154807","429688","NA","NA","NA","454007","452788","NA","451790","NA","451780","454007","2044","455924","NA","NA","453015","2032","2032","453407","451780","2032","453015","455924","morph21_Oliver/Morris","62","49231","78","yes","1280","18"
"400","79.746835443","79.746835443","632.632911392","632.632911392","black","no","xpyriment","legacy","legacy","0","208","NA","uniform","62841","1000","0.0159131777025","1","undefined","1","0","78","78","78","0","78","78","78","NA","78","78","0","78","NA","78","78","0","78","NA","78","NA","78","0","0","78","78","0","78","78","79","z","03/25/19 15:35:59","The main experiment item","yes","FIN__AB__M21__7%3A10%3A17.osexp","C:\Users\ERP Testing Room\Desktop\Joanna\morph21","no","mono","no","18","no","white","no","yes","1080","legacy","78","78","C:/Users/ERP Testing Room/Desktop/Joanna/morph21/subject-168.csv","xpyriment","Kafkaesque Koffka","3.2.5","0","z","space","NA","NA","NA","space","z","747","15048","NA","NA","NA","152763","747","2","legacy","1024","2","48000","-16","AB_m21","168","even","FILL_NW","BUTE","2032","458707","457024","454015","154807","429688","NA","NA","NA","458703","457521","NA","456524","NA","456515","458703","2044","459107","NA","NA","457716","2032","2032","458107","456515","2032","457716","459107","morph21_Oliver/Morris","63","49978","79","yes","1280","5"
"350","78.75","78.75","634.35","634.35","black","no","xpyriment","legacy","legacy","0","204","NA","uniform","61976","1000","0.0161352781722","0","undefined","0","0","79","79","79","0","79","79","79","NA","79","79","0","79","NA","79","79","0","79","NA","79","NA","79","0","0","79","79","0","79","79","80","z","03/25/19 15:35:59","The main experiment item","yes","FIN__AB__M21__7%3A10%3A17.osexp","C:\Users\ERP Testing Room\Desktop\Joanna\morph21","no","mono","no","18","no","white","no","yes","1080","legacy","79","79","C:/Users/ERP Testing Room/Desktop/Joanna/morph21/subject-168.csv","xpyriment","Kafkaesque Koffka","3.2.5","0","/","space","NA","NA","NA","space","/","770","15048","NA","NA","NA","152763","770","2","legacy","1024","2","48000","-16","AB_m21","168","even","NW_L_COMP","AGREELY","2032","461967","460257","454015","154807","429688","NA","NA","NA","458703","460755","NA","459757","NA","459751","461957","2044","462317","NA","NA","460966","2032","2032","461357","459751","2032","460966","462317","morph21_Oliver/Morris","63","50748","80","yes","1280","24"
"300","77.7777777778","77.7777777778","633.901234568","633.901234568","black","no","xpyriment","legacy","legacy","0","204","NA","uniform","65456","1000","0.0152774382791","0","undefined","0","0","80","80","80","0","80","80","80","NA","80","80","0","80","NA","80","80","0","80","NA","80","NA","80","0","0","80","80","0","80","80","81","z","03/25/19 15:35:59","The main experiment item","yes","FIN__AB__M21__7%3A10%3A17.osexp","C:\Users\ERP Testing Room\Desktop\Joanna\morph21","no","mono","no","18","no","white","no","yes","1080","legacy","80","80","C:/Users/ERP Testing Room/Desktop/Joanna/morph21/subject-168.csv","xpyriment","Kafkaesque Koffka","3.2.5","0","/","space","NA","NA","NA","space","/","598","15048","NA","NA","NA","152763","598","2","legacy","1024","2","48000","-16","AB_m21","168","even","NW_L_COMP","EMPLOYNESS","2032","466734","463517","465225","154807","429688","NA","NA","NA","458703","464014","NA","463017","NA","463011","465219","2044","467034","NA","NA","464225","2032","2032","464617","463011","2032","464225","467034","morph21_Oliver/Morris","63","51346","81","yes","1280","21"
"400","78.0487804878","78.0487804878","632.817073171","632.817073171","black","no","xpyriment","legacy","legacy","0","207","NA","uniform","63768","1000","0.0156818466943","1","undefined","1","0","81","81","81","0","81","81","81","NA","81","81","0","81","NA","81","81","0","81","NA","81","NA","81","0","0","81","81","0","81","81","82","/","03/25/19 15:35:59","The main experiment item","yes","FIN__AB__M21__7%3A10%3A17.osexp","C:\Users\ERP Testing Room\Desktop\Joanna\morph21","no","mono","no","18","no","white","no","yes","1080","legacy","81","81","C:/Users/ERP Testing Room/Desktop/Joanna/morph21/subject-168.csv","xpyriment","Kafkaesque Koffka","3.2.5","0","/","space","NA","NA","NA","space","/","545","15048","NA","NA","NA","152763","545","2","legacy","1024","2","48000","-16","AB_m21","168","even","FILL_W","CHIP","2032","469934","468225","465225","154807","429688","NA","NA","NA","469924","468723","NA","467725","NA","467718","469924","2044","470334","NA","NA","468934","2032","2032","469325","467718","2032","468934","470334","morph21_Oliver/Morris","64","51891","82","yes","1280","11"
"300","78.313253012","78.313253012","634.65060241","634.65060241","black","no","xpyriment","legacy","legacy","0","206","NA","uniform","58788","1000","0.0170102742056","1","undefined","1","0","82","82","82","0","82","82","82","NA","82","82","0","82","NA","82","82","0","82","NA","82","NA","82","0","0","82","82","0","82","82","83","z","03/25/19 15:35:59","The main experiment item","yes","FIN__AB__M21__7%3A10%3A17.osexp","C:\Users\ERP Testing Room\Desktop\Joanna\morph21","no","mono","no","18","no","white","no","yes","1080","legacy","82","82","C:/Users/ERP Testing Room/Desktop/Joanna/morph21/subject-168.csv","xpyriment","Kafkaesque Koffka","3.2.5","0","z","space","NA","NA","NA","space","z","785","15048","NA","NA","NA","152763","785","2","legacy","1024","2","48000","-16","AB_m21","168","even","NW_L_SIMP","BANDADY","2032","473134","471459","465225","154807","429688","NA","NA","NA","473131","471956","NA","470950","NA","470946","473131","2044","473434","NA","NA","472142","2032","2032","472534","470946","2032","472142","473434","morph21_Oliver/Morris","65","52676","83","yes","1280","3"
"250","78.5714285714","78.5714285714","634.285714286","634.285714286","black","no","xpyriment","legacy","legacy","0","207","NA","uniform","67026","1000","0.0149195834452","1","undefined","1","0","83","83","83","0","83","83","83","NA","83","83","0","83","NA","83","83","0","83","NA","83","NA","83","0","0","83","83","0","83","83","84","/","03/25/19 15:35:59","The main experiment item","yes","FIN__AB__M21__7%3A10%3A17.osexp","C:\Users\ERP Testing Room\Desktop\Joanna\morph21","no","mono","no","18","no","white","no","yes","1080","legacy","83","83","C:/Users/ERP Testing Room/Desktop/Joanna/morph21/subject-168.csv","xpyriment","Kafkaesque Koffka","3.2.5","0","/","space","NA","NA","NA","space","/","604","15048","NA","NA","NA","152763","604","2","legacy","1024","2","48000","-16","AB_m21","168","even","FILL_W","FIERCE","2032","477767","474584","476259","154807","429688","NA","NA","NA","476255","475081","NA","474084","NA","474080","476255","2044","478018","NA","NA","475267","2032","2032","475659","474080","2032","475267","478018","morph21_Oliver/Morris","66","53280","84","yes","1280","24"
"350","78.8235294118","78.8235294118","634.235294118","634.235294118","black","no","xpyriment","legacy","legacy","0","202","NA","uniform","69253","1000","0.0144398076618","1","undefined","1","0","84","84","84","0","84","84","84","NA","84","84","0","84","NA","84","84","0","84","NA","84","NA","84","0","0","84","84","0","84","84","85","/","03/25/19 15:35:59","The main experiment item","yes","FIN__AB__M21__7%3A10%3A17.osexp","C:\Users\ERP Testing Room\Desktop\Joanna\morph21","no","mono","no","18","no","white","no","yes","1080","legacy","84","84","C:/Users/ERP Testing Room/Desktop/Joanna/morph21/subject-168.csv","xpyriment","Kafkaesque Koffka","3.2.5","0","/","space","NA","NA","NA","space","/","630","15048","NA","NA","NA","152763","630","2","legacy","1024","2","48000","-16","AB_m21","168","even","CW_L","PAINTER","2032","480802","479143","476259","154807","429688","NA","NA","NA","480792","479641","NA","478643","NA","478632","480792","2044","481152","NA","NA","479802","2032","2032","480194","478632","2032","479802","481152","morph21_Oliver/Morris","67","53910","85","yes","1280","18"
"300","79.0697674419","79.0697674419","633.441860465","633.441860465","black","no","xpyriment","legacy","legacy","0","207","NA","uniform","64159","1000","0.015586277841","1","undefined","1","0","85","85","85","0","85","85","85","NA","85","85","0","85","NA","85","85","0","85","NA","85","NA","85","0","0","85","85","0","85","85","86","/","03/25/19 15:35:59","The main experiment item","yes","FIN__AB__M21__7%3A10%3A17.osexp","C:\Users\ERP Testing Room\Desktop\Joanna\morph21","no","mono","no","18","no","white","no","yes","1080","legacy","85","85","C:/Users/ERP Testing Room/Desktop/Joanna/morph21/subject-168.csv","xpyriment","Kafkaesque Koffka","3.2.5","0","/","space","NA","NA","NA","space","/","566","15048","NA","NA","NA","152763","566","2","legacy","1024","2","48000","-16","AB_m21","168","even","FILL_W","BOX","2032","483985","482294","476259","154807","429688","NA","NA","NA","483979","482791","NA","481794","NA","481784","483979","2044","484285","NA","NA","482985","2032","2032","483377","481784","2032","482985","484285","morph21_Oliver/Morris","68","54476","86","yes","1280","42"
"300","79.3103448276","79.3103448276","636.540229885","636.540229885","black","no","xpyriment","legacy","legacy","0","204","NA","uniform","56731","1000","0.0176270469408","1","undefined","1","0","86","86","86","0","86","86","86","NA","86","86","0","86","NA","86","86","0","86","NA","86","NA","86","0","0","86","86","0","86","86","87","z","03/25/19 15:35:59","The main experiment item","yes","FIN__AB__M21__7%3A10%3A17.osexp","C:\Users\ERP Testing Room\Desktop\Joanna\morph21","no","mono","no","18","no","white","no","yes","1080","legacy","86","86","C:/Users/ERP Testing Room/Desktop/Joanna/morph21/subject-168.csv","xpyriment","Kafkaesque Koffka","3.2.5","0","z","space","NA","NA","NA","space","z","903","15048","NA","NA","NA","152763","903","2","legacy","1024","2","48000","-16","AB_m21","168","even","NW_L_COMP","NORTHIZE","2032","488661","485460","487152","154807","429688","NA","NA","NA","487148","485958","NA","484960","NA","484953","487148","2044","488961","NA","NA","486152","2032","2032","486552","484953","2032","486152","488961","morph21_Oliver/Morris","69","55379","87","yes","1280","20"
"200","79.5454545455","79.5454545455","636.170454545","636.170454545","black","no","xpyriment","legacy","legacy","0","208","NA","uniform","69423","1000","0.0144044480936","1","undefined","1","0","87","87","87","0","87","87","87","NA","87","87","0","87","NA","87","87","0","87","NA","87","NA","87","0","0","87","87","0","87","87","88","z","03/25/19 15:35:59","The main experiment item","yes","FIN__AB__M21__7%3A10%3A17.osexp","C:\Users\ERP Testing Room\Desktop\Joanna\morph21","no","mono","no","18","no","white","no","yes","1080","legacy","87","87","C:/Users/ERP Testing Room/Desktop/Joanna/morph21/subject-168.csv","xpyriment","Kafkaesque Koffka","3.2.5","0","z","space","NA","NA","NA","space","z","604","15048","NA","NA","NA","152763","604","2","legacy","1024","2","48000","-16","AB_m21","168","even","FILL_NW","VUNKS","2032","491827","490119","487152","154807","429688","NA","NA","NA","491822","490616","NA","489619","NA","489609","491822","2044","492027","NA","NA","490827","2032","2032","491227","489609","2032","490827","492027","morph21_Oliver/Morris","70","55983","88","yes","1280","49"
"250","78.6516853933","78.6516853933","640.179775281","640.179775281","black","no","xpyriment","legacy","legacy","0","203","NA","uniform","54149","1000","0.0184675617278","0","undefined","0","0","88","88","88","0","88","88","88","NA","88","88","0","88","NA","88","88","0","88","NA","88","NA","88","0","0","88","88","0","88","88","89","z","03/25/19 15:35:59","The main experiment item","yes","FIN__AB__M21__7%3A10%3A17.osexp","C:\Users\ERP Testing Room\Desktop\Joanna\morph21","no","mono","no","18","no","white","no","yes","1080","legacy","88","88","C:/Users/ERP Testing Room/Desktop/Joanna/morph21/subject-168.csv","xpyriment","Kafkaesque Koffka","3.2.5","0","None","space","NA","NA","NA","space","None","993","15048","NA","NA","NA","152763","993","2","legacy","1024","2","48000","-16","AB_m21","168","even","NW_S_COMP","TREASONIZE","2032","494836","493186","487152","154807","429688","NA","NA","NA","491822","493683","NA","492686","NA","492676","494829","2044","495086","NA","NA","493836","2032","2032","494227","492676","2032","493836","495086","morph21_Oliver/Morris","70","56976","89","yes","1280","14"
"350","78.8888888889","78.8888888889","642.422222222","642.422222222","black","no","xpyriment","legacy","legacy","0","203","NA","uniform","54205","1000","0.0184484826123","1","undefined","1","0","89","89","89","0","89","89","89","NA","89","89","0","89","NA","89","89","0","89","NA","89","NA","89","0","0","89","89","0","89","89","90","z","03/25/19 15:35:59","The main experiment item","yes","FIN__AB__M21__7%3A10%3A17.osexp","C:\Users\ERP Testing Room\Desktop\Joanna\morph21","no","mono","no","18","no","white","no","yes","1080","legacy","89","89","C:/Users/ERP Testing Room/Desktop/Joanna/morph21/subject-168.csv","xpyriment","Kafkaesque Koffka","3.2.5","0","z","space","NA","NA","NA","space","z","842","15048","NA","NA","NA","152763","842","2","legacy","1024","2","48000","-16","AB_m21","168","even","NW_S_COMP","DEBTISH","2032","499362","496194","497854","154807","429688","NA","NA","NA","497850","496691","NA","495694","NA","495688","497850","2044","499712","NA","NA","496854","2032","2032","497254","495688","2032","496854","499712","morph21_Oliver/Morris","71","57818","90","yes","1280","22"
