"ITI","acc","accuracy","average_response_time","avg_rt","background","bidi","canvas_backend","clock_backend","color_backend","compensation","cond_trig","condtrigtime","coordinates","coroutines_cycles","coroutines_duration","coroutines_mean_cycle_duration","correct","correct_instructions_1","correct_new_keyboard_response_1","count_AB_m21","count_ITI","count_blank_screen","count_blink_screen","count_block1","count_break1","count_break2","count_break3_1","count_canvas","count_correct_trigger","count_def_chain","count_end_screen","count_fixation_1","count_getting_started","count_inc_counter","count_incorrect_trigger","count_instructions_1","count_logger","count_logscript","count_new_coroutines","count_new_inline_script","count_new_keyboard_response_1","count_reset_counter_prep","count_reset_counter_run","count_responsescreen","count_sequence","count_start_trigger","count_target_present","count_word_trigger","counter","cresp","datetime","description","disable_garbage_collection","experiment_file","experiment_path","font_bold","font_family","font_italic","font_size","font_underline","foreground","form_clicks","fullscreen","height","keyboard_backend","live_row","live_row_block1","logfile","mouse_backend","opensesame_codename","opensesame_version","repeat_cycle","response","response_break1","response_break2","response_break3_1","response_end_screen","response_instructions_1","response_new_keyboard_response_1","response_time","response_time_break1","response_time_break2","response_time_break3_1","response_time_end_screen","response_time_instructions_1","response_time_new_keyboard_response_1","round_decimals","sampler_backend","sound_buf_size","sound_channels","sound_freq","sound_sample_size","start","subject_nr","subject_parity","targ_type","target","time_AB_m21","time_ITI","time_blank_screen","time_blink_screen","time_block1","time_break1","time_break2","time_break3_1","time_canvas","time_correct_trigger","time_def_chain","time_end_screen","time_fixation_1","time_getting_started","time_inc_counter","time_incorrect_trigger","time_instructions_1","time_logger","time_logscript","time_new_inline_script","time_new_keyboard_response_1","time_reset_counter_prep","time_reset_counter_run","time_responsescreen","time_sequence","time_start_trigger","time_target_present","time_word_trigger","title","total_correct","total_response_time","total_responses","uniform_coordinates","width","word_trig"
"300","0","0","990","990","black","no","xpyriment","legacy","legacy","0","206","NA","uniform","51683","1000","0.0193487220169","0","undefined","0","0","0","0","0","0","0","0","0","NA","0","0","0","0","NA","0","0","0","0","NA","0","NA","0","0","0","0","0","0","0","0","1","z","10/29/17 13:42:43","The main experiment item","yes","FIN__AB__M21__7%3A10%3A17.osexp","C:\Users\ERP Testing Room\Desktop\Joanna\morph21","no","mono","no","18","no","white","no","yes","1080","legacy","0","0","C:/Users/ERP Testing Room/Desktop/Joanna/morph21/subject-112.csv","xpyriment","Jazzy James","3.1.4","0","None","NA","NA","NA","NA","space","None","990","NA","NA","NA","NA","230808","990","2","legacy","1024","2","48000","-16","AB_m21","112","even","NW_L_SIMP","BEGENGE","1344","235084","233467","NA","232162","NA","NA","NA","NA","NA","233964","NA","232962","NA","232886","235074","1353","235384","NA","NA","234084","1344","1344","234475","232886","1344","234084","235384","morph21_Oliver/Morris","0","990","1","yes","1280","4"
"250","0","0","940","940","black","no","xpyriment","legacy","legacy","0","207","NA","uniform","53185","1000","0.0188022938799","0","undefined","0","0","1","1","1","0","1","1","1","NA","1","1","0","1","NA","1","1","0","1","NA","1","NA","1","0","0","1","1","0","1","1","2","/","10/29/17 13:42:43","The main experiment item","yes","FIN__AB__M21__7%3A10%3A17.osexp","C:\Users\ERP Testing Room\Desktop\Joanna\morph21","no","mono","no","18","no","white","no","yes","1080","legacy","1","1","C:/Users/ERP Testing Room/Desktop/Joanna/morph21/subject-112.csv","xpyriment","Jazzy James","3.1.4","0","z","NA","NA","NA","NA","space","z","890","NA","NA","NA","NA","230808","890","2","legacy","1024","2","48000","-16","AB_m21","112","even","FILL_W","SPLICE","1344","238367","236784","NA","232162","NA","NA","NA","NA","NA","237281","NA","236284","NA","236274","238359","1353","238617","NA","NA","237367","1344","1344","237759","236274","1344","237367","238617","morph21_Oliver/Morris","0","1880","2","yes","1280","22"
"250","33.3333333333","33.3333333333","782","782","black","no","xpyriment","legacy","legacy","0","207","NA","uniform","74683","1000","0.0133899280961","1","undefined","1","0","2","2","2","0","2","2","2","NA","2","2","0","2","NA","2","2","0","2","NA","2","NA","2","0","0","2","2","0","2","2","3","/","10/29/17 13:42:43","The main experiment item","yes","FIN__AB__M21__7%3A10%3A17.osexp","C:\Users\ERP Testing Room\Desktop\Joanna\morph21","no","mono","no","18","no","white","no","yes","1080","legacy","2","2","C:/Users/ERP Testing Room/Desktop/Joanna/morph21/subject-112.csv","xpyriment","Jazzy James","3.1.4","0","/","NA","NA","NA","NA","space","/","466","NA","NA","NA","NA","230808","466","2","legacy","1024","2","48000","-16","AB_m21","112","even","FILL_W","FIERCE","1344","243067","239942","241559","232162","NA","NA","NA","NA","241549","240439","NA","239442","NA","239438","241549","1353","243318","NA","NA","240559","1344","1344","240951","239438","1344","240559","243318","morph21_Oliver/Morris","1","2346","3","yes","1280","24"
"350","50","50","696","696","black","no","xpyriment","legacy","legacy","0","207","NA","uniform","79980","1000","0.0125031257814","1","undefined","1","0","3","3","3","0","3","3","3","NA","3","3","0","3","NA","3","3","0","3","NA","3","NA","3","0","0","3","3","0","3","3","4","/","10/29/17 13:42:43","The main experiment item","yes","FIN__AB__M21__7%3A10%3A17.osexp","C:\Users\ERP Testing Room\Desktop\Joanna\morph21","no","mono","no","18","no","white","no","yes","1080","legacy","3","3","C:/Users/ERP Testing Room/Desktop/Joanna/morph21/subject-112.csv","xpyriment","Jazzy James","3.1.4","0","/","NA","NA","NA","NA","space","/","438","NA","NA","NA","NA","230808","438","2","legacy","1024","2","48000","-16","AB_m21","112","even","FILL_W","FOLLOW","1344","246226","244617","241559","232162","NA","NA","NA","NA","246217","245115","NA","244117","NA","244108","246217","1353","246576","NA","NA","245226","1344","1344","245617","244108","1344","245226","246576","morph21_Oliver/Morris","2","2784","4","yes","1280","17"
"350","60","60","663.4","663.4","black","no","xpyriment","legacy","legacy","0","201","NA","uniform","71409","1000","0.0140038370514","1","undefined","1","0","4","4","4","0","4","4","4","NA","4","4","0","4","NA","4","4","0","4","NA","4","NA","4","0","0","4","4","0","4","4","5","/","10/29/17 13:42:43","The main experiment item","yes","FIN__AB__M21__7%3A10%3A17.osexp","C:\Users\ERP Testing Room\Desktop\Joanna\morph21","no","mono","no","18","no","white","no","yes","1080","legacy","4","4","C:/Users/ERP Testing Room/Desktop/Joanna/morph21/subject-112.csv","xpyriment","Jazzy James","3.1.4","0","/","NA","NA","NA","NA","space","/","533","NA","NA","NA","NA","230808","533","2","legacy","1024","2","48000","-16","AB_m21","112","even","CW_S","TOASTER","1344","249444","247843","241559","232162","NA","NA","NA","NA","249441","248340","NA","247343","NA","247333","249441","1353","249794","NA","NA","248452","1344","1344","248844","247333","1344","248452","249794","morph21_Oliver/Morris","3","3317","5","yes","1280","10"
"350","66.6666666667","66.6666666667","638.333333333","638.333333333","black","no","xpyriment","legacy","legacy","0","202","NA","uniform","74826","1000","0.0133643385989","1","undefined","1","0","5","5","5","0","5","5","5","NA","5","5","0","5","NA","5","5","0","5","NA","5","NA","5","0","0","5","5","0","5","5","6","/","10/29/17 13:42:43","The main experiment item","yes","FIN__AB__M21__7%3A10%3A17.osexp","C:\Users\ERP Testing Room\Desktop\Joanna\morph21","no","mono","no","18","no","white","no","yes","1080","legacy","5","5","C:/Users/ERP Testing Room/Desktop/Joanna/morph21/subject-112.csv","xpyriment","Jazzy James","3.1.4","0","/","NA","NA","NA","NA","space","/","513","NA","NA","NA","NA","230808","513","2","legacy","1024","2","48000","-16","AB_m21","112","even","CW_L","KICKING","1344","254261","251152","252752","232162","NA","NA","NA","NA","252749","251649","NA","250652","NA","250644","252749","1353","254611","NA","NA","251752","1344","1344","252152","250644","1344","251752","254611","morph21_Oliver/Morris","4","3830","6","yes","1280","23"
"400","71.4285714286","71.4285714286","604.285714286","604.285714286","black","no","xpyriment","legacy","legacy","0","207","NA","uniform","76919","1000","0.0130006890365","1","undefined","1","0","6","6","6","0","6","6","6","NA","6","6","0","6","NA","6","6","0","6","NA","6","NA","6","0","0","6","6","0","6","6","7","/","10/29/17 13:42:43","The main experiment item","yes","FIN__AB__M21__7%3A10%3A17.osexp","C:\Users\ERP Testing Room\Desktop\Joanna\morph21","no","mono","no","18","no","white","no","yes","1080","legacy","6","6","C:/Users/ERP Testing Room/Desktop/Joanna/morph21/subject-112.csv","xpyriment","Jazzy James","3.1.4","0","/","NA","NA","NA","NA","space","/","400","NA","NA","NA","NA","230808","400","2","legacy","1024","2","48000","-16","AB_m21","112","even","FILL_W","EAT","1344","257452","255869","252752","232162","NA","NA","NA","NA","257448","256366","NA","255369","NA","255362","257448","1353","257852","NA","NA","256452","1344","1344","256852","255362","1344","256452","257852","morph21_Oliver/Morris","5","4230","7","yes","1280","25"
"350","75","75","607.625","607.625","black","no","xpyriment","legacy","legacy","0","208","NA","uniform","71165","1000","0.0140518513314","1","undefined","1","0","7","7","7","0","7","7","7","NA","7","7","0","7","NA","7","7","0","7","NA","7","NA","7","0","0","7","7","0","7","7","8","z","10/29/17 13:42:43","The main experiment item","yes","FIN__AB__M21__7%3A10%3A17.osexp","C:\Users\ERP Testing Room\Desktop\Joanna\morph21","no","mono","no","18","no","white","no","yes","1080","legacy","7","7","C:/Users/ERP Testing Room/Desktop/Joanna/morph21/subject-112.csv","xpyriment","Jazzy James","3.1.4","0","z","NA","NA","NA","NA","space","z","631","NA","NA","NA","NA","230808","631","2","legacy","1024","2","48000","-16","AB_m21","112","even","FILL_NW","BLANTH","1344","260794","259169","252752","232162","NA","NA","NA","NA","260785","259666","NA","258669","NA","258664","260785","1353","261144","NA","NA","259794","1344","1344","260186","258664","1344","259794","261144","morph21_Oliver/Morris","6","4861","8","yes","1280","3"
"350","77.7777777778","77.7777777778","603.777777778","603.777777778","black","no","xpyriment","legacy","legacy","0","201","NA","uniform","68548","1000","0.0145883176752","1","undefined","1","0","8","8","8","0","8","8","8","NA","8","8","0","8","NA","8","8","0","8","NA","8","NA","8","0","0","8","8","0","8","8","9","/","10/29/17 13:42:43","The main experiment item","yes","FIN__AB__M21__7%3A10%3A17.osexp","C:\Users\ERP Testing Room\Desktop\Joanna\morph21","no","mono","no","18","no","white","no","yes","1080","legacy","8","8","C:/Users/ERP Testing Room/Desktop/Joanna/morph21/subject-112.csv","xpyriment","Jazzy James","3.1.4","0","/","NA","NA","NA","NA","space","/","573","NA","NA","NA","NA","230808","573","2","legacy","1024","2","48000","-16","AB_m21","112","even","CW_S","BOSSY","1344","265528","262436","264019","232162","NA","NA","NA","NA","264015","262933","NA","261936","NA","261924","264015","1353","265878","NA","NA","263019","1344","1344","263419","261924","1344","263019","265878","morph21_Oliver/Morris","7","5434","9","yes","1280","49"
"300","80","80","595.1","595.1","black","no","xpyriment","legacy","legacy","0","202","NA","uniform","77107","1000","0.0129689911422","1","undefined","1","0","9","9","9","0","9","9","9","NA","9","9","0","9","NA","9","9","0","9","NA","9","NA","9","0","0","9","9","0","9","9","10","/","10/29/17 13:42:43","The main experiment item","yes","FIN__AB__M21__7%3A10%3A17.osexp","C:\Users\ERP Testing Room\Desktop\Joanna\morph21","no","mono","no","18","no","white","no","yes","1080","legacy","9","9","C:/Users/ERP Testing Room/Desktop/Joanna/morph21/subject-112.csv","xpyriment","Jazzy James","3.1.4","0","/","NA","NA","NA","NA","space","/","517","NA","NA","NA","NA","230808","517","2","legacy","1024","2","48000","-16","AB_m21","112","even","CW_L","COMPOSER","1344","268804","267212","264019","232162","NA","NA","NA","NA","268801","267709","NA","266712","NA","266707","268801","1353","269104","NA","NA","267812","1344","1344","268204","266707","1344","267812","269104","morph21_Oliver/Morris","8","5951","10","yes","1280","6"
"200","81.8181818182","81.8181818182","606","606","black","no","xpyriment","legacy","legacy","0","204","NA","uniform","68457","1000","0.0146077099493","1","undefined","1","0","10","10","10","0","10","10","10","NA","10","10","0","10","NA","10","10","0","10","NA","10","NA","10","0","0","10","10","0","10","10","11","z","10/29/17 13:42:43","The main experiment item","yes","FIN__AB__M21__7%3A10%3A17.osexp","C:\Users\ERP Testing Room\Desktop\Joanna\morph21","no","mono","no","18","no","white","no","yes","1080","legacy","10","10","C:/Users/ERP Testing Room/Desktop/Joanna/morph21/subject-112.csv","xpyriment","Jazzy James","3.1.4","0","z","NA","NA","NA","NA","space","z","715","NA","NA","NA","NA","230808","715","2","legacy","1024","2","48000","-16","AB_m21","112","even","NW_L_COMP","GASFUL","1344","272046","270446","264019","232162","NA","NA","NA","NA","272039","270943","NA","269946","NA","269935","272039","1353","272246","NA","NA","271046","1344","1344","271437","269935","1344","271046","272246","morph21_Oliver/Morris","9","6666","11","yes","1280","6"
"250","83.3333333333","83.3333333333","621.166666667","621.166666667","black","no","xpyriment","legacy","legacy","0","203","NA","uniform","69026","1000","0.0144872946426","1","undefined","1","0","11","11","11","0","11","11","11","NA","11","11","0","11","NA","11","11","0","11","NA","11","NA","11","0","0","11","11","0","11","11","12","z","10/29/17 13:42:43","The main experiment item","yes","FIN__AB__M21__7%3A10%3A17.osexp","C:\Users\ERP Testing Room\Desktop\Joanna\morph21","no","mono","no","18","no","white","no","yes","1080","legacy","11","11","C:/Users/ERP Testing Room/Desktop/Joanna/morph21/subject-112.csv","xpyriment","Jazzy James","3.1.4","0","z","NA","NA","NA","NA","space","z","788","NA","NA","NA","NA","230808","788","2","legacy","1024","2","48000","-16","AB_m21","112","even","NW_S_COMP","LIDARY","1344","276538","273446","275029","232162","NA","NA","NA","NA","275026","273943","NA","272946","NA","272941","275026","1353","276788","NA","NA","274029","1344","1344","274429","272941","1344","274029","276788","morph21_Oliver/Morris","10","7454","12","yes","1280","3"
"200","84.6153846154","84.6153846154","620.769230769","620.769230769","black","no","xpyriment","legacy","legacy","0","203","NA","uniform","74403","1000","0.0134403182667","1","undefined","1","0","12","12","12","0","12","12","12","NA","12","12","0","12","NA","12","12","0","12","NA","12","NA","12","0","0","12","12","0","12","12","13","z","10/29/17 13:42:43","The main experiment item","yes","FIN__AB__M21__7%3A10%3A17.osexp","C:\Users\ERP Testing Room\Desktop\Joanna\morph21","no","mono","no","18","no","white","no","yes","1080","legacy","12","12","C:/Users/ERP Testing Room/Desktop/Joanna/morph21/subject-112.csv","xpyriment","Jazzy James","3.1.4","0","z","NA","NA","NA","NA","space","z","616","NA","NA","NA","NA","230808","616","2","legacy","1024","2","48000","-16","AB_m21","112","even","NW_S_COMP","ELMIST","1344","279721","278121","275029","232162","NA","NA","NA","NA","279714","278618","NA","277621","NA","277612","279714","1353","279921","NA","NA","278721","1344","1344","279113","277612","1344","278721","279921","morph21_Oliver/Morris","11","8070","13","yes","1280","10"
"300","85.7142857143","85.7142857143","612.928571429","612.928571429","black","no","xpyriment","legacy","legacy","0","201","NA","uniform","67574","1000","0.0147985911741","1","undefined","1","0","13","13","13","0","13","13","13","NA","13","13","0","13","NA","13","13","0","13","NA","13","NA","13","0","0","13","13","0","13","13","14","/","10/29/17 13:42:43","The main experiment item","yes","FIN__AB__M21__7%3A10%3A17.osexp","C:\Users\ERP Testing Room\Desktop\Joanna\morph21","no","mono","no","18","no","white","no","yes","1080","legacy","13","13","C:/Users/ERP Testing Room/Desktop/Joanna/morph21/subject-112.csv","xpyriment","Jazzy James","3.1.4","0","/","NA","NA","NA","NA","space","/","511","NA","NA","NA","NA","230808","511","2","legacy","1024","2","48000","-16","AB_m21","112","even","CW_S","DESTROYER","1344","282721","281121","275029","232162","NA","NA","NA","NA","282716","281618","NA","280621","NA","280610","282716","1353","283021","NA","NA","281721","1344","1344","282121","280610","1344","281721","283021","morph21_Oliver/Morris","12","8581","14","yes","1280","14"
"350","86.6666666667","86.6666666667","625.4","625.4","black","no","xpyriment","legacy","legacy","0","207","NA","uniform","55612","1000","0.0179817305617","1","undefined","1","0","14","14","14","0","14","14","14","NA","14","14","0","14","NA","14","14","0","14","NA","14","NA","14","0","0","14","14","0","14","14","15","/","10/29/17 13:42:43","The main experiment item","yes","FIN__AB__M21__7%3A10%3A17.osexp","C:\Users\ERP Testing Room\Desktop\Joanna\morph21","no","mono","no","18","no","white","no","yes","1080","legacy","14","14","C:/Users/ERP Testing Room/Desktop/Joanna/morph21/subject-112.csv","xpyriment","Jazzy James","3.1.4","0","/","NA","NA","NA","NA","space","/","800","NA","NA","NA","NA","230808","800","2","legacy","1024","2","48000","-16","AB_m21","112","even","FILL_W","BRISK","1344","287406","284314","285897","232162","NA","NA","NA","NA","285888","284811","NA","283814","NA","283808","285888","1353","287756","NA","NA","284897","1344","1344","285289","283807","1344","284897","287756","morph21_Oliver/Morris","13","9381","15","yes","1280","8"
"200","87.5","87.5","628.375","628.375","black","no","xpyriment","legacy","legacy","0","208","NA","uniform","66982","1000","0.0149293840136","1","undefined","1","0","15","15","15","0","15","15","15","NA","15","15","0","15","NA","15","15","0","15","NA","15","NA","15","0","0","15","15","0","15","15","16","z","10/29/17 13:42:43","The main experiment item","yes","FIN__AB__M21__7%3A10%3A17.osexp","C:\Users\ERP Testing Room\Desktop\Joanna\morph21","no","mono","no","18","no","white","no","yes","1080","legacy","15","15","C:/Users/ERP Testing Room/Desktop/Joanna/morph21/subject-112.csv","xpyriment","Jazzy James","3.1.4","0","z","NA","NA","NA","NA","space","z","673","NA","NA","NA","NA","230808","673","2","legacy","1024","2","48000","-16","AB_m21","112","even","FILL_NW","DARM","1344","290648","289047","285897","232162","NA","NA","NA","NA","290641","289545","NA","288547","NA","288542","290641","1353","290848","NA","NA","289648","1344","1344","290039","288542","1344","289647","290848","morph21_Oliver/Morris","14","10054","16","yes","1280","11"
"250","88.2352941176","88.2352941176","616.117647059","616.117647059","black","no","xpyriment","legacy","legacy","0","207","NA","uniform","74227","1000","0.0134721866706","1","undefined","1","0","16","16","16","0","16","16","16","NA","16","16","0","16","NA","16","16","0","16","NA","16","NA","16","0","0","16","16","0","16","16","17","/","10/29/17 13:42:43","The main experiment item","yes","FIN__AB__M21__7%3A10%3A17.osexp","C:\Users\ERP Testing Room\Desktop\Joanna\morph21","no","mono","no","18","no","white","no","yes","1080","legacy","16","16","C:/Users/ERP Testing Room/Desktop/Joanna/morph21/subject-112.csv","xpyriment","Jazzy James","3.1.4","0","/","NA","NA","NA","NA","space","/","420","NA","NA","NA","NA","230808","420","2","legacy","1024","2","48000","-16","AB_m21","112","even","FILL_W","SMOKE","1344","293789","292156","285897","232162","NA","NA","NA","NA","293781","292653","NA","291656","NA","291650","293781","1353","294040","NA","NA","292789","1344","1344","293181","291650","1344","292789","294040","morph21_Oliver/Morris","15","10474","17","yes","1280","50"
"350","88.8888888889","88.8888888889","605.444444444","605.444444444","black","no","xpyriment","legacy","legacy","0","202","NA","uniform","80212","1000","0.0124669625492","1","undefined","1","0","17","17","17","0","17","17","17","NA","17","17","0","17","NA","17","17","0","17","NA","17","NA","17","0","0","17","17","0","17","17","18","/","10/29/17 13:42:43","The main experiment item","yes","FIN__AB__M21__7%3A10%3A17.osexp","C:\Users\ERP Testing Room\Desktop\Joanna\morph21","no","mono","no","18","no","white","no","yes","1080","legacy","17","17","C:/Users/ERP Testing Room/Desktop/Joanna/morph21/subject-112.csv","xpyriment","Jazzy James","3.1.4","0","/","NA","NA","NA","NA","space","/","424","NA","NA","NA","NA","230808","424","2","legacy","1024","2","48000","-16","AB_m21","112","even","CW_L","HUNTER","1344","298390","295289","296881","232162","NA","NA","NA","NA","296878","295786","NA","294789","NA","294786","296878","1353","298740","NA","NA","295889","1344","1344","296281","294786","1344","295889","298740","morph21_Oliver/Morris","16","10898","18","yes","1280","10"
"300","89.4736842105","89.4736842105","597.263157895","597.263157895","black","no","xpyriment","legacy","legacy","0","207","NA","uniform","77167","1000","0.0129589073049","1","undefined","1","0","18","18","18","0","18","18","18","NA","18","18","0","18","NA","18","18","0","18","NA","18","NA","18","0","0","18","18","0","18","18","19","/","10/29/17 13:42:43","The main experiment item","yes","FIN__AB__M21__7%3A10%3A17.osexp","C:\Users\ERP Testing Room\Desktop\Joanna\morph21","no","mono","no","18","no","white","no","yes","1080","legacy","18","18","C:/Users/ERP Testing Room/Desktop/Joanna/morph21/subject-112.csv","xpyriment","Jazzy James","3.1.4","0","/","NA","NA","NA","NA","space","/","450","NA","NA","NA","NA","230808","450","2","legacy","1024","2","48000","-16","AB_m21","112","even","FILL_W","BAKE","1344","301616","300015","296881","232162","NA","NA","NA","NA","301608","300512","NA","299515","NA","299511","301608","1353","301916","NA","NA","300615","1344","1344","301007","299511","1344","300615","301916","morph21_Oliver/Morris","17","11348","19","yes","1280","29"
"250","90","90","595.5","595.5","black","no","xpyriment","legacy","legacy","0","204","NA","uniform","72477","1000","0.01379748058","1","undefined","1","0","19","19","19","0","19","19","19","NA","19","19","0","19","NA","19","19","0","19","NA","19","NA","19","0","0","19","19","0","19","19","20","z","10/29/17 13:42:43","The main experiment item","yes","FIN__AB__M21__7%3A10%3A17.osexp","C:\Users\ERP Testing Room\Desktop\Joanna\morph21","no","mono","no","18","no","white","no","yes","1080","legacy","19","19","C:/Users/ERP Testing Room/Desktop/Joanna/morph21/subject-112.csv","xpyriment","Jazzy James","3.1.4","0","z","NA","NA","NA","NA","space","z","562","NA","NA","NA","NA","230808","562","2","legacy","1024","2","48000","-16","AB_m21","112","even","NW_L_COMP","STIRANCE","1344","304791","303157","296881","232162","NA","NA","NA","NA","304783","303655","NA","302657","NA","302653","304783","1353","305041","NA","NA","303791","1344","1344","304182","302653","1344","303791","305041","morph21_Oliver/Morris","18","11910","20","yes","1280","1"
"200","90.4761904762","90.4761904762","594.80952381","594.80952381","black","no","xpyriment","legacy","legacy","0","206","NA","uniform","73819","1000","0.013546647882","1","undefined","1","0","20","20","20","0","20","20","20","NA","20","20","0","20","NA","20","20","0","20","NA","20","NA","20","0","0","20","20","0","20","20","21","z","10/29/17 13:42:43","The main experiment item","yes","FIN__AB__M21__7%3A10%3A17.osexp","C:\Users\ERP Testing Room\Desktop\Joanna\morph21","no","mono","no","18","no","white","no","yes","1080","legacy","20","20","C:/Users/ERP Testing Room/Desktop/Joanna/morph21/subject-112.csv","xpyriment","Jazzy James","3.1.4","0","z","NA","NA","NA","NA","space","z","581","NA","NA","NA","NA","230808","581","2","legacy","1024","2","48000","-16","AB_m21","112","even","NW_L_SIMP","GROWILT","1344","309408","306299","307899","232162","NA","NA","NA","NA","307896","306796","NA","305799","NA","305792","307896","1353","309608","NA","NA","306908","1344","1344","307299","305792","1344","306908","309608","morph21_Oliver/Morris","19","12491","21","yes","1280","20"
"200","90.9090909091","90.9090909091","595.681818182","595.681818182","black","no","xpyriment","legacy","legacy","0","201","NA","uniform","58542","1000","0.0170817532712","1","undefined","1","0","21","21","21","0","21","21","21","NA","21","21","0","21","NA","21","21","0","21","NA","21","NA","21","0","0","21","21","0","21","21","22","/","10/29/17 13:42:43","The main experiment item","yes","FIN__AB__M21__7%3A10%3A17.osexp","C:\Users\ERP Testing Room\Desktop\Joanna\morph21","no","mono","no","18","no","white","no","yes","1080","legacy","21","21","C:/Users/ERP Testing Room/Desktop/Joanna/morph21/subject-112.csv","xpyriment","Jazzy James","3.1.4","0","/","NA","NA","NA","NA","space","/","614","NA","NA","NA","NA","230808","614","2","legacy","1024","2","48000","-16","AB_m21","112","even","CW_S","LISTENER","1344","312491","310883","307899","232162","NA","NA","NA","NA","312483","311380","NA","310383","NA","310377","312483","1353","312691","NA","NA","311491","1344","1344","311883","310377","1344","311491","312691","morph21_Oliver/Morris","20","13105","22","yes","1280","18"
"200","91.3043478261","91.3043478261","599.565217391","599.565217391","black","no","xpyriment","legacy","legacy","0","208","NA","uniform","70673","1000","0.014149675265","1","undefined","1","0","22","22","22","0","22","22","22","NA","22","22","0","22","NA","22","22","0","22","NA","22","NA","22","0","0","22","22","0","22","22","23","z","10/29/17 13:42:43","The main experiment item","yes","FIN__AB__M21__7%3A10%3A17.osexp","C:\Users\ERP Testing Room\Desktop\Joanna\morph21","no","mono","no","18","no","white","no","yes","1080","legacy","22","22","C:/Users/ERP Testing Room/Desktop/Joanna/morph21/subject-112.csv","xpyriment","Jazzy James","3.1.4","0","z","NA","NA","NA","NA","space","z","685","NA","NA","NA","NA","230808","685","2","legacy","1024","2","48000","-16","AB_m21","112","even","FILL_NW","SMADE","1344","315516","313933","307899","232162","NA","NA","NA","NA","315510","314430","NA","313433","NA","313428","315510","1353","315716","NA","NA","314516","1344","1344","314908","313428","1344","314516","315716","morph21_Oliver/Morris","21","13790","23","yes","1280","42"
"350","91.6666666667","91.6666666667","597","597","black","no","xpyriment","legacy","legacy","0","202","NA","uniform","76848","1000","0.0130127003956","1","undefined","1","0","23","23","23","0","23","23","23","NA","23","23","0","23","NA","23","23","0","23","NA","23","NA","23","0","0","23","23","0","23","23","24","/","10/29/17 13:42:43","The main experiment item","yes","FIN__AB__M21__7%3A10%3A17.osexp","C:\Users\ERP Testing Room\Desktop\Joanna\morph21","no","mono","no","18","no","white","no","yes","1080","legacy","23","23","C:/Users/ERP Testing Room/Desktop/Joanna/morph21/subject-112.csv","xpyriment","Jazzy James","3.1.4","0","/","NA","NA","NA","NA","space","/","538","NA","NA","NA","NA","230808","538","2","legacy","1024","2","48000","-16","AB_m21","112","even","CW_L","BOMBER","1344","320068","316941","318559","232162","NA","NA","NA","NA","318551","317439","NA","316441","NA","316432","318551","1353","320418","NA","NA","317558","1344","1344","317950","316432","1344","317558","320418","morph21_Oliver/Morris","22","14328","24","yes","1280","7"
"350","92","92","597.04","597.04","black","no","xpyriment","legacy","legacy","0","201","NA","uniform","68821","1000","0.0145304485549","1","undefined","1","0","24","24","24","0","24","24","24","NA","24","24","0","24","NA","24","24","0","24","NA","24","NA","24","0","0","24","24","0","24","24","25","/","10/29/17 13:42:43","The main experiment item","yes","FIN__AB__M21__7%3A10%3A17.osexp","C:\Users\ERP Testing Room\Desktop\Joanna\morph21","no","mono","no","18","no","white","no","yes","1080","legacy","24","24","C:/Users/ERP Testing Room/Desktop/Joanna/morph21/subject-112.csv","xpyriment","Jazzy James","3.1.4","0","/","NA","NA","NA","NA","space","/","598","NA","NA","NA","NA","230808","598","2","legacy","1024","2","48000","-16","AB_m21","112","even","CW_S","STRANGENESS","1344","323234","321643","318559","232162","NA","NA","NA","NA","323231","322140","NA","321143","NA","321133","323231","1353","323584","NA","NA","322243","1344","1344","322634","321133","1344","322243","323584","morph21_Oliver/Morris","23","14926","25","yes","1280","46"
"350","88.4615384615","88.4615384615","608.807692308","608.807692308","black","no","xpyriment","legacy","legacy","0","201","NA","uniform","56870","1000","0.0175839634254","0","undefined","0","0","25","25","25","0","25","25","25","NA","25","25","0","25","NA","25","25","0","25","NA","25","NA","25","0","0","25","25","0","25","25","26","/","10/29/17 13:42:43","The main experiment item","yes","FIN__AB__M21__7%3A10%3A17.osexp","C:\Users\ERP Testing Room\Desktop\Joanna\morph21","no","mono","no","18","no","white","no","yes","1080","legacy","25","25","C:/Users/ERP Testing Room/Desktop/Joanna/morph21/subject-112.csv","xpyriment","Jazzy James","3.1.4","0","z","NA","NA","NA","NA","space","z","903","NA","NA","NA","NA","230808","903","2","legacy","1024","2","48000","-16","AB_m21","112","even","CW_S","DENSELY","1344","326618","325009","318559","232162","NA","NA","NA","NA","323231","325507","NA","324509","NA","324505","326608","1353","326968","NA","NA","325618","1344","1344","326009","324505","1344","325618","326968","morph21_Oliver/Morris","23","15829","26","yes","1280","32"
"300","88.8888888889","88.8888888889","608.703703704","608.703703704","black","no","xpyriment","legacy","legacy","0","204","NA","uniform","70310","1000","0.0142227279192","1","undefined","1","0","26","26","26","0","26","26","26","NA","26","26","0","26","NA","26","26","0","26","NA","26","NA","26","0","0","26","26","0","26","26","27","z","10/29/17 13:42:43","The main experiment item","yes","FIN__AB__M21__7%3A10%3A17.osexp","C:\Users\ERP Testing Room\Desktop\Joanna\morph21","no","mono","no","18","no","white","no","yes","1080","legacy","26","26","C:/Users/ERP Testing Room/Desktop/Joanna/morph21/subject-112.csv","xpyriment","Jazzy James","3.1.4","0","z","NA","NA","NA","NA","space","z","606","NA","NA","NA","NA","230808","606","2","legacy","1024","2","48000","-16","AB_m21","112","even","NW_L_COMP","BINDIC","1344","331343","328243","329835","232162","NA","NA","NA","NA","329831","328740","NA","327743","NA","327738","329831","1353","331643","NA","NA","328835","1344","1344","329235","327738","1344","328835","331643","morph21_Oliver/Morris","24","16435","27","yes","1280","22"
"250","89.2857142857","89.2857142857","605.678571429","605.678571429","black","no","xpyriment","legacy","legacy","0","202","NA","uniform","77142","1000","0.0129631069975","1","undefined","1","0","27","27","27","0","27","27","27","NA","27","27","0","27","NA","27","27","0","27","NA","27","NA","27","0","0","27","27","0","27","27","28","/","10/29/17 13:42:43","The main experiment item","yes","FIN__AB__M21__7%3A10%3A17.osexp","C:\Users\ERP Testing Room\Desktop\Joanna\morph21","no","mono","no","18","no","white","no","yes","1080","legacy","27","27","C:/Users/ERP Testing Room/Desktop/Joanna/morph21/subject-112.csv","xpyriment","Jazzy James","3.1.4","0","/","NA","NA","NA","NA","space","/","524","NA","NA","NA","NA","230808","524","2","legacy","1024","2","48000","-16","AB_m21","112","even","CW_L","EXCITEMENT","1344","334652","333010","329835","232162","NA","NA","NA","NA","334646","333507","NA","332501","NA","332494","334646","1353","334902","NA","NA","333652","1344","1344","334043","332494","1344","333651","334902","morph21_Oliver/Morris","25","16959","28","yes","1280","38"
"350","86.2068965517","86.2068965517","618.965517241","618.965517241","black","no","xpyriment","legacy","legacy","0","202","NA","uniform","57204","1000","0.0174812950143","0","undefined","0","0","28","28","28","0","28","28","28","NA","28","28","0","28","NA","28","28","0","28","NA","28","NA","28","0","0","28","28","0","28","28","29","/","10/29/17 13:42:43","The main experiment item","yes","FIN__AB__M21__7%3A10%3A17.osexp","C:\Users\ERP Testing Room\Desktop\Joanna\morph21","no","mono","no","18","no","white","no","yes","1080","legacy","28","28","C:/Users/ERP Testing Room/Desktop/Joanna/morph21/subject-112.csv","xpyriment","Jazzy James","3.1.4","0","None","NA","NA","NA","NA","space","None","991","NA","NA","NA","NA","230808","991","2","legacy","1024","2","48000","-16","AB_m21","112","even","CW_L","BARKER","1344","337853","336244","329835","232162","NA","NA","NA","NA","334646","336741","NA","335744","NA","335736","337845","1353","338203","NA","NA","336853","1344","1344","337244","335736","1344","336853","338203","morph21_Oliver/Morris","25","17950","29","yes","1280","2"
"350","86.6666666667","86.6666666667","619.3","619.3","black","no","xpyriment","legacy","legacy","0","201","NA","uniform","66808","1000","0.0149682672734","1","undefined","1","0","29","29","29","0","29","29","29","NA","29","29","0","29","NA","29","29","0","29","NA","29","NA","29","0","0","29","29","0","29","29","30","/","10/29/17 13:42:43","The main experiment item","yes","FIN__AB__M21__7%3A10%3A17.osexp","C:\Users\ERP Testing Room\Desktop\Joanna\morph21","no","mono","no","18","no","white","no","yes","1080","legacy","29","29","C:/Users/ERP Testing Room/Desktop/Joanna/morph21/subject-112.csv","xpyriment","Jazzy James","3.1.4","0","/","NA","NA","NA","NA","space","/","629","NA","NA","NA","NA","230808","629","2","legacy","1024","2","48000","-16","AB_m21","112","even","CW_S","NEATLY","1344","342536","339444","341028","232162","NA","NA","NA","NA","341025","339942","NA","338944","NA","338941","341025","1353","342886","NA","NA","340036","1344","1344","340428","338941","1344","340036","342886","morph21_Oliver/Morris","26","18579","30","yes","1280","33"
"400","87.0967741935","87.0967741935","623.580645161","623.580645161","black","no","xpyriment","legacy","legacy","0","208","NA","uniform","61217","1000","0.0163353316889","1","undefined","1","0","30","30","30","0","30","30","30","NA","30","30","0","30","NA","30","30","0","30","NA","30","NA","30","0","0","30","30","0","30","30","31","z","10/29/17 13:42:43","The main experiment item","yes","FIN__AB__M21__7%3A10%3A17.osexp","C:\Users\ERP Testing Room\Desktop\Joanna\morph21","no","mono","no","18","no","white","no","yes","1080","legacy","30","30","C:/Users/ERP Testing Room/Desktop/Joanna/morph21/subject-112.csv","xpyriment","Jazzy James","3.1.4","0","z","NA","NA","NA","NA","space","z","752","NA","NA","NA","NA","230808","752","2","legacy","1024","2","48000","-16","AB_m21","112","even","FILL_NW","VELT","1344","345761","344153","341028","232162","NA","NA","NA","NA","345752","344650","NA","343653","NA","343642","345752","1353","346161","NA","NA","344761","1344","1344","345153","343642","1344","344761","346161","morph21_Oliver/Morris","27","19331","31","yes","1280","46"
"400","87.5","87.5","621.71875","621.71875","black","no","xpyriment","legacy","legacy","0","205","NA","uniform","74462","1000","0.0134296688244","1","undefined","1","0","31","31","31","0","31","31","31","NA","31","31","0","31","NA","31","31","0","31","NA","31","NA","31","0","0","31","31","0","31","31","32","z","10/29/17 13:42:43","The main experiment item","yes","FIN__AB__M21__7%3A10%3A17.osexp","C:\Users\ERP Testing Room\Desktop\Joanna\morph21","no","mono","no","18","no","white","no","yes","1080","legacy","31","31","C:/Users/ERP Testing Room/Desktop/Joanna/morph21/subject-112.csv","xpyriment","Jazzy James","3.1.4","0","z","NA","NA","NA","NA","space","z","564","NA","NA","NA","NA","230808","564","2","legacy","1024","2","48000","-16","AB_m21","112","even","NW_S_SIMP","AIDIG","1344","349045","347453","341028","232162","NA","NA","NA","NA","349038","347950","NA","346953","NA","346943","349038","1353","349445","NA","NA","348045","1344","1344","348436","346943","1344","348045","349445","morph21_Oliver/Morris","28","19895","32","yes","1280","4"
"400","87.8787878788","87.8787878788","625.727272727","625.727272727","black","no","xpyriment","legacy","legacy","0","208","NA","uniform","63255","1000","0.0158090269544","1","undefined","1","0","32","32","32","0","32","32","32","NA","32","32","0","32","NA","32","32","0","32","NA","32","NA","32","0","0","32","32","0","32","32","33","z","10/29/17 13:42:43","The main experiment item","yes","FIN__AB__M21__7%3A10%3A17.osexp","C:\Users\ERP Testing Room\Desktop\Joanna\morph21","no","mono","no","18","no","white","no","yes","1080","legacy","32","32","C:/Users/ERP Testing Room/Desktop/Joanna/morph21/subject-112.csv","xpyriment","Jazzy James","3.1.4","0","z","NA","NA","NA","NA","space","z","754","NA","NA","NA","NA","230808","754","2","legacy","1024","2","48000","-16","AB_m21","112","even","FILL_NW","CORG","1344","353771","350662","352262","232162","NA","NA","NA","NA","352258","351159","NA","350162","NA","350157","352258","1353","354171","NA","NA","351262","1344","1344","351662","350157","1344","351262","354171","morph21_Oliver/Morris","29","20649","33","yes","1280","7"
"200","88.2352941176","88.2352941176","623","623","black","no","xpyriment","legacy","legacy","0","207","NA","uniform","73007","1000","0.0136973166957","1","undefined","1","0","33","33","33","0","33","33","33","NA","33","33","0","33","NA","33","33","0","33","NA","33","NA","33","0","0","33","33","0","33","33","34","/","10/29/17 13:42:43","The main experiment item","yes","FIN__AB__M21__7%3A10%3A17.osexp","C:\Users\ERP Testing Room\Desktop\Joanna\morph21","no","mono","no","18","no","white","no","yes","1080","legacy","33","33","C:/Users/ERP Testing Room/Desktop/Joanna/morph21/subject-112.csv","xpyriment","Jazzy James","3.1.4","0","/","NA","NA","NA","NA","space","/","533","NA","NA","NA","NA","230808","533","2","legacy","1024","2","48000","-16","AB_m21","112","even","FILL_W","SAVE","1344","356996","355413","352262","232162","NA","NA","NA","NA","356987","355910","NA","354913","NA","354904","356987","1353","357196","NA","NA","355996","1344","1344","356388","354904","1344","355996","357196","morph21_Oliver/Morris","30","21182","34","yes","1280","46"
"250","88.5714285714","88.5714285714","620.371428571","620.371428571","black","no","xpyriment","legacy","legacy","0","205","NA","uniform","73468","1000","0.0136113682147","1","undefined","1","0","34","34","34","0","34","34","34","NA","34","34","0","34","NA","34","34","0","34","NA","34","NA","34","0","0","34","34","0","34","34","35","z","10/29/17 13:42:43","The main experiment item","yes","FIN__AB__M21__7%3A10%3A17.osexp","C:\Users\ERP Testing Room\Desktop\Joanna\morph21","no","mono","no","18","no","white","no","yes","1080","legacy","34","34","C:/Users/ERP Testing Room/Desktop/Joanna/morph21/subject-112.csv","xpyriment","Jazzy James","3.1.4","0","z","NA","NA","NA","NA","space","z","531","NA","NA","NA","NA","230808","531","2","legacy","1024","2","48000","-16","AB_m21","112","even","NW_S_SIMP","DIGODY","1344","360030","358446","352262","232162","NA","NA","NA","NA","360021","358943","NA","357946","NA","357943","360021","1353","360280","NA","NA","359030","1344","1344","359421","357943","1344","359030","360280","morph21_Oliver/Morris","31","21713","35","yes","1280","11"
"200","88.8888888889","88.8888888889","621.111111111","621.111111111","black","no","xpyriment","legacy","legacy","0","207","NA","uniform","64569","1000","0.015487308151","1","undefined","1","0","35","35","35","0","35","35","35","NA","35","35","0","35","NA","35","35","0","35","NA","35","NA","35","0","0","35","35","0","35","35","36","/","10/29/17 13:42:43","The main experiment item","yes","FIN__AB__M21__7%3A10%3A17.osexp","C:\Users\ERP Testing Room\Desktop\Joanna\morph21","no","mono","no","18","no","white","no","yes","1080","legacy","35","35","C:/Users/ERP Testing Room/Desktop/Joanna/morph21/subject-112.csv","xpyriment","Jazzy James","3.1.4","0","/","NA","NA","NA","NA","space","/","647","NA","NA","NA","NA","230808","647","2","legacy","1024","2","48000","-16","AB_m21","112","even","FILL_W","FLESH","1344","364638","361513","363130","232162","NA","NA","NA","NA","363120","362010","NA","361013","NA","361005","363120","1353","364838","NA","NA","362130","1344","1344","362522","361005","1344","362130","364838","morph21_Oliver/Morris","32","22360","36","yes","1280","32"
"350","86.4864864865","86.4864864865","620.702702703","620.702702703","black","no","xpyriment","legacy","legacy","0","202","NA","uniform","71669","1000","0.0139530340873","0","undefined","0","0","36","36","36","0","36","36","36","NA","36","36","0","36","NA","36","36","0","36","NA","36","NA","36","0","0","36","36","0","36","36","37","/","10/29/17 13:42:43","The main experiment item","yes","FIN__AB__M21__7%3A10%3A17.osexp","C:\Users\ERP Testing Room\Desktop\Joanna\morph21","no","mono","no","18","no","white","no","yes","1080","legacy","36","36","C:/Users/ERP Testing Room/Desktop/Joanna/morph21/subject-112.csv","xpyriment","Jazzy James","3.1.4","0","z","NA","NA","NA","NA","space","z","606","NA","NA","NA","NA","230808","606","2","legacy","1024","2","48000","-16","AB_m21","112","even","CW_L","GUILELESS","1344","367747","366138","363130","232162","NA","NA","NA","NA","363120","366635","NA","365638","NA","365631","367741","1353","368097","NA","NA","366747","1344","1344","367138","365631","1344","366747","368097","morph21_Oliver/Morris","32","22966","37","yes","1280","31"
"400","84.2105263158","84.2105263158","617.736842105","617.736842105","black","no","xpyriment","legacy","legacy","0","203","NA","uniform","79576","1000","0.0125666029959","0","undefined","0","0","37","37","37","0","37","37","37","NA","37","37","0","37","NA","37","37","0","37","NA","37","NA","37","0","0","37","37","0","37","37","38","z","10/29/17 13:42:43","The main experiment item","yes","FIN__AB__M21__7%3A10%3A17.osexp","C:\Users\ERP Testing Room\Desktop\Joanna\morph21","no","mono","no","18","no","white","no","yes","1080","legacy","37","37","C:/Users/ERP Testing Room/Desktop/Joanna/morph21/subject-112.csv","xpyriment","Jazzy James","3.1.4","0","/","NA","NA","NA","NA","space","/","508","NA","NA","NA","NA","230808","508","2","legacy","1024","2","48000","-16","AB_m21","112","even","NW_S_COMP","TRUENESS","1344","370973","369355","363130","232162","NA","NA","NA","NA","363120","369852","NA","368855","NA","368849","370969","1353","371373","NA","NA","369980","1344","1344","370372","368849","1344","369980","371373","morph21_Oliver/Morris","32","23474","38","yes","1280","15"
"400","84.6153846154","84.6153846154","619.974358974","619.974358974","black","no","xpyriment","legacy","legacy","0","207","NA","uniform","66769","1000","0.0149770102892","1","undefined","1","0","38","38","38","0","38","38","38","NA","38","38","0","38","NA","38","38","0","38","NA","38","NA","38","0","0","38","38","0","38","38","39","/","10/29/17 13:42:43","The main experiment item","yes","FIN__AB__M21__7%3A10%3A17.osexp","C:\Users\ERP Testing Room\Desktop\Joanna\morph21","no","mono","no","18","no","white","no","yes","1080","legacy","38","38","C:/Users/ERP Testing Room/Desktop/Joanna/morph21/subject-112.csv","xpyriment","Jazzy James","3.1.4","0","/","NA","NA","NA","NA","space","/","705","NA","NA","NA","NA","230808","705","2","legacy","1024","2","48000","-16","AB_m21","112","even","FILL_W","CEASE","1344","375748","372623","374240","232162","NA","NA","NA","NA","374233","373120","NA","372123","NA","372113","374233","1353","376148","NA","NA","373240","1344","1344","373631","372113","1344","373240","376148","morph21_Oliver/Morris","33","24179","39","yes","1280","18"
"300","85","85","622.1","622.1","black","no","xpyriment","legacy","legacy","0","205","NA","uniform","61187","1000","0.0163433409057","1","undefined","1","0","39","39","39","0","39","39","39","NA","39","39","0","39","NA","39","39","0","39","NA","39","NA","39","0","0","39","39","0","39","39","40","z","10/29/17 13:42:43","The main experiment item","yes","FIN__AB__M21__7%3A10%3A17.osexp","C:\Users\ERP Testing Room\Desktop\Joanna\morph21","no","mono","no","18","no","white","no","yes","1080","legacy","39","39","C:/Users/ERP Testing Room/Desktop/Joanna/morph21/subject-112.csv","xpyriment","Jazzy James","3.1.4","0","z","NA","NA","NA","NA","space","z","705","NA","NA","NA","NA","230808","705","2","legacy","1024","2","48000","-16","AB_m21","112","even","NW_S_SIMP","WARNODY","1344","379048","377448","374240","232162","NA","NA","NA","NA","379040","377945","NA","376948","NA","376944","379040","1353","379348","NA","NA","378048","1344","1344","378440","376944","1344","378048","379348","morph21_Oliver/Morris","34","24884","40","yes","1280","12"
"200","85.3658536585","85.3658536585","622.414634146","622.414634146","black","no","xpyriment","legacy","legacy","0","204","NA","uniform","65499","1000","0.0152674086627","1","undefined","1","0","40","40","40","0","40","40","40","NA","40","40","0","40","NA","40","40","0","40","NA","40","NA","40","0","0","40","40","0","40","40","41","z","10/29/17 13:42:43","The main experiment item","yes","FIN__AB__M21__7%3A10%3A17.osexp","C:\Users\ERP Testing Room\Desktop\Joanna\morph21","no","mono","no","18","no","white","no","yes","1080","legacy","40","40","C:/Users/ERP Testing Room/Desktop/Joanna/morph21/subject-112.csv","xpyriment","Jazzy James","3.1.4","0","z","NA","NA","NA","NA","space","z","635","NA","NA","NA","NA","230808","635","2","legacy","1024","2","48000","-16","AB_m21","112","even","NW_L_COMP","FLIPORY","1344","382190","380573","374240","232162","NA","NA","NA","NA","382181","381070","NA","380073","NA","380068","382181","1353","382390","NA","NA","381190","1344","1344","381582","380068","1344","381190","382390","morph21_Oliver/Morris","35","25519","41","yes","1280","16"
"350","85.7142857143","85.7142857143","626.642857143","626.642857143","black","no","xpyriment","legacy","legacy","0","207","NA","uniform","68765","1000","0.014542281684","1","undefined","1","0","41","41","41","0","41","41","41","NA","41","41","0","41","NA","41","41","0","41","NA","41","NA","41","0","0","41","41","0","41","41","42","/","10/29/17 13:42:43","The main experiment item","yes","FIN__AB__M21__7%3A10%3A17.osexp","C:\Users\ERP Testing Room\Desktop\Joanna\morph21","no","mono","no","18","no","white","no","yes","1080","legacy","41","41","C:/Users/ERP Testing Room/Desktop/Joanna/morph21/subject-112.csv","xpyriment","Jazzy James","3.1.4","0","/","NA","NA","NA","NA","space","/","800","NA","NA","NA","NA","230808","800","2","legacy","1024","2","48000","-16","AB_m21","112","even","FILL_W","GLOOM","1344","386774","383632","385265","232162","NA","NA","NA","NA","385258","384129","NA","383132","NA","383126","385258","1353","387124","NA","NA","384265","1344","1344","384657","383125","1344","384265","387124","morph21_Oliver/Morris","36","26319","42","yes","1280","14"
"300","86.0465116279","86.0465116279","630.325581395","630.325581395","black","no","xpyriment","legacy","legacy","0","204","NA","uniform","67246","1000","0.0148707729828","1","undefined","1","0","42","42","42","0","42","42","42","NA","42","42","0","42","NA","42","42","0","42","NA","42","NA","42","0","0","42","42","0","42","42","43","z","10/29/17 13:42:43","The main experiment item","yes","FIN__AB__M21__7%3A10%3A17.osexp","C:\Users\ERP Testing Room\Desktop\Joanna\morph21","no","mono","no","18","no","white","no","yes","1080","legacy","42","42","C:/Users/ERP Testing Room/Desktop/Joanna/morph21/subject-112.csv","xpyriment","Jazzy James","3.1.4","0","z","NA","NA","NA","NA","space","z","785","NA","NA","NA","NA","230808","785","2","legacy","1024","2","48000","-16","AB_m21","112","even","NW_L_COMP","FELLOWOUS","1344","390008","388408","385265","232162","NA","NA","NA","NA","390000","388905","NA","387907","NA","387896","390000","1353","390308","NA","NA","389008","1344","1344","389400","387896","1344","389008","390308","morph21_Oliver/Morris","37","27104","43","yes","1280","17"
"400","84.0909090909","84.0909090909","629.545454545","629.545454545","black","no","xpyriment","legacy","legacy","0","207","NA","uniform","69675","1000","0.0143523501973","0","undefined","0","0","43","43","43","0","43","43","43","NA","43","43","0","43","NA","43","43","0","43","NA","43","NA","43","0","0","43","43","0","43","43","44","/","10/29/17 13:42:43","The main experiment item","yes","FIN__AB__M21__7%3A10%3A17.osexp","C:\Users\ERP Testing Room\Desktop\Joanna\morph21","no","mono","no","18","no","white","no","yes","1080","legacy","43","43","C:/Users/ERP Testing Room/Desktop/Joanna/morph21/subject-112.csv","xpyriment","Jazzy James","3.1.4","0","z","NA","NA","NA","NA","space","z","596","NA","NA","NA","NA","230808","596","2","legacy","1024","2","48000","-16","AB_m21","112","even","FILL_W","LITHE","1344","393142","391558","385265","232162","NA","NA","NA","NA","390000","392055","NA","391058","NA","391051","393136","1353","393542","NA","NA","392141","1344","1344","392533","391051","1344","392141","393542","morph21_Oliver/Morris","37","27700","44","yes","1280","23"
"200","84.4444444444","84.4444444444","628.4","628.4","black","no","xpyriment","legacy","legacy","0","208","NA","uniform","70132","1000","0.0142588262134","1","undefined","1","0","44","44","44","0","44","44","44","NA","44","44","0","44","NA","44","44","0","44","NA","44","NA","44","0","0","44","44","0","44","44","45","z","10/29/17 13:42:43","The main experiment item","yes","FIN__AB__M21__7%3A10%3A17.osexp","C:\Users\ERP Testing Room\Desktop\Joanna\morph21","no","mono","no","18","no","white","no","yes","1080","legacy","44","44","C:/Users/ERP Testing Room/Desktop/Joanna/morph21/subject-112.csv","xpyriment","Jazzy James","3.1.4","0","z","NA","NA","NA","NA","space","z","578","NA","NA","NA","NA","230808","578","2","legacy","1024","2","48000","-16","AB_m21","112","even","FILL_NW","BLAYS","1344","397883","394775","396375","232162","NA","NA","NA","NA","396372","395272","NA","394275","NA","394265","396372","1353","398084","NA","NA","395383","1344","1344","395775","394265","1344","395383","398084","morph21_Oliver/Morris","38","28278","45","yes","1280","8"
"350","84.7826086957","84.7826086957","630.304347826","630.304347826","black","no","xpyriment","legacy","legacy","0","201","NA","uniform","66060","1000","0.0151377535574","1","undefined","1","0","45","45","45","0","45","45","45","NA","45","45","0","45","NA","45","45","0","45","NA","45","NA","45","0","0","45","45","0","45","45","46","/","10/29/17 13:42:43","The main experiment item","yes","FIN__AB__M21__7%3A10%3A17.osexp","C:\Users\ERP Testing Room\Desktop\Joanna\morph21","no","mono","no","18","no","white","no","yes","1080","legacy","45","45","C:/Users/ERP Testing Room/Desktop/Joanna/morph21/subject-112.csv","xpyriment","Jazzy James","3.1.4","0","/","NA","NA","NA","NA","space","/","716","NA","NA","NA","NA","230808","716","2","legacy","1024","2","48000","-16","AB_m21","112","even","CW_S","DULLNESS","1344","400917","399292","396375","232162","NA","NA","NA","NA","400912","399789","NA","398792","NA","398785","400912","1353","401267","NA","NA","399917","1344","1344","400317","398785","1344","399917","401267","morph21_Oliver/Morris","39","28994","46","yes","1280","43"
"300","85.1063829787","85.1063829787","630.617021277","630.617021277","black","no","xpyriment","legacy","legacy","0","202","NA","uniform","71091","1000","0.0140664781759","1","undefined","1","0","46","46","46","0","46","46","46","NA","46","46","0","46","NA","46","46","0","46","NA","46","NA","46","0","0","46","46","0","46","46","47","/","10/29/17 13:42:43","The main experiment item","yes","FIN__AB__M21__7%3A10%3A17.osexp","C:\Users\ERP Testing Room\Desktop\Joanna\morph21","no","mono","no","18","no","white","no","yes","1080","legacy","46","46","C:/Users/ERP Testing Room/Desktop/Joanna/morph21/subject-112.csv","xpyriment","Jazzy James","3.1.4","0","/","NA","NA","NA","NA","space","/","645","NA","NA","NA","NA","230808","645","2","legacy","1024","2","48000","-16","AB_m21","112","even","CW_L","KNOCKER","1344","404100","402492","396375","232162","NA","NA","NA","NA","404093","402989","NA","401992","NA","401985","404093","1353","404400","NA","NA","403100","1344","1344","403492","401985","1344","403100","404400","morph21_Oliver/Morris","40","29639","47","yes","1280","4"
"200","85.4166666667","85.4166666667","630.583333333","630.583333333","black","no","xpyriment","legacy","legacy","0","208","NA","uniform","68892","1000","0.0145154734947","1","undefined","1","0","47","47","47","0","47","47","47","NA","47","47","0","47","NA","47","47","0","47","NA","47","NA","47","0","0","47","47","0","47","47","48","z","10/29/17 13:42:43","The main experiment item","yes","FIN__AB__M21__7%3A10%3A17.osexp","C:\Users\ERP Testing Room\Desktop\Joanna\morph21","no","mono","no","18","no","white","no","yes","1080","legacy","47","47","C:/Users/ERP Testing Room/Desktop/Joanna/morph21/subject-112.csv","xpyriment","Jazzy James","3.1.4","0","z","NA","NA","NA","NA","space","z","629","NA","NA","NA","NA","230808","629","2","legacy","1024","2","48000","-16","AB_m21","112","even","FILL_NW","FROT","1344","408777","405676","407268","232162","NA","NA","NA","NA","407263","406174","NA","405175","NA","405172","407263","1353","408977","NA","NA","406268","1344","1344","406668","405172","1344","406268","408977","morph21_Oliver/Morris","41","30268","48","yes","1280","22"
"400","85.7142857143","85.7142857143","630.591836735","630.591836735","black","no","xpyriment","legacy","legacy","0","207","NA","uniform","70270","1000","0.0142308239647","1","undefined","1","0","48","48","48","0","48","48","48","NA","48","48","0","48","NA","48","48","0","48","NA","48","NA","48","0","0","48","48","0","48","48","49","/","10/29/17 13:42:43","The main experiment item","yes","FIN__AB__M21__7%3A10%3A17.osexp","C:\Users\ERP Testing Room\Desktop\Joanna\morph21","no","mono","no","18","no","white","no","yes","1080","legacy","48","48","C:/Users/ERP Testing Room/Desktop/Joanna/morph21/subject-112.csv","xpyriment","Jazzy James","3.1.4","0","/","NA","NA","NA","NA","space","/","631","NA","NA","NA","NA","230808","631","2","legacy","1024","2","48000","-16","AB_m21","112","even","FILL_W","CHIP","1344","411818","410202","407268","232162","NA","NA","NA","NA","411808","410699","NA","409702","NA","409695","411808","1353","412219","NA","NA","410818","1344","1344","411210","409695","1344","410818","412219","morph21_Oliver/Morris","42","30899","49","yes","1280","11"
"350","86","86","629.82","629.82","black","no","xpyriment","legacy","legacy","0","203","NA","uniform","68645","1000","0.0145677034016","1","undefined","1","0","49","49","49","0","49","49","49","NA","49","49","0","49","NA","49","49","0","49","NA","49","NA","49","0","0","49","49","0","49","49","50","z","10/29/17 13:42:43","The main experiment item","yes","FIN__AB__M21__7%3A10%3A17.osexp","C:\Users\ERP Testing Room\Desktop\Joanna\morph21","no","mono","no","18","no","white","no","yes","1080","legacy","49","49","C:/Users/ERP Testing Room/Desktop/Joanna/morph21/subject-112.csv","xpyriment","Jazzy James","3.1.4","0","z","NA","NA","NA","NA","space","z","592","NA","NA","NA","NA","230808","592","2","legacy","1024","2","48000","-16","AB_m21","112","even","NW_S_COMP","DEBTISH","1344","415160","413560","407268","232162","NA","NA","NA","NA","415157","414057","NA","413060","NA","413050","415157","1353","415510","NA","NA","414169","1344","1344","414560","413050","1344","414168","415510","morph21_Oliver/Morris","43","31491","50","yes","1280","22"
"200","86.2745098039","86.2745098039","629.803921569","629.803921569","black","no","xpyriment","legacy","legacy","0","207","NA","uniform","68397","1000","0.014620524292","1","undefined","1","0","50","50","50","0","50","50","50","NA","50","50","0","50","NA","50","50","0","50","NA","50","NA","50","0","0","50","50","0","50","50","51","/","10/29/17 13:42:43","The main experiment item","yes","FIN__AB__M21__7%3A10%3A17.osexp","C:\Users\ERP Testing Room\Desktop\Joanna\morph21","no","mono","no","18","no","white","no","yes","1080","legacy","50","50","C:/Users/ERP Testing Room/Desktop/Joanna/morph21/subject-112.csv","xpyriment","Jazzy James","3.1.4","0","/","NA","NA","NA","NA","space","/","629","NA","NA","NA","NA","230808","629","2","legacy","1024","2","48000","-16","AB_m21","112","even","FILL_W","BLEAK","1344","419969","416860","418460","232162","NA","NA","NA","NA","418454","417357","NA","416360","NA","416354","418454","1353","420169","NA","NA","417460","1344","1344","417852","416354","1344","417460","420169","morph21_Oliver/Morris","44","32120","51","yes","1280","5"
"300","86.5384615385","86.5384615385","631.961538462","631.961538462","black","no","xpyriment","legacy","legacy","0","208","NA","uniform","69077","1000","0.0144765985784","1","undefined","1","0","51","51","51","0","51","51","51","NA","51","51","0","51","NA","51","51","0","51","NA","51","NA","51","0","0","51","51","0","51","51","52","z","10/29/17 13:42:43","The main experiment item","yes","FIN__AB__M21__7%3A10%3A17.osexp","C:\Users\ERP Testing Room\Desktop\Joanna\morph21","no","mono","no","18","no","white","no","yes","1080","legacy","51","51","C:/Users/ERP Testing Room/Desktop/Joanna/morph21/subject-112.csv","xpyriment","Jazzy James","3.1.4","0","z","NA","NA","NA","NA","space","z","742","NA","NA","NA","NA","230808","742","2","legacy","1024","2","48000","-16","AB_m21","112","even","FILL_NW","DULKS","1344","423027","421452","418460","232162","NA","NA","NA","NA","423021","421949","NA","420952","NA","420948","423021","1353","423327","NA","NA","422027","1344","1344","422419","420948","1344","422027","423327","morph21_Oliver/Morris","45","32862","52","yes","1280","18"
"400","86.7924528302","86.7924528302","632.452830189","632.452830189","black","no","xpyriment","legacy","legacy","0","204","NA","uniform","74532","1000","0.0134170557613","1","undefined","1","0","52","52","52","0","52","52","52","NA","52","52","0","52","NA","52","52","0","52","NA","52","NA","52","0","0","52","52","0","52","52","53","z","10/29/17 13:42:43","The main experiment item","yes","FIN__AB__M21__7%3A10%3A17.osexp","C:\Users\ERP Testing Room\Desktop\Joanna\morph21","no","mono","no","18","no","white","no","yes","1080","legacy","52","52","C:/Users/ERP Testing Room/Desktop/Joanna/morph21/subject-112.csv","xpyriment","Jazzy James","3.1.4","0","z","NA","NA","NA","NA","space","z","658","NA","NA","NA","NA","230808","658","2","legacy","1024","2","48000","-16","AB_m21","112","even","NW_L_COMP","ANGELISH","1344","426287","424678","418460","232162","NA","NA","NA","NA","426283","425175","NA","424178","NA","424170","426283","1353","426687","NA","NA","425295","1344","1344","425687","424170","1344","425295","426687","morph21_Oliver/Morris","46","33520","53","yes","1280","7"
"350","87.037037037","87.037037037","631.222222222","631.222222222","black","no","xpyriment","legacy","legacy","0","207","NA","uniform","67979","1000","0.0147104252784","1","undefined","1","0","53","53","53","0","53","53","53","NA","53","53","0","53","NA","53","53","0","53","NA","53","NA","53","0","0","53","53","0","53","53","54","/","10/29/17 13:42:43","The main experiment item","yes","FIN__AB__M21__7%3A10%3A17.osexp","C:\Users\ERP Testing Room\Desktop\Joanna\morph21","no","mono","no","18","no","white","no","yes","1080","legacy","53","53","C:/Users/ERP Testing Room/Desktop/Joanna/morph21/subject-112.csv","xpyriment","Jazzy James","3.1.4","0","/","NA","NA","NA","NA","space","/","566","NA","NA","NA","NA","230808","566","2","legacy","1024","2","48000","-16","AB_m21","112","even","FILL_W","LEAK","1344","431087","427978","429579","232162","NA","NA","NA","NA","429570","428476","NA","427478","NA","427470","429570","1353","431437","NA","NA","428579","1344","1344","428970","427470","1344","428578","431437","morph21_Oliver/Morris","47","34086","54","yes","1280","9"
"250","87.2727272727","87.2727272727","630.690909091","630.690909091","black","no","xpyriment","legacy","legacy","0","201","NA","uniform","64139","1000","0.0155911379972","1","undefined","1","0","54","54","54","0","54","54","54","NA","54","54","0","54","NA","54","54","0","54","NA","54","NA","54","0","0","54","54","0","54","54","55","/","10/29/17 13:42:43","The main experiment item","yes","FIN__AB__M21__7%3A10%3A17.osexp","C:\Users\ERP Testing Room\Desktop\Joanna\morph21","no","mono","no","18","no","white","no","yes","1080","legacy","54","54","C:/Users/ERP Testing Room/Desktop/Joanna/morph21/subject-112.csv","xpyriment","Jazzy James","3.1.4","0","/","NA","NA","NA","NA","space","/","602","NA","NA","NA","NA","230808","602","2","legacy","1024","2","48000","-16","AB_m21","112","even","CW_S","HUGELY","1344","434487","432895","429579","232162","NA","NA","NA","NA","434484","433392","NA","432395","NA","432387","434484","1353","434737","NA","NA","433495","1344","1344","433887","432387","1344","433495","434737","morph21_Oliver/Morris","48","34688","55","yes","1280","35"
"200","87.5","87.5","630.232142857","630.232142857","black","no","xpyriment","legacy","legacy","0","204","NA","uniform","67712","1000","0.0147684310019","1","undefined","1","0","55","55","55","0","55","55","55","NA","55","55","0","55","NA","55","55","0","55","NA","55","NA","55","0","0","55","55","0","55","55","56","z","10/29/17 13:42:43","The main experiment item","yes","FIN__AB__M21__7%3A10%3A17.osexp","C:\Users\ERP Testing Room\Desktop\Joanna\morph21","no","mono","no","18","no","white","no","yes","1080","legacy","55","55","C:/Users/ERP Testing Room/Desktop/Joanna/morph21/subject-112.csv","xpyriment","Jazzy James","3.1.4","0","z","NA","NA","NA","NA","space","z","605","NA","NA","NA","NA","230808","605","2","legacy","1024","2","48000","-16","AB_m21","112","even","NW_L_COMP","PITCHORY","1344","437596","435987","429579","232162","NA","NA","NA","NA","437589","436484","NA","435487","NA","435477","437589","1353","437796","NA","NA","436596","1344","1344","436987","435477","1344","436595","437796","morph21_Oliver/Morris","49","35293","56","yes","1280","25"
"300","87.7192982456","87.7192982456","629.315789474","629.315789474","black","no","xpyriment","legacy","legacy","0","205","NA","uniform","69243","1000","0.0144418930433","1","undefined","1","0","56","56","56","0","56","56","56","NA","56","56","0","56","NA","56","56","0","56","NA","56","NA","56","0","0","56","56","0","56","56","57","z","10/29/17 13:42:43","The main experiment item","yes","FIN__AB__M21__7%3A10%3A17.osexp","C:\Users\ERP Testing Room\Desktop\Joanna\morph21","no","mono","no","18","no","white","no","yes","1080","legacy","56","56","C:/Users/ERP Testing Room/Desktop/Joanna/morph21/subject-112.csv","xpyriment","Jazzy James","3.1.4","0","z","NA","NA","NA","NA","space","z","578","NA","NA","NA","NA","230808","578","2","legacy","1024","2","48000","-16","AB_m21","112","even","NW_S_SIMP","TILTADY","1344","442197","439062","440688","232162","NA","NA","NA","NA","440681","439559","NA","438562","NA","438554","440681","1353","442497","NA","NA","439687","1344","1344","440079","438554","1344","439687","442497","morph21_Oliver/Morris","50","35871","57","yes","1280","17"
"250","87.9310344828","87.9310344828","628.810344828","628.810344828","black","no","xpyriment","legacy","legacy","0","206","NA","uniform","65000","1000","0.0153846153846","1","undefined","1","0","57","57","57","0","57","57","57","NA","57","57","0","57","NA","57","57","0","57","NA","57","NA","57","0","0","57","57","0","57","57","58","z","10/29/17 13:42:43","The main experiment item","yes","FIN__AB__M21__7%3A10%3A17.osexp","C:\Users\ERP Testing Room\Desktop\Joanna\morph21","no","mono","no","18","no","white","no","yes","1080","legacy","57","57","C:/Users/ERP Testing Room/Desktop/Joanna/morph21/subject-112.csv","xpyriment","Jazzy James","3.1.4","0","z","NA","NA","NA","NA","space","z","600","NA","NA","NA","NA","230808","600","2","legacy","1024","2","48000","-16","AB_m21","112","even","NW_L_SIMP","BEARILT","1344","445297","443705","440688","232162","NA","NA","NA","NA","445287","444202","NA","443205","NA","443201","445287","1353","445547","NA","NA","444297","1344","1344","444689","443200","1344","444297","445547","morph21_Oliver/Morris","51","36471","58","yes","1280","25"
"250","88.1355932203","88.1355932203","627.06779661","627.06779661","black","no","xpyriment","legacy","legacy","0","207","NA","uniform","72517","1000","0.0137898699615","1","undefined","1","0","58","58","58","0","58","58","58","NA","58","58","0","58","NA","58","58","0","58","NA","58","NA","58","0","0","58","58","0","58","58","59","/","10/29/17 13:42:43","The main experiment item","yes","FIN__AB__M21__7%3A10%3A17.osexp","C:\Users\ERP Testing Room\Desktop\Joanna\morph21","no","mono","no","18","no","white","no","yes","1080","legacy","58","58","C:/Users/ERP Testing Room/Desktop/Joanna/morph21/subject-112.csv","xpyriment","Jazzy James","3.1.4","0","/","NA","NA","NA","NA","space","/","526","NA","NA","NA","NA","230808","526","2","legacy","1024","2","48000","-16","AB_m21","112","even","FILL_W","SOFT","1344","448339","446730","440688","232162","NA","NA","NA","NA","448331","447227","NA","446230","NA","446224","448331","1353","448589","NA","NA","447339","1344","1344","447730","446224","1344","447339","448589","morph21_Oliver/Morris","52","36997","59","yes","1280","43"
"350","86.6666666667","86.6666666667","629.95","629.95","black","no","xpyriment","legacy","legacy","0","203","NA","uniform","60916","1000","0.0164160483288","0","undefined","0","0","59","59","59","0","59","59","59","NA","59","59","0","59","NA","59","59","0","59","NA","59","NA","59","0","0","59","59","0","59","59","60","z","10/29/17 13:42:43","The main experiment item","yes","FIN__AB__M21__7%3A10%3A17.osexp","C:\Users\ERP Testing Room\Desktop\Joanna\morph21","no","mono","no","18","no","white","no","yes","1080","legacy","59","59","C:/Users/ERP Testing Room/Desktop/Joanna/morph21/subject-112.csv","xpyriment","Jazzy James","3.1.4","0","/","NA","NA","NA","NA","space","/","800","NA","NA","NA","NA","230808","800","2","legacy","1024","2","48000","-16","AB_m21","112","even","NW_S_COMP","HUMIDOUS","1344","453006","449872","451497","232162","NA","NA","NA","NA","448331","450369","NA","449372","NA","449363","451494","1353","453356","NA","NA","450505","1344","1344","450897","449363","1344","450505","453356","morph21_Oliver/Morris","52","37797","60","yes","1280","25"
"300","86.8852459016","86.8852459016","633.049180328","633.049180328","black","no","xpyriment","legacy","legacy","0","208","NA","uniform","61946","1000","0.0161430923708","1","undefined","1","0","60","60","60","0","60","60","60","NA","60","60","0","60","NA","60","60","0","60","NA","60","NA","60","0","0","60","60","0","60","60","61","z","10/29/17 13:42:43","The main experiment item","yes","FIN__AB__M21__7%3A10%3A17.osexp","C:\Users\ERP Testing Room\Desktop\Joanna\morph21","no","mono","no","18","no","white","no","yes","1080","legacy","60","60","C:/Users/ERP Testing Room/Desktop/Joanna/morph21/subject-112.csv","xpyriment","Jazzy James","3.1.4","0","z","NA","NA","NA","NA","space","z","819","NA","NA","NA","NA","230808","819","2","legacy","1024","2","48000","-16","AB_m21","112","even","FILL_NW","KEMT","1344","456206","454606","451497","232162","NA","NA","NA","NA","456196","455103","NA","454106","NA","454099","456196","1353","456506","NA","NA","455206","1344","1344","455597","454099","1344","455206","456506","morph21_Oliver/Morris","53","38616","61","yes","1280","32"
"200","87.0967741935","87.0967741935","633.225806452","633.225806452","black","no","xpyriment","legacy","legacy","0","208","NA","uniform","66041","1000","0.0151421086901","1","undefined","1","0","61","61","61","0","61","61","61","NA","61","61","0","61","NA","61","61","0","61","NA","61","NA","61","0","0","61","61","0","61","61","62","z","10/29/17 13:42:43","The main experiment item","yes","FIN__AB__M21__7%3A10%3A17.osexp","C:\Users\ERP Testing Room\Desktop\Joanna\morph21","no","mono","no","18","no","white","no","yes","1080","legacy","61","61","C:/Users/ERP Testing Room/Desktop/Joanna/morph21/subject-112.csv","xpyriment","Jazzy James","3.1.4","0","z","NA","NA","NA","NA","space","z","644","NA","NA","NA","NA","230808","644","2","legacy","1024","2","48000","-16","AB_m21","112","even","FILL_NW","GAIRS","1344","459357","457739","451497","232162","NA","NA","NA","NA","459352","458236","NA","457239","NA","457232","459352","1353","459557","NA","NA","458357","1344","1344","458757","457232","1344","458357","459557","morph21_Oliver/Morris","54","39260","62","yes","1280","23"
"200","87.3015873016","87.3015873016","631.444444444","631.444444444","black","no","xpyriment","legacy","legacy","0","208","NA","uniform","74878","1000","0.0133550575603","1","undefined","1","0","62","62","62","0","62","62","62","NA","62","62","0","62","NA","62","62","0","62","NA","62","NA","62","0","0","62","62","0","62","62","63","z","10/29/17 13:42:43","The main experiment item","yes","FIN__AB__M21__7%3A10%3A17.osexp","C:\Users\ERP Testing Room\Desktop\Joanna\morph21","no","mono","no","18","no","white","no","yes","1080","legacy","62","62","C:/Users/ERP Testing Room/Desktop/Joanna/morph21/subject-112.csv","xpyriment","Jazzy James","3.1.4","0","z","NA","NA","NA","NA","space","z","521","NA","NA","NA","NA","230808","521","2","legacy","1024","2","48000","-16","AB_m21","112","even","FILL_NW","PORDS","1344","463940","460807","462432","232162","NA","NA","NA","NA","462427","461304","NA","460307","NA","460296","462427","1353","464141","NA","NA","461432","1344","1344","461832","460296","1344","461432","464141","morph21_Oliver/Morris","55","39781","63","yes","1280","39"
"350","87.5","87.5","633.59375","633.59375","black","no","xpyriment","legacy","legacy","0","206","NA","uniform","69524","1000","0.0143835222369","1","undefined","1","0","63","63","63","0","63","63","63","NA","63","63","0","63","NA","63","63","0","63","NA","63","NA","63","0","0","63","63","0","63","63","64","z","10/29/17 13:42:43","The main experiment item","yes","FIN__AB__M21__7%3A10%3A17.osexp","C:\Users\ERP Testing Room\Desktop\Joanna\morph21","no","mono","no","18","no","white","no","yes","1080","legacy","63","63","C:/Users/ERP Testing Room/Desktop/Joanna/morph21/subject-112.csv","xpyriment","Jazzy James","3.1.4","0","z","NA","NA","NA","NA","space","z","769","NA","NA","NA","NA","230808","769","2","legacy","1024","2","48000","-16","AB_m21","112","even","NW_L_SIMP","NUTLA","1344","467016","465407","462432","232162","NA","NA","NA","NA","467008","465904","NA","464907","NA","464899","467008","1353","467366","NA","NA","466016","1344","1344","466407","464899","1344","466015","467366","morph21_Oliver/Morris","56","40550","64","yes","1280","14"
"200","87.6923076923","87.6923076923","634.953846154","634.953846154","black","no","xpyriment","legacy","legacy","0","203","NA","uniform","60214","1000","0.0166074334872","1","undefined","1","0","64","64","64","0","64","64","64","NA","64","64","0","64","NA","64","64","0","64","NA","64","NA","64","0","0","64","64","0","64","64","65","z","10/29/17 13:42:43","The main experiment item","yes","FIN__AB__M21__7%3A10%3A17.osexp","C:\Users\ERP Testing Room\Desktop\Joanna\morph21","no","mono","no","18","no","white","no","yes","1080","legacy","64","64","C:/Users/ERP Testing Room/Desktop/Joanna/morph21/subject-112.csv","xpyriment","Jazzy James","3.1.4","0","z","NA","NA","NA","NA","space","z","722","NA","NA","NA","NA","230808","722","2","legacy","1024","2","48000","-16","AB_m21","112","even","NW_S_COMP","ADOPTISH","1344","470207","468607","462432","232162","NA","NA","NA","NA","470201","469104","NA","468107","NA","468099","470201","1353","470407","NA","NA","469207","1344","1344","469599","468099","1344","469207","470407","morph21_Oliver/Morris","57","41272","65","yes","1280","19"
"300","87.8787878788","87.8787878788","634.651515152","634.651515152","black","no","xpyriment","legacy","legacy","0","208","NA","uniform","72553","1000","0.0137830275798","1","undefined","1","0","65","65","65","0","65","65","65","NA","65","65","0","65","NA","65","65","0","65","NA","65","NA","65","0","0","65","65","0","65","65","66","z","10/29/17 13:42:43","The main experiment item","yes","FIN__AB__M21__7%3A10%3A17.osexp","C:\Users\ERP Testing Room\Desktop\Joanna\morph21","no","mono","no","18","no","white","no","yes","1080","legacy","65","65","C:/Users/ERP Testing Room/Desktop/Joanna/morph21/subject-112.csv","xpyriment","Jazzy James","3.1.4","0","z","NA","NA","NA","NA","space","z","615","NA","NA","NA","NA","230808","615","2","legacy","1024","2","48000","-16","AB_m21","112","even","FILL_NW","SCURE","1344","474766","471657","473258","232162","NA","NA","NA","NA","473249","472155","NA","471157","NA","471150","473249","1353","475066","NA","NA","472258","1344","1344","472649","471150","1344","472257","475066","morph21_Oliver/Morris","58","41887","66","yes","1280","41"
"300","88.0597014925","88.0597014925","635.880597015","635.880597015","black","no","xpyriment","legacy","legacy","0","204","NA","uniform","61685","1000","0.0162113966118","1","undefined","1","0","66","66","66","0","66","66","66","NA","66","66","0","66","NA","66","66","0","66","NA","66","NA","66","0","0","66","66","0","66","66","67","z","10/29/17 13:42:43","The main experiment item","yes","FIN__AB__M21__7%3A10%3A17.osexp","C:\Users\ERP Testing Room\Desktop\Joanna\morph21","no","mono","no","18","no","white","no","yes","1080","legacy","66","66","C:/Users/ERP Testing Room/Desktop/Joanna/morph21/subject-112.csv","xpyriment","Jazzy James","3.1.4","0","z","NA","NA","NA","NA","space","z","717","NA","NA","NA","NA","230808","717","2","legacy","1024","2","48000","-16","AB_m21","112","even","NW_L_COMP","NORTHIZE","1344","477900","476267","473258","232162","NA","NA","NA","NA","477891","476764","NA","475767","NA","475760","477891","1353","478200","NA","NA","476900","1344","1344","477292","475760","1344","476900","478200","morph21_Oliver/Morris","59","42604","67","yes","1280","20"
"300","88.2352941176","88.2352941176","635.779411765","635.779411765","black","no","xpyriment","legacy","legacy","0","205","NA","uniform","72639","1000","0.0137667093435","1","undefined","1","0","67","67","67","0","67","67","67","NA","67","67","0","67","NA","67","67","0","67","NA","67","NA","67","0","0","67","67","0","67","67","68","z","10/29/17 13:42:43","The main experiment item","yes","FIN__AB__M21__7%3A10%3A17.osexp","C:\Users\ERP Testing Room\Desktop\Joanna\morph21","no","mono","no","18","no","white","no","yes","1080","legacy","67","67","C:/Users/ERP Testing Room/Desktop/Joanna/morph21/subject-112.csv","xpyriment","Jazzy James","3.1.4","0","z","NA","NA","NA","NA","space","z","629","NA","NA","NA","NA","230808","629","2","legacy","1024","2","48000","-16","AB_m21","112","even","NW_S_SIMP","BOLTOES","1344","481101","479509","473258","232162","NA","NA","NA","NA","481094","480006","NA","479009","NA","479004","481094","1353","481401","NA","NA","480100","1344","1344","480492","479004","1344","480100","481401","morph21_Oliver/Morris","60","43233","68","yes","1280","13"
"200","88.4057971014","88.4057971014","640.782608696","640.782608696","black","no","xpyriment","legacy","legacy","0","203","NA","uniform","55673","1000","0.0179620282722","1","undefined","1","0","68","68","68","0","68","68","68","NA","68","68","0","68","NA","68","68","0","68","NA","68","NA","68","0","0","68","68","0","68","68","69","z","10/29/17 13:42:43","The main experiment item","yes","FIN__AB__M21__7%3A10%3A17.osexp","C:\Users\ERP Testing Room\Desktop\Joanna\morph21","no","mono","no","18","no","white","no","yes","1080","legacy","68","68","C:/Users/ERP Testing Room/Desktop/Joanna/morph21/subject-112.csv","xpyriment","Jazzy James","3.1.4","0","z","NA","NA","NA","NA","space","z","981","NA","NA","NA","NA","230808","981","2","legacy","1024","2","48000","-16","AB_m21","112","even","NW_S_COMP","ANTISM","1344","485784","482667","484276","232162","NA","NA","NA","NA","484269","483164","NA","482167","NA","482161","484269","1353","485984","NA","NA","483276","1344","1344","483667","482160","1344","483276","485984","morph21_Oliver/Morris","61","44214","69","yes","1280","8"
"400","88.5714285714","88.5714285714","643.8","643.8","black","no","xpyriment","legacy","legacy","0","207","NA","uniform","63723","1000","0.0156929209234","1","undefined","1","0","69","69","69","0","69","69","69","NA","69","69","0","69","NA","69","69","0","69","NA","69","NA","69","0","0","69","69","0","69","69","70","/","10/29/17 13:42:43","The main experiment item","yes","FIN__AB__M21__7%3A10%3A17.osexp","C:\Users\ERP Testing Room\Desktop\Joanna\morph21","no","mono","no","18","no","white","no","yes","1080","legacy","69","69","C:/Users/ERP Testing Room/Desktop/Joanna/morph21/subject-112.csv","xpyriment","Jazzy James","3.1.4","0","/","NA","NA","NA","NA","space","/","852","NA","NA","NA","NA","230808","852","2","legacy","1024","2","48000","-16","AB_m21","112","even","FILL_W","QUIT","1344","488901","487301","484276","232162","NA","NA","NA","NA","488892","487798","NA","486801","NA","486794","488892","1353","489301","NA","NA","487901","1344","1344","488292","486794","1344","487901","489301","morph21_Oliver/Morris","62","45066","70","yes","1280","21"
"200","88.7323943662","88.7323943662","644.774647887","644.774647887","black","no","xpyriment","legacy","legacy","0","201","NA","uniform","67080","1000","0.0149075730471","1","undefined","1","0","70","70","70","0","70","70","70","NA","70","70","0","70","NA","70","70","0","70","NA","70","NA","70","0","0","70","70","0","70","70","71","/","10/29/17 13:42:43","The main experiment item","yes","FIN__AB__M21__7%3A10%3A17.osexp","C:\Users\ERP Testing Room\Desktop\Joanna\morph21","no","mono","no","18","no","white","no","yes","1080","legacy","70","70","C:/Users/ERP Testing Room/Desktop/Joanna/morph21/subject-112.csv","xpyriment","Jazzy James","3.1.4","0","/","NA","NA","NA","NA","space","/","713","NA","NA","NA","NA","230808","713","2","legacy","1024","2","48000","-16","AB_m21","112","even","CW_S","LOCALLY","1344","492184","490559","484276","232162","NA","NA","NA","NA","492176","491056","NA","490059","NA","490051","492176","1353","492384","NA","NA","491184","1344","1344","491576","490051","1344","491184","492384","morph21_Oliver/Morris","63","45779","71","yes","1280","37"
"250","88.8888888889","88.8888888889","645.597222222","645.597222222","black","no","xpyriment","legacy","legacy","0","201","NA","uniform","60685","1000","0.0164785367059","1","undefined","1","0","71","71","71","0","71","71","71","NA","71","71","0","71","NA","71","71","0","71","NA","71","NA","71","0","0","71","71","0","71","71","72","/","10/29/17 13:42:43","The main experiment item","yes","FIN__AB__M21__7%3A10%3A17.osexp","C:\Users\ERP Testing Room\Desktop\Joanna\morph21","no","mono","no","18","no","white","no","yes","1080","legacy","71","71","C:/Users/ERP Testing Room/Desktop/Joanna/morph21/subject-112.csv","xpyriment","Jazzy James","3.1.4","0","/","NA","NA","NA","NA","space","/","704","NA","NA","NA","NA","230808","704","2","legacy","1024","2","48000","-16","AB_m21","112","even","CW_S","PEAKING","1344","496719","493627","495211","232162","NA","NA","NA","NA","495202","494124","NA","493127","NA","493121","495202","1353","496969","NA","NA","494210","1344","1344","494602","493121","1344","494210","496969","morph21_Oliver/Morris","64","46483","72","yes","1280","28"
"200","89.0410958904","89.0410958904","646.547945205","646.547945205","black","no","xpyriment","legacy","legacy","0","203","NA","uniform","63540","1000","0.0157381177211","1","undefined","1","0","72","72","72","0","72","72","72","NA","72","72","0","72","NA","72","72","0","72","NA","72","NA","72","0","0","72","72","0","72","72","73","z","10/29/17 13:42:43","The main experiment item","yes","FIN__AB__M21__7%3A10%3A17.osexp","C:\Users\ERP Testing Room\Desktop\Joanna\morph21","no","mono","no","18","no","white","no","yes","1080","legacy","72","72","C:/Users/ERP Testing Room/Desktop/Joanna/morph21/subject-112.csv","xpyriment","Jazzy James","3.1.4","0","z","NA","NA","NA","NA","space","z","715","NA","NA","NA","NA","230808","715","2","legacy","1024","2","48000","-16","AB_m21","112","even","NW_S_COMP","MELTANCE","1344","499902","498286","495211","232162","NA","NA","NA","NA","499893","498783","NA","497786","NA","497775","499893","1353","500102","NA","NA","498902","1344","1344","499294","497775","1344","498902","500102","morph21_Oliver/Morris","65","47198","73","yes","1280","1"
"300","89.1891891892","89.1891891892","646.081081081","646.081081081","black","no","xpyriment","legacy","legacy","0","207","NA","uniform","75106","1000","0.0133145154848","1","undefined","1","0","73","73","73","0","73","73","73","NA","73","73","0","73","NA","73","73","0","73","NA","73","NA","73","0","0","73","73","0","73","73","74","/","10/29/17 13:42:43","The main experiment item","yes","FIN__AB__M21__7%3A10%3A17.osexp","C:\Users\ERP Testing Room\Desktop\Joanna\morph21","no","mono","no","18","no","white","no","yes","1080","legacy","73","73","C:/Users/ERP Testing Room/Desktop/Joanna/morph21/subject-112.csv","xpyriment","Jazzy James","3.1.4","0","/","NA","NA","NA","NA","space","/","612","NA","NA","NA","NA","230808","612","2","legacy","1024","2","48000","-16","AB_m21","112","even","FILL_W","BOX","1344","503061","501469","495211","232162","NA","NA","NA","NA","503053","501966","NA","500969","NA","500964","503053","1353","503361","NA","NA","502061","1344","1344","502452","500964","1344","502061","503361","morph21_Oliver/Morris","66","47810","74","yes","1280","42"
"350","89.3333333333","89.3333333333","645.586666667","645.586666667","black","no","xpyriment","legacy","legacy","0","206","NA","uniform","71884","1000","0.0139113015414","undefined","undefined","1","0","74","74","74","0","74","74","74","NA","74","74","0","74","NA","74","74","0","74","NA","74","NA","74","0","0","74","74","0","74","74","75","z","10/29/17 13:42:43","The main experiment item","yes","FIN__AB__M21__7%3A10%3A17.osexp","C:\Users\ERP Testing Room\Desktop\Joanna\morph21","no","mono","no","18","no","white","no","yes","1080","legacy","74","74","C:/Users/ERP Testing Room/Desktop/Joanna/morph21/subject-112.csv","xpyriment","Jazzy James","3.1.4","0","space","space","NA","NA","NA","space","z","11710","11710","NA","NA","NA","230808","609","2","legacy","1024","2","48000","-16","AB_m21","112","even","NW_L_SIMP","HABITIG","1344","507853","504744","506344","232162","508211","NA","NA","NA","506340","505241","NA","504244","NA","504237","506340","1353","519922","NA","NA","505344","1344","1344","505744","504237","1344","505344","508203","morph21_Oliver/Morris","67","48419","75","yes","1280","7"
"300","89.4736842105","89.4736842105","646.131578947","646.131578947","black","no","xpyriment","legacy","legacy","0","207","NA","uniform","60724","1000","0.0164679533628","1","undefined","1","0","75","75","75","0","75","75","75","NA","75","75","0","75","NA","75","75","0","75","NA","75","NA","75","0","0","75","75","0","75","75","76","/","10/29/17 13:42:43","The main experiment item","yes","FIN__AB__M21__7%3A10%3A17.osexp","C:\Users\ERP Testing Room\Desktop\Joanna\morph21","no","mono","no","18","no","white","no","yes","1080","legacy","75","75","C:/Users/ERP Testing Room/Desktop/Joanna/morph21/subject-112.csv","xpyriment","Jazzy James","3.1.4","0","/","space","NA","NA","NA","space","/","687","11710","NA","NA","NA","230808","687","2","legacy","1024","2","48000","-16","AB_m21","112","even","FILL_W","MOURN","1344","522754","521171","506344","232162","508211","NA","NA","NA","522750","521668","NA","520671","NA","520663","522750","1353","523054","NA","NA","521754","1344","1344","522154","520662","1344","521754","523054","morph21_Oliver/Morris","68","49106","76","yes","1280","26"
"200","89.6103896104","89.6103896104","645.558441558","645.558441558","black","no","xpyriment","legacy","legacy","0","207","NA","uniform","65822","1000","0.0151924888335","1","undefined","1","0","76","76","76","0","76","76","76","NA","76","76","0","76","NA","76","76","0","76","NA","76","NA","76","0","0","76","76","0","76","76","77","/","10/29/17 13:42:43","The main experiment item","yes","FIN__AB__M21__7%3A10%3A17.osexp","C:\Users\ERP Testing Room\Desktop\Joanna\morph21","no","mono","no","18","no","white","no","yes","1080","legacy","76","76","C:/Users/ERP Testing Room/Desktop/Joanna/morph21/subject-112.csv","xpyriment","Jazzy James","3.1.4","0","/","space","NA","NA","NA","space","/","602","11710","NA","NA","NA","230808","602","2","legacy","1024","2","48000","-16","AB_m21","112","even","FILL_W","OLD","1344","525855","524246","506344","232162","508211","NA","NA","NA","525851","524743","NA","523746","NA","523736","525851","1353","526055","NA","NA","524863","1344","1344","525255","523736","1344","524863","526055","morph21_Oliver/Morris","69","49708","77","yes","1280","44"
"400","89.7435897436","89.7435897436","643.769230769","643.769230769","black","no","xpyriment","legacy","legacy","0","202","NA","uniform","75152","1000","0.0133063657654","1","undefined","1","0","77","77","77","0","77","77","77","NA","77","77","0","77","NA","77","77","0","77","NA","77","NA","77","0","0","77","77","0","77","77","78","/","10/29/17 13:42:43","The main experiment item","yes","FIN__AB__M21__7%3A10%3A17.osexp","C:\Users\ERP Testing Room\Desktop\Joanna\morph21","no","mono","no","18","no","white","no","yes","1080","legacy","77","77","C:/Users/ERP Testing Room/Desktop/Joanna/morph21/subject-112.csv","xpyriment","Jazzy James","3.1.4","0","/","space","NA","NA","NA","space","/","506","11710","NA","NA","NA","230808","506","2","legacy","1024","2","48000","-16","AB_m21","112","even","CW_L","CONDUCTOR","1344","530397","527305","528889","232162","508211","NA","NA","NA","528885","527802","NA","526805","NA","526801","528885","1353","530798","NA","NA","527896","1344","1344","528289","526801","1344","527896","530798","morph21_Oliver/Morris","70","50214","78","yes","1280","44"
"300","89.8734177215","89.8734177215","643.113924051","643.113924051","black","no","xpyriment","legacy","legacy","0","208","NA","uniform","66354","1000","0.0150706814962","1","undefined","1","0","78","78","78","0","78","78","78","NA","78","78","0","78","NA","78","78","0","78","NA","78","NA","78","0","0","78","78","0","78","78","79","z","10/29/17 13:42:43","The main experiment item","yes","FIN__AB__M21__7%3A10%3A17.osexp","C:\Users\ERP Testing Room\Desktop\Joanna\morph21","no","mono","no","18","no","white","no","yes","1080","legacy","78","78","C:/Users/ERP Testing Room/Desktop/Joanna/morph21/subject-112.csv","xpyriment","Jazzy James","3.1.4","0","z","space","NA","NA","NA","space","z","592","11710","NA","NA","NA","230808","592","2","legacy","1024","2","48000","-16","AB_m21","112","even","FILL_NW","BAFED","1344","533681","532081","528889","232162","508211","NA","NA","NA","533678","532578","NA","531581","NA","531574","533678","1353","533981","NA","NA","532689","1344","1344","533081","531574","1344","532689","533981","morph21_Oliver/Morris","71","50806","79","yes","1280","1"
"200","90","90","644.375","644.375","black","no","xpyriment","legacy","legacy","0","208","NA","uniform","60868","1000","0.0164289938884","1","undefined","1","0","79","79","79","0","79","79","79","NA","79","79","0","79","NA","79","79","0","79","NA","79","NA","79","0","0","79","79","0","79","79","80","z","10/29/17 13:42:43","The main experiment item","yes","FIN__AB__M21__7%3A10%3A17.osexp","C:\Users\ERP Testing Room\Desktop\Joanna\morph21","no","mono","no","18","no","white","no","yes","1080","legacy","79","79","C:/Users/ERP Testing Room/Desktop/Joanna/morph21/subject-112.csv","xpyriment","Jazzy James","3.1.4","0","z","space","NA","NA","NA","space","z","744","11710","NA","NA","NA","230808","744","2","legacy","1024","2","48000","-16","AB_m21","112","even","FILL_NW","HOITS","1344","536889","535281","528889","232162","508211","NA","NA","NA","536885","535778","NA","534781","NA","534776","536885","1353","537089","NA","NA","535889","1344","1344","536289","534776","1344","535889","537089","morph21_Oliver/Morris","72","51550","80","yes","1280","30"
"250","90.1234567901","90.1234567901","644.666666667","644.666666667","black","no","xpyriment","legacy","legacy","0","202","NA","uniform","71524","1000","0.0139813209552","1","undefined","1","0","80","80","80","0","80","80","80","NA","80","80","0","80","NA","80","80","0","80","NA","80","NA","80","0","0","80","80","0","80","80","81","/","10/29/17 13:42:43","The main experiment item","yes","FIN__AB__M21__7%3A10%3A17.osexp","C:\Users\ERP Testing Room\Desktop\Joanna\morph21","no","mono","no","18","no","white","no","yes","1080","legacy","80","80","C:/Users/ERP Testing Room/Desktop/Joanna/morph21/subject-112.csv","xpyriment","Jazzy James","3.1.4","0","/","space","NA","NA","NA","space","/","668","11710","NA","NA","NA","230808","668","2","legacy","1024","2","48000","-16","AB_m21","112","even","CW_L","DREAMER","1344","541473","538381","539964","232162","508211","NA","NA","NA","539958","538878","NA","537881","NA","537874","539958","1353","541723","NA","NA","538965","1344","1344","539356","537874","1344","538964","541723","morph21_Oliver/Morris","73","52218","81","yes","1280","12"
"350","89.0243902439","89.0243902439","648.865853659","648.865853659","black","no","xpyriment","legacy","legacy","0","204","NA","uniform","54118","1000","0.01847814036","0","undefined","0","0","81","81","81","0","81","81","81","NA","81","81","0","81","NA","81","81","0","81","NA","81","NA","81","0","0","81","81","0","81","81","82","z","10/29/17 13:42:43","The main experiment item","yes","FIN__AB__M21__7%3A10%3A17.osexp","C:\Users\ERP Testing Room\Desktop\Joanna\morph21","no","mono","no","18","no","white","no","yes","1080","legacy","81","81","C:/Users/ERP Testing Room/Desktop/Joanna/morph21/subject-112.csv","xpyriment","Jazzy James","3.1.4","0","None","space","NA","NA","NA","space","None","989","11710","NA","NA","NA","230808","989","2","legacy","1024","2","48000","-16","AB_m21","112","even","NW_L_COMP","INKISM","1344","544531","542923","539964","232162","508211","NA","NA","NA","539958","543420","NA","542423","NA","542420","544522","1353","544882","NA","NA","543531","1344","1344","543923","542420","1344","543531","544882","morph21_Oliver/Morris","73","53207","82","yes","1280","8"
"300","89.156626506","89.156626506","652.060240964","652.060240964","black","no","xpyriment","legacy","legacy","0","204","NA","uniform","59306","1000","0.0168617003339","1","undefined","1","0","82","82","82","0","82","82","82","NA","82","82","0","82","NA","82","82","0","82","NA","82","NA","82","0","0","82","82","0","82","82","83","z","10/29/17 13:42:43","The main experiment item","yes","FIN__AB__M21__7%3A10%3A17.osexp","C:\Users\ERP Testing Room\Desktop\Joanna\morph21","no","mono","no","18","no","white","no","yes","1080","legacy","82","82","C:/Users/ERP Testing Room/Desktop/Joanna/morph21/subject-112.csv","xpyriment","Jazzy James","3.1.4","0","z","space","NA","NA","NA","space","z","914","11710","NA","NA","NA","230808","914","2","legacy","1024","2","48000","-16","AB_m21","112","even","NW_L_COMP","KINGISM","1344","547799","546182","539964","232162","508211","NA","NA","NA","547791","546680","NA","545682","NA","545675","547791","1353","548099","NA","NA","546799","1344","1344","547191","545675","1344","546799","548099","morph21_Oliver/Morris","74","54121","83","yes","1280","19"
"200","89.2857142857","89.2857142857","651.630952381","651.630952381","black","no","xpyriment","legacy","legacy","0","207","NA","uniform","66385","1000","0.0150636438955","1","undefined","1","0","83","83","83","0","83","83","83","NA","83","83","0","83","NA","83","83","0","83","NA","83","NA","83","0","0","83","83","0","83","83","84","/","10/29/17 13:42:43","The main experiment item","yes","FIN__AB__M21__7%3A10%3A17.osexp","C:\Users\ERP Testing Room\Desktop\Joanna\morph21","no","mono","no","18","no","white","no","yes","1080","legacy","83","83","C:/Users/ERP Testing Room/Desktop/Joanna/morph21/subject-112.csv","xpyriment","Jazzy James","3.1.4","0","/","space","NA","NA","NA","space","/","616","11710","NA","NA","NA","230808","616","2","legacy","1024","2","48000","-16","AB_m21","112","even","FILL_W","TAX","1344","552541","549433","551033","232162","508211","NA","NA","NA","551025","549930","NA","548933","NA","548927","551025","1353","552741","NA","NA","550033","1344","1344","550424","548927","1344","550033","552741","morph21_Oliver/Morris","75","54737","84","yes","1280","45"
"400","89.4117647059","89.4117647059","651.976470588","651.976470588","black","no","xpyriment","legacy","legacy","0","202","NA","uniform","68905","1000","0.0145127349249","1","undefined","1","0","84","84","84","0","84","84","84","NA","84","84","0","84","NA","84","84","0","84","NA","84","NA","84","0","0","84","84","0","84","84","85","/","10/29/17 13:42:43","The main experiment item","yes","FIN__AB__M21__7%3A10%3A17.osexp","C:\Users\ERP Testing Room\Desktop\Joanna\morph21","no","mono","no","18","no","white","no","yes","1080","legacy","84","84","C:/Users/ERP Testing Room/Desktop/Joanna/morph21/subject-112.csv","xpyriment","Jazzy James","3.1.4","0","/","space","NA","NA","NA","space","/","681","11710","NA","NA","NA","230808","681","2","legacy","1024","2","48000","-16","AB_m21","112","even","CW_L","BLINDNESS","1344","555616","554016","551033","232162","508211","NA","NA","NA","555606","554513","NA","553516","NA","553513","555606","1353","556016","NA","NA","554616","1344","1344","555008","553513","1344","554616","556016","morph21_Oliver/Morris","76","55418","85","yes","1280","40"
"250","89.5348837209","89.5348837209","652.337209302","652.337209302","black","no","xpyriment","legacy","legacy","0","201","NA","uniform","59686","1000","0.0167543477532","1","undefined","1","0","85","85","85","0","85","85","85","NA","85","85","0","85","NA","85","85","0","85","NA","85","NA","85","0","0","85","85","0","85","85","86","/","10/29/17 13:42:43","The main experiment item","yes","FIN__AB__M21__7%3A10%3A17.osexp","C:\Users\ERP Testing Room\Desktop\Joanna\morph21","no","mono","no","18","no","white","no","yes","1080","legacy","85","85","C:/Users/ERP Testing Room/Desktop/Joanna/morph21/subject-112.csv","xpyriment","Jazzy James","3.1.4","0","/","space","NA","NA","NA","space","/","683","11710","NA","NA","NA","230808","683","2","legacy","1024","2","48000","-16","AB_m21","112","even","CW_S","MILDNESS","1344","558950","557316","551033","232162","508211","NA","NA","NA","558942","557813","NA","556816","NA","556807","558942","1353","559200","NA","NA","557950","1344","1344","558341","556807","1344","557950","559200","morph21_Oliver/Morris","77","56101","86","yes","1280","42"
"200","89.6551724138","89.6551724138","651.609195402","651.609195402","black","no","xpyriment","legacy","legacy","0","201","NA","uniform","72207","1000","0.0138490728046","1","undefined","1","0","86","86","86","0","86","86","86","NA","86","86","0","86","NA","86","86","0","86","NA","86","NA","86","0","0","86","86","0","86","86","87","/","10/29/17 13:42:43","The main experiment item","yes","FIN__AB__M21__7%3A10%3A17.osexp","C:\Users\ERP Testing Room\Desktop\Joanna\morph21","no","mono","no","18","no","white","no","yes","1080","legacy","86","86","C:/Users/ERP Testing Room/Desktop/Joanna/morph21/subject-112.csv","xpyriment","Jazzy James","3.1.4","0","/","space","NA","NA","NA","space","/","589","11710","NA","NA","NA","230808","589","2","legacy","1024","2","48000","-16","AB_m21","112","even","CW_S","BOLDNESS","1344","563618","560500","562108","232162","508211","NA","NA","NA","562104","560997","NA","560000","NA","559994","562104","1353","563818","NA","NA","561108","1344","1344","561508","559994","1344","561108","563818","morph21_Oliver/Morris","78","56690","87","yes","1280","41"
"300","89.7727272727","89.7727272727","649.602272727","649.602272727","black","no","xpyriment","legacy","legacy","0","207","NA","uniform","73575","1000","0.0135915732246","1","undefined","1","0","87","87","87","0","87","87","87","NA","87","87","0","87","NA","87","87","0","87","NA","87","NA","87","0","0","87","87","0","87","87","88","/","10/29/17 13:42:43","The main experiment item","yes","FIN__AB__M21__7%3A10%3A17.osexp","C:\Users\ERP Testing Room\Desktop\Joanna\morph21","no","mono","no","18","no","white","no","yes","1080","legacy","87","87","C:/Users/ERP Testing Room/Desktop/Joanna/morph21/subject-112.csv","xpyriment","Jazzy James","3.1.4","0","/","space","NA","NA","NA","space","/","475","11710","NA","NA","NA","230808","475","2","legacy","1024","2","48000","-16","AB_m21","112","even","FILL_W","BALD","1344","566726","565109","562108","232162","508211","NA","NA","NA","566718","565606","NA","564609","NA","564601","566718","1353","567026","NA","NA","565726","1344","1344","566118","564601","1344","565726","567026","morph21_Oliver/Morris","79","57165","88","yes","1280","3"
"250","89.8876404494","89.8876404494","648.202247191","648.202247191","black","no","xpyriment","legacy","legacy","0","201","NA","uniform","76929","1000","0.0129989990771","1","undefined","1","0","88","88","88","0","88","88","88","NA","88","88","0","88","NA","88","88","0","88","NA","88","NA","88","0","0","88","88","0","88","88","89","/","10/29/17 13:42:43","The main experiment item","yes","FIN__AB__M21__7%3A10%3A17.osexp","C:\Users\ERP Testing Room\Desktop\Joanna\morph21","no","mono","no","18","no","white","no","yes","1080","legacy","88","88","C:/Users/ERP Testing Room/Desktop/Joanna/morph21/subject-112.csv","xpyriment","Jazzy James","3.1.4","0","/","space","NA","NA","NA","space","/","525","11710","NA","NA","NA","230808","525","2","legacy","1024","2","48000","-16","AB_m21","112","even","CW_S","COSTLY","1344","569860","568259","562108","232162","508211","NA","NA","NA","569851","568757","NA","567760","NA","567752","569851","1353","570110","NA","NA","568860","1344","1344","569251","567752","1344","568859","570110","morph21_Oliver/Morris","80","57690","89","yes","1280","36"
"400","90","90","647.855555556","647.855555556","black","no","xpyriment","legacy","legacy","0","208","NA","uniform","69945","1000","0.0142969476017","1","undefined","1","0","89","89","89","0","89","89","89","NA","89","89","0","89","NA","89","89","0","89","NA","89","NA","89","0","0","89","89","0","89","89","90","z","10/29/17 13:42:43","The main experiment item","yes","FIN__AB__M21__7%3A10%3A17.osexp","C:\Users\ERP Testing Room\Desktop\Joanna\morph21","no","mono","no","18","no","white","no","yes","1080","legacy","89","89","C:/Users/ERP Testing Room/Desktop/Joanna/morph21/subject-112.csv","xpyriment","Jazzy James","3.1.4","0","z","space","NA","NA","NA","space","z","617","11710","NA","NA","NA","230808","617","2","legacy","1024","2","48000","-16","AB_m21","112","even","FILL_NW","GIKE","1344","574485","571376","572976","232162","508211","NA","NA","NA","572970","571873","NA","570876","NA","570868","572970","1353","574885","NA","NA","571976","1344","1344","572368","570868","1344","571976","574885","morph21_Oliver/Morris","81","58307","90","yes","1280","24"
"350","90.1098901099","90.1098901099","648.340659341","648.340659341","black","no","xpyriment","legacy","legacy","0","203","NA","uniform","66101","1000","0.01512836417","1","undefined","1","0","90","90","90","0","90","90","90","NA","90","90","0","90","NA","90","90","0","90","NA","90","NA","90","0","0","90","90","0","90","90","91","z","10/29/17 13:42:43","The main experiment item","yes","FIN__AB__M21__7%3A10%3A17.osexp","C:\Users\ERP Testing Room\Desktop\Joanna\morph21","no","mono","no","18","no","white","no","yes","1080","legacy","90","90","C:/Users/ERP Testing Room/Desktop/Joanna/morph21/subject-112.csv","xpyriment","Jazzy James","3.1.4","0","z","space","NA","NA","NA","space","z","692","11710","NA","NA","NA","230808","692","2","legacy","1024","2","48000","-16","AB_m21","112","even","NW_S_COMP","WELDIC","1344","577877","576285","572976","232162","508211","NA","NA","NA","577872","576782","NA","575785","NA","575778","577872","1353","578227","NA","NA","576877","1344","1344","577277","575778","1344","576876","578227","morph21_Oliver/Morris","82","58999","91","yes","1280","21"
