"ITI","acc","accuracy","average_response_time","avg_rt","background","bidi","canvas_backend","clock_backend","color_backend","compensation","cond_trig","condtrigtime","coordinates","coroutines_cycles","coroutines_duration","coroutines_mean_cycle_duration","correct","correct_instructions_1","correct_new_keyboard_response_1","count_BA_m21","count_ITI","count_blank_screen","count_blink_screen","count_block1","count_break1","count_break2","count_break3_1","count_canvas","count_correct_trigger","count_def_chain","count_end_screen","count_fixation_1","count_getting_started","count_inc_counter","count_incorrect_trigger","count_instructions_1","count_logger","count_logscript","count_new_coroutines","count_new_inline_script","count_new_keyboard_response_1","count_reset_counter_prep","count_reset_counter_run","count_responsescreen","count_sequence","count_start_trigger","count_target_present","count_word_trigger","counter","cresp","datetime","description","disable_garbage_collection","experiment_file","experiment_path","font_bold","font_family","font_italic","font_size","font_underline","foreground","form_clicks","fullscreen","height","keyboard_backend","live_row","live_row_block1","logfile","mouse_backend","opensesame_codename","opensesame_version","repeat_cycle","response","response_break1","response_break2","response_break3_1","response_end_screen","response_instructions_1","response_new_keyboard_response_1","response_time","response_time_break1","response_time_break2","response_time_break3_1","response_time_end_screen","response_time_instructions_1","response_time_new_keyboard_response_1","round_decimals","sampler_backend","sound_buf_size","sound_channels","sound_freq","sound_sample_size","start","subject_nr","subject_parity","targ_type","target","time_BA_m21","time_ITI","time_blank_screen","time_blink_screen","time_block1","time_break1","time_break2","time_break3_1","time_canvas","time_correct_trigger","time_def_chain","time_end_screen","time_fixation_1","time_getting_started","time_inc_counter","time_incorrect_trigger","time_instructions_1","time_logger","time_logscript","time_new_inline_script","time_new_keyboard_response_1","time_reset_counter_prep","time_reset_counter_run","time_responsescreen","time_sequence","time_start_trigger","time_target_present","time_word_trigger","title","total_correct","total_response_time","total_responses","uniform_coordinates","width","word_trig"
"250","0","0","995","995","black","no","xpyriment","legacy","legacy","0","201","NA","uniform","55905","1000","0.0178874877024","0","undefined","0","0","0","0","0","0","0","0","0","NA","0","0","0","0","NA","0","0","0","0","NA","0","NA","0","0","0","0","0","0","0","0","1","/","05/02/19 12:35:02","The main experiment item","yes","FIN__BA__M21__7%3A10%3A17.osexp","C:\Users\ERP Testing Room\Desktop\Joanna\morph21","no","mono","no","18","no","white","no","yes","1080","legacy","0","0","C:/Users/ERP Testing Room/Desktop/Joanna/morph21/subject-177.csv","xpyriment","Kafkaesque Koffka","3.2.5","0","None","NA","NA","NA","NA","space","None","995","NA","NA","NA","NA","77025","995","2","legacy","1024","2","48000","-16","BA_m21","177","odd","CW_S","GRIMLY","1904","81794","80119","NA","78940","NA","NA","NA","NA","NA","80616","NA","79612","NA","79539","81789","1915","82044","NA","NA","80794","1904","1904","81186","79539","1904","80794","82044","morph21_Oliver/Morris","0","995","1","yes","1280","31"
"300","50","50","869","869","black","no","xpyriment","legacy","legacy","0","208","NA","uniform","61185","1000","0.0163438751328","1","undefined","1","0","1","1","1","0","1","1","1","NA","1","1","0","1","NA","1","1","0","1","NA","1","NA","1","0","0","1","1","0","1","1","2","z","05/02/19 12:35:02","The main experiment item","yes","FIN__BA__M21__7%3A10%3A17.osexp","C:\Users\ERP Testing Room\Desktop\Joanna\morph21","no","mono","no","18","no","white","no","yes","1080","legacy","1","1","C:/Users/ERP Testing Room/Desktop/Joanna/morph21/subject-177.csv","xpyriment","Kafkaesque Koffka","3.2.5","0","z","NA","NA","NA","NA","space","z","743","NA","NA","NA","NA","77025","743","2","legacy","1024","2","48000","-16","BA_m21","177","odd","FILL_NW","HEEM","1904","84844","83161","NA","78940","NA","NA","NA","NA","84835","83658","NA","82661","NA","82652","84835","1915","85144","NA","NA","83844","1904","1904","84236","82652","1904","83844","85144","morph21_Oliver/Morris","1","1738","2","yes","1280","27"
"200","66.6666666667","66.6666666667","777.333333333","777.333333333","black","no","xpyriment","legacy","legacy","0","201","NA","uniform","65858","1000","0.0151841841538","1","undefined","1","0","2","2","2","0","2","2","2","NA","2","2","0","2","NA","2","2","0","2","NA","2","NA","2","0","0","2","2","0","2","2","3","/","05/02/19 12:35:02","The main experiment item","yes","FIN__BA__M21__7%3A10%3A17.osexp","C:\Users\ERP Testing Room\Desktop\Joanna\morph21","no","mono","no","18","no","white","no","yes","1080","legacy","2","2","C:/Users/ERP Testing Room/Desktop/Joanna/morph21/subject-177.csv","xpyriment","Kafkaesque Koffka","3.2.5","0","/","NA","NA","NA","NA","space","/","594","NA","NA","NA","NA","77025","594","2","legacy","1024","2","48000","-16","BA_m21","177","odd","CW_S","ENJOYMENT","1904","89479","86319","87970","78940","NA","NA","NA","NA","87966","86817","NA","85819","NA","85815","87966","1915","89679","NA","NA","86978","1904","1904","87369","85815","1904","86978","89679","morph21_Oliver/Morris","2","2332","3","yes","1280","40"
"350","75","75","822.75","822.75","black","no","xpyriment","legacy","legacy","0","206","NA","uniform","53508","1000","0.018688794199","1","undefined","1","0","3","3","3","0","3","3","3","NA","3","3","0","3","NA","3","3","0","3","NA","3","NA","3","0","0","3","3","0","3","3","4","z","05/02/19 12:35:02","The main experiment item","yes","FIN__BA__M21__7%3A10%3A17.osexp","C:\Users\ERP Testing Room\Desktop\Joanna\morph21","no","mono","no","18","no","white","no","yes","1080","legacy","3","3","C:/Users/ERP Testing Room/Desktop/Joanna/morph21/subject-177.csv","xpyriment","Kafkaesque Koffka","3.2.5","0","z","NA","NA","NA","NA","space","z","959","NA","NA","NA","NA","77025","959","2","legacy","1024","2","48000","-16","BA_m21","177","odd","NW_L_SIMP","HABITIC","1904","92421","90754","87970","78940","NA","NA","NA","NA","92417","91251","NA","90254","NA","90249","92417","1915","92771","NA","NA","91429","1904","1904","91821","90249","1904","91429","92771","morph21_Oliver/Morris","3","3291","4","yes","1280","7"
"300","80","80","807.4","807.4","black","no","xpyriment","legacy","legacy","0","205","NA","uniform","63917","1000","0.0156452899854","1","undefined","1","0","4","4","4","0","4","4","4","NA","4","4","0","4","NA","4","4","0","4","NA","4","NA","4","0","0","4","4","0","4","4","5","z","05/02/19 12:35:02","The main experiment item","yes","FIN__BA__M21__7%3A10%3A17.osexp","C:\Users\ERP Testing Room\Desktop\Joanna\morph21","no","mono","no","18","no","white","no","yes","1080","legacy","4","4","C:/Users/ERP Testing Room/Desktop/Joanna/morph21/subject-177.csv","xpyriment","Kafkaesque Koffka","3.2.5","0","z","NA","NA","NA","NA","space","z","746","NA","NA","NA","NA","77025","746","2","legacy","1024","2","48000","-16","BA_m21","177","odd","NW_S_SIMP","HELMETOUS","1904","95746","94079","87970","78940","NA","NA","NA","NA","95741","94576","NA","93579","NA","93570","95741","1915","96046","NA","NA","94746","1904","1904","95146","93570","1904","94746","96046","morph21_Oliver/Morris","4","4037","5","yes","1280","14"
"250","66.6666666667","66.6666666667","838.166666667","838.166666667","black","no","xpyriment","legacy","legacy","0","206","NA","uniform","49804","1000","0.0200787085375","0","undefined","0","0","5","5","5","0","5","5","5","NA","5","5","0","5","NA","5","5","0","5","NA","5","NA","5","0","0","5","5","0","5","5","6","z","05/02/19 12:35:02","The main experiment item","yes","FIN__BA__M21__7%3A10%3A17.osexp","C:\Users\ERP Testing Room\Desktop\Joanna\morph21","no","mono","no","18","no","white","no","yes","1080","legacy","5","5","C:/Users/ERP Testing Room/Desktop/Joanna/morph21/subject-177.csv","xpyriment","Kafkaesque Koffka","3.2.5","0","None","NA","NA","NA","NA","space","None","992","NA","NA","NA","NA","77025","992","2","legacy","1024","2","48000","-16","BA_m21","177","odd","NW_L_SIMP","SMOOTHFUL","1904","100454","97246","98946","78940","NA","NA","NA","NA","95741","97743","NA","96746","NA","96735","98939","1915","100704","NA","NA","97946","1904","1904","98338","96735","1904","97946","100704","morph21_Oliver/Morris","4","5029","6","yes","1280","19"
"350","71.4285714286","71.4285714286","813.285714286","813.285714286","black","no","xpyriment","legacy","legacy","0","202","NA","uniform","65485","1000","0.0152706726731","1","undefined","1","0","6","6","6","0","6","6","6","NA","6","6","0","6","NA","6","6","0","6","NA","6","NA","6","0","0","6","6","0","6","6","7","/","05/02/19 12:35:02","The main experiment item","yes","FIN__BA__M21__7%3A10%3A17.osexp","C:\Users\ERP Testing Room\Desktop\Joanna\morph21","no","mono","no","18","no","white","no","yes","1080","legacy","6","6","C:/Users/ERP Testing Room/Desktop/Joanna/morph21/subject-177.csv","xpyriment","Kafkaesque Koffka","3.2.5","0","/","NA","NA","NA","NA","space","/","664","NA","NA","NA","NA","77025","664","2","legacy","1024","2","48000","-16","BA_m21","177","odd","CW_L","BOMBER","1904","103563","101888","98946","78940","NA","NA","NA","NA","103553","102385","NA","101388","NA","101381","103553","1915","103913","NA","NA","102563","1904","1904","102954","101381","1904","102563","103913","morph21_Oliver/Morris","5","5693","7","yes","1280","7"
"350","75","75","826.125","826.125","black","no","xpyriment","legacy","legacy","0","205","NA","uniform","58767","1000","0.017016352715","1","undefined","1","0","7","7","7","0","7","7","7","NA","7","7","0","7","NA","7","7","0","7","NA","7","NA","7","0","0","7","7","0","7","7","8","z","05/02/19 12:35:02","The main experiment item","yes","FIN__BA__M21__7%3A10%3A17.osexp","C:\Users\ERP Testing Room\Desktop\Joanna\morph21","no","mono","no","18","no","white","no","yes","1080","legacy","7","7","C:/Users/ERP Testing Room/Desktop/Joanna/morph21/subject-177.csv","xpyriment","Kafkaesque Koffka","3.2.5","0","z","NA","NA","NA","NA","space","z","916","NA","NA","NA","NA","77025","916","2","legacy","1024","2","48000","-16","BA_m21","177","odd","NW_S_SIMP","BASKORY","1904","106872","105181","98946","78940","NA","NA","NA","NA","106867","105678","NA","104680","NA","104669","106867","1915","107222","NA","NA","105872","1904","1904","106272","104669","1904","105872","107222","morph21_Oliver/Morris","6","6609","8","yes","1280","10"
"200","66.6666666667","66.6666666667","844.888888889","844.888888889","black","no","xpyriment","legacy","legacy","0","208","NA","uniform","56150","1000","0.0178094390027","0","undefined","0","0","8","8","8","0","8","8","8","NA","8","8","0","8","NA","8","8","0","8","NA","8","NA","8","0","0","8","8","0","8","8","9","z","05/02/19 12:35:02","The main experiment item","yes","FIN__BA__M21__7%3A10%3A17.osexp","C:\Users\ERP Testing Room\Desktop\Joanna\morph21","no","mono","no","18","no","white","no","yes","1080","legacy","8","8","C:/Users/ERP Testing Room/Desktop/Joanna/morph21/subject-177.csv","xpyriment","Kafkaesque Koffka","3.2.5","0","None","NA","NA","NA","NA","space","None","995","NA","NA","NA","NA","77025","995","2","legacy","1024","2","48000","-16","BA_m21","177","odd","FILL_NW","CINDS","1904","111556","108389","110047","78940","NA","NA","NA","NA","106867","108886","NA","107889","NA","107882","110042","1915","111756","NA","NA","109047","1904","1904","109439","107882","1904","109047","111756","morph21_Oliver/Morris","6","7604","9","yes","1280","6"
"400","60","60","859.7","859.7","black","no","xpyriment","legacy","legacy","0","205","NA","uniform","55051","1000","0.0181649742966","0","undefined","0","0","9","9","9","0","9","9","9","NA","9","9","0","9","NA","9","9","0","9","NA","9","NA","9","0","0","9","9","0","9","9","10","z","05/02/19 12:35:02","The main experiment item","yes","FIN__BA__M21__7%3A10%3A17.osexp","C:\Users\ERP Testing Room\Desktop\Joanna\morph21","no","mono","no","18","no","white","no","yes","1080","legacy","9","9","C:/Users/ERP Testing Room/Desktop/Joanna/morph21/subject-177.csv","xpyriment","Kafkaesque Koffka","3.2.5","0","None","NA","NA","NA","NA","space","None","993","NA","NA","NA","NA","77025","993","2","legacy","1024","2","48000","-16","BA_m21","177","odd","NW_S_SIMP","RAMPIZE","1904","114539","112889","110047","78940","NA","NA","NA","NA","106867","113386","NA","112389","NA","112381","114532","1915","114939","NA","NA","113539","1904","1904","113931","112381","1904","113539","114939","morph21_Oliver/Morris","6","8597","10","yes","1280","6"
"350","63.6363636364","63.6363636364","854.909090909","854.909090909","black","no","xpyriment","legacy","legacy","0","207","NA","uniform","59560","1000","0.0167897918066","1","undefined","1","0","10","10","10","0","10","10","10","NA","10","10","0","10","NA","10","10","0","10","NA","10","NA","10","0","0","10","10","0","10","10","11","/","05/02/19 12:35:02","The main experiment item","yes","FIN__BA__M21__7%3A10%3A17.osexp","C:\Users\ERP Testing Room\Desktop\Joanna\morph21","no","mono","no","18","no","white","no","yes","1080","legacy","10","10","C:/Users/ERP Testing Room/Desktop/Joanna/morph21/subject-177.csv","xpyriment","Kafkaesque Koffka","3.2.5","0","/","NA","NA","NA","NA","space","/","807","NA","NA","NA","NA","77025","807","2","legacy","1024","2","48000","-16","BA_m21","177","odd","FILL_W","GLOOM","1904","117756","116106","110047","78940","NA","NA","NA","NA","117753","116603","NA","115606","NA","115602","117753","1915","118106","NA","NA","116764","1904","1904","117156","115602","1904","116764","118106","morph21_Oliver/Morris","7","9404","11","yes","1280","14"
"300","66.6666666667","66.6666666667","845.583333333","845.583333333","black","no","xpyriment","legacy","legacy","0","201","NA","uniform","54972","1000","0.0181910790948","1","undefined","1","0","11","11","11","0","11","11","11","NA","11","11","0","11","NA","11","11","0","11","NA","11","NA","11","0","0","11","11","0","11","11","12","/","05/02/19 12:35:02","The main experiment item","yes","FIN__BA__M21__7%3A10%3A17.osexp","C:\Users\ERP Testing Room\Desktop\Joanna\morph21","no","mono","no","18","no","white","no","yes","1080","legacy","11","11","C:/Users/ERP Testing Room/Desktop/Joanna/morph21/subject-177.csv","xpyriment","Kafkaesque Koffka","3.2.5","0","/","NA","NA","NA","NA","space","/","743","NA","NA","NA","NA","77025","743","2","legacy","1024","2","48000","-16","BA_m21","177","odd","CW_S","DESTROYER","1904","122449","119248","120940","78940","NA","NA","NA","NA","120929","119745","NA","118748","NA","118739","120929","1915","122749","NA","NA","119940","1904","1904","120331","118739","1904","119940","122749","morph21_Oliver/Morris","8","10147","12","yes","1280","14"
"250","61.5384615385","61.5384615385","856.769230769","856.769230769","black","no","xpyriment","legacy","legacy","0","208","NA","uniform","51684","1000","0.0193483476511","0","undefined","0","0","12","12","12","0","12","12","12","NA","12","12","0","12","NA","12","12","0","12","NA","12","NA","12","0","0","12","12","0","12","12","13","z","05/02/19 12:35:02","The main experiment item","yes","FIN__BA__M21__7%3A10%3A17.osexp","C:\Users\ERP Testing Room\Desktop\Joanna\morph21","no","mono","no","18","no","white","no","yes","1080","legacy","12","12","C:/Users/ERP Testing Room/Desktop/Joanna/morph21/subject-177.csv","xpyriment","Kafkaesque Koffka","3.2.5","0","None","NA","NA","NA","NA","space","None","991","NA","NA","NA","NA","77025","991","2","legacy","1024","2","48000","-16","BA_m21","177","odd","FILL_NW","DOWED","1904","125641","123966","120940","78940","NA","NA","NA","NA","120929","124463","NA","123466","NA","123455","125632","1915","125891","NA","NA","124641","1904","1904","125032","123455","1904","124641","125891","morph21_Oliver/Morris","8","11138","13","yes","1280","16"
"200","64.2857142857","64.2857142857","865.428571429","865.428571429","black","no","xpyriment","legacy","legacy","0","203","NA","uniform","51874","1000","0.0192774800478","1","undefined","1","0","13","13","13","0","13","13","13","NA","13","13","0","13","NA","13","13","0","13","NA","13","NA","13","0","0","13","13","0","13","13","14","z","05/02/19 12:35:02","The main experiment item","yes","FIN__BA__M21__7%3A10%3A17.osexp","C:\Users\ERP Testing Room\Desktop\Joanna\morph21","no","mono","no","18","no","white","no","yes","1080","legacy","13","13","C:/Users/ERP Testing Room/Desktop/Joanna/morph21/subject-177.csv","xpyriment","Kafkaesque Koffka","3.2.5","0","z","NA","NA","NA","NA","space","z","978","NA","NA","NA","NA","77025","978","2","legacy","1024","2","48000","-16","BA_m21","177","odd","NW_S_COMP","PILLIME","1904","128658","127008","120940","78940","NA","NA","NA","NA","128652","127505","NA","126508","NA","126503","128652","1915","128858","NA","NA","127658","1904","1904","128049","126503","1904","127658","128858","morph21_Oliver/Morris","9","12116","14","yes","1280","13"
"300","66.6666666667","66.6666666667","861.066666667","861.066666667","black","no","xpyriment","legacy","legacy","0","202","NA","uniform","57360","1000","0.0174337517434","1","undefined","1","0","14","14","14","0","14","14","14","NA","14","14","0","14","NA","14","14","0","14","NA","14","NA","14","0","0","14","14","0","14","14","15","/","05/02/19 12:35:02","The main experiment item","yes","FIN__BA__M21__7%3A10%3A17.osexp","C:\Users\ERP Testing Room\Desktop\Joanna\morph21","no","mono","no","18","no","white","no","yes","1080","legacy","14","14","C:/Users/ERP Testing Room/Desktop/Joanna/morph21/subject-177.csv","xpyriment","Kafkaesque Koffka","3.2.5","0","/","NA","NA","NA","NA","space","/","800","NA","NA","NA","NA","77025","800","2","legacy","1024","2","48000","-16","BA_m21","177","odd","CW_L","COMPOSER","1904","133216","130058","131708","78940","NA","NA","NA","NA","131703","130555","NA","129558","NA","129551","131703","1915","133516","NA","NA","130708","1904","1904","131108","129551","1904","130708","133516","morph21_Oliver/Morris","10","12916","15","yes","1280","6"
"400","68.75","68.75","850.5625","850.5625","black","no","xpyriment","legacy","legacy","0","202","NA","uniform","65544","1000","0.0152569266447","1","undefined","1","0","15","15","15","0","15","15","15","NA","15","15","0","15","NA","15","15","0","15","NA","15","NA","15","0","0","15","15","0","15","15","16","/","05/02/19 12:35:02","The main experiment item","yes","FIN__BA__M21__7%3A10%3A17.osexp","C:\Users\ERP Testing Room\Desktop\Joanna\morph21","no","mono","no","18","no","white","no","yes","1080","legacy","15","15","C:/Users/ERP Testing Room/Desktop/Joanna/morph21/subject-177.csv","xpyriment","Kafkaesque Koffka","3.2.5","0","/","NA","NA","NA","NA","space","/","693","NA","NA","NA","NA","77025","693","2","legacy","1024","2","48000","-16","BA_m21","177","odd","CW_L","LOCKER","1904","136366","134675","131708","78940","NA","NA","NA","NA","136361","135172","NA","134174","NA","134171","136361","1915","136766","NA","NA","135366","1904","1904","135766","134171","1904","135366","136766","morph21_Oliver/Morris","11","13609","16","yes","1280","8"
"400","64.7058823529","64.7058823529","850.529411765","850.529411765","black","no","xpyriment","legacy","legacy","0","205","NA","uniform","55332","1000","0.018072724644","0","undefined","0","0","16","16","16","0","16","16","16","NA","16","16","0","16","NA","16","16","0","16","NA","16","NA","16","0","0","16","16","0","16","16","17","z","05/02/19 12:35:02","The main experiment item","yes","FIN__BA__M21__7%3A10%3A17.osexp","C:\Users\ERP Testing Room\Desktop\Joanna\morph21","no","mono","no","18","no","white","no","yes","1080","legacy","16","16","C:/Users/ERP Testing Room/Desktop/Joanna/morph21/subject-177.csv","xpyriment","Kafkaesque Koffka","3.2.5","0","/","NA","NA","NA","NA","space","/","850","NA","NA","NA","NA","77025","850","2","legacy","1024","2","48000","-16","BA_m21","177","odd","NW_S_SIMP","AIDIC","1904","139633","137950","131708","78940","NA","NA","NA","NA","136361","138447","NA","137450","NA","137442","139628","1915","140033","NA","NA","138633","1904","1904","139033","137442","1904","138633","140033","morph21_Oliver/Morris","11","14459","17","yes","1280","4"
"200","66.6666666667","66.6666666667","856.111111111","856.111111111","black","no","xpyriment","legacy","legacy","0","203","NA","uniform","57135","1000","0.0175024065809","1","undefined","1","0","17","17","17","0","17","17","17","NA","17","17","0","17","NA","17","17","0","17","NA","17","NA","17","0","0","17","17","0","17","17","18","z","05/02/19 12:35:02","The main experiment item","yes","FIN__BA__M21__7%3A10%3A17.osexp","C:\Users\ERP Testing Room\Desktop\Joanna\morph21","no","mono","no","18","no","white","no","yes","1080","legacy","17","17","C:/Users/ERP Testing Room/Desktop/Joanna/morph21/subject-177.csv","xpyriment","Kafkaesque Koffka","3.2.5","0","z","NA","NA","NA","NA","space","z","951","NA","NA","NA","NA","77025","951","2","legacy","1024","2","48000","-16","BA_m21","177","odd","NW_S_COMP","ELMILT","1904","144418","141259","142909","78940","NA","NA","NA","NA","142904","141756","NA","140759","NA","140753","142904","1915","144618","NA","NA","141909","1904","1904","142309","140753","1904","141909","144618","morph21_Oliver/Morris","12","15410","18","yes","1280","10"
"200","68.4210526316","68.4210526316","851.894736842","851.894736842","black","no","xpyriment","legacy","legacy","0","201","NA","uniform","59155","1000","0.0169047417801","1","undefined","1","0","18","18","18","0","18","18","18","NA","18","18","0","18","NA","18","18","0","18","NA","18","NA","18","0","0","18","18","0","18","18","19","/","05/02/19 12:35:02","The main experiment item","yes","FIN__BA__M21__7%3A10%3A17.osexp","C:\Users\ERP Testing Room\Desktop\Joanna\morph21","no","mono","no","18","no","white","no","yes","1080","legacy","18","18","C:/Users/ERP Testing Room/Desktop/Joanna/morph21/subject-177.csv","xpyriment","Kafkaesque Koffka","3.2.5","0","/","NA","NA","NA","NA","space","/","776","NA","NA","NA","NA","77025","776","2","legacy","1024","2","48000","-16","BA_m21","177","odd","CW_S","ANGELIC","1904","147468","145818","142909","78940","NA","NA","NA","NA","147458","146315","NA","145318","NA","145312","147458","1915","147668","NA","NA","146468","1904","1904","146859","145312","1904","146468","147668","morph21_Oliver/Morris","13","16186","19","yes","1280","25"
"400","70","70","848.1","848.1","black","no","xpyriment","legacy","legacy","0","207","NA","uniform","55161","1000","0.0181287503852","1","undefined","1","0","19","19","19","0","19","19","19","NA","19","19","0","19","NA","19","19","0","19","NA","19","NA","19","0","0","19","19","0","19","19","20","/","05/02/19 12:35:02","The main experiment item","yes","FIN__BA__M21__7%3A10%3A17.osexp","C:\Users\ERP Testing Room\Desktop\Joanna\morph21","no","mono","no","18","no","white","no","yes","1080","legacy","19","19","C:/Users/ERP Testing Room/Desktop/Joanna/morph21/subject-177.csv","xpyriment","Kafkaesque Koffka","3.2.5","0","/","NA","NA","NA","NA","space","/","776","NA","NA","NA","NA","77025","776","2","legacy","1024","2","48000","-16","BA_m21","177","odd","FILL_W","CEASE","1904","150476","148734","142909","78940","NA","NA","NA","NA","150468","149232","NA","148234","NA","148223","150468","1915","150876","NA","NA","149476","1904","1904","149868","148223","1904","149476","150876","morph21_Oliver/Morris","14","16962","20","yes","1280","18"
"400","66.6666666667","66.6666666667","855","855","black","no","xpyriment","legacy","legacy","0","202","NA","uniform","54431","1000","0.0183718836692","0","undefined","0","0","20","20","20","0","20","20","20","NA","20","20","0","20","NA","20","20","0","20","NA","20","NA","20","0","0","20","20","0","20","20","21","/","05/02/19 12:35:02","The main experiment item","yes","FIN__BA__M21__7%3A10%3A17.osexp","C:\Users\ERP Testing Room\Desktop\Joanna\morph21","no","mono","no","18","no","white","no","yes","1080","legacy","20","20","C:/Users/ERP Testing Room/Desktop/Joanna/morph21/subject-177.csv","xpyriment","Kafkaesque Koffka","3.2.5","0","None","NA","NA","NA","NA","space","None","993","NA","NA","NA","NA","77025","993","2","legacy","1024","2","48000","-16","BA_m21","177","odd","CW_L","SPELLER","1904","155210","152051","153701","78940","NA","NA","NA","NA","150468","152548","NA","151551","NA","151542","153694","1915","155610","NA","NA","152701","1904","1904","153093","151542","1904","152701","155610","morph21_Oliver/Morris","14","17955","21","yes","1280","3"
"400","68.1818181818","68.1818181818","860.636363636","860.636363636","black","no","xpyriment","legacy","legacy","0","206","NA","uniform","52871","1000","0.0189139603942","1","undefined","1","0","21","21","21","0","21","21","21","NA","21","21","0","21","NA","21","21","0","21","NA","21","NA","21","0","0","21","21","0","21","21","22","z","05/02/19 12:35:02","The main experiment item","yes","FIN__BA__M21__7%3A10%3A17.osexp","C:\Users\ERP Testing Room\Desktop\Joanna\morph21","no","mono","no","18","no","white","no","yes","1080","legacy","21","21","C:/Users/ERP Testing Room/Desktop/Joanna/morph21/subject-177.csv","xpyriment","Kafkaesque Koffka","3.2.5","0","z","NA","NA","NA","NA","space","z","979","NA","NA","NA","NA","77025","979","2","legacy","1024","2","48000","-16","BA_m21","177","odd","NW_L_SIMP","BOGARY","1904","158378","156710","153701","78940","NA","NA","NA","NA","158369","157207","NA","156210","NA","156203","158369","1915","158778","NA","NA","157377","1904","1904","157769","156203","1904","157377","158778","morph21_Oliver/Morris","15","18934","22","yes","1280","2"
"300","69.5652173913","69.5652173913","855.043478261","855.043478261","black","no","xpyriment","legacy","legacy","0","207","NA","uniform","67500","1000","0.0148148148148","1","undefined","1","0","22","22","22","0","22","22","22","NA","22","22","0","22","NA","22","22","0","22","NA","22","NA","22","0","0","22","22","0","22","22","23","/","05/02/19 12:35:02","The main experiment item","yes","FIN__BA__M21__7%3A10%3A17.osexp","C:\Users\ERP Testing Room\Desktop\Joanna\morph21","no","mono","no","18","no","white","no","yes","1080","legacy","22","22","C:/Users/ERP Testing Room/Desktop/Joanna/morph21/subject-177.csv","xpyriment","Kafkaesque Koffka","3.2.5","0","/","NA","NA","NA","NA","space","/","732","NA","NA","NA","NA","77025","732","2","legacy","1024","2","48000","-16","BA_m21","177","odd","FILL_W","BOX","1904","161736","160069","153701","78940","NA","NA","NA","NA","161731","160566","NA","159569","NA","159560","161731","1915","162036","NA","NA","160736","1904","1904","161136","159560","1904","160736","162036","morph21_Oliver/Morris","16","19666","23","yes","1280","42"
"400","70.8333333333","70.8333333333","860.083333333","860.083333333","black","no","xpyriment","legacy","legacy","0","208","NA","uniform","56579","1000","0.0176744021633","1","undefined","1","0","23","23","23","0","23","23","23","NA","23","23","0","23","NA","23","23","0","23","NA","23","NA","23","0","0","23","23","0","23","23","24","z","05/02/19 12:35:02","The main experiment item","yes","FIN__BA__M21__7%3A10%3A17.osexp","C:\Users\ERP Testing Room\Desktop\Joanna\morph21","no","mono","no","18","no","white","no","yes","1080","legacy","23","23","C:/Users/ERP Testing Room/Desktop/Joanna/morph21/subject-177.csv","xpyriment","Kafkaesque Koffka","3.2.5","0","z","NA","NA","NA","NA","space","z","976","NA","NA","NA","NA","77025","976","2","legacy","1024","2","48000","-16","BA_m21","177","odd","FILL_NW","HEND","1904","166336","163161","164828","78940","NA","NA","NA","NA","164819","163658","NA","162661","NA","162658","164819","1915","166736","NA","NA","163828","1904","1904","164219","162658","1904","163828","166736","morph21_Oliver/Morris","17","20642","24","yes","1280","28"
"250","72","72","861.84","861.84","black","no","xpyriment","legacy","legacy","0","204","NA","uniform","56155","1000","0.0178078532633","1","undefined","1","0","24","24","24","0","24","24","24","NA","24","24","0","24","NA","24","24","0","24","NA","24","NA","24","0","0","24","24","0","24","24","25","z","05/02/19 12:35:02","The main experiment item","yes","FIN__BA__M21__7%3A10%3A17.osexp","C:\Users\ERP Testing Room\Desktop\Joanna\morph21","no","mono","no","18","no","white","no","yes","1080","legacy","24","24","C:/Users/ERP Testing Room/Desktop/Joanna/morph21/subject-177.csv","xpyriment","Kafkaesque Koffka","3.2.5","0","z","NA","NA","NA","NA","space","z","904","NA","NA","NA","NA","77025","904","2","legacy","1024","2","48000","-16","BA_m21","177","odd","NW_L_COMP","MUDLA","1904","169595","167911","164828","78940","NA","NA","NA","NA","169585","168408","NA","167411","NA","167403","169585","1915","169845","NA","NA","168595","1904","1904","168986","167403","1904","168595","169845","morph21_Oliver/Morris","18","21546","25","yes","1280","12"
"350","73.0769230769","73.0769230769","858.576923077","858.576923077","black","no","xpyriment","legacy","legacy","0","208","NA","uniform","61719","1000","0.0162024660153","1","undefined","1","0","25","25","25","0","25","25","25","NA","25","25","0","25","NA","25","25","0","25","NA","25","NA","25","0","0","25","25","0","25","25","26","z","05/02/19 12:35:02","The main experiment item","yes","FIN__BA__M21__7%3A10%3A17.osexp","C:\Users\ERP Testing Room\Desktop\Joanna\morph21","no","mono","no","18","no","white","no","yes","1080","legacy","25","25","C:/Users/ERP Testing Room/Desktop/Joanna/morph21/subject-177.csv","xpyriment","Kafkaesque Koffka","3.2.5","0","z","NA","NA","NA","NA","space","z","777","NA","NA","NA","NA","77025","777","2","legacy","1024","2","48000","-16","BA_m21","177","odd","FILL_NW","JADS","1904","172770","171078","164828","78940","NA","NA","NA","NA","172760","171575","NA","170578","NA","170574","172760","1915","173120","NA","NA","171770","1904","1904","172161","170574","1904","171770","173120","morph21_Oliver/Morris","19","22323","26","yes","1280","31"
"400","74.0740740741","74.0740740741","854.777777778","854.777777778","black","no","xpyriment","legacy","legacy","0","202","NA","uniform","60807","1000","0.0164454750275","1","undefined","1","0","26","26","26","0","26","26","26","NA","26","26","0","26","NA","26","26","0","26","NA","26","NA","26","0","0","26","26","0","26","26","27","/","05/02/19 12:35:02","The main experiment item","yes","FIN__BA__M21__7%3A10%3A17.osexp","C:\Users\ERP Testing Room\Desktop\Joanna\morph21","no","mono","no","18","no","white","no","yes","1080","legacy","26","26","C:/Users/ERP Testing Room/Desktop/Joanna/morph21/subject-177.csv","xpyriment","Kafkaesque Koffka","3.2.5","0","/","NA","NA","NA","NA","space","/","756","NA","NA","NA","NA","77025","756","2","legacy","1024","2","48000","-16","BA_m21","177","odd","CW_L","STYLISH","1904","177396","174220","175888","78940","NA","NA","NA","NA","175884","174717","NA","173720","NA","173716","175884","1915","177796","NA","NA","174896","1904","1904","175288","173716","1904","174896","177796","morph21_Oliver/Morris","20","23079","27","yes","1280","29"
"200","75","75","850","850","black","no","xpyriment","legacy","legacy","0","202","NA","uniform","59890","1000","0.0166972783436","1","undefined","1","0","27","27","27","0","27","27","27","NA","27","27","0","27","NA","27","27","0","27","NA","27","NA","27","0","0","27","27","0","27","27","28","/","05/02/19 12:35:02","The main experiment item","yes","FIN__BA__M21__7%3A10%3A17.osexp","C:\Users\ERP Testing Room\Desktop\Joanna\morph21","no","mono","no","18","no","white","no","yes","1080","legacy","27","27","C:/Users/ERP Testing Room/Desktop/Joanna/morph21/subject-177.csv","xpyriment","Kafkaesque Koffka","3.2.5","0","/","NA","NA","NA","NA","space","/","721","NA","NA","NA","NA","77025","721","2","legacy","1024","2","48000","-16","BA_m21","177","odd","CW_L","SHAMEFUL","1904","180579","178913","175888","78940","NA","NA","NA","NA","180571","179410","NA","178413","NA","178405","180571","1915","180780","NA","NA","179579","1904","1904","179971","178405","1904","179579","180780","morph21_Oliver/Morris","21","23800","28","yes","1280","19"
"350","75.8620689655","75.8620689655","848.724137931","848.724137931","black","no","xpyriment","legacy","legacy","0","202","NA","uniform","60807","1000","0.0164454750275","1","undefined","1","0","28","28","28","0","28","28","28","NA","28","28","0","28","NA","28","28","0","28","NA","28","NA","28","0","0","28","28","0","28","28","29","/","05/02/19 12:35:02","The main experiment item","yes","FIN__BA__M21__7%3A10%3A17.osexp","C:\Users\ERP Testing Room\Desktop\Joanna\morph21","no","mono","no","18","no","white","no","yes","1080","legacy","28","28","C:/Users/ERP Testing Room/Desktop/Joanna/morph21/subject-177.csv","xpyriment","Kafkaesque Koffka","3.2.5","0","/","NA","NA","NA","NA","space","/","813","NA","NA","NA","NA","77025","813","2","legacy","1024","2","48000","-16","BA_m21","177","odd","CW_L","HUNTER","1904","183663","181988","175888","78940","NA","NA","NA","NA","183654","182485","NA","181488","NA","181480","183654","1915","184013","NA","NA","182663","1904","1904","183055","181480","1904","182663","184013","morph21_Oliver/Morris","22","24613","29","yes","1280","10"
"300","76.6666666667","76.6666666667","850.233333333","850.233333333","black","no","xpyriment","legacy","legacy","0","208","NA","uniform","53671","1000","0.0186320359226","1","undefined","1","0","29","29","29","0","29","29","29","NA","29","29","0","29","NA","29","29","0","29","NA","29","NA","29","0","0","29","29","0","29","29","30","z","05/02/19 12:35:02","The main experiment item","yes","FIN__BA__M21__7%3A10%3A17.osexp","C:\Users\ERP Testing Room\Desktop\Joanna\morph21","no","mono","no","18","no","white","no","yes","1080","legacy","29","29","C:/Users/ERP Testing Room/Desktop/Joanna/morph21/subject-177.csv","xpyriment","Kafkaesque Koffka","3.2.5","0","z","NA","NA","NA","NA","space","z","894","NA","NA","NA","NA","77025","894","2","legacy","1024","2","48000","-16","BA_m21","177","odd","FILL_NW","VOGS","1904","188330","185163","186821","78940","NA","NA","NA","NA","186813","185660","NA","184663","NA","184657","186813","1915","188630","NA","NA","185821","1904","1904","186213","184657","1904","185821","188630","morph21_Oliver/Morris","23","25507","30","yes","1280","47"
"350","77.4193548387","77.4193548387","847.225806452","847.225806452","black","no","xpyriment","legacy","legacy","0","202","NA","uniform","63738","1000","0.0156892277762","1","undefined","1","0","30","30","30","0","30","30","30","NA","30","30","0","30","NA","30","30","0","30","NA","30","NA","30","0","0","30","30","0","30","30","31","/","05/02/19 12:35:02","The main experiment item","yes","FIN__BA__M21__7%3A10%3A17.osexp","C:\Users\ERP Testing Room\Desktop\Joanna\morph21","no","mono","no","18","no","white","no","yes","1080","legacy","30","30","C:/Users/ERP Testing Room/Desktop/Joanna/morph21/subject-177.csv","xpyriment","Kafkaesque Koffka","3.2.5","0","/","NA","NA","NA","NA","space","/","757","NA","NA","NA","NA","77025","757","2","legacy","1024","2","48000","-16","BA_m21","177","odd","CW_L","KICKING","1904","191438","189780","186821","78940","NA","NA","NA","NA","191431","190277","NA","189272","NA","189261","191431","1915","191788","NA","NA","190438","1904","1904","190830","189261","1904","190438","191788","morph21_Oliver/Morris","24","26264","31","yes","1280","23"
"300","78.125","78.125","844.46875","844.46875","black","no","xpyriment","legacy","legacy","0","207","NA","uniform","61069","1000","0.0163749201723","1","undefined","1","0","31","31","31","0","31","31","31","NA","31","31","0","31","NA","31","31","0","31","NA","31","NA","31","0","0","31","31","0","31","31","32","/","05/02/19 12:35:02","The main experiment item","yes","FIN__BA__M21__7%3A10%3A17.osexp","C:\Users\ERP Testing Room\Desktop\Joanna\morph21","no","mono","no","18","no","white","no","yes","1080","legacy","31","31","C:/Users/ERP Testing Room/Desktop/Joanna/morph21/subject-177.csv","xpyriment","Kafkaesque Koffka","3.2.5","0","/","NA","NA","NA","NA","space","/","759","NA","NA","NA","NA","77025","759","2","legacy","1024","2","48000","-16","BA_m21","177","odd","FILL_W","IRON","1904","194589","192906","186821","78940","NA","NA","NA","NA","194582","193403","NA","192406","NA","192403","194582","1915","194889","NA","NA","193589","1904","1904","193981","192403","1904","193589","194889","morph21_Oliver/Morris","25","27023","32","yes","1280","33"
"300","78.7878787879","78.7878787879","841.666666667","841.666666667","black","no","xpyriment","legacy","legacy","0","207","NA","uniform","61951","1000","0.0161417894788","1","undefined","1","0","32","32","32","0","32","32","32","NA","32","32","0","32","NA","32","32","0","32","NA","32","NA","32","0","0","32","32","0","32","32","33","/","05/02/19 12:35:02","The main experiment item","yes","FIN__BA__M21__7%3A10%3A17.osexp","C:\Users\ERP Testing Room\Desktop\Joanna\morph21","no","mono","no","18","no","white","no","yes","1080","legacy","32","32","C:/Users/ERP Testing Room/Desktop/Joanna/morph21/subject-177.csv","xpyriment","Kafkaesque Koffka","3.2.5","0","/","NA","NA","NA","NA","space","/","752","NA","NA","NA","NA","77025","752","2","legacy","1024","2","48000","-16","BA_m21","177","odd","FILL_W","BALD","1904","199265","196065","197756","78940","NA","NA","NA","NA","197746","196562","NA","195564","NA","195558","197746","1915","199565","NA","NA","196756","1904","1904","197148","195558","1904","196756","199565","morph21_Oliver/Morris","26","27775","33","yes","1280","3"
"250","79.4117647059","79.4117647059","840.588235294","840.588235294","black","no","xpyriment","legacy","legacy","0","202","NA","uniform","53368","1000","0.0187378204167","1","undefined","1","0","33","33","33","0","33","33","33","NA","33","33","0","33","NA","33","33","0","33","NA","33","NA","33","0","0","33","33","0","33","33","34","/","05/02/19 12:35:02","The main experiment item","yes","FIN__BA__M21__7%3A10%3A17.osexp","C:\Users\ERP Testing Room\Desktop\Joanna\morph21","no","mono","no","18","no","white","no","yes","1080","legacy","33","33","C:/Users/ERP Testing Room/Desktop/Joanna/morph21/subject-177.csv","xpyriment","Kafkaesque Koffka","3.2.5","0","/","NA","NA","NA","NA","space","/","805","NA","NA","NA","NA","77025","805","2","legacy","1024","2","48000","-16","BA_m21","177","odd","CW_L","DANCER","1904","202431","200723","197756","78940","NA","NA","NA","NA","202422","201220","NA","200223","NA","200219","202422","1915","202682","NA","NA","201431","1904","1904","201823","200219","1904","201431","202682","morph21_Oliver/Morris","27","28580","34","yes","1280","11"
"200","80","80","841.4","841.4","black","no","xpyriment","legacy","legacy","0","208","NA","uniform","55665","1000","0.0179646097189","1","undefined","1","0","34","34","34","0","34","34","34","NA","34","34","0","34","NA","34","34","0","34","NA","34","NA","34","0","0","34","34","0","34","34","35","z","05/02/19 12:35:02","The main experiment item","yes","FIN__BA__M21__7%3A10%3A17.osexp","C:\Users\ERP Testing Room\Desktop\Joanna\morph21","no","mono","no","18","no","white","no","yes","1080","legacy","34","34","C:/Users/ERP Testing Room/Desktop/Joanna/morph21/subject-177.csv","xpyriment","Kafkaesque Koffka","3.2.5","0","z","NA","NA","NA","NA","space","z","869","NA","NA","NA","NA","77025","869","2","legacy","1024","2","48000","-16","BA_m21","177","odd","FILL_NW","PUCTS","1904","205598","203915","197756","78940","NA","NA","NA","NA","205591","204412","NA","203415","NA","203405","205591","1915","205798","NA","NA","204598","1904","1904","204990","203405","1904","204598","205798","morph21_Oliver/Morris","28","29449","35","yes","1280","40"
"200","80.5555555556","80.5555555556","843","843","black","no","xpyriment","legacy","legacy","0","208","NA","uniform","57851","1000","0.0172857858983","1","undefined","1","0","35","35","35","0","35","35","35","NA","35","35","0","35","NA","35","35","0","35","NA","35","NA","35","0","0","35","35","0","35","35","36","z","05/02/19 12:35:02","The main experiment item","yes","FIN__BA__M21__7%3A10%3A17.osexp","C:\Users\ERP Testing Room\Desktop\Joanna\morph21","no","mono","no","18","no","white","no","yes","1080","legacy","35","35","C:/Users/ERP Testing Room/Desktop/Joanna/morph21/subject-177.csv","xpyriment","Kafkaesque Koffka","3.2.5","0","z","NA","NA","NA","NA","space","z","899","NA","NA","NA","NA","77025","899","2","legacy","1024","2","48000","-16","BA_m21","177","odd","FILL_NW","VUNKS","1904","210149","206957","208640","78940","NA","NA","NA","NA","208634","207454","NA","206457","NA","206446","208634","1915","210350","NA","NA","207640","1904","1904","208032","206446","1904","207640","210350","morph21_Oliver/Morris","29","30348","36","yes","1280","49"
"200","78.3783783784","78.3783783784","847.081081081","847.081081081","black","no","xpyriment","legacy","legacy","0","208","NA","uniform","55668","1000","0.0179636415894","0","undefined","0","0","36","36","36","0","36","36","36","NA","36","36","0","36","NA","36","36","0","36","NA","36","NA","36","0","0","36","36","0","36","36","37","z","05/02/19 12:35:02","The main experiment item","yes","FIN__BA__M21__7%3A10%3A17.osexp","C:\Users\ERP Testing Room\Desktop\Joanna\morph21","no","mono","no","18","no","white","no","yes","1080","legacy","36","36","C:/Users/ERP Testing Room/Desktop/Joanna/morph21/subject-177.csv","xpyriment","Kafkaesque Koffka","3.2.5","0","None","NA","NA","NA","NA","space","None","994","NA","NA","NA","NA","77025","994","2","legacy","1024","2","48000","-16","BA_m21","177","odd","FILL_NW","FALONS","1904","213233","211583","208640","78940","NA","NA","NA","NA","208634","212080","NA","211083","NA","211072","213228","1915","213433","NA","NA","212233","1904","1904","212633","211072","1904","212233","213433","morph21_Oliver/Morris","29","31342","37","yes","1280","19"
"300","78.9473684211","78.9473684211","849.526315789","849.526315789","black","no","xpyriment","legacy","legacy","0","205","NA","uniform","57837","1000","0.0172899700884","1","undefined","1","0","37","37","37","0","37","37","37","NA","37","37","0","37","NA","37","37","0","37","NA","37","NA","37","0","0","37","37","0","37","37","38","z","05/02/19 12:35:02","The main experiment item","yes","FIN__BA__M21__7%3A10%3A17.osexp","C:\Users\ERP Testing Room\Desktop\Joanna\morph21","no","mono","no","18","no","white","no","yes","1080","legacy","37","37","C:/Users/ERP Testing Room/Desktop/Joanna/morph21/subject-177.csv","xpyriment","Kafkaesque Koffka","3.2.5","0","z","NA","NA","NA","NA","space","z","940","NA","NA","NA","NA","77025","940","2","legacy","1024","2","48000","-16","BA_m21","177","odd","NW_S_SIMP","BOLTOUS","1904","216400","214700","208640","78940","NA","NA","NA","NA","216394","215197","NA","214200","NA","214188","216394","1915","216700","NA","NA","215400","1904","1904","215791","214188","1904","215400","216700","morph21_Oliver/Morris","30","32282","38","yes","1280","13"
"300","79.4871794872","79.4871794872","848.948717949","848.948717949","black","no","xpyriment","legacy","legacy","0","205","NA","uniform","59601","1000","0.0167782419758","1","undefined","1","0","38","38","38","0","38","38","38","NA","38","38","0","38","NA","38","38","0","38","NA","38","NA","38","0","0","38","38","0","38","38","39","z","05/02/19 12:35:02","The main experiment item","yes","FIN__BA__M21__7%3A10%3A17.osexp","C:\Users\ERP Testing Room\Desktop\Joanna\morph21","no","mono","no","18","no","white","no","yes","1080","legacy","38","38","C:/Users/ERP Testing Room/Desktop/Joanna/morph21/subject-177.csv","xpyriment","Kafkaesque Koffka","3.2.5","0","z","NA","NA","NA","NA","space","z","827","NA","NA","NA","NA","77025","827","2","legacy","1024","2","48000","-16","BA_m21","177","odd","NW_S_SIMP","WINKITY","1904","221133","217975","219625","78940","NA","NA","NA","NA","219620","218472","NA","217467","NA","217457","219620","1915","221433","NA","NA","218625","1904","1904","219025","217456","1904","218625","221433","morph21_Oliver/Morris","31","33109","39","yes","1280","21"
"400","80","80","846.75","846.75","black","no","xpyriment","legacy","legacy","0","202","NA","uniform","59354","1000","0.0168480641574","1","undefined","1","0","39","39","39","0","39","39","39","NA","39","39","0","39","NA","39","39","0","39","NA","39","NA","39","0","0","39","39","0","39","39","40","/","05/02/19 12:35:02","The main experiment item","yes","FIN__BA__M21__7%3A10%3A17.osexp","C:\Users\ERP Testing Room\Desktop\Joanna\morph21","no","mono","no","18","no","white","no","yes","1080","legacy","39","39","C:/Users/ERP Testing Room/Desktop/Joanna/morph21/subject-177.csv","xpyriment","Kafkaesque Koffka","3.2.5","0","/","NA","NA","NA","NA","space","/","761","NA","NA","NA","NA","77025","761","2","legacy","1024","2","48000","-16","BA_m21","177","odd","CW_L","BLINDNESS","1904","224250","222550","219625","78940","NA","NA","NA","NA","224244","223047","NA","222050","NA","222039","224244","1915","224650","NA","NA","223250","1904","1904","223642","222039","1904","223250","224650","morph21_Oliver/Morris","32","33870","40","yes","1280","40"
"350","80.487804878","80.487804878","846.097560976","846.097560976","black","no","xpyriment","legacy","legacy","0","201","NA","uniform","56565","1000","0.0176787766287","1","undefined","1","0","40","40","40","0","40","40","40","NA","40","40","0","40","NA","40","40","0","40","NA","40","NA","40","0","0","40","40","0","40","40","41","/","05/02/19 12:35:02","The main experiment item","yes","FIN__BA__M21__7%3A10%3A17.osexp","C:\Users\ERP Testing Room\Desktop\Joanna\morph21","no","mono","no","18","no","white","no","yes","1080","legacy","40","40","C:/Users/ERP Testing Room/Desktop/Joanna/morph21/subject-177.csv","xpyriment","Kafkaesque Koffka","3.2.5","0","/","NA","NA","NA","NA","space","/","820","NA","NA","NA","NA","77025","820","2","legacy","1024","2","48000","-16","BA_m21","177","odd","CW_S","DULLNESS","1904","227593","225942","219625","78940","NA","NA","NA","NA","227586","226439","NA","225442","NA","225433","227586","1915","227943","NA","NA","226592","1904","1904","226983","225433","1904","226592","227943","morph21_Oliver/Morris","33","34690","41","yes","1280","43"
"200","80.9523809524","80.9523809524","844.166666667","844.166666667","black","no","xpyriment","legacy","legacy","0","204","NA","uniform","64260","1000","0.0155617802677","1","undefined","1","0","41","41","41","0","41","41","41","NA","41","41","0","41","NA","41","41","0","41","NA","41","NA","41","0","0","41","41","0","41","41","42","z","05/02/19 12:35:02","The main experiment item","yes","FIN__BA__M21__7%3A10%3A17.osexp","C:\Users\ERP Testing Room\Desktop\Joanna\morph21","no","mono","no","18","no","white","no","yes","1080","legacy","41","41","C:/Users/ERP Testing Room/Desktop/Joanna/morph21/subject-177.csv","xpyriment","Kafkaesque Koffka","3.2.5","0","z","NA","NA","NA","NA","space","z","765","NA","NA","NA","NA","77025","765","2","legacy","1024","2","48000","-16","BA_m21","177","odd","NW_L_COMP","GASFIL","1904","232243","229076","230735","78940","NA","NA","NA","NA","230730","229573","NA","228576","NA","228564","230730","1915","232443","NA","NA","229735","1904","1904","230135","228564","1904","229735","232443","morph21_Oliver/Morris","34","35455","42","yes","1280","6"
"300","81.3953488372","81.3953488372","841.325581395","841.325581395","black","no","xpyriment","legacy","legacy","0","201","NA","uniform","61832","1000","0.0161728554794","1","undefined","1","0","42","42","42","0","42","42","42","NA","42","42","0","42","NA","42","42","0","42","NA","42","NA","42","0","0","42","42","0","42","42","43","/","05/02/19 12:35:02","The main experiment item","yes","FIN__BA__M21__7%3A10%3A17.osexp","C:\Users\ERP Testing Room\Desktop\Joanna\morph21","no","mono","no","18","no","white","no","yes","1080","legacy","42","42","C:/Users/ERP Testing Room/Desktop/Joanna/morph21/subject-177.csv","xpyriment","Kafkaesque Koffka","3.2.5","0","/","NA","NA","NA","NA","space","/","722","NA","NA","NA","NA","77025","722","2","legacy","1024","2","48000","-16","BA_m21","177","odd","CW_S","BUYER","1904","235201","233535","230735","78940","NA","NA","NA","NA","235197","234032","NA","233035","NA","233028","235197","1915","235501","NA","NA","234210","1904","1904","234601","233028","1904","234210","235501","morph21_Oliver/Morris","35","36177","43","yes","1280","21"
"250","81.8181818182","81.8181818182","839.5","839.5","black","no","xpyriment","legacy","legacy","0","204","NA","uniform","64257","1000","0.0155625068086","1","undefined","1","0","43","43","43","0","43","43","43","NA","43","43","0","43","NA","43","43","0","43","NA","43","NA","43","0","0","43","43","0","43","43","44","z","05/02/19 12:35:02","The main experiment item","yes","FIN__BA__M21__7%3A10%3A17.osexp","C:\Users\ERP Testing Room\Desktop\Joanna\morph21","no","mono","no","18","no","white","no","yes","1080","legacy","43","43","C:/Users/ERP Testing Room/Desktop/Joanna/morph21/subject-177.csv","xpyriment","Kafkaesque Koffka","3.2.5","0","z","NA","NA","NA","NA","space","z","761","NA","NA","NA","NA","77025","761","2","legacy","1024","2","48000","-16","BA_m21","177","odd","NW_L_COMP","BREAKIDY","1904","238227","236560","230735","78940","NA","NA","NA","NA","238218","237057","NA","236052","NA","236048","238218","1915","238477","NA","NA","237227","1904","1904","237618","236048","1904","237227","238477","morph21_Oliver/Morris","36","36938","44","yes","1280","23"
"350","80","80","842.822222222","842.822222222","black","no","xpyriment","legacy","legacy","0","201","NA","uniform","48285","1000","0.020710365538","0","undefined","0","0","44","44","44","0","44","44","44","NA","44","44","0","44","NA","44","44","0","44","NA","44","NA","44","0","0","44","44","0","44","44","45","/","05/02/19 12:35:02","The main experiment item","yes","FIN__BA__M21__7%3A10%3A17.osexp","C:\Users\ERP Testing Room\Desktop\Joanna\morph21","no","mono","no","18","no","white","no","yes","1080","legacy","44","44","C:/Users/ERP Testing Room/Desktop/Joanna/morph21/subject-177.csv","xpyriment","Kafkaesque Koffka","3.2.5","0","None","NA","NA","NA","NA","space","None","989","NA","NA","NA","NA","77025","989","2","legacy","1024","2","48000","-16","BA_m21","177","odd","CW_S","LENDER","1904","242844","239677","241335","78940","NA","NA","NA","NA","238218","240174","NA","239177","NA","239172","241324","1915","243194","NA","NA","240335","1904","1904","240727","239172","1904","240335","243194","morph21_Oliver/Morris","36","37927","45","yes","1280","11"
"300","80.4347826087","80.4347826087","846.086956522","846.086956522","black","no","xpyriment","legacy","legacy","0","206","NA","uniform","51154","1000","0.019548813387","1","undefined","1","0","45","45","45","0","45","45","45","NA","45","45","0","45","NA","45","45","0","45","NA","45","NA","45","0","0","45","45","0","45","45","46","z","05/02/19 12:35:02","The main experiment item","yes","FIN__BA__M21__7%3A10%3A17.osexp","C:\Users\ERP Testing Room\Desktop\Joanna\morph21","no","mono","no","18","no","white","no","yes","1080","legacy","45","45","C:/Users/ERP Testing Room/Desktop/Joanna/morph21/subject-177.csv","xpyriment","Kafkaesque Koffka","3.2.5","0","z","NA","NA","NA","NA","space","z","993","NA","NA","NA","NA","77025","993","2","legacy","1024","2","48000","-16","BA_m21","177","odd","NW_L_SIMP","ELBOWISM","1904","246011","244360","241335","78940","NA","NA","NA","NA","246006","244857","NA","243860","NA","243855","246006","1915","246311","NA","NA","245011","1904","1904","245411","243855","1904","245011","246311","morph21_Oliver/Morris","37","38920","46","yes","1280","10"
"300","80.8510638298","80.8510638298","845.723404255","845.723404255","black","no","xpyriment","legacy","legacy","0","206","NA","uniform","59052","1000","0.0169342274605","1","undefined","1","0","46","46","46","0","46","46","46","NA","46","46","0","46","NA","46","46","0","46","NA","46","NA","46","0","0","46","46","0","46","46","47","z","05/02/19 12:35:02","The main experiment item","yes","FIN__BA__M21__7%3A10%3A17.osexp","C:\Users\ERP Testing Room\Desktop\Joanna\morph21","no","mono","no","18","no","white","no","yes","1080","legacy","46","46","C:/Users/ERP Testing Room/Desktop/Joanna/morph21/subject-177.csv","xpyriment","Kafkaesque Koffka","3.2.5","0","z","NA","NA","NA","NA","space","z","829","NA","NA","NA","NA","77025","829","2","legacy","1024","2","48000","-16","BA_m21","177","odd","NW_L_SIMP","BEGENCE","1904","249295","247586","241335","78940","NA","NA","NA","NA","249291","248084","NA","247086","NA","247076","249291","1915","249595","NA","NA","248303","1904","1904","248695","247075","1904","248303","249595","morph21_Oliver/Morris","38","39749","47","yes","1280","4"
"250","81.25","81.25","846.125","846.125","black","no","xpyriment","legacy","legacy","0","207","NA","uniform","59856","1000","0.0167067628976","1","undefined","1","0","47","47","47","0","47","47","47","NA","47","47","0","47","NA","47","47","0","47","NA","47","NA","47","0","0","47","47","0","47","47","48","/","05/02/19 12:35:02","The main experiment item","yes","FIN__BA__M21__7%3A10%3A17.osexp","C:\Users\ERP Testing Room\Desktop\Joanna\morph21","no","mono","no","18","no","white","no","yes","1080","legacy","47","47","C:/Users/ERP Testing Room/Desktop/Joanna/morph21/subject-177.csv","xpyriment","Kafkaesque Koffka","3.2.5","0","/","NA","NA","NA","NA","space","/","865","NA","NA","NA","NA","77025","865","2","legacy","1024","2","48000","-16","BA_m21","177","odd","FILL_W","PACK","1904","253903","250678","252395","78940","NA","NA","NA","NA","252385","251175","NA","250178","NA","250169","252385","1915","254153","NA","NA","251395","1904","1904","251786","250169","1904","251395","254153","morph21_Oliver/Morris","39","40614","48","yes","1280","41"
"300","81.6326530612","81.6326530612","847.959183673","847.959183673","black","no","xpyriment","legacy","legacy","0","204","NA","uniform","56133","1000","0.0178148326296","1","undefined","1","0","48","48","48","0","48","48","48","NA","48","48","0","48","NA","48","48","0","48","NA","48","NA","48","0","0","48","48","0","48","48","49","z","05/02/19 12:35:02","The main experiment item","yes","FIN__BA__M21__7%3A10%3A17.osexp","C:\Users\ERP Testing Room\Desktop\Joanna\morph21","no","mono","no","18","no","white","no","yes","1080","legacy","48","48","C:/Users/ERP Testing Room/Desktop/Joanna/morph21/subject-177.csv","xpyriment","Kafkaesque Koffka","3.2.5","0","z","NA","NA","NA","NA","space","z","936","NA","NA","NA","NA","77025","936","2","legacy","1024","2","48000","-16","BA_m21","177","odd","NW_L_COMP","EMPLOYNELS","1904","257020","255362","252395","78940","NA","NA","NA","NA","257012","255859","NA","254862","NA","254852","257012","1915","257320","NA","NA","256020","1904","1904","256412","254852","1904","256020","257320","morph21_Oliver/Morris","40","41550","49","yes","1280","21"
"400","82","82","846.6","846.6","black","no","xpyriment","legacy","legacy","0","208","NA","uniform","57626","1000","0.0173532780342","1","undefined","1","0","49","49","49","0","49","49","49","NA","49","49","0","49","NA","49","49","0","49","NA","49","NA","49","0","0","49","49","0","49","49","50","z","05/02/19 12:35:02","The main experiment item","yes","FIN__BA__M21__7%3A10%3A17.osexp","C:\Users\ERP Testing Room\Desktop\Joanna\morph21","no","mono","no","18","no","white","no","yes","1080","legacy","49","49","C:/Users/ERP Testing Room/Desktop/Joanna/morph21/subject-177.csv","xpyriment","Kafkaesque Koffka","3.2.5","0","z","NA","NA","NA","NA","space","z","780","NA","NA","NA","NA","77025","780","2","legacy","1024","2","48000","-16","BA_m21","177","odd","FILL_NW","CORG","1904","260279","258562","252395","78940","NA","NA","NA","NA","260272","259059","NA","258054","NA","258045","260272","1915","260679","NA","NA","259279","1904","1904","259670","258044","1904","259278","260679","morph21_Oliver/Morris","41","42330","50","yes","1280","7"
"400","82.3529411765","82.3529411765","843.882352941","843.882352941","black","no","xpyriment","legacy","legacy","0","206","NA","uniform","64446","1000","0.0155168668342","1","undefined","1","0","50","50","50","0","50","50","50","NA","50","50","0","50","NA","50","50","0","50","NA","50","NA","50","0","0","50","50","0","50","50","51","z","05/02/19 12:35:02","The main experiment item","yes","FIN__BA__M21__7%3A10%3A17.osexp","C:\Users\ERP Testing Room\Desktop\Joanna\morph21","no","mono","no","18","no","white","no","yes","1080","legacy","50","50","C:/Users/ERP Testing Room/Desktop/Joanna/morph21/subject-177.csv","xpyriment","Kafkaesque Koffka","3.2.5","0","z","NA","NA","NA","NA","space","z","708","NA","NA","NA","NA","77025","708","2","legacy","1024","2","48000","-16","BA_m21","177","odd","NW_L_SIMP","VALIDER","1904","265005","261812","263496","78940","NA","NA","NA","NA","263487","262309","NA","261312","NA","261308","263487","1915","265405","NA","NA","262496","1904","1904","262888","261308","1904","262496","265405","morph21_Oliver/Morris","42","43038","51","yes","1280","23"
"200","82.6923076923","82.6923076923","839.923076923","839.923076923","black","no","xpyriment","legacy","legacy","0","207","NA","uniform","69439","1000","0.0144011290485","1","undefined","1","0","51","51","51","0","51","51","51","NA","51","51","0","51","NA","51","51","0","51","NA","51","NA","51","0","0","51","51","0","51","51","52","/","05/02/19 12:35:02","The main experiment item","yes","FIN__BA__M21__7%3A10%3A17.osexp","C:\Users\ERP Testing Room\Desktop\Joanna\morph21","no","mono","no","18","no","white","no","yes","1080","legacy","51","51","C:/Users/ERP Testing Room/Desktop/Joanna/morph21/subject-177.csv","xpyriment","Kafkaesque Koffka","3.2.5","0","/","NA","NA","NA","NA","space","/","638","NA","NA","NA","NA","77025","638","2","legacy","1024","2","48000","-16","BA_m21","177","odd","FILL_W","WRECK","1904","268230","266563","263496","78940","NA","NA","NA","NA","268220","267060","NA","266063","NA","266053","268220","1915","268430","NA","NA","267230","1904","1904","267622","266053","1904","267230","268430","morph21_Oliver/Morris","43","43676","52","yes","1280","13"
"350","81.1320754717","81.1320754717","839.641509434","839.641509434","black","no","xpyriment","legacy","legacy","0","202","NA","uniform","60815","1000","0.016443311683","0","undefined","0","0","52","52","52","0","52","52","52","NA","52","52","0","52","NA","52","52","0","52","NA","52","NA","52","0","0","52","52","0","52","52","53","/","05/02/19 12:35:02","The main experiment item","yes","FIN__BA__M21__7%3A10%3A17.osexp","C:\Users\ERP Testing Room\Desktop\Joanna\morph21","no","mono","no","18","no","white","no","yes","1080","legacy","52","52","C:/Users/ERP Testing Room/Desktop/Joanna/morph21/subject-177.csv","xpyriment","Kafkaesque Koffka","3.2.5","0","z","NA","NA","NA","NA","space","z","825","NA","NA","NA","NA","77025","825","2","legacy","1024","2","48000","-16","BA_m21","177","odd","CW_L","GUARDING","1904","271347","269672","263496","78940","NA","NA","NA","NA","268220","270169","NA","269163","NA","269153","271341","1915","271697","NA","NA","270347","1904","1904","270738","269153","1904","270347","271697","morph21_Oliver/Morris","43","44501","53","yes","1280","26"
"350","81.4814814815","81.4814814815","839.444444444","839.444444444","black","no","xpyriment","legacy","legacy","0","204","NA","uniform","59698","1000","0.0167509799323","1","undefined","1","0","53","53","53","0","53","53","53","NA","53","53","0","53","NA","53","53","0","53","NA","53","NA","53","0","0","53","53","0","53","53","54","z","05/02/19 12:35:02","The main experiment item","yes","FIN__BA__M21__7%3A10%3A17.osexp","C:\Users\ERP Testing Room\Desktop\Joanna\morph21","no","mono","no","18","no","white","no","yes","1080","legacy","53","53","C:/Users/ERP Testing Room/Desktop/Joanna/morph21/subject-177.csv","xpyriment","Kafkaesque Koffka","3.2.5","0","z","NA","NA","NA","NA","space","z","829","NA","NA","NA","NA","77025","829","2","legacy","1024","2","48000","-16","BA_m21","177","odd","NW_L_COMP","AGREELA","1904","275955","272788","274447","78940","NA","NA","NA","NA","274441","273286","NA","272288","NA","272283","274441","1915","276305","NA","NA","273447","1904","1904","273839","272283","1904","273447","276305","morph21_Oliver/Morris","44","45330","54","yes","1280","24"
"200","81.8181818182","81.8181818182","838.927272727","838.927272727","black","no","xpyriment","legacy","legacy","0","207","NA","uniform","64307","1000","0.0155504066431","1","undefined","1","0","54","54","54","0","54","54","54","NA","54","54","0","54","NA","54","54","0","54","NA","54","NA","54","0","0","54","54","0","54","54","55","/","05/02/19 12:35:02","The main experiment item","yes","FIN__BA__M21__7%3A10%3A17.osexp","C:\Users\ERP Testing Room\Desktop\Joanna\morph21","no","mono","no","18","no","white","no","yes","1080","legacy","54","54","C:/Users/ERP Testing Room/Desktop/Joanna/morph21/subject-177.csv","xpyriment","Kafkaesque Koffka","3.2.5","0","/","NA","NA","NA","NA","space","/","811","NA","NA","NA","NA","77025","811","2","legacy","1024","2","48000","-16","BA_m21","177","odd","FILL_W","BRASS","1904","279072","277397","274447","78940","NA","NA","NA","NA","279064","277894","NA","276897","NA","276886","279064","1915","279272","NA","NA","278072","1904","1904","278464","276886","1904","278072","279272","morph21_Oliver/Morris","45","46141","55","yes","1280","10"
"400","80.3571428571","80.3571428571","835.767857143","835.767857143","black","no","xpyriment","legacy","legacy","0","204","NA","uniform","62975","1000","0.0158793171894","0","undefined","0","0","55","55","55","0","55","55","55","NA","55","55","0","55","NA","55","55","0","55","NA","55","NA","55","0","0","55","55","0","55","55","56","z","05/02/19 12:35:02","The main experiment item","yes","FIN__BA__M21__7%3A10%3A17.osexp","C:\Users\ERP Testing Room\Desktop\Joanna\morph21","no","mono","no","18","no","white","no","yes","1080","legacy","55","55","C:/Users/ERP Testing Room/Desktop/Joanna/morph21/subject-177.csv","xpyriment","Kafkaesque Koffka","3.2.5","0","/","NA","NA","NA","NA","space","/","662","NA","NA","NA","NA","77025","662","2","legacy","1024","2","48000","-16","BA_m21","177","odd","NW_L_COMP","BOIL","1904","282181","280498","274447","78940","NA","NA","NA","NA","279064","280995","NA","279998","NA","279990","282177","1915","282582","NA","NA","281190","1904","1904","281581","279990","1904","281190","282582","morph21_Oliver/Morris","45","46803","56","yes","1280","18"
"200","80.701754386","80.701754386","835.578947368","835.578947368","black","no","xpyriment","legacy","legacy","0","208","NA","uniform","61182","1000","0.0163446765389","1","undefined","1","0","56","56","56","0","56","56","56","NA","56","56","0","56","NA","56","56","0","56","NA","56","NA","56","0","0","56","56","0","56","56","57","z","05/02/19 12:35:02","The main experiment item","yes","FIN__BA__M21__7%3A10%3A17.osexp","C:\Users\ERP Testing Room\Desktop\Joanna\morph21","no","mono","no","18","no","white","no","yes","1080","legacy","56","56","C:/Users/ERP Testing Room/Desktop/Joanna/morph21/subject-177.csv","xpyriment","Kafkaesque Koffka","3.2.5","0","z","NA","NA","NA","NA","space","z","825","NA","NA","NA","NA","77025","825","2","legacy","1024","2","48000","-16","BA_m21","177","odd","FILL_NW","GAIRS","1904","287032","283873","285523","78940","NA","NA","NA","NA","285517","284370","NA","283373","NA","283363","285517","1915","287232","NA","NA","284523","1904","1904","284915","283363","1904","284523","287232","morph21_Oliver/Morris","46","47628","57","yes","1280","23"
"350","81.0344827586","81.0344827586","834.517241379","834.517241379","black","no","xpyriment","legacy","legacy","0","201","NA","uniform","62325","1000","0.0160449257922","1","undefined","1","0","57","57","57","0","57","57","57","NA","57","57","0","57","NA","57","57","0","57","NA","57","NA","57","0","0","57","57","0","57","57","58","/","05/02/19 12:35:02","The main experiment item","yes","FIN__BA__M21__7%3A10%3A17.osexp","C:\Users\ERP Testing Room\Desktop\Joanna\morph21","no","mono","no","18","no","white","no","yes","1080","legacy","57","57","C:/Users/ERP Testing Room/Desktop/Joanna/morph21/subject-177.csv","xpyriment","Kafkaesque Koffka","3.2.5","0","/","NA","NA","NA","NA","space","/","774","NA","NA","NA","NA","77025","774","2","legacy","1024","2","48000","-16","BA_m21","177","odd","CW_S","DENSELY","1904","289990","288340","285523","78940","NA","NA","NA","NA","289985","288837","NA","287840","NA","287834","289985","1915","290340","NA","NA","288990","1904","1904","289390","287834","1904","288990","290340","morph21_Oliver/Morris","47","48402","58","yes","1280","32"
"400","81.3559322034","81.3559322034","834.644067797","834.644067797","black","no","xpyriment","legacy","legacy","0","205","NA","uniform","60323","1000","0.0165774248628","1","undefined","1","0","58","58","58","0","58","58","58","NA","58","58","0","58","NA","58","58","0","58","NA","58","NA","58","0","0","58","58","0","58","58","59","z","05/02/19 12:35:02","The main experiment item","yes","FIN__BA__M21__7%3A10%3A17.osexp","C:\Users\ERP Testing Room\Desktop\Joanna\morph21","no","mono","no","18","no","white","no","yes","1080","legacy","58","58","C:/Users/ERP Testing Room/Desktop/Joanna/morph21/subject-177.csv","xpyriment","Kafkaesque Koffka","3.2.5","0","z","NA","NA","NA","NA","space","z","842","NA","NA","NA","NA","77025","842","2","legacy","1024","2","48000","-16","BA_m21","177","odd","NW_S_SIMP","URNIST","1904","293282","291565","285523","78940","NA","NA","NA","NA","293278","292062","NA","291065","NA","291057","293278","1915","293682","NA","NA","292290","1904","1904","292682","291057","1904","292290","293682","morph21_Oliver/Morris","48","49244","59","yes","1280","5"
"300","81.6666666667","81.6666666667","834.016666667","834.016666667","black","no","xpyriment","legacy","legacy","0","201","NA","uniform","57112","1000","0.0175094551058","1","undefined","1","0","59","59","59","0","59","59","59","NA","59","59","0","59","NA","59","59","0","59","NA","59","NA","59","0","0","59","59","0","59","59","60","/","05/02/19 12:35:02","The main experiment item","yes","FIN__BA__M21__7%3A10%3A17.osexp","C:\Users\ERP Testing Room\Desktop\Joanna\morph21","no","mono","no","18","no","white","no","yes","1080","legacy","59","59","C:/Users/ERP Testing Room/Desktop/Joanna/morph21/subject-177.csv","xpyriment","Kafkaesque Koffka","3.2.5","0","/","NA","NA","NA","NA","space","/","797","NA","NA","NA","NA","77025","797","2","legacy","1024","2","48000","-16","BA_m21","177","odd","CW_S","ATTACKER","1904","298075","294899","296565","78940","NA","NA","NA","NA","296560","295396","NA","294399","NA","294393","296560","1915","298375","NA","NA","295566","1904","1904","295957","294393","1904","295565","298375","morph21_Oliver/Morris","49","50041","60","yes","1280","20"
"300","81.9672131148","81.9672131148","832.754098361","832.754098361","black","no","xpyriment","legacy","legacy","0","207","NA","uniform","64350","1000","0.01554001554","1","undefined","1","0","60","60","60","0","60","60","60","NA","60","60","0","60","NA","60","60","0","60","NA","60","NA","60","0","0","60","60","0","60","60","61","/","05/02/19 12:35:02","The main experiment item","yes","FIN__BA__M21__7%3A10%3A17.osexp","C:\Users\ERP Testing Room\Desktop\Joanna\morph21","no","mono","no","18","no","white","no","yes","1080","legacy","60","60","C:/Users/ERP Testing Room/Desktop/Joanna/morph21/subject-177.csv","xpyriment","Kafkaesque Koffka","3.2.5","0","/","NA","NA","NA","NA","space","/","757","NA","NA","NA","NA","77025","757","2","legacy","1024","2","48000","-16","BA_m21","177","odd","FILL_W","MOURN","1904","301175","299517","296565","78940","NA","NA","NA","NA","301171","300014","NA","299017","NA","299011","301171","1915","301475","NA","NA","300175","1904","1904","300575","299011","1904","300175","301475","morph21_Oliver/Morris","50","50798","61","yes","1280","26"
"400","82.2580645161","82.2580645161","830.822580645","830.822580645","black","no","xpyriment","legacy","legacy","0","207","NA","uniform","62027","1000","0.0161220113821","1","undefined","1","0","61","61","61","0","61","61","61","NA","61","61","0","61","NA","61","61","0","61","NA","61","NA","61","0","0","61","61","0","61","61","62","/","05/02/19 12:35:02","The main experiment item","yes","FIN__BA__M21__7%3A10%3A17.osexp","C:\Users\ERP Testing Room\Desktop\Joanna\morph21","no","mono","no","18","no","white","no","yes","1080","legacy","61","61","C:/Users/ERP Testing Room/Desktop/Joanna/morph21/subject-177.csv","xpyriment","Kafkaesque Koffka","3.2.5","0","/","NA","NA","NA","NA","space","/","713","NA","NA","NA","NA","77025","713","2","legacy","1024","2","48000","-16","BA_m21","177","odd","FILL_W","STEEP","1904","304275","302617","296565","78940","NA","NA","NA","NA","304268","303114","NA","302117","NA","302111","304268","1915","304675","NA","NA","303275","1904","1904","303667","302111","1904","303275","304675","morph21_Oliver/Morris","51","51511","62","yes","1280","16"
"400","82.5396825397","82.5396825397","830.301587302","830.301587302","black","no","xpyriment","legacy","legacy","0","202","NA","uniform","55350","1000","0.0180668473351","1","undefined","1","0","62","62","62","0","62","62","62","NA","62","62","0","62","NA","62","62","0","62","NA","62","NA","62","0","0","62","62","0","62","62","63","/","05/02/19 12:35:02","The main experiment item","yes","FIN__BA__M21__7%3A10%3A17.osexp","C:\Users\ERP Testing Room\Desktop\Joanna\morph21","no","mono","no","18","no","white","no","yes","1080","legacy","62","62","C:/Users/ERP Testing Room/Desktop/Joanna/morph21/subject-177.csv","xpyriment","Kafkaesque Koffka","3.2.5","0","/","NA","NA","NA","NA","space","/","798","NA","NA","NA","NA","77025","798","2","legacy","1024","2","48000","-16","BA_m21","177","odd","CW_L","DRYNESS","1904","309050","305842","307542","78940","NA","NA","NA","NA","307539","306339","NA","305342","NA","305337","307539","1915","309451","NA","NA","306550","1904","1904","306942","305337","1904","306550","309451","morph21_Oliver/Morris","52","52309","63","yes","1280","42"
"250","82.8125","82.8125","830.609375","830.609375","black","no","xpyriment","legacy","legacy","0","207","NA","uniform","53662","1000","0.0186351608214","1","undefined","1","0","63","63","63","0","63","63","63","NA","63","63","0","63","NA","63","63","0","63","NA","63","NA","63","0","0","63","63","0","63","63","64","/","05/02/19 12:35:02","The main experiment item","yes","FIN__BA__M21__7%3A10%3A17.osexp","C:\Users\ERP Testing Room\Desktop\Joanna\morph21","no","mono","no","18","no","white","no","yes","1080","legacy","63","63","C:/Users/ERP Testing Room/Desktop/Joanna/morph21/subject-177.csv","xpyriment","Kafkaesque Koffka","3.2.5","0","/","NA","NA","NA","NA","space","/","850","NA","NA","NA","NA","77025","850","2","legacy","1024","2","48000","-16","BA_m21","177","odd","FILL_W","SPLICE","1904","312209","310542","307542","78940","NA","NA","NA","NA","312199","311039","NA","310042","NA","310037","312199","1915","312459","NA","NA","311209","1904","1904","311600","310037","1904","311209","312459","morph21_Oliver/Morris","53","53159","64","yes","1280","22"
"350","83.0769230769","83.0769230769","828.723076923","828.723076923","black","no","xpyriment","legacy","legacy","0","201","NA","uniform","55291","1000","0.0180861261326","1","undefined","1","0","64","64","64","0","64","64","64","NA","64","64","0","64","NA","64","64","0","64","NA","64","NA","64","0","0","64","64","0","64","64","65","/","05/02/19 12:35:02","The main experiment item","yes","FIN__BA__M21__7%3A10%3A17.osexp","C:\Users\ERP Testing Room\Desktop\Joanna\morph21","no","mono","no","18","no","white","no","yes","1080","legacy","64","64","C:/Users/ERP Testing Room/Desktop/Joanna/morph21/subject-177.csv","xpyriment","Kafkaesque Koffka","3.2.5","0","/","NA","NA","NA","NA","space","/","708","NA","NA","NA","NA","77025","708","2","legacy","1024","2","48000","-16","BA_m21","177","odd","CW_S","STRANGENESS","1904","315377","313692","307542","78940","NA","NA","NA","NA","315374","314189","NA","313192","NA","313186","315374","1915","315727","NA","NA","314384","1904","1904","314777","313186","1904","314384","315727","morph21_Oliver/Morris","54","53867","65","yes","1280","46"
"300","83.3333333333","83.3333333333","829.424242424","829.424242424","black","no","xpyriment","legacy","legacy","0","205","NA","uniform","55521","1000","0.0180112029682","1","undefined","1","0","65","65","65","0","65","65","65","NA","65","65","0","65","NA","65","65","0","65","NA","65","NA","65","0","0","65","65","0","65","65","66","z","05/02/19 12:35:02","The main experiment item","yes","FIN__BA__M21__7%3A10%3A17.osexp","C:\Users\ERP Testing Room\Desktop\Joanna\morph21","no","mono","no","18","no","white","no","yes","1080","legacy","65","65","C:/Users/ERP Testing Room/Desktop/Joanna/morph21/subject-177.csv","xpyriment","Kafkaesque Koffka","3.2.5","0","z","NA","NA","NA","NA","space","z","875","NA","NA","NA","NA","77025","875","2","legacy","1024","2","48000","-16","BA_m21","177","odd","NW_S_SIMP","WARNORY","1904","320085","316918","318577","78940","NA","NA","NA","NA","318571","317415","NA","316418","NA","316408","318571","1915","320385","NA","NA","317577","1904","1904","317968","316408","1904","317577","320385","morph21_Oliver/Morris","55","54742","66","yes","1280","12"
"350","83.5820895522","83.5820895522","828.701492537","828.701492537","black","no","xpyriment","legacy","legacy","0","201","NA","uniform","59048","1000","0.0169353746105","1","undefined","1","0","66","66","66","0","66","66","66","NA","66","66","0","66","NA","66","66","0","66","NA","66","NA","66","0","0","66","66","0","66","66","67","/","05/02/19 12:35:02","The main experiment item","yes","FIN__BA__M21__7%3A10%3A17.osexp","C:\Users\ERP Testing Room\Desktop\Joanna\morph21","no","mono","no","18","no","white","no","yes","1080","legacy","66","66","C:/Users/ERP Testing Room/Desktop/Joanna/morph21/subject-177.csv","xpyriment","Kafkaesque Koffka","3.2.5","0","/","NA","NA","NA","NA","space","/","781","NA","NA","NA","NA","77025","781","2","legacy","1024","2","48000","-16","BA_m21","177","odd","CW_S","BEARDED","1904","323119","321469","318577","78940","NA","NA","NA","NA","323113","321966","NA","320969","NA","320961","323113","1915","323469","NA","NA","322119","1904","1904","322510","320961","1904","322119","323469","morph21_Oliver/Morris","56","55523","67","yes","1280","8"
"300","82.3529411765","82.3529411765","826.926470588","826.926470588","black","no","xpyriment","legacy","legacy","0","206","NA","uniform","61302","1000","0.0163126814786","0","undefined","0","0","67","67","67","0","67","67","67","NA","67","67","0","67","NA","67","67","0","67","NA","67","NA","67","0","0","67","67","0","67","67","68","z","05/02/19 12:35:02","The main experiment item","yes","FIN__BA__M21__7%3A10%3A17.osexp","C:\Users\ERP Testing Room\Desktop\Joanna\morph21","no","mono","no","18","no","white","no","yes","1080","legacy","67","67","C:/Users/ERP Testing Room/Desktop/Joanna/morph21/subject-177.csv","xpyriment","Kafkaesque Koffka","3.2.5","0","/","NA","NA","NA","NA","space","/","708","NA","NA","NA","NA","77025","708","2","legacy","1024","2","48000","-16","BA_m21","177","odd","NW_L_SIMP","LONGNESS","1904","326360","324652","318577","78940","NA","NA","NA","NA","323113","325149","NA","324152","NA","324149","326350","1915","326660","NA","NA","325360","1904","1904","325752","324149","1904","325360","326660","morph21_Oliver/Morris","56","56231","68","yes","1280","17"
"300","82.6086956522","82.6086956522","827","827","black","no","xpyriment","legacy","legacy","0","203","NA","uniform","61580","1000","0.0162390386489","1","undefined","1","0","68","68","68","0","68","68","68","NA","68","68","0","68","NA","68","68","0","68","NA","68","NA","68","0","0","68","68","0","68","68","69","z","05/02/19 12:35:02","The main experiment item","yes","FIN__BA__M21__7%3A10%3A17.osexp","C:\Users\ERP Testing Room\Desktop\Joanna\morph21","no","mono","no","18","no","white","no","yes","1080","legacy","68","68","C:/Users/ERP Testing Room/Desktop/Joanna/morph21/subject-177.csv","xpyriment","Kafkaesque Koffka","3.2.5","0","z","NA","NA","NA","NA","space","z","832","NA","NA","NA","NA","77025","832","2","legacy","1024","2","48000","-16","BA_m21","177","odd","NW_S_COMP","FIGEL","1904","330944","327727","329435","78940","NA","NA","NA","NA","329429","328224","NA","327227","NA","327215","329429","1915","331244","NA","NA","328435","1904","1904","328827","327215","1904","328435","331244","morph21_Oliver/Morris","57","57063","69","yes","1280","4"
"300","81.4285714286","81.4285714286","825.271428571","825.271428571","black","no","xpyriment","legacy","legacy","0","205","NA","uniform","64993","1000","0.0153862723678","0","undefined","0","0","69","69","69","0","69","69","69","NA","69","69","0","69","NA","69","69","0","69","NA","69","NA","69","0","0","69","69","0","69","69","70","z","05/02/19 12:35:02","The main experiment item","yes","FIN__BA__M21__7%3A10%3A17.osexp","C:\Users\ERP Testing Room\Desktop\Joanna\morph21","no","mono","no","18","no","white","no","yes","1080","legacy","69","69","C:/Users/ERP Testing Room/Desktop/Joanna/morph21/subject-177.csv","xpyriment","Kafkaesque Koffka","3.2.5","0","/","NA","NA","NA","NA","space","/","706","NA","NA","NA","NA","77025","706","2","legacy","1024","2","48000","-16","BA_m21","177","odd","NW_S_SIMP","YIELDIST","1904","333978","332328","329435","78940","NA","NA","NA","NA","329429","332825","NA","331827","NA","331822","333972","1915","334278","NA","NA","332978","1904","1904","333370","331822","1904","332978","334278","morph21_Oliver/Morris","57","57769","70","yes","1280","20"
"250","81.6901408451","81.6901408451","824.535211268","824.535211268","black","no","xpyriment","legacy","legacy","0","202","NA","uniform","66524","1000","0.0150321688413","1","undefined","1","0","70","70","70","0","70","70","70","NA","70","70","0","70","NA","70","70","0","70","NA","70","NA","70","0","0","70","70","0","70","70","71","/","05/02/19 12:35:02","The main experiment item","yes","FIN__BA__M21__7%3A10%3A17.osexp","C:\Users\ERP Testing Room\Desktop\Joanna\morph21","no","mono","no","18","no","white","no","yes","1080","legacy","70","70","C:/Users/ERP Testing Room/Desktop/Joanna/morph21/subject-177.csv","xpyriment","Kafkaesque Koffka","3.2.5","0","/","NA","NA","NA","NA","space","/","773","NA","NA","NA","NA","77025","773","2","legacy","1024","2","48000","-16","BA_m21","177","odd","CW_L","PUSHER","1904","337087","335437","329435","78940","NA","NA","NA","NA","337081","335934","NA","334928","NA","334918","337081","1915","337337","NA","NA","336087","1904","1904","336478","334918","1904","336087","337337","morph21_Oliver/Morris","58","58542","71","yes","1280","13"
"400","81.9444444444","81.9444444444","823.722222222","823.722222222","black","no","xpyriment","legacy","legacy","0","201","NA","uniform","61441","1000","0.0162757767614","1","undefined","1","0","71","71","71","0","71","71","71","NA","71","71","0","71","NA","71","71","0","71","NA","71","NA","71","0","0","71","71","0","71","71","72","/","05/02/19 12:35:02","The main experiment item","yes","FIN__BA__M21__7%3A10%3A17.osexp","C:\Users\ERP Testing Room\Desktop\Joanna\morph21","no","mono","no","18","no","white","no","yes","1080","legacy","71","71","C:/Users/ERP Testing Room/Desktop/Joanna/morph21/subject-177.csv","xpyriment","Kafkaesque Koffka","3.2.5","0","/","NA","NA","NA","NA","space","/","766","NA","NA","NA","NA","77025","766","2","legacy","1024","2","48000","-16","BA_m21","177","odd","CW_S","RAIDER","1904","341754","338579","340245","78940","NA","NA","NA","NA","340241","339076","NA","338079","NA","338073","340241","1915","342154","NA","NA","339254","1904","1904","339645","338073","1904","339254","342154","morph21_Oliver/Morris","59","59308","72","yes","1280","12"
"200","80.8219178082","80.8219178082","826.082191781","826.082191781","black","no","xpyriment","legacy","legacy","0","202","NA","uniform","51867","1000","0.0192800817475","0","undefined","0","0","72","72","72","0","72","72","72","NA","72","72","0","72","NA","72","72","0","72","NA","72","NA","72","0","0","72","72","0","72","72","73","/","05/02/19 12:35:02","The main experiment item","yes","FIN__BA__M21__7%3A10%3A17.osexp","C:\Users\ERP Testing Room\Desktop\Joanna\morph21","no","mono","no","18","no","white","no","yes","1080","legacy","72","72","C:/Users/ERP Testing Room/Desktop/Joanna/morph21/subject-177.csv","xpyriment","Kafkaesque Koffka","3.2.5","0","None","NA","NA","NA","NA","space","None","996","NA","NA","NA","NA","77025","996","2","legacy","1024","2","48000","-16","BA_m21","177","odd","CW_L","BOOTLESS","1904","344945","343279","340245","78940","NA","NA","NA","NA","340241","343776","NA","342779","NA","342770","344941","1915","345146","NA","NA","343945","1904","1904","344345","342770","1904","343945","345146","morph21_Oliver/Morris","59","60304","73","yes","1280","32"
"350","81.0810810811","81.0810810811","824.635135135","824.635135135","black","no","xpyriment","legacy","legacy","0","207","NA","uniform","65681","1000","0.0152251031501","1","undefined","1","0","73","73","73","0","73","73","73","NA","73","73","0","73","NA","73","73","0","73","NA","73","NA","73","0","0","73","73","0","73","73","74","/","05/02/19 12:35:02","The main experiment item","yes","FIN__BA__M21__7%3A10%3A17.osexp","C:\Users\ERP Testing Room\Desktop\Joanna\morph21","no","mono","no","18","no","white","no","yes","1080","legacy","73","73","C:/Users/ERP Testing Room/Desktop/Joanna/morph21/subject-177.csv","xpyriment","Kafkaesque Koffka","3.2.5","0","/","NA","NA","NA","NA","space","/","719","NA","NA","NA","NA","77025","719","2","legacy","1024","2","48000","-16","BA_m21","177","odd","FILL_W","LEAK","1904","348012","346354","340245","78940","NA","NA","NA","NA","348003","346851","NA","345854","NA","345842","348003","1915","348362","NA","NA","347012","1904","1904","347404","345842","1904","347012","348362","morph21_Oliver/Morris","60","61023","74","yes","1280","9"
"300","81.3333333333","81.3333333333","825.92","825.92","black","no","xpyriment","legacy","legacy","0","208","NA","uniform","58505","1000","0.0170925561918","undefined","undefined","1","0","74","74","74","0","74","74","74","NA","74","74","0","74","NA","74","74","0","74","NA","74","NA","74","0","0","74","74","0","74","74","75","z","05/02/19 12:35:02","The main experiment item","yes","FIN__BA__M21__7%3A10%3A17.osexp","C:\Users\ERP Testing Room\Desktop\Joanna\morph21","no","mono","no","18","no","white","no","yes","1080","legacy","74","74","C:/Users/ERP Testing Room/Desktop/Joanna/morph21/subject-177.csv","xpyriment","Kafkaesque Koffka","3.2.5","0","space","space","NA","NA","NA","space","z","23128","23128","NA","NA","NA","77025","921","2","legacy","1024","2","48000","-16","BA_m21","177","odd","FILL_NW","BAFED","1904","352664","349496","351155","78940","352972","NA","NA","NA","351150","349993","NA","348987","NA","348981","351150","1915","376101","NA","NA","350155","1904","1904","350555","348981","1904","350155","352964","morph21_Oliver/Morris","61","61944","75","yes","1280","1"
"200","80.2631578947","80.2631578947","828.052631579","828.052631579","black","no","xpyriment","legacy","legacy","0","206","NA","uniform","49821","1000","0.020071857249","0","undefined","0","0","75","75","75","0","75","75","75","NA","75","75","0","75","NA","75","75","0","75","NA","75","NA","75","0","0","75","75","0","75","75","76","z","05/02/19 12:35:02","The main experiment item","yes","FIN__BA__M21__7%3A10%3A17.osexp","C:\Users\ERP Testing Room\Desktop\Joanna\morph21","no","mono","no","18","no","white","no","yes","1080","legacy","75","75","C:/Users/ERP Testing Room/Desktop/Joanna/morph21/subject-177.csv","xpyriment","Kafkaesque Koffka","3.2.5","0","None","space","NA","NA","NA","space","None","988","23128","NA","NA","NA","77025","988","2","legacy","1024","2","48000","-16","BA_m21","177","odd","NW_L_SIMP","GROWIST","1904","378874","377174","351155","78940","352972","NA","NA","NA","351150","377671","NA","376674","NA","376665","378870","1915","379074","NA","NA","377882","1904","1904","378274","376665","1904","377882","379074","morph21_Oliver/Morris","61","62932","76","yes","1280","20"
"300","79.2207792208","79.2207792208","830.155844156","830.155844156","black","no","xpyriment","legacy","legacy","0","206","NA","uniform","52364","1000","0.0190970896035","0","undefined","0","0","76","76","76","0","76","76","76","NA","76","76","0","76","NA","76","76","0","76","NA","76","NA","76","0","0","76","76","0","76","76","77","z","05/02/19 12:35:02","The main experiment item","yes","FIN__BA__M21__7%3A10%3A17.osexp","C:\Users\ERP Testing Room\Desktop\Joanna\morph21","no","mono","no","18","no","white","no","yes","1080","legacy","76","76","C:/Users/ERP Testing Room/Desktop/Joanna/morph21/subject-177.csv","xpyriment","Kafkaesque Koffka","3.2.5","0","None","space","NA","NA","NA","space","None","990","23128","NA","NA","NA","77025","990","2","legacy","1024","2","48000","-16","BA_m21","177","odd","NW_L_SIMP","BANDARY","1904","382116","380432","351155","78940","352972","NA","NA","NA","351150","380930","NA","379932","NA","379926","382106","1915","382416","NA","NA","381116","1904","1904","381507","379926","1904","381116","382416","morph21_Oliver/Morris","61","63922","77","yes","1280","3"
"200","79.4871794872","79.4871794872","832.166666667","832.166666667","black","no","xpyriment","legacy","legacy","0","205","NA","uniform","55066","1000","0.0181600261504","1","undefined","1","0","77","77","77","0","77","77","77","NA","77","77","0","77","NA","77","77","0","77","NA","77","NA","77","0","0","77","77","0","77","77","78","z","05/02/19 12:35:02","The main experiment item","yes","FIN__BA__M21__7%3A10%3A17.osexp","C:\Users\ERP Testing Room\Desktop\Joanna\morph21","no","mono","no","18","no","white","no","yes","1080","legacy","77","77","C:/Users/ERP Testing Room/Desktop/Joanna/morph21/subject-177.csv","xpyriment","Kafkaesque Koffka","3.2.5","0","z","space","NA","NA","NA","space","z","987","23128","NA","NA","NA","77025","987","2","legacy","1024","2","48000","-16","BA_m21","177","odd","NW_S_SIMP","GUMFUL","1904","386742","383566","385234","78940","352972","NA","NA","NA","385224","384063","NA","383066","NA","383055","385224","1915","386942","NA","NA","384233","1904","1904","384625","383055","1904","384233","386942","morph21_Oliver/Morris","62","64909","78","yes","1280","2"
"200","79.746835443","79.746835443","831.746835443","831.746835443","black","no","xpyriment","legacy","legacy","0","204","NA","uniform","58397","1000","0.0171241673374","1","undefined","1","0","78","78","78","0","78","78","78","NA","78","78","0","78","NA","78","78","0","78","NA","78","NA","78","0","0","78","78","0","78","78","79","z","05/02/19 12:35:02","The main experiment item","yes","FIN__BA__M21__7%3A10%3A17.osexp","C:\Users\ERP Testing Room\Desktop\Joanna\morph21","no","mono","no","18","no","white","no","yes","1080","legacy","78","78","C:/Users/ERP Testing Room/Desktop/Joanna/morph21/subject-177.csv","xpyriment","Kafkaesque Koffka","3.2.5","0","z","space","NA","NA","NA","space","z","799","23128","NA","NA","NA","77025","799","2","legacy","1024","2","48000","-16","BA_m21","177","odd","NW_L_COMP","FLIPODY","1904","389717","388050","385234","78940","352972","NA","NA","NA","389713","388548","NA","387550","NA","387540","389713","1915","389917","NA","NA","388717","1904","1904","389117","387539","1904","388717","389917","morph21_Oliver/Morris","63","65708","79","yes","1280","16"
"350","80","80","831.075","831.075","black","no","xpyriment","legacy","legacy","0","206","NA","uniform","60416","1000","0.0165519067797","1","undefined","1","0","79","79","79","0","79","79","79","NA","79","79","0","79","NA","79","79","0","79","NA","79","NA","79","0","0","79","79","0","79","79","80","z","05/02/19 12:35:02","The main experiment item","yes","FIN__BA__M21__7%3A10%3A17.osexp","C:\Users\ERP Testing Room\Desktop\Joanna\morph21","no","mono","no","18","no","white","no","yes","1080","legacy","79","79","C:/Users/ERP Testing Room/Desktop/Joanna/morph21/subject-177.csv","xpyriment","Kafkaesque Koffka","3.2.5","0","z","space","NA","NA","NA","space","z","778","23128","NA","NA","NA","77025","778","2","legacy","1024","2","48000","-16","BA_m21","177","odd","NW_L_SIMP","NUTLY","1904","392834","391142","385234","78940","352972","NA","NA","NA","392831","391639","NA","390642","NA","390637","392831","1915","393184","NA","NA","391842","1904","1904","392234","390637","1904","391842","393184","morph21_Oliver/Morris","64","66486","80","yes","1280","14"
"200","80.2469135802","80.2469135802","829.728395062","829.728395062","black","no","xpyriment","legacy","legacy","0","207","NA","uniform","64074","1000","0.0156069544589","1","undefined","1","0","80","80","80","0","80","80","80","NA","80","80","0","80","NA","80","80","0","80","NA","80","NA","80","0","0","80","80","0","80","80","81","/","05/02/19 12:35:02","The main experiment item","yes","FIN__BA__M21__7%3A10%3A17.osexp","C:\Users\ERP Testing Room\Desktop\Joanna\morph21","no","mono","no","18","no","white","no","yes","1080","legacy","80","80","C:/Users/ERP Testing Room/Desktop/Joanna/morph21/subject-177.csv","xpyriment","Kafkaesque Koffka","3.2.5","0","/","space","NA","NA","NA","space","/","722","23128","NA","NA","NA","77025","722","2","legacy","1024","2","48000","-16","BA_m21","177","odd","FILL_W","SAVE","1904","397534","394359","396026","78940","352972","NA","NA","NA","396021","394856","NA","393859","NA","393853","396021","1915","397734","NA","NA","395026","1904","1904","395426","393853","1904","395026","397734","morph21_Oliver/Morris","65","67208","81","yes","1280","46"
"350","79.2682926829","79.2682926829","831.695121951","831.695121951","black","no","xpyriment","legacy","legacy","0","206","NA","uniform","55544","1000","0.0180037447789","0","undefined","0","0","81","81","81","0","81","81","81","NA","81","81","0","81","NA","81","81","0","81","NA","81","NA","81","0","0","81","81","0","81","81","82","z","05/02/19 12:35:02","The main experiment item","yes","FIN__BA__M21__7%3A10%3A17.osexp","C:\Users\ERP Testing Room\Desktop\Joanna\morph21","no","mono","no","18","no","white","no","yes","1080","legacy","81","81","C:/Users/ERP Testing Room/Desktop/Joanna/morph21/subject-177.csv","xpyriment","Kafkaesque Koffka","3.2.5","0","None","space","NA","NA","NA","space","None","991","23128","NA","NA","NA","77025","991","2","legacy","1024","2","48000","-16","BA_m21","177","odd","NW_L_SIMP","WITCHISH","1904","400509","398843","396026","78940","352972","NA","NA","NA","396021","399340","NA","398343","NA","398337","400500","1915","400859","NA","NA","399509","1904","1904","399901","398337","1904","399509","400859","morph21_Oliver/Morris","65","68199","82","yes","1280","11"
"250","79.5180722892","79.5180722892","833.072289157","833.072289157","black","no","xpyriment","legacy","legacy","0","206","NA","uniform","57360","1000","0.0174337517434","1","undefined","1","0","82","82","82","0","82","82","82","NA","82","82","0","82","NA","82","82","0","82","NA","82","NA","82","0","0","82","82","0","82","82","83","z","05/02/19 12:35:02","The main experiment item","yes","FIN__BA__M21__7%3A10%3A17.osexp","C:\Users\ERP Testing Room\Desktop\Joanna\morph21","no","mono","no","18","no","white","no","yes","1080","legacy","82","82","C:/Users/ERP Testing Room/Desktop/Joanna/morph21/subject-177.csv","xpyriment","Kafkaesque Koffka","3.2.5","0","z","space","NA","NA","NA","space","z","946","23128","NA","NA","NA","77025","946","2","legacy","1024","2","48000","-16","BA_m21","177","odd","NW_L_SIMP","BEARIST","1904","403602","401934","396026","78940","352972","NA","NA","NA","403592","402432","NA","401434","NA","401423","403592","1915","403852","NA","NA","402602","1904","1904","402994","401423","1904","402602","403852","morph21_Oliver/Morris","66","69145","83","yes","1280","25"
"350","79.7619047619","79.7619047619","833.738095238","833.738095238","black","no","xpyriment","legacy","legacy","0","208","NA","uniform","55621","1000","0.0179788209489","1","undefined","1","0","83","83","83","0","83","83","83","NA","83","83","0","83","NA","83","83","0","83","NA","83","NA","83","0","0","83","83","0","83","83","84","z","05/02/19 12:35:02","The main experiment item","yes","FIN__BA__M21__7%3A10%3A17.osexp","C:\Users\ERP Testing Room\Desktop\Joanna\morph21","no","mono","no","18","no","white","no","yes","1080","legacy","83","83","C:/Users/ERP Testing Room/Desktop/Joanna/morph21/subject-177.csv","xpyriment","Kafkaesque Koffka","3.2.5","0","z","space","NA","NA","NA","space","z","889","23128","NA","NA","NA","77025","889","2","legacy","1024","2","48000","-16","BA_m21","177","odd","FILL_NW","DOADS","1904","408336","405110","406827","78940","352972","NA","NA","NA","406820","405608","NA","404611","NA","404599","406820","1915","408686","NA","NA","405827","1904","1904","406219","404599","1904","405827","408686","morph21_Oliver/Morris","67","70034","84","yes","1280","15"
"350","78.8235294118","78.8235294118","835.564705882","835.564705882","black","no","xpyriment","legacy","legacy","0","204","NA","uniform","55215","1000","0.018111020556","0","undefined","0","0","84","84","84","0","84","84","84","NA","84","84","0","84","NA","84","84","0","84","NA","84","NA","84","0","0","84","84","0","84","84","85","z","05/02/19 12:35:02","The main experiment item","yes","FIN__BA__M21__7%3A10%3A17.osexp","C:\Users\ERP Testing Room\Desktop\Joanna\morph21","no","mono","no","18","no","white","no","yes","1080","legacy","84","84","C:/Users/ERP Testing Room/Desktop/Joanna/morph21/subject-177.csv","xpyriment","Kafkaesque Koffka","3.2.5","0","None","space","NA","NA","NA","space","None","989","23128","NA","NA","NA","77025","989","2","legacy","1024","2","48000","-16","BA_m21","177","odd","NW_L_COMP","MOUTHIME","1904","411436","409777","406827","78940","352972","NA","NA","NA","406820","410274","NA","409277","NA","409271","411425","1915","411786","NA","NA","410436","1904","1904","410827","409271","1904","410436","411786","morph21_Oliver/Morris","67","71023","85","yes","1280","11"
"200","79.0697674419","79.0697674419","836.848837209","836.848837209","black","no","xpyriment","legacy","legacy","0","203","NA","uniform","53287","1000","0.0187663032259","1","undefined","1","0","85","85","85","0","85","85","85","NA","85","85","0","85","NA","85","85","0","85","NA","85","NA","85","0","0","85","85","0","85","85","86","z","05/02/19 12:35:02","The main experiment item","yes","FIN__BA__M21__7%3A10%3A17.osexp","C:\Users\ERP Testing Room\Desktop\Joanna\morph21","no","mono","no","18","no","white","no","yes","1080","legacy","85","85","C:/Users/ERP Testing Room/Desktop/Joanna/morph21/subject-177.csv","xpyriment","Kafkaesque Koffka","3.2.5","0","z","space","NA","NA","NA","space","z","946","23128","NA","NA","NA","77025","946","2","legacy","1024","2","48000","-16","BA_m21","177","odd","NW_S_COMP","MELTANGE","1904","414586","412936","406827","78940","352972","NA","NA","NA","414582","413433","NA","412436","NA","412429","414582","1915","414786","NA","NA","413586","1904","1904","413986","412429","1904","413586","414786","morph21_Oliver/Morris","68","71969","86","yes","1280","1"
"200","79.3103448276","79.3103448276","835.609195402","835.609195402","black","no","xpyriment","legacy","legacy","0","208","NA","uniform","60301","1000","0.0165834729109","1","undefined","1","0","86","86","86","0","86","86","86","NA","86","86","0","86","NA","86","86","0","86","NA","86","NA","86","0","0","86","86","0","86","86","87","z","05/02/19 12:35:02","The main experiment item","yes","FIN__BA__M21__7%3A10%3A17.osexp","C:\Users\ERP Testing Room\Desktop\Joanna\morph21","no","mono","no","18","no","white","no","yes","1080","legacy","86","86","C:/Users/ERP Testing Room/Desktop/Joanna/morph21/subject-177.csv","xpyriment","Kafkaesque Koffka","3.2.5","0","z","space","NA","NA","NA","space","z","729","23128","NA","NA","NA","77025","729","2","legacy","1024","2","48000","-16","BA_m21","177","odd","FILL_NW","PORDS","1904","419111","415936","417603","78940","352972","NA","NA","NA","417597","416433","NA","415428","NA","415418","417597","1915","419311","NA","NA","416603","1904","1904","416994","415418","1904","416603","419311","morph21_Oliver/Morris","69","72698","87","yes","1280","39"
"250","79.5454545455","79.5454545455","835.318181818","835.318181818","black","no","xpyriment","legacy","legacy","0","207","NA","uniform","57441","1000","0.0174091676677","1","undefined","1","0","87","87","87","0","87","87","87","NA","87","87","0","87","NA","87","87","0","87","NA","87","NA","87","0","0","87","87","0","87","87","88","/","05/02/19 12:35:02","The main experiment item","yes","FIN__BA__M21__7%3A10%3A17.osexp","C:\Users\ERP Testing Room\Desktop\Joanna\morph21","no","mono","no","18","no","white","no","yes","1080","legacy","87","87","C:/Users/ERP Testing Room/Desktop/Joanna/morph21/subject-177.csv","xpyriment","Kafkaesque Koffka","3.2.5","0","/","space","NA","NA","NA","space","/","810","23128","NA","NA","NA","77025","810","2","legacy","1024","2","48000","-16","BA_m21","177","odd","FILL_W","SHIP","1904","422154","420487","417603","78940","352972","NA","NA","NA","422146","420984","NA","419987","NA","419981","422146","1915","422404","NA","NA","421154","1904","1904","421545","419981","1904","421154","422404","morph21_Oliver/Morris","70","73508","88","yes","1280","37"
"400","79.7752808989","79.7752808989","835.179775281","835.179775281","black","no","xpyriment","legacy","legacy","0","206","NA","uniform","58741","1000","0.01702388451","1","undefined","1","0","88","88","88","0","88","88","88","NA","88","88","0","88","NA","88","88","0","88","NA","88","NA","88","0","0","88","88","0","88","88","89","z","05/02/19 12:35:02","The main experiment item","yes","FIN__BA__M21__7%3A10%3A17.osexp","C:\Users\ERP Testing Room\Desktop\Joanna\morph21","no","mono","no","18","no","white","no","yes","1080","legacy","88","88","C:/Users/ERP Testing Room/Desktop/Joanna/morph21/subject-177.csv","xpyriment","Kafkaesque Koffka","3.2.5","0","z","space","NA","NA","NA","space","z","823","23128","NA","NA","NA","77025","823","2","legacy","1024","2","48000","-16","BA_m21","177","odd","NW_L_SIMP","CLASSOUS","1904","425229","423504","417603","78940","352972","NA","NA","NA","425222","424001","NA","423004","NA","422996","425222","1915","425629","NA","NA","424229","1904","1904","424621","422996","1904","424229","425629","morph21_Oliver/Morris","71","74331","89","yes","1280","18"
"400","80","80","835.377777778","835.377777778","black","no","xpyriment","legacy","legacy","0","208","NA","uniform","59194","1000","0.0168936040815","1","undefined","1","0","89","89","89","0","89","89","89","NA","89","89","0","89","NA","89","89","0","89","NA","89","NA","89","0","0","89","89","0","89","89","90","z","05/02/19 12:35:02","The main experiment item","yes","FIN__BA__M21__7%3A10%3A17.osexp","C:\Users\ERP Testing Room\Desktop\Joanna\morph21","no","mono","no","18","no","white","no","yes","1080","legacy","89","89","C:/Users/ERP Testing Room/Desktop/Joanna/morph21/subject-177.csv","xpyriment","Kafkaesque Koffka","3.2.5","0","z","space","NA","NA","NA","space","z","853","23128","NA","NA","NA","77025","853","2","legacy","1024","2","48000","-16","BA_m21","177","odd","FILL_NW","GIKE","1904","429988","426829","428479","78940","352972","NA","NA","NA","428472","427326","NA","426329","NA","426321","428472","1915","430388","NA","NA","427479","1904","1904","427871","426321","1904","427479","430388","morph21_Oliver/Morris","72","75184","90","yes","1280","24"
