"ITI","acc","accuracy","average_response_time","avg_rt","background","bidi","canvas_backend","clock_backend","color_backend","compensation","cond_trig","condtrigtime","coordinates","coroutines_cycles","coroutines_duration","coroutines_mean_cycle_duration","correct","correct_instructions_1","correct_new_keyboard_response_1","count_BA_m21","count_ITI","count_blank_screen","count_blink_screen","count_block1","count_break1","count_break2","count_break3_1","count_canvas","count_correct_trigger","count_def_chain","count_end_screen","count_fixation_1","count_getting_started","count_inc_counter","count_incorrect_trigger","count_instructions_1","count_logger","count_logscript","count_new_coroutines","count_new_inline_script","count_new_keyboard_response_1","count_reset_counter_prep","count_reset_counter_run","count_responsescreen","count_sequence","count_start_trigger","count_target_present","count_word_trigger","counter","cresp","datetime","description","disable_garbage_collection","experiment_file","experiment_path","font_bold","font_family","font_italic","font_size","font_underline","foreground","form_clicks","fullscreen","height","keyboard_backend","live_row","live_row_block1","logfile","mouse_backend","opensesame_codename","opensesame_version","repeat_cycle","response","response_break1","response_break2","response_break3_1","response_end_screen","response_instructions_1","response_new_keyboard_response_1","response_time","response_time_break1","response_time_break2","response_time_break3_1","response_time_end_screen","response_time_instructions_1","response_time_new_keyboard_response_1","round_decimals","sampler_backend","sound_buf_size","sound_channels","sound_freq","sound_sample_size","start","subject_nr","subject_parity","targ_type","target","time_BA_m21","time_ITI","time_blank_screen","time_blink_screen","time_block1","time_break1","time_break2","time_break3_1","time_canvas","time_correct_trigger","time_def_chain","time_end_screen","time_fixation_1","time_getting_started","time_inc_counter","time_incorrect_trigger","time_instructions_1","time_logger","time_logscript","time_new_inline_script","time_new_keyboard_response_1","time_reset_counter_prep","time_reset_counter_run","time_responsescreen","time_sequence","time_start_trigger","time_target_present","time_word_trigger","title","total_correct","total_response_time","total_responses","uniform_coordinates","width","word_trig"
"400","0","0","990","990","black","no","xpyriment","legacy","legacy","0","203","NA","uniform","47957","1000","0.0208520132619","0","undefined","0","0","0","0","0","0","0","0","0","NA","0","0","0","0","NA","0","0","0","0","NA","0","NA","0","0","0","0","0","0","0","0","1","z","02/22/19 13:48:27","The main experiment item","yes","FIN__BA__M21__7%3A10%3A17.osexp","C:\Users\ERP Testing Room\Desktop\Joanna\morph21","no","mono","no","18","no","white","no","yes","1080","legacy","0","0","C:/Users/ERP Testing Room/Desktop/Joanna/morph21/subject-161.csv","xpyriment","Kafkaesque Koffka","3.2.5","0","None","NA","NA","NA","NA","space","None","990","NA","NA","NA","NA","230600","990","2","legacy","1024","2","48000","-16","BA_m21","161","odd","NW_S_COMP","ARIDILM","1140","234714","232996","NA","231755","NA","NA","NA","NA","NA","233493","NA","232494","NA","232423","234703","1155","235114","NA","NA","233713","1140","1140","234104","232423","1140","233713","235114","morph21_Oliver/Morris","0","990","1","yes","1280","9"
"400","0","0","993","993","black","no","xpyriment","legacy","legacy","0","208","NA","uniform","53761","1000","0.0186008444783","0","undefined","0","0","1","1","1","0","1","1","1","NA","1","1","0","1","NA","1","1","0","1","NA","1","NA","1","0","0","1","1","0","1","1","2","z","02/22/19 13:48:27","The main experiment item","yes","FIN__BA__M21__7%3A10%3A17.osexp","C:\Users\ERP Testing Room\Desktop\Joanna\morph21","no","mono","no","18","no","white","no","yes","1080","legacy","1","1","C:/Users/ERP Testing Room/Desktop/Joanna/morph21/subject-161.csv","xpyriment","Kafkaesque Koffka","3.2.5","0","None","NA","NA","NA","NA","space","None","996","NA","NA","NA","NA","230600","996","2","legacy","1024","2","48000","-16","BA_m21","161","odd","FILL_NW","FROES","1140","237922","236255","NA","231755","NA","NA","NA","NA","NA","236752","NA","235755","NA","235751","237918","1155","238322","NA","NA","236922","1140","1140","237322","235751","1140","236922","238322","morph21_Oliver/Morris","0","1986","2","yes","1280","21"
"300","0","0","968.333333333","968.333333333","black","no","xpyriment","legacy","legacy","0","206","NA","uniform","50910","1000","0.0196425063838","0","undefined","0","0","2","2","2","0","2","2","2","NA","2","2","0","2","NA","2","2","0","2","NA","2","NA","2","0","0","2","2","0","2","2","3","z","02/22/19 13:48:27","The main experiment item","yes","FIN__BA__M21__7%3A10%3A17.osexp","C:\Users\ERP Testing Room\Desktop\Joanna\morph21","no","mono","no","18","no","white","no","yes","1080","legacy","2","2","C:/Users/ERP Testing Room/Desktop/Joanna/morph21/subject-161.csv","xpyriment","Kafkaesque Koffka","3.2.5","0","/","NA","NA","NA","NA","space","/","919","NA","NA","NA","NA","230600","919","2","legacy","1024","2","48000","-16","BA_m21","161","odd","NW_L_SIMP","BEANISH","1140","242706","239514","241197","231755","NA","NA","NA","NA","NA","240011","NA","239014","NA","239010","241187","1155","243006","NA","NA","240197","1140","1140","240589","239009","1140","240197","243006","morph21_Oliver/Morris","0","2905","3","yes","1280","8"
"400","0","0","974.5","974.5","black","no","xpyriment","legacy","legacy","0","206","NA","uniform","50302","1000","0.0198799252515","0","undefined","0","0","3","3","3","0","3","3","3","NA","3","3","0","3","NA","3","3","0","3","NA","3","NA","3","0","0","3","3","0","3","3","4","z","02/22/19 13:48:27","The main experiment item","yes","FIN__BA__M21__7%3A10%3A17.osexp","C:\Users\ERP Testing Room\Desktop\Joanna\morph21","no","mono","no","18","no","white","no","yes","1080","legacy","3","3","C:/Users/ERP Testing Room/Desktop/Joanna/morph21/subject-161.csv","xpyriment","Kafkaesque Koffka","3.2.5","0","None","NA","NA","NA","NA","space","None","993","NA","NA","NA","NA","230600","993","2","legacy","1024","2","48000","-16","BA_m21","161","odd","NW_L_SIMP","VALIDER","1140","245856","244189","241197","231755","NA","NA","NA","NA","NA","244686","NA","243689","NA","243684","245850","1155","246256","NA","NA","244856","1140","1140","245247","243684","1140","244856","246256","morph21_Oliver/Morris","0","3898","4","yes","1280","23"
"300","0","0","978.2","978.2","black","no","xpyriment","legacy","legacy","0","206","NA","uniform","46447","1000","0.021529915818","0","undefined","0","0","4","4","4","0","4","4","4","NA","4","4","0","4","NA","4","4","0","4","NA","4","NA","4","0","0","4","4","0","4","4","5","z","02/22/19 13:48:27","The main experiment item","yes","FIN__BA__M21__7%3A10%3A17.osexp","C:\Users\ERP Testing Room\Desktop\Joanna\morph21","no","mono","no","18","no","white","no","yes","1080","legacy","4","4","C:/Users/ERP Testing Room/Desktop/Joanna/morph21/subject-161.csv","xpyriment","Kafkaesque Koffka","3.2.5","0","None","NA","NA","NA","NA","space","None","993","NA","NA","NA","NA","230600","993","2","legacy","1024","2","48000","-16","BA_m21","161","odd","NW_L_SIMP","EARIST","1140","249173","247456","241197","231755","NA","NA","NA","NA","NA","247953","NA","246956","NA","246951","249167","1155","249473","NA","NA","248173","1140","1140","248564","246951","1140","248172","249473","morph21_Oliver/Morris","0","4891","5","yes","1280","12"
"300","16.6666666667","16.6666666667","902.166666667","902.166666667","black","no","xpyriment","legacy","legacy","0","207","NA","uniform","62141","1000","0.0160924349463","1","undefined","1","0","5","5","5","0","5","5","5","NA","5","5","0","5","NA","5","5","0","5","NA","5","NA","5","0","0","5","5","0","5","5","6","/","02/22/19 13:48:27","The main experiment item","yes","FIN__BA__M21__7%3A10%3A17.osexp","C:\Users\ERP Testing Room\Desktop\Joanna\morph21","no","mono","no","18","no","white","no","yes","1080","legacy","5","5","C:/Users/ERP Testing Room/Desktop/Joanna/morph21/subject-161.csv","xpyriment","Kafkaesque Koffka","3.2.5","0","/","NA","NA","NA","NA","space","/","522","NA","NA","NA","NA","230600","522","2","legacy","1024","2","48000","-16","BA_m21","161","odd","FILL_W","BALD","1140","253824","250598","252315","231755","NA","NA","NA","NA","252306","251095","NA","250098","NA","250090","252306","1155","254124","NA","NA","251314","1140","1140","251707","250089","1140","251314","254124","morph21_Oliver/Morris","1","5413","6","yes","1280","3"
"250","28.5714285714","28.5714285714","852.571428571","852.571428571","black","no","xpyriment","legacy","legacy","0","207","NA","uniform","58835","1000","0.0169966856463","1","undefined","1","0","6","6","6","0","6","6","6","NA","6","6","0","6","NA","6","6","0","6","NA","6","NA","6","0","0","6","6","0","6","6","7","/","02/22/19 13:48:27","The main experiment item","yes","FIN__BA__M21__7%3A10%3A17.osexp","C:\Users\ERP Testing Room\Desktop\Joanna\morph21","no","mono","no","18","no","white","no","yes","1080","legacy","6","6","C:/Users/ERP Testing Room/Desktop/Joanna/morph21/subject-161.csv","xpyriment","Kafkaesque Koffka","3.2.5","0","/","NA","NA","NA","NA","space","/","555","NA","NA","NA","NA","230600","555","2","legacy","1024","2","48000","-16","BA_m21","161","odd","FILL_W","TASTE","1140","257032","255332","252315","231755","NA","NA","NA","NA","257030","255829","NA","254832","NA","254829","257030","1155","257282","NA","NA","256041","1140","1140","256432","254829","1140","256041","257282","morph21_Oliver/Morris","2","5968","7","yes","1280","34"
"200","37.5","37.5","804.625","804.625","black","no","xpyriment","legacy","legacy","0","207","NA","uniform","60574","1000","0.0165087331198","1","undefined","1","0","7","7","7","0","7","7","7","NA","7","7","0","7","NA","7","7","0","7","NA","7","NA","7","0","0","7","7","0","7","7","8","/","02/22/19 13:48:27","The main experiment item","yes","FIN__BA__M21__7%3A10%3A17.osexp","C:\Users\ERP Testing Room\Desktop\Joanna\morph21","no","mono","no","18","no","white","no","yes","1080","legacy","7","7","C:/Users/ERP Testing Room/Desktop/Joanna/morph21/subject-161.csv","xpyriment","Kafkaesque Koffka","3.2.5","0","/","NA","NA","NA","NA","space","/","469","NA","NA","NA","NA","230600","469","2","legacy","1024","2","48000","-16","BA_m21","161","odd","FILL_W","STALK","1140","260182","258457","252315","231755","NA","NA","NA","NA","260174","258954","NA","257957","NA","257952","260174","1155","260382","NA","NA","259182","1140","1140","259574","257952","1140","259182","260382","morph21_Oliver/Morris","3","6437","8","yes","1280","27"
"300","33.3333333333","33.3333333333","825.666666667","825.666666667","black","no","xpyriment","legacy","legacy","0","205","NA","uniform","53200","1000","0.0187969924812","0","undefined","0","0","8","8","8","0","8","8","8","NA","8","8","0","8","NA","8","8","0","8","NA","8","NA","8","0","0","8","8","0","8","8","9","z","02/22/19 13:48:27","The main experiment item","yes","FIN__BA__M21__7%3A10%3A17.osexp","C:\Users\ERP Testing Room\Desktop\Joanna\morph21","no","mono","no","18","no","white","no","yes","1080","legacy","8","8","C:/Users/ERP Testing Room/Desktop/Joanna/morph21/subject-161.csv","xpyriment","Kafkaesque Koffka","3.2.5","0","None","NA","NA","NA","NA","space","None","994","NA","NA","NA","NA","230600","994","2","legacy","1024","2","48000","-16","BA_m21","161","odd","NW_S_SIMP","WARNORY","1140","264783","261532","263274","231755","NA","NA","NA","NA","260174","262029","NA","261032","NA","261027","263268","1155","265083","NA","NA","262274","1140","1140","262666","261027","1140","262274","265083","morph21_Oliver/Morris","3","7431","9","yes","1280","12"
"350","30","30","803.4","803.4","black","no","xpyriment","legacy","legacy","0","206","NA","uniform","54246","1000","0.0184345389522","0","undefined","0","0","9","9","9","0","9","9","9","NA","9","9","0","9","NA","9","9","0","9","NA","9","NA","9","0","0","9","9","0","9","9","10","z","02/22/19 13:48:27","The main experiment item","yes","FIN__BA__M21__7%3A10%3A17.osexp","C:\Users\ERP Testing Room\Desktop\Joanna\morph21","no","mono","no","18","no","white","no","yes","1080","legacy","9","9","C:/Users/ERP Testing Room/Desktop/Joanna/morph21/subject-161.csv","xpyriment","Kafkaesque Koffka","3.2.5","0","/","NA","NA","NA","NA","space","/","603","NA","NA","NA","NA","230600","603","2","legacy","1024","2","48000","-16","BA_m21","161","odd","NW_L_SIMP","WITCHISH","1140","268008","266333","263274","231755","NA","NA","NA","NA","260174","266830","NA","265833","NA","265829","267998","1155","268358","NA","NA","267008","1140","1140","267399","265829","1140","267008","268358","morph21_Oliver/Morris","3","8034","10","yes","1280","11"
"350","27.2727272727","27.2727272727","782.909090909","782.909090909","black","no","xpyriment","legacy","legacy","0","203","NA","uniform","55817","1000","0.0179156887687","0","undefined","0","0","10","10","10","0","10","10","10","NA","10","10","0","10","NA","10","10","0","10","NA","10","NA","10","0","0","10","10","0","10","10","11","z","02/22/19 13:48:27","The main experiment item","yes","FIN__BA__M21__7%3A10%3A17.osexp","C:\Users\ERP Testing Room\Desktop\Joanna\morph21","no","mono","no","18","no","white","no","yes","1080","legacy","10","10","C:/Users/ERP Testing Room/Desktop/Joanna/morph21/subject-161.csv","xpyriment","Kafkaesque Koffka","3.2.5","0","/","NA","NA","NA","NA","space","/","578","NA","NA","NA","NA","230600","578","2","legacy","1024","2","48000","-16","BA_m21","161","odd","NW_S_COMP","PRINCEMANT","1140","271242","269525","263274","231755","NA","NA","NA","NA","260174","270023","NA","269024","NA","269020","271234","1155","271592","NA","NA","270242","1140","1140","270634","269020","1140","270242","271592","morph21_Oliver/Morris","3","8612","11","yes","1280","17"
"350","33.3333333333","33.3333333333","796.25","796.25","black","no","xpyriment","legacy","legacy","0","204","NA","uniform","55618","1000","0.0179797907152","1","undefined","1","0","11","11","11","0","11","11","11","NA","11","11","0","11","NA","11","11","0","11","NA","11","NA","11","0","0","11","11","0","11","11","12","z","02/22/19 13:48:27","The main experiment item","yes","FIN__BA__M21__7%3A10%3A17.osexp","C:\Users\ERP Testing Room\Desktop\Joanna\morph21","no","mono","no","18","no","white","no","yes","1080","legacy","11","11","C:/Users/ERP Testing Room/Desktop/Joanna/morph21/subject-161.csv","xpyriment","Kafkaesque Koffka","3.2.5","0","Z","NA","NA","NA","NA","space","Z","943","NA","NA","NA","NA","230600","943","2","legacy","1024","2","48000","-16","BA_m21","161","odd","NW_L_COMP","AGREELA","1140","276026","272859","274517","231755","NA","NA","NA","NA","274511","273356","NA","272359","NA","272348","274511","1155","276376","NA","NA","273517","1140","1140","273909","272348","1140","273517","276376","morph21_Oliver/Morris","4","9555","12","yes","1280","24"
"350","30.7692307692","30.7692307692","811.615384615","811.615384615","black","no","xpyriment","legacy","legacy","0","205","NA","uniform","45326","1000","0.0220623924458","0","undefined","0","0","12","12","12","0","12","12","12","NA","12","12","0","12","NA","12","12","0","12","NA","12","NA","12","0","0","12","12","0","12","12","13","z","02/22/19 13:48:27","The main experiment item","yes","FIN__BA__M21__7%3A10%3A17.osexp","C:\Users\ERP Testing Room\Desktop\Joanna\morph21","no","mono","no","18","no","white","no","yes","1080","legacy","12","12","C:/Users/ERP Testing Room/Desktop/Joanna/morph21/subject-161.csv","xpyriment","Kafkaesque Koffka","3.2.5","0","None","NA","NA","NA","NA","space","None","996","NA","NA","NA","NA","230600","996","2","legacy","1024","2","48000","-16","BA_m21","161","odd","NW_S_SIMP","BASKORY","1140","279284","277601","274517","231755","NA","NA","NA","NA","274511","278098","NA","277101","NA","277090","279280","1155","279634","NA","NA","278284","1140","1140","278684","277090","1140","278284","279634","morph21_Oliver/Morris","4","10551","13","yes","1280","10"
"250","35.7142857143","35.7142857143","797.857142857","797.857142857","black","no","xpyriment","legacy","legacy","0","201","NA","uniform","60993","1000","0.0163953240536","1","undefined","1","0","13","13","13","0","13","13","13","NA","13","13","0","13","NA","13","13","0","13","NA","13","NA","13","0","0","13","13","0","13","13","14","/","02/22/19 13:48:27","The main experiment item","yes","FIN__BA__M21__7%3A10%3A17.osexp","C:\Users\ERP Testing Room\Desktop\Joanna\morph21","no","mono","no","18","no","white","no","yes","1080","legacy","13","13","C:/Users/ERP Testing Room/Desktop/Joanna/morph21/subject-161.csv","xpyriment","Kafkaesque Koffka","3.2.5","0","/","NA","NA","NA","NA","space","/","619","NA","NA","NA","NA","230600","619","2","legacy","1024","2","48000","-16","BA_m21","161","odd","CW_S","HARMLESS","1140","282568","280868","274517","231755","NA","NA","NA","NA","282557","281365","NA","280368","NA","280361","282557","1155","282818","NA","NA","281568","1140","1140","281959","280360","1140","281568","282818","morph21_Oliver/Morris","5","11170","14","yes","1280","29"
"200","40","40","778.066666667","778.066666667","black","no","xpyriment","legacy","legacy","0","202","NA","uniform","63022","1000","0.0158674748501","1","undefined","1","0","14","14","14","0","14","14","14","NA","14","14","0","14","NA","14","14","0","14","NA","14","NA","14","0","0","14","14","0","14","14","15","/","02/22/19 13:48:27","The main experiment item","yes","FIN__BA__M21__7%3A10%3A17.osexp","C:\Users\ERP Testing Room\Desktop\Joanna\morph21","no","mono","no","18","no","white","no","yes","1080","legacy","14","14","C:/Users/ERP Testing Room/Desktop/Joanna/morph21/subject-161.csv","xpyriment","Kafkaesque Koffka","3.2.5","0","/","NA","NA","NA","NA","space","/","501","NA","NA","NA","NA","230600","501","2","legacy","1024","2","48000","-16","BA_m21","161","odd","CW_L","COLLECTOR","1140","287244","284026","285734","231755","NA","NA","NA","NA","285727","284523","NA","283526","NA","283520","285727","1155","287444","NA","NA","284734","1140","1140","285126","283520","1140","284734","287444","morph21_Oliver/Morris","6","11671","15","yes","1280","46"
"250","43.75","43.75","767.125","767.125","black","no","xpyriment","legacy","legacy","0","202","NA","uniform","62346","1000","0.0160395213807","1","undefined","1","0","15","15","15","0","15","15","15","NA","15","15","0","15","NA","15","15","0","15","NA","15","NA","15","0","0","15","15","0","15","15","16","/","02/22/19 13:48:27","The main experiment item","yes","FIN__BA__M21__7%3A10%3A17.osexp","C:\Users\ERP Testing Room\Desktop\Joanna\morph21","no","mono","no","18","no","white","no","yes","1080","legacy","15","15","C:/Users/ERP Testing Room/Desktop/Joanna/morph21/subject-161.csv","xpyriment","Kafkaesque Koffka","3.2.5","0","/","NA","NA","NA","NA","space","/","603","NA","NA","NA","NA","230600","603","2","legacy","1024","2","48000","-16","BA_m21","161","odd","CW_L","FLEXIBLE","1140","290369","288669","285734","231755","NA","NA","NA","NA","290364","289166","NA","288161","NA","288152","290364","1155","290619","NA","NA","289377","1140","1140","289769","288152","1140","289377","290619","morph21_Oliver/Morris","7","12274","16","yes","1280","22"
"250","47.0588235294","47.0588235294","777.588235294","777.588235294","black","no","xpyriment","legacy","legacy","0","204","NA","uniform","51334","1000","0.01948026649","1","undefined","1","0","16","16","16","0","16","16","16","NA","16","16","0","16","NA","16","16","0","16","NA","16","NA","16","0","0","16","16","0","16","16","17","z","02/22/19 13:48:27","The main experiment item","yes","FIN__BA__M21__7%3A10%3A17.osexp","C:\Users\ERP Testing Room\Desktop\Joanna\morph21","no","mono","no","18","no","white","no","yes","1080","legacy","16","16","C:/Users/ERP Testing Room/Desktop/Joanna/morph21/subject-161.csv","xpyriment","Kafkaesque Koffka","3.2.5","0","Z","NA","NA","NA","NA","space","Z","945","NA","NA","NA","NA","230600","945","2","legacy","1024","2","48000","-16","BA_m21","161","odd","NW_L_COMP","STIRANGE","1140","293419","291761","285734","231755","NA","NA","NA","NA","293416","292258","NA","291261","NA","291256","293416","1155","293669","NA","NA","292419","1140","1140","292819","291256","1140","292419","293669","morph21_Oliver/Morris","8","13219","17","yes","1280","1"
"300","50","50","785.277777778","785.277777778","black","no","xpyriment","legacy","legacy","0","204","NA","uniform","55635","1000","0.0179742967556","1","undefined","1","0","17","17","17","0","17","17","17","NA","17","17","0","17","NA","17","17","0","17","NA","17","NA","17","0","0","17","17","0","17","17","18","z","02/22/19 13:48:27","The main experiment item","yes","FIN__BA__M21__7%3A10%3A17.osexp","C:\Users\ERP Testing Room\Desktop\Joanna\morph21","no","mono","no","18","no","white","no","yes","1080","legacy","17","17","C:/Users/ERP Testing Room/Desktop/Joanna/morph21/subject-161.csv","xpyriment","Kafkaesque Koffka","3.2.5","0","Z","NA","NA","NA","NA","space","Z","916","NA","NA","NA","NA","230600","916","2","legacy","1024","2","48000","-16","BA_m21","161","odd","NW_L_COMP","BINDIG","1140","298019","294861","296511","231755","NA","NA","NA","NA","296508","295358","NA","294353","NA","294347","296508","1155","298320","NA","NA","295511","1140","1140","295911","294347","1140","295511","298320","morph21_Oliver/Morris","9","14135","18","yes","1280","22"
"200","52.6315789474","52.6315789474","783.894736842","783.894736842","black","no","xpyriment","legacy","legacy","0","203","NA","uniform","56623","1000","0.0176606679265","1","undefined","1","0","18","18","18","0","18","18","18","NA","18","18","0","18","NA","18","18","0","18","NA","18","NA","18","0","0","18","18","0","18","18","19","z","02/22/19 13:48:27","The main experiment item","yes","FIN__BA__M21__7%3A10%3A17.osexp","C:\Users\ERP Testing Room\Desktop\Joanna\morph21","no","mono","no","18","no","white","no","yes","1080","legacy","18","18","C:/Users/ERP Testing Room/Desktop/Joanna/morph21/subject-161.csv","xpyriment","Kafkaesque Koffka","3.2.5","0","Z","NA","NA","NA","NA","space","Z","759","NA","NA","NA","NA","230600","759","2","legacy","1024","2","48000","-16","BA_m21","161","odd","NW_S_COMP","ANTILM","1140","301219","299536","296511","231755","NA","NA","NA","NA","301211","300033","NA","299036","NA","299030","301211","1155","301419","NA","NA","300220","1140","1140","300611","299030","1140","300219","301419","morph21_Oliver/Morris","10","14894","19","yes","1280","8"
"300","55","55","771.6","771.6","black","no","xpyriment","legacy","legacy","0","201","NA","uniform","71226","1000","0.0140398169208","1","undefined","1","0","19","19","19","0","19","19","19","NA","19","19","0","19","NA","19","19","0","19","NA","19","NA","19","0","0","19","19","0","19","19","20","/","02/22/19 13:48:27","The main experiment item","yes","FIN__BA__M21__7%3A10%3A17.osexp","C:\Users\ERP Testing Room\Desktop\Joanna\morph21","no","mono","no","18","no","white","no","yes","1080","legacy","19","19","C:/Users/ERP Testing Room/Desktop/Joanna/morph21/subject-161.csv","xpyriment","Kafkaesque Koffka","3.2.5","0","/","NA","NA","NA","NA","space","/","538","NA","NA","NA","NA","230600","538","2","legacy","1024","2","48000","-16","BA_m21","161","odd","CW_S","DESTROYER","1140","304337","302661","296511","231755","NA","NA","NA","NA","304334","303158","NA","302161","NA","302152","304334","1155","304637","NA","NA","303345","1140","1140","303736","302152","1140","303345","304637","morph21_Oliver/Morris","11","15432","20","yes","1280","14"
"200","57.1428571429","57.1428571429","763.571428571","763.571428571","black","no","xpyriment","legacy","legacy","0","207","NA","uniform","62245","1000","0.0160655474335","1","undefined","1","0","20","20","20","0","20","20","20","NA","20","20","0","20","NA","20","20","0","20","NA","20","NA","20","0","0","20","20","0","20","20","21","/","02/22/19 13:48:27","The main experiment item","yes","FIN__BA__M21__7%3A10%3A17.osexp","C:\Users\ERP Testing Room\Desktop\Joanna\morph21","no","mono","no","18","no","white","no","yes","1080","legacy","20","20","C:/Users/ERP Testing Room/Desktop/Joanna/morph21/subject-161.csv","xpyriment","Kafkaesque Koffka","3.2.5","0","/","NA","NA","NA","NA","space","/","603","NA","NA","NA","NA","230600","603","2","legacy","1024","2","48000","-16","BA_m21","161","odd","FILL_W","WRECK","1140","309037","305879","307529","231755","NA","NA","NA","NA","307522","306376","NA","305379","NA","305371","307522","1155","309238","NA","NA","306529","1140","1140","306921","305371","1140","306529","309238","morph21_Oliver/Morris","12","16035","21","yes","1280","13"
"350","59.0909090909","59.0909090909","764.863636364","764.863636364","black","no","xpyriment","legacy","legacy","0","208","NA","uniform","55650","1000","0.0179694519317","1","undefined","1","0","21","21","21","0","21","21","21","NA","21","21","0","21","NA","21","21","0","21","NA","21","NA","21","0","0","21","21","0","21","21","22","z","02/22/19 13:48:27","The main experiment item","yes","FIN__BA__M21__7%3A10%3A17.osexp","C:\Users\ERP Testing Room\Desktop\Joanna\morph21","no","mono","no","18","no","white","no","yes","1080","legacy","21","21","C:/Users/ERP Testing Room/Desktop/Joanna/morph21/subject-161.csv","xpyriment","Kafkaesque Koffka","3.2.5","0","Z","NA","NA","NA","NA","space","Z","792","NA","NA","NA","NA","230600","792","2","legacy","1024","2","48000","-16","BA_m21","161","odd","FILL_NW","KRAISE","1140","312188","310496","307529","231755","NA","NA","NA","NA","312184","310993","NA","309996","NA","309989","312184","1155","312538","NA","NA","311188","1140","1140","311587","309989","1140","311187","312538","morph21_Oliver/Morris","13","16827","22","yes","1280","33"
"200","60.8695652174","60.8695652174","760.652173913","760.652173913","black","no","xpyriment","legacy","legacy","0","202","NA","uniform","62377","1000","0.0160315500906","1","undefined","1","0","22","22","22","0","22","22","22","NA","22","22","0","22","NA","22","22","0","22","NA","22","NA","22","0","0","22","22","0","22","22","23","/","02/22/19 13:48:27","The main experiment item","yes","FIN__BA__M21__7%3A10%3A17.osexp","C:\Users\ERP Testing Room\Desktop\Joanna\morph21","no","mono","no","18","no","white","no","yes","1080","legacy","22","22","C:/Users/ERP Testing Room/Desktop/Joanna/morph21/subject-161.csv","xpyriment","Kafkaesque Koffka","3.2.5","0","/","NA","NA","NA","NA","space","/","668","NA","NA","NA","NA","230600","668","2","legacy","1024","2","48000","-16","BA_m21","161","odd","CW_L","VERBAL","1140","315479","313771","307529","231755","NA","NA","NA","NA","315469","314268","NA","313271","NA","313266","315469","1155","315679","NA","NA","314479","1140","1140","314871","313266","1140","314479","315679","morph21_Oliver/Morris","14","17495","23","yes","1280","50"
"400","62.5","62.5","757.916666667","757.916666667","black","no","xpyriment","legacy","legacy","0","202","NA","uniform","59125","1000","0.0169133192389","1","undefined","1","0","23","23","23","0","23","23","23","NA","23","23","0","23","NA","23","23","0","23","NA","23","NA","23","0","0","23","23","0","23","23","24","/","02/22/19 13:48:27","The main experiment item","yes","FIN__BA__M21__7%3A10%3A17.osexp","C:\Users\ERP Testing Room\Desktop\Joanna\morph21","no","mono","no","18","no","white","no","yes","1080","legacy","23","23","C:/Users/ERP Testing Room/Desktop/Joanna/morph21/subject-161.csv","xpyriment","Kafkaesque Koffka","3.2.5","0","/","NA","NA","NA","NA","space","/","695","NA","NA","NA","NA","230600","695","2","legacy","1024","2","48000","-16","BA_m21","161","odd","CW_L","QUIETLY","1140","320096","316871","318588","231755","NA","NA","NA","NA","318584","317368","NA","316371","NA","316360","318584","1155","320496","NA","NA","317596","1140","1140","317988","316360","1140","317596","320496","morph21_Oliver/Morris","15","18190","24","yes","1280","36"
"300","64","64","753.8","753.8","black","no","xpyriment","legacy","legacy","0","208","NA","uniform","62122","1000","0.016097356814","1","undefined","1","0","24","24","24","0","24","24","24","NA","24","24","0","24","NA","24","24","0","24","NA","24","NA","24","0","0","24","24","0","24","24","25","z","02/22/19 13:48:27","The main experiment item","yes","FIN__BA__M21__7%3A10%3A17.osexp","C:\Users\ERP Testing Room\Desktop\Joanna\morph21","no","mono","no","18","no","white","no","yes","1080","legacy","24","24","C:/Users/ERP Testing Room/Desktop/Joanna/morph21/subject-161.csv","xpyriment","Kafkaesque Koffka","3.2.5","0","Z","NA","NA","NA","NA","space","Z","655","NA","NA","NA","NA","230600","655","2","legacy","1024","2","48000","-16","BA_m21","161","odd","FILL_NW","VOOFS","1140","323381","321681","318588","231755","NA","NA","NA","NA","323374","322178","NA","321180","NA","321172","323374","1155","323681","NA","NA","322381","1140","1140","322772","321171","1140","322381","323681","morph21_Oliver/Morris","16","18845","25","yes","1280","48"
"350","65.3846153846","65.3846153846","751.615384615","751.615384615","black","no","xpyriment","legacy","legacy","0","201","NA","uniform","61889","1000","0.0161579602191","1","undefined","1","0","25","25","25","0","25","25","25","NA","25","25","0","25","NA","25","25","0","25","NA","25","NA","25","0","0","25","25","0","25","25","26","/","02/22/19 13:48:27","The main experiment item","yes","FIN__BA__M21__7%3A10%3A17.osexp","C:\Users\ERP Testing Room\Desktop\Joanna\morph21","no","mono","no","18","no","white","no","yes","1080","legacy","25","25","C:/Users/ERP Testing Room/Desktop/Joanna/morph21/subject-161.csv","xpyriment","Kafkaesque Koffka","3.2.5","0","/","NA","NA","NA","NA","space","/","697","NA","NA","NA","NA","230600","697","2","legacy","1024","2","48000","-16","BA_m21","161","odd","CW_S","NEATLY","1140","326547","324897","318588","231755","NA","NA","NA","NA","326543","325395","NA","324397","NA","324391","326543","1155","326898","NA","NA","325547","1140","1140","325947","324391","1140","325547","326898","morph21_Oliver/Morris","17","19542","26","yes","1280","33"
"300","66.6666666667","66.6666666667","745.444444444","745.444444444","black","no","xpyriment","legacy","legacy","0","207","NA","uniform","63739","1000","0.0156889816282","1","undefined","1","0","26","26","26","0","26","26","26","NA","26","26","0","26","NA","26","26","0","26","NA","26","NA","26","0","0","26","26","0","26","26","27","/","02/22/19 13:48:27","The main experiment item","yes","FIN__BA__M21__7%3A10%3A17.osexp","C:\Users\ERP Testing Room\Desktop\Joanna\morph21","no","mono","no","18","no","white","no","yes","1080","legacy","26","26","C:/Users/ERP Testing Room/Desktop/Joanna/morph21/subject-161.csv","xpyriment","Kafkaesque Koffka","3.2.5","0","/","NA","NA","NA","NA","space","/","585","NA","NA","NA","NA","230600","585","2","legacy","1024","2","48000","-16","BA_m21","161","odd","FILL_W","BLUNT","1140","331239","328081","329731","231755","NA","NA","NA","NA","329724","328578","NA","327581","NA","327572","329724","1155","331540","NA","NA","328731","1140","1140","329123","327572","1140","328731","331540","morph21_Oliver/Morris","18","20127","27","yes","1280","4"
"400","67.8571428571","67.8571428571","746.928571429","746.928571429","black","no","xpyriment","legacy","legacy","0","201","NA","uniform","54381","1000","0.0183887754914","1","undefined","1","0","27","27","27","0","27","27","27","NA","27","27","0","27","NA","27","27","0","27","NA","27","NA","27","0","0","27","27","0","27","27","28","/","02/22/19 13:48:27","The main experiment item","yes","FIN__BA__M21__7%3A10%3A17.osexp","C:\Users\ERP Testing Room\Desktop\Joanna\morph21","no","mono","no","18","no","white","no","yes","1080","legacy","27","27","C:/Users/ERP Testing Room/Desktop/Joanna/morph21/subject-161.csv","xpyriment","Kafkaesque Koffka","3.2.5","0","/","NA","NA","NA","NA","space","/","787","NA","NA","NA","NA","230600","787","2","legacy","1024","2","48000","-16","BA_m21","161","odd","CW_S","WIDOWED","1140","334448","332756","329731","231755","NA","NA","NA","NA","334439","333253","NA","332256","NA","332252","334439","1155","334848","NA","NA","333448","1140","1140","333839","332252","1140","333448","334848","morph21_Oliver/Morris","19","20914","28","yes","1280","7"
"400","68.9655172414","68.9655172414","748.75862069","748.75862069","black","no","xpyriment","legacy","legacy","0","204","NA","uniform","63059","1000","0.015858164576","1","undefined","1","0","28","28","28","0","28","28","28","NA","28","28","0","28","NA","28","28","0","28","NA","28","NA","28","0","0","28","28","0","28","28","29","z","02/22/19 13:48:27","The main experiment item","yes","FIN__BA__M21__7%3A10%3A17.osexp","C:\Users\ERP Testing Room\Desktop\Joanna\morph21","no","mono","no","18","no","white","no","yes","1080","legacy","28","28","C:/Users/ERP Testing Room/Desktop/Joanna/morph21/subject-161.csv","xpyriment","Kafkaesque Koffka","3.2.5","0","Z","NA","NA","NA","NA","space","Z","800","NA","NA","NA","NA","230600","800","2","legacy","1024","2","48000","-16","BA_m21","161","odd","NW_L_COMP","FLITENGE","1140","337715","336023","329731","231755","NA","NA","NA","NA","337711","336520","NA","335523","NA","335518","337711","1155","338115","NA","NA","336715","1140","1140","337115","335518","1140","336715","338115","morph21_Oliver/Morris","20","21714","29","yes","1280","3"
"250","66.6666666667","66.6666666667","756.833333333","756.833333333","black","no","xpyriment","legacy","legacy","0","201","NA","uniform","56309","1000","0.0177591504022","0","undefined","0","0","29","29","29","0","29","29","29","NA","29","29","0","29","NA","29","29","0","29","NA","29","NA","29","0","0","29","29","0","29","29","30","/","02/22/19 13:48:27","The main experiment item","yes","FIN__BA__M21__7%3A10%3A17.osexp","C:\Users\ERP Testing Room\Desktop\Joanna\morph21","no","mono","no","18","no","white","no","yes","1080","legacy","29","29","C:/Users/ERP Testing Room/Desktop/Joanna/morph21/subject-161.csv","xpyriment","Kafkaesque Koffka","3.2.5","0","None","NA","NA","NA","NA","space","None","991","NA","NA","NA","NA","230600","991","2","legacy","1024","2","48000","-16","BA_m21","161","odd","CW_S","MILDNESS","1140","342399","339241","340891","231755","NA","NA","NA","NA","337711","339738","NA","338740","NA","338729","340882","1155","342649","NA","NA","339891","1140","1140","340282","338729","1140","339891","342649","morph21_Oliver/Morris","20","22705","30","yes","1280","42"
"400","67.7419354839","67.7419354839","752.225806452","752.225806452","black","no","xpyriment","legacy","legacy","0","203","NA","uniform","62570","1000","0.0159821000479","1","undefined","1","0","30","30","30","0","30","30","30","NA","30","30","0","30","NA","30","30","0","30","NA","30","NA","30","0","0","30","30","0","30","30","31","z","02/22/19 13:48:27","The main experiment item","yes","FIN__BA__M21__7%3A10%3A17.osexp","C:\Users\ERP Testing Room\Desktop\Joanna\morph21","no","mono","no","18","no","white","no","yes","1080","legacy","30","30","C:/Users/ERP Testing Room/Desktop/Joanna/morph21/subject-161.csv","xpyriment","Kafkaesque Koffka","3.2.5","0","Z","NA","NA","NA","NA","space","Z","614","NA","NA","NA","NA","230600","614","2","legacy","1024","2","48000","-16","BA_m21","161","odd","NW_S_COMP","ALTARIG","1140","345566","343866","340891","231755","NA","NA","NA","NA","345562","344363","NA","343366","NA","343359","345562","1155","345966","NA","NA","344574","1140","1140","344966","343359","1140","344574","345966","morph21_Oliver/Morris","21","23319","31","yes","1280","7"
"200","65.625","65.625","755.6875","755.6875","black","no","xpyriment","legacy","legacy","0","208","NA","uniform","50623","1000","0.0197538668194","0","undefined","0","0","31","31","31","0","31","31","31","NA","31","31","0","31","NA","31","31","0","31","NA","31","NA","31","0","0","31","31","0","31","31","32","z","02/22/19 13:48:27","The main experiment item","yes","FIN__BA__M21__7%3A10%3A17.osexp","C:\Users\ERP Testing Room\Desktop\Joanna\morph21","no","mono","no","18","no","white","no","yes","1080","legacy","31","31","C:/Users/ERP Testing Room/Desktop/Joanna/morph21/subject-161.csv","xpyriment","Kafkaesque Koffka","3.2.5","0","/","NA","NA","NA","NA","space","/","863","NA","NA","NA","NA","230600","863","2","legacy","1024","2","48000","-16","BA_m21","161","odd","FILL_NW","FALONS","1140","348916","347174","340891","231755","NA","NA","NA","NA","345562","347672","NA","346674","NA","346666","348911","1155","349116","NA","NA","347916","1140","1140","348316","346666","1140","347916","349116","morph21_Oliver/Morris","21","24182","32","yes","1280","19"
"400","66.6666666667","66.6666666667","755.606060606","755.606060606","black","no","xpyriment","legacy","legacy","0","208","NA","uniform","53783","1000","0.0185932357808","1","undefined","1","0","32","32","32","0","32","32","32","NA","32","32","0","32","NA","32","32","0","32","NA","32","NA","32","0","0","32","32","0","32","32","33","z","02/22/19 13:48:27","The main experiment item","yes","FIN__BA__M21__7%3A10%3A17.osexp","C:\Users\ERP Testing Room\Desktop\Joanna\morph21","no","mono","no","18","no","white","no","yes","1080","legacy","32","32","C:/Users/ERP Testing Room/Desktop/Joanna/morph21/subject-161.csv","xpyriment","Kafkaesque Koffka","3.2.5","0","Z","NA","NA","NA","NA","space","Z","753","NA","NA","NA","NA","230600","753","2","legacy","1024","2","48000","-16","BA_m21","161","odd","FILL_NW","GIKE","1140","353566","350366","352058","231755","NA","NA","NA","NA","352049","350863","NA","349866","NA","349861","352049","1155","353967","NA","NA","351058","1140","1140","351450","349860","1140","351058","353967","morph21_Oliver/Morris","22","24935","33","yes","1280","24"
"250","64.7058823529","64.7058823529","762.676470588","762.676470588","black","no","xpyriment","legacy","legacy","0","208","NA","uniform","49776","1000","0.0200900032144","0","undefined","0","0","33","33","33","0","33","33","33","NA","33","33","0","33","NA","33","33","0","33","NA","33","NA","33","0","0","33","33","0","33","33","34","z","02/22/19 13:48:27","The main experiment item","yes","FIN__BA__M21__7%3A10%3A17.osexp","C:\Users\ERP Testing Room\Desktop\Joanna\morph21","no","mono","no","18","no","white","no","yes","1080","legacy","33","33","C:/Users/ERP Testing Room/Desktop/Joanna/morph21/subject-161.csv","xpyriment","Kafkaesque Koffka","3.2.5","0","None","NA","NA","NA","NA","space","None","996","NA","NA","NA","NA","230600","996","2","legacy","1024","2","48000","-16","BA_m21","161","odd","FILL_NW","DOWED","1140","356784","355091","352058","231755","NA","NA","NA","NA","352049","355589","NA","354591","NA","354586","356780","1155","357034","NA","NA","355783","1140","1140","356183","354586","1140","355783","357034","morph21_Oliver/Morris","22","25931","34","yes","1280","16"
"250","65.7142857143","65.7142857143","766.828571429","766.828571429","black","no","xpyriment","legacy","legacy","0","204","NA","uniform","52690","1000","0.0189789333839","1","undefined","1","0","34","34","34","0","34","34","34","NA","34","34","0","34","NA","34","34","0","34","NA","34","NA","34","0","0","34","34","0","34","34","35","z","02/22/19 13:48:27","The main experiment item","yes","FIN__BA__M21__7%3A10%3A17.osexp","C:\Users\ERP Testing Room\Desktop\Joanna\morph21","no","mono","no","18","no","white","no","yes","1080","legacy","34","34","C:/Users/ERP Testing Room/Desktop/Joanna/morph21/subject-161.csv","xpyriment","Kafkaesque Koffka","3.2.5","0","Z","NA","NA","NA","NA","space","Z","908","NA","NA","NA","NA","230600","908","2","legacy","1024","2","48000","-16","BA_m21","161","odd","NW_L_COMP","FREENELS","1140","359968","358309","352058","231755","NA","NA","NA","NA","359958","358806","NA","357809","NA","357802","359958","1155","360218","NA","NA","358968","1140","1140","359359","357802","1140","358968","360218","morph21_Oliver/Morris","23","26839","35","yes","1280","15"
"300","66.6666666667","66.6666666667","764.083333333","764.083333333","black","no","xpyriment","legacy","legacy","0","202","NA","uniform","62123","1000","0.0160970976933","1","undefined","1","0","35","35","35","0","35","35","35","NA","35","35","0","35","NA","35","35","0","35","NA","35","NA","35","0","0","35","35","0","35","35","36","/","02/22/19 13:48:27","The main experiment item","yes","FIN__BA__M21__7%3A10%3A17.osexp","C:\Users\ERP Testing Room\Desktop\Joanna\morph21","no","mono","no","18","no","white","no","yes","1080","legacy","35","35","C:/Users/ERP Testing Room/Desktop/Joanna/morph21/subject-161.csv","xpyriment","Kafkaesque Koffka","3.2.5","0","/","NA","NA","NA","NA","space","/","668","NA","NA","NA","NA","230600","668","2","legacy","1024","2","48000","-16","BA_m21","161","odd","CW_L","HEATER","1140","364476","361284","362968","231755","NA","NA","NA","NA","362961","361781","NA","360784","NA","360781","362961","1155","364776","NA","NA","361968","1140","1140","362359","360781","1140","361968","364776","morph21_Oliver/Morris","24","27507","36","yes","1280","16"
"350","67.5675675676","67.5675675676","764.756756757","764.756756757","black","no","xpyriment","legacy","legacy","0","201","NA","uniform","54967","1000","0.0181927338221","1","undefined","1","0","36","36","36","0","36","36","36","NA","36","36","0","36","NA","36","36","0","36","NA","36","NA","36","0","0","36","36","0","36","36","37","/","02/22/19 13:48:27","The main experiment item","yes","FIN__BA__M21__7%3A10%3A17.osexp","C:\Users\ERP Testing Room\Desktop\Joanna\morph21","no","mono","no","18","no","white","no","yes","1080","legacy","36","36","C:/Users/ERP Testing Room/Desktop/Joanna/morph21/subject-161.csv","xpyriment","Kafkaesque Koffka","3.2.5","0","/","NA","NA","NA","NA","space","/","789","NA","NA","NA","NA","230600","789","2","legacy","1024","2","48000","-16","BA_m21","161","odd","CW_S","BEARDED","1140","367726","366076","362968","231755","NA","NA","NA","NA","367722","366573","NA","365576","NA","365569","367722","1155","368076","NA","NA","366726","1140","1140","367126","365569","1140","366726","368076","morph21_Oliver/Morris","25","28296","37","yes","1280","8"
"400","68.4210526316","68.4210526316","764.605263158","764.605263158","black","no","xpyriment","legacy","legacy","0","208","NA","uniform","55823","1000","0.0179137631442","1","undefined","1","0","37","37","37","0","37","37","37","NA","37","37","0","37","NA","37","37","0","37","NA","37","NA","37","0","0","37","37","0","37","37","38","z","02/22/19 13:48:27","The main experiment item","yes","FIN__BA__M21__7%3A10%3A17.osexp","C:\Users\ERP Testing Room\Desktop\Joanna\morph21","no","mono","no","18","no","white","no","yes","1080","legacy","37","37","C:/Users/ERP Testing Room/Desktop/Joanna/morph21/subject-161.csv","xpyriment","Kafkaesque Koffka","3.2.5","0","Z","NA","NA","NA","NA","space","Z","759","NA","NA","NA","NA","230600","759","2","legacy","1024","2","48000","-16","BA_m21","161","odd","FILL_NW","HEND","1140","371060","369351","362968","231755","NA","NA","NA","NA","371055","369849","NA","368851","NA","368841","371055","1155","371460","NA","NA","370060","1140","1140","370460","368841","1140","370060","371460","morph21_Oliver/Morris","26","29055","38","yes","1280","28"
"300","66.6666666667","66.6666666667","770.435897436","770.435897436","black","no","xpyriment","legacy","legacy","0","206","NA","uniform","51461","1000","0.0194321913682","0","undefined","0","0","38","38","38","0","38","38","38","NA","38","38","0","38","NA","38","38","0","38","NA","38","NA","38","0","0","38","38","0","38","38","39","z","02/22/19 13:48:27","The main experiment item","yes","FIN__BA__M21__7%3A10%3A17.osexp","C:\Users\ERP Testing Room\Desktop\Joanna\morph21","no","mono","no","18","no","white","no","yes","1080","legacy","38","38","C:/Users/ERP Testing Room/Desktop/Joanna/morph21/subject-161.csv","xpyriment","Kafkaesque Koffka","3.2.5","0","None","NA","NA","NA","NA","space","None","992","NA","NA","NA","NA","230600","992","2","legacy","1024","2","48000","-16","BA_m21","161","odd","NW_L_SIMP","PRAYANCE","1140","375928","372701","374419","231755","NA","NA","NA","NA","371055","373199","NA","372201","NA","372190","374410","1155","376228","NA","NA","373418","1140","1140","373810","372190","1140","373418","376228","morph21_Oliver/Morris","26","30047","39","yes","1280","1"
"250","67.5","67.5","770.1","770.1","black","no","xpyriment","legacy","legacy","0","208","NA","uniform","56660","1000","0.0176491351924","1","undefined","1","0","39","39","39","0","39","39","39","NA","39","39","0","39","NA","39","39","0","39","NA","39","NA","39","0","0","39","39","0","39","39","40","z","02/22/19 13:48:27","The main experiment item","yes","FIN__BA__M21__7%3A10%3A17.osexp","C:\Users\ERP Testing Room\Desktop\Joanna\morph21","no","mono","no","18","no","white","no","yes","1080","legacy","39","39","C:/Users/ERP Testing Room/Desktop/Joanna/morph21/subject-161.csv","xpyriment","Kafkaesque Koffka","3.2.5","0","Z","NA","NA","NA","NA","space","Z","757","NA","NA","NA","NA","230600","757","2","legacy","1024","2","48000","-16","BA_m21","161","odd","FILL_NW","POLT","1140","379119","377403","374419","231755","NA","NA","NA","NA","379109","377900","NA","376903","NA","376897","379109","1155","379370","NA","NA","378119","1140","1140","378511","376897","1140","378119","379370","morph21_Oliver/Morris","27","30804","40","yes","1280","38"
"400","65.8536585366","65.8536585366","770.609756098","770.609756098","black","no","xpyriment","legacy","legacy","0","207","NA","uniform","58691","1000","0.017038387487","0","undefined","0","0","40","40","40","0","40","40","40","NA","40","40","0","40","NA","40","40","0","40","NA","40","NA","40","0","0","40","40","0","40","40","41","/","02/22/19 13:48:27","The main experiment item","yes","FIN__BA__M21__7%3A10%3A17.osexp","C:\Users\ERP Testing Room\Desktop\Joanna\morph21","no","mono","no","18","no","white","no","yes","1080","legacy","40","40","C:/Users/ERP Testing Room/Desktop/Joanna/morph21/subject-161.csv","xpyriment","Kafkaesque Koffka","3.2.5","0","Z","NA","NA","NA","NA","space","Z","791","NA","NA","NA","NA","230600","791","2","legacy","1024","2","48000","-16","BA_m21","161","odd","FILL_W","LITHE","1140","382253","380586","374419","231755","NA","NA","NA","NA","379109","381083","NA","380086","NA","380080","382245","1155","382653","NA","NA","381253","1140","1140","381645","380080","1140","381253","382653","morph21_Oliver/Morris","27","31595","41","yes","1280","23"
"350","66.6666666667","66.6666666667","768.714285714","768.714285714","black","no","xpyriment","legacy","legacy","0","208","NA","uniform","58491","1000","0.0170966473475","1","undefined","1","0","41","41","41","0","41","41","41","NA","41","41","0","41","NA","41","41","0","41","NA","41","NA","41","0","0","41","41","0","41","41","42","z","02/22/19 13:48:27","The main experiment item","yes","FIN__BA__M21__7%3A10%3A17.osexp","C:\Users\ERP Testing Room\Desktop\Joanna\morph21","no","mono","no","18","no","white","no","yes","1080","legacy","41","41","C:/Users/ERP Testing Room/Desktop/Joanna/morph21/subject-161.csv","xpyriment","Kafkaesque Koffka","3.2.5","0","Z","NA","NA","NA","NA","space","Z","691","NA","NA","NA","NA","230600","691","2","legacy","1024","2","48000","-16","BA_m21","161","odd","FILL_NW","JADS","1140","387036","383803","385528","231755","NA","NA","NA","NA","385521","384300","NA","383303","NA","383296","385521","1155","387387","NA","NA","384528","1140","1140","384920","383296","1140","384528","387387","morph21_Oliver/Morris","28","32286","42","yes","1280","31"
"350","67.4418604651","67.4418604651","770.534883721","770.534883721","black","no","xpyriment","legacy","legacy","0","202","NA","uniform","60656","1000","0.0164864151939","1","undefined","1","0","42","42","42","0","42","42","42","NA","42","42","0","42","NA","42","42","0","42","NA","42","NA","42","0","0","42","42","0","42","42","43","/","02/22/19 13:48:27","The main experiment item","yes","FIN__BA__M21__7%3A10%3A17.osexp","C:\Users\ERP Testing Room\Desktop\Joanna\morph21","no","mono","no","18","no","white","no","yes","1080","legacy","42","42","C:/Users/ERP Testing Room/Desktop/Joanna/morph21/subject-161.csv","xpyriment","Kafkaesque Koffka","3.2.5","0","/","NA","NA","NA","NA","space","/","847","NA","NA","NA","NA","230600","847","2","legacy","1024","2","48000","-16","BA_m21","161","odd","CW_L","PAINTER","1140","390228","388536","385528","231755","NA","NA","NA","NA","390224","389034","NA","388036","NA","388025","390224","1155","390578","NA","NA","389228","1140","1140","389628","388025","1140","389228","390578","morph21_Oliver/Morris","29","33133","43","yes","1280","18"
"350","68.1818181818","68.1818181818","774.818181818","774.818181818","black","no","xpyriment","legacy","legacy","0","201","NA","uniform","50900","1000","0.0196463654224","1","undefined","1","0","43","43","43","0","43","43","43","NA","43","43","0","43","NA","43","43","0","43","NA","43","NA","43","0","0","43","43","0","43","43","44","/","02/22/19 13:48:27","The main experiment item","yes","FIN__BA__M21__7%3A10%3A17.osexp","C:\Users\ERP Testing Room\Desktop\Joanna\morph21","no","mono","no","18","no","white","no","yes","1080","legacy","43","43","C:/Users/ERP Testing Room/Desktop/Joanna/morph21/subject-161.csv","xpyriment","Kafkaesque Koffka","3.2.5","0","/","NA","NA","NA","NA","space","/","959","NA","NA","NA","NA","230600","959","2","legacy","1024","2","48000","-16","BA_m21","161","odd","CW_S","STRANGENESS","1140","393413","391729","385528","231755","NA","NA","NA","NA","393409","392226","NA","391228","NA","391220","393409","1155","393763","NA","NA","392421","1140","1140","392813","391220","1140","392421","393763","morph21_Oliver/Morris","30","34092","44","yes","1280","46"
"350","68.8888888889","68.8888888889","770.266666667","770.266666667","black","no","xpyriment","legacy","legacy","0","201","NA","uniform","71787","1000","0.0139300987644","1","undefined","1","0","44","44","44","0","44","44","44","NA","44","44","0","44","NA","44","44","0","44","NA","44","NA","44","0","0","44","44","0","44","44","45","/","02/22/19 13:48:27","The main experiment item","yes","FIN__BA__M21__7%3A10%3A17.osexp","C:\Users\ERP Testing Room\Desktop\Joanna\morph21","no","mono","no","18","no","white","no","yes","1080","legacy","44","44","C:/Users/ERP Testing Room/Desktop/Joanna/morph21/subject-161.csv","xpyriment","Kafkaesque Koffka","3.2.5","0","/","NA","NA","NA","NA","space","/","570","NA","NA","NA","NA","230600","570","2","legacy","1024","2","48000","-16","BA_m21","161","odd","CW_S","CHILLY","1140","398246","395046","396738","231755","NA","NA","NA","NA","396732","395543","NA","394546","NA","394535","396732","1155","398596","NA","NA","395738","1140","1140","396129","394535","1140","395738","398596","morph21_Oliver/Morris","31","34662","45","yes","1280","48"
"250","69.5652173913","69.5652173913","767.97826087","767.97826087","black","no","xpyriment","legacy","legacy","0","203","NA","uniform","57282","1000","0.0174574910094","1","undefined","1","0","45","45","45","0","45","45","45","NA","45","45","0","45","NA","45","45","0","45","NA","45","NA","45","0","0","45","45","0","45","45","46","z","02/22/19 13:48:27","The main experiment item","yes","FIN__BA__M21__7%3A10%3A17.osexp","C:\Users\ERP Testing Room\Desktop\Joanna\morph21","no","mono","no","18","no","white","no","yes","1080","legacy","45","45","C:/Users/ERP Testing Room/Desktop/Joanna/morph21/subject-161.csv","xpyriment","Kafkaesque Koffka","3.2.5","0","Z","NA","NA","NA","NA","space","Z","665","NA","NA","NA","NA","230600","665","2","legacy","1024","2","48000","-16","BA_m21","161","odd","NW_S_COMP","BEEREL","1140","401555","399846","396738","231755","NA","NA","NA","NA","401546","400343","NA","399346","NA","399334","401546","1155","401805","NA","NA","400555","1140","1140","400946","399334","1140","400555","401805","morph21_Oliver/Morris","32","35327","46","yes","1280","5"
"300","70.2127659574","70.2127659574","764.127659574","764.127659574","black","no","xpyriment","legacy","legacy","0","207","NA","uniform","61767","1000","0.0161898748523","1","undefined","1","0","46","46","46","0","46","46","46","NA","46","46","0","46","NA","46","46","0","46","NA","46","NA","46","0","0","46","46","0","46","46","47","/","02/22/19 13:48:27","The main experiment item","yes","FIN__BA__M21__7%3A10%3A17.osexp","C:\Users\ERP Testing Room\Desktop\Joanna\morph21","no","mono","no","18","no","white","no","yes","1080","legacy","46","46","C:/Users/ERP Testing Room/Desktop/Joanna/morph21/subject-161.csv","xpyriment","Kafkaesque Koffka","3.2.5","0","/","NA","NA","NA","NA","space","/","587","NA","NA","NA","NA","230600","587","2","legacy","1024","2","48000","-16","BA_m21","161","odd","FILL_W","SICK","1140","404688","403005","396738","231755","NA","NA","NA","NA","404683","403502","NA","402505","NA","402501","404683","1155","404988","NA","NA","403688","1140","1140","404088","402501","1140","403688","404988","morph21_Oliver/Morris","33","35914","47","yes","1280","36"
"200","70.8333333333","70.8333333333","759.125","759.125","black","no","xpyriment","legacy","legacy","0","207","NA","uniform","68147","1000","0.0146741602712","1","undefined","1","0","47","47","47","0","47","47","47","NA","47","47","0","47","NA","47","47","0","47","NA","47","NA","47","0","0","47","47","0","47","47","48","/","02/22/19 13:48:27","The main experiment item","yes","FIN__BA__M21__7%3A10%3A17.osexp","C:\Users\ERP Testing Room\Desktop\Joanna\morph21","no","mono","no","18","no","white","no","yes","1080","legacy","47","47","C:/Users/ERP Testing Room/Desktop/Joanna/morph21/subject-161.csv","xpyriment","Kafkaesque Koffka","3.2.5","0","/","NA","NA","NA","NA","space","/","524","NA","NA","NA","NA","230600","524","2","legacy","1024","2","48000","-16","BA_m21","161","odd","FILL_W","TAX","1140","409356","406188","407847","231755","NA","NA","NA","NA","407843","406685","NA","405688","NA","405682","407843","1155","409556","NA","NA","406855","1140","1140","407247","405682","1140","406855","409556","morph21_Oliver/Morris","34","36438","48","yes","1280","45"
"250","71.4285714286","71.4285714286","756.142857143","756.142857143","black","no","xpyriment","legacy","legacy","0","207","NA","uniform","62813","1000","0.0159202712814","1","undefined","1","0","48","48","48","0","48","48","48","NA","48","48","0","48","NA","48","48","0","48","NA","48","NA","48","0","0","48","48","0","48","48","49","/","02/22/19 13:48:27","The main experiment item","yes","FIN__BA__M21__7%3A10%3A17.osexp","C:\Users\ERP Testing Room\Desktop\Joanna\morph21","no","mono","no","18","no","white","no","yes","1080","legacy","48","48","C:/Users/ERP Testing Room/Desktop/Joanna/morph21/subject-161.csv","xpyriment","Kafkaesque Koffka","3.2.5","0","/","NA","NA","NA","NA","space","/","613","NA","NA","NA","NA","230600","613","2","legacy","1024","2","48000","-16","BA_m21","161","odd","FILL_W","SOUGHT","1140","412423","410731","407847","231755","NA","NA","NA","NA","412420","411228","NA","410231","NA","410219","412420","1155","412673","NA","NA","411431","1140","1140","411823","410219","1140","411431","412673","morph21_Oliver/Morris","35","37051","49","yes","1280","40"
"200","72","72","750.92","750.92","black","no","xpyriment","legacy","legacy","0","201","NA","uniform","60434","1000","0.0165469768673","1","undefined","1","0","49","49","49","0","49","49","49","NA","49","49","0","49","NA","49","49","0","49","NA","49","NA","49","0","0","49","49","0","49","49","50","/","02/22/19 13:48:27","The main experiment item","yes","FIN__BA__M21__7%3A10%3A17.osexp","C:\Users\ERP Testing Room\Desktop\Joanna\morph21","no","mono","no","18","no","white","no","yes","1080","legacy","49","49","C:/Users/ERP Testing Room/Desktop/Joanna/morph21/subject-161.csv","xpyriment","Kafkaesque Koffka","3.2.5","0","/","NA","NA","NA","NA","space","/","495","NA","NA","NA","NA","230600","495","2","legacy","1024","2","48000","-16","BA_m21","161","odd","CW_S","ENJOYMENT","1140","415565","413898","407847","231755","NA","NA","NA","NA","415559","414395","NA","413390","NA","413381","415559","1155","415765","NA","NA","414565","1140","1140","414965","413381","1140","414565","415765","morph21_Oliver/Morris","36","37546","50","yes","1280","40"
"200","72.5490196078","72.5490196078","747.509803922","747.509803922","black","no","xpyriment","legacy","legacy","0","207","NA","uniform","60921","1000","0.0164147010062","1","undefined","1","0","50","50","50","0","50","50","50","NA","50","50","0","50","NA","50","50","0","50","NA","50","NA","50","0","0","50","50","0","50","50","51","/","02/22/19 13:48:27","The main experiment item","yes","FIN__BA__M21__7%3A10%3A17.osexp","C:\Users\ERP Testing Room\Desktop\Joanna\morph21","no","mono","no","18","no","white","no","yes","1080","legacy","50","50","C:/Users/ERP Testing Room/Desktop/Joanna/morph21/subject-161.csv","xpyriment","Kafkaesque Koffka","3.2.5","0","/","NA","NA","NA","NA","space","/","577","NA","NA","NA","NA","230600","577","2","legacy","1024","2","48000","-16","BA_m21","161","odd","FILL_W","FLOAT","1140","420232","417015","418723","231755","NA","NA","NA","NA","418714","417512","NA","416515","NA","416509","418714","1155","420432","NA","NA","417723","1140","1140","418115","416509","1140","417723","420432","morph21_Oliver/Morris","37","38123","51","yes","1280","30"
"300","73.0769230769","73.0769230769","749.019230769","749.019230769","black","no","xpyriment","legacy","legacy","0","203","NA","uniform","52200","1000","0.0191570881226","1","undefined","1","0","51","51","51","0","51","51","51","NA","51","51","0","51","NA","51","51","0","51","NA","51","NA","51","0","0","51","51","0","51","51","52","z","02/22/19 13:48:27","The main experiment item","yes","FIN__BA__M21__7%3A10%3A17.osexp","C:\Users\ERP Testing Room\Desktop\Joanna\morph21","no","mono","no","18","no","white","no","yes","1080","legacy","51","51","C:/Users/ERP Testing Room/Desktop/Joanna/morph21/subject-161.csv","xpyriment","Kafkaesque Koffka","3.2.5","0","Z","NA","NA","NA","NA","space","Z","826","NA","NA","NA","NA","230600","826","2","legacy","1024","2","48000","-16","BA_m21","161","odd","NW_S_COMP","FIGEL","1140","423273","421590","418723","231755","NA","NA","NA","NA","423263","422087","NA","421090","NA","421085","423263","1155","423573","NA","NA","422273","1140","1140","422665","421085","1140","422273","423573","morph21_Oliver/Morris","38","38949","52","yes","1280","4"
"300","73.5849056604","73.5849056604","750.41509434","750.41509434","black","no","xpyriment","legacy","legacy","0","208","NA","uniform","54552","1000","0.0183311335973","1","undefined","1","0","52","52","52","0","52","52","52","NA","52","52","0","52","NA","52","52","0","52","NA","52","NA","52","0","0","52","52","0","52","52","53","z","02/22/19 13:48:27","The main experiment item","yes","FIN__BA__M21__7%3A10%3A17.osexp","C:\Users\ERP Testing Room\Desktop\Joanna\morph21","no","mono","no","18","no","white","no","yes","1080","legacy","52","52","C:/Users/ERP Testing Room/Desktop/Joanna/morph21/subject-161.csv","xpyriment","Kafkaesque Koffka","3.2.5","0","Z","NA","NA","NA","NA","space","Z","823","NA","NA","NA","NA","230600","823","2","legacy","1024","2","48000","-16","BA_m21","161","odd","FILL_NW","BAFED","1140","426533","424832","418723","231755","NA","NA","NA","NA","426525","425329","NA","424323","NA","424315","426525","1155","426833","NA","NA","425532","1140","1140","425923","424315","1140","425532","426833","morph21_Oliver/Morris","39","39772","53","yes","1280","1"
"400","74.0740740741","74.0740740741","747.314814815","747.314814815","black","no","xpyriment","legacy","legacy","0","202","NA","uniform","60407","1000","0.0165543728376","1","undefined","1","0","53","53","53","0","53","53","53","NA","53","53","0","53","NA","53","53","0","53","NA","53","NA","53","0","0","53","53","0","53","53","54","/","02/22/19 13:48:27","The main experiment item","yes","FIN__BA__M21__7%3A10%3A17.osexp","C:\Users\ERP Testing Room\Desktop\Joanna\morph21","no","mono","no","18","no","white","no","yes","1080","legacy","53","53","C:/Users/ERP Testing Room/Desktop/Joanna/morph21/subject-161.csv","xpyriment","Kafkaesque Koffka","3.2.5","0","/","NA","NA","NA","NA","space","/","583","NA","NA","NA","NA","230600","583","2","legacy","1024","2","48000","-16","BA_m21","161","odd","CW_L","SPELLER","1140","431233","428058","429725","231755","NA","NA","NA","NA","429716","428555","NA","427558","NA","427546","429716","1155","431633","NA","NA","428725","1140","1140","429116","427546","1140","428724","431633","morph21_Oliver/Morris","40","40355","54","yes","1280","3"
"350","74.5454545455","74.5454545455","743.545454545","743.545454545","black","no","xpyriment","legacy","legacy","0","207","NA","uniform","58754","1000","0.0170201177792","1","undefined","1","0","54","54","54","0","54","54","54","NA","54","54","0","54","NA","54","54","0","54","NA","54","NA","54","0","0","54","54","0","54","54","55","/","02/22/19 13:48:27","The main experiment item","yes","FIN__BA__M21__7%3A10%3A17.osexp","C:\Users\ERP Testing Room\Desktop\Joanna\morph21","no","mono","no","18","no","white","no","yes","1080","legacy","54","54","C:/Users/ERP Testing Room/Desktop/Joanna/morph21/subject-161.csv","xpyriment","Kafkaesque Koffka","3.2.5","0","/","NA","NA","NA","NA","space","/","540","NA","NA","NA","NA","230600","540","2","legacy","1024","2","48000","-16","BA_m21","161","odd","FILL_W","BRISK","1140","434608","432916","429725","231755","NA","NA","NA","NA","434603","433414","NA","432416","NA","432411","434603","1155","434958","NA","NA","433608","1140","1140","434008","432411","1140","433608","434958","morph21_Oliver/Morris","41","40895","55","yes","1280","8"
"250","75","75","747.446428571","747.446428571","black","no","xpyriment","legacy","legacy","0","206","NA","uniform","43667","1000","0.0229005885451","1","undefined","1","0","55","55","55","0","55","55","55","NA","55","55","0","55","NA","55","55","0","55","NA","55","NA","55","0","0","55","55","0","55","55","56","z","02/22/19 13:48:27","The main experiment item","yes","FIN__BA__M21__7%3A10%3A17.osexp","C:\Users\ERP Testing Room\Desktop\Joanna\morph21","no","mono","no","18","no","white","no","yes","1080","legacy","55","55","C:/Users/ERP Testing Room/Desktop/Joanna/morph21/subject-161.csv","xpyriment","Kafkaesque Koffka","3.2.5","0","Z","NA","NA","NA","NA","space","Z","962","NA","NA","NA","NA","230600","962","2","legacy","1024","2","48000","-16","BA_m21","161","odd","NW_L_SIMP","SHOOTMENT","1140","438033","436283","429725","231755","NA","NA","NA","NA","438027","436780","NA","435783","NA","435772","438027","1155","438283","NA","NA","437033","1140","1140","437425","435772","1140","437033","438283","morph21_Oliver/Morris","42","41857","56","yes","1280","16"
"250","75.4385964912","75.4385964912","746","746","black","no","xpyriment","legacy","legacy","0","208","NA","uniform","51980","1000","0.0192381685264","1","undefined","1","0","56","56","56","0","56","56","56","NA","56","56","0","56","NA","56","56","0","56","NA","56","NA","56","0","0","56","56","0","56","56","57","z","02/22/19 13:48:27","The main experiment item","yes","FIN__BA__M21__7%3A10%3A17.osexp","C:\Users\ERP Testing Room\Desktop\Joanna\morph21","no","mono","no","18","no","white","no","yes","1080","legacy","56","56","C:/Users/ERP Testing Room/Desktop/Joanna/morph21/subject-161.csv","xpyriment","Kafkaesque Koffka","3.2.5","0","Z","NA","NA","NA","NA","space","Z","665","NA","NA","NA","NA","230600","665","2","legacy","1024","2","48000","-16","BA_m21","161","odd","FILL_NW","BUWL","1140","442758","439558","441250","231755","NA","NA","NA","NA","441242","440055","NA","439058","NA","439051","441242","1155","443009","NA","NA","440250","1140","1140","440642","439051","1140","440250","443009","morph21_Oliver/Morris","43","42522","57","yes","1280","9"
"350","74.1379310345","74.1379310345","750.275862069","750.275862069","black","no","xpyriment","legacy","legacy","0","208","NA","uniform","54839","1000","0.0182351975784","0","undefined","0","0","57","57","57","0","57","57","57","NA","57","57","0","57","NA","57","57","0","57","NA","57","NA","57","0","0","57","57","0","57","57","58","z","02/22/19 13:48:27","The main experiment item","yes","FIN__BA__M21__7%3A10%3A17.osexp","C:\Users\ERP Testing Room\Desktop\Joanna\morph21","no","mono","no","18","no","white","no","yes","1080","legacy","57","57","C:/Users/ERP Testing Room/Desktop/Joanna/morph21/subject-161.csv","xpyriment","Kafkaesque Koffka","3.2.5","0","None","NA","NA","NA","NA","space","None","994","NA","NA","NA","NA","230600","994","2","legacy","1024","2","48000","-16","BA_m21","161","odd","FILL_NW","DARF","1140","445885","444218","441250","231755","NA","NA","NA","NA","441242","444715","NA","443717","NA","443706","445878","1155","446235","NA","NA","444884","1140","1140","445276","443705","1140","444884","446235","morph21_Oliver/Morris","43","43516","58","yes","1280","10"
"350","74.5762711864","74.5762711864","750.338983051","750.338983051","black","no","xpyriment","legacy","legacy","0","201","NA","uniform","65386","1000","0.0152937937785","1","undefined","1","0","58","58","58","0","58","58","58","NA","58","58","0","58","NA","58","58","0","58","NA","58","NA","58","0","0","58","58","0","58","58","59","/","02/22/19 13:48:27","The main experiment item","yes","FIN__BA__M21__7%3A10%3A17.osexp","C:\Users\ERP Testing Room\Desktop\Joanna\morph21","no","mono","no","18","no","white","no","yes","1080","legacy","58","58","C:/Users/ERP Testing Room/Desktop/Joanna/morph21/subject-161.csv","xpyriment","Kafkaesque Koffka","3.2.5","0","/","NA","NA","NA","NA","space","/","754","NA","NA","NA","NA","230600","754","2","legacy","1024","2","48000","-16","BA_m21","161","odd","CW_S","LENDER","1140","449218","447560","441250","231755","NA","NA","NA","NA","449212","448057","NA","447060","NA","447049","449212","1155","449568","NA","NA","448218","1140","1140","448610","447049","1140","448218","449568","morph21_Oliver/Morris","44","44270","59","yes","1280","11"
"400","75","75","750.216666667","750.216666667","black","no","xpyriment","legacy","legacy","0","208","NA","uniform","55845","1000","0.0179067060614","1","undefined","1","0","59","59","59","0","59","59","59","NA","59","59","0","59","NA","59","59","0","59","NA","59","NA","59","0","0","59","59","0","59","59","60","z","02/22/19 13:48:27","The main experiment item","yes","FIN__BA__M21__7%3A10%3A17.osexp","C:\Users\ERP Testing Room\Desktop\Joanna\morph21","no","mono","no","18","no","white","no","yes","1080","legacy","59","59","C:/Users/ERP Testing Room/Desktop/Joanna/morph21/subject-161.csv","xpyriment","Kafkaesque Koffka","3.2.5","0","Z","NA","NA","NA","NA","space","Z","743","NA","NA","NA","NA","230600","743","2","legacy","1024","2","48000","-16","BA_m21","161","odd","FILL_NW","BUTE","1140","453985","450810","452476","231755","NA","NA","NA","NA","452466","451307","NA","450310","NA","450300","452466","1155","454385","NA","NA","451477","1140","1140","451868","450300","1140","451477","454385","morph21_Oliver/Morris","45","45013","60","yes","1280","5"
"250","75.4098360656","75.4098360656","753.721311475","753.721311475","black","no","xpyriment","legacy","legacy","0","206","NA","uniform","53319","1000","0.0187550404171","1","undefined","1","0","60","60","60","0","60","60","60","NA","60","60","0","60","NA","60","60","0","60","NA","60","NA","60","0","0","60","60","0","60","60","61","z","02/22/19 13:48:27","The main experiment item","yes","FIN__BA__M21__7%3A10%3A17.osexp","C:\Users\ERP Testing Room\Desktop\Joanna\morph21","no","mono","no","18","no","white","no","yes","1080","legacy","60","60","C:/Users/ERP Testing Room/Desktop/Joanna/morph21/subject-161.csv","xpyriment","Kafkaesque Koffka","3.2.5","0","Z","NA","NA","NA","NA","space","Z","964","NA","NA","NA","NA","230600","964","2","legacy","1024","2","48000","-16","BA_m21","161","odd","NW_L_SIMP","SMOOTHFUL","1140","457335","455627","452476","231755","NA","NA","NA","NA","457324","456124","NA","455127","NA","455116","457324","1155","457585","NA","NA","456335","1140","1140","456727","455116","1140","456335","457585","morph21_Oliver/Morris","46","45977","61","yes","1280","19"
"250","75.8064516129","75.8064516129","751.129032258","751.129032258","black","no","xpyriment","legacy","legacy","0","207","NA","uniform","65345","1000","0.0153033897008","1","undefined","1","0","61","61","61","0","61","61","61","NA","61","61","0","61","NA","61","61","0","61","NA","61","NA","61","0","0","61","61","0","61","61","62","/","02/22/19 13:48:27","The main experiment item","yes","FIN__BA__M21__7%3A10%3A17.osexp","C:\Users\ERP Testing Room\Desktop\Joanna\morph21","no","mono","no","18","no","white","no","yes","1080","legacy","61","61","C:/Users/ERP Testing Room/Desktop/Joanna/morph21/subject-161.csv","xpyriment","Kafkaesque Koffka","3.2.5","0","/","NA","NA","NA","NA","space","/","593","NA","NA","NA","NA","230600","593","2","legacy","1024","2","48000","-16","BA_m21","161","odd","FILL_W","TREAT","1140","460419","458727","452476","231755","NA","NA","NA","NA","460410","459224","NA","458227","NA","458216","460410","1155","460669","NA","NA","459418","1140","1140","459810","458216","1140","459418","460669","morph21_Oliver/Morris","47","46570","62","yes","1280","48"
"350","76.1904761905","76.1904761905","750.666666667","750.666666667","black","no","xpyriment","legacy","legacy","0","203","NA","uniform","58791","1000","0.0170094062016","1","undefined","1","0","62","62","62","0","62","62","62","NA","62","62","0","62","NA","62","62","0","62","NA","62","NA","62","0","0","62","62","0","62","62","63","z","02/22/19 13:48:27","The main experiment item","yes","FIN__BA__M21__7%3A10%3A17.osexp","C:\Users\ERP Testing Room\Desktop\Joanna\morph21","no","mono","no","18","no","white","no","yes","1080","legacy","62","62","C:/Users/ERP Testing Room/Desktop/Joanna/morph21/subject-161.csv","xpyriment","Kafkaesque Koffka","3.2.5","0","Z","NA","NA","NA","NA","space","Z","722","NA","NA","NA","NA","230600","722","2","legacy","1024","2","48000","-16","BA_m21","161","odd","NW_S_COMP","DEBTITH","1140","465095","461895","463586","231755","NA","NA","NA","NA","463582","462392","NA","461394","NA","461388","463582","1155","465445","NA","NA","462586","1140","1140","462986","461388","1140","462586","465445","morph21_Oliver/Morris","48","47292","63","yes","1280","22"
"250","76.5625","76.5625","746.65625","746.65625","black","no","xpyriment","legacy","legacy","0","207","NA","uniform","66317","1000","0.0150790898261","1","undefined","1","0","63","63","63","0","63","63","63","NA","63","63","0","63","NA","63","63","0","63","NA","63","NA","63","0","0","63","63","0","63","63","64","/","02/22/19 13:48:27","The main experiment item","yes","FIN__BA__M21__7%3A10%3A17.osexp","C:\Users\ERP Testing Room\Desktop\Joanna\morph21","no","mono","no","18","no","white","no","yes","1080","legacy","63","63","C:/Users/ERP Testing Room/Desktop/Joanna/morph21/subject-161.csv","xpyriment","Kafkaesque Koffka","3.2.5","0","/","NA","NA","NA","NA","space","/","494","NA","NA","NA","NA","230600","494","2","legacy","1024","2","48000","-16","BA_m21","161","odd","FILL_W","SMOKE","1140","468270","466595","463586","231755","NA","NA","NA","NA","468263","467092","NA","466086","NA","466077","468263","1155","468520","NA","NA","467270","1140","1140","467661","466077","1140","467270","468520","morph21_Oliver/Morris","49","47786","64","yes","1280","50"
"400","76.9230769231","76.9230769231","745","745","black","no","xpyriment","legacy","legacy","0","208","NA","uniform","60248","1000","0.0165980613464","1","undefined","1","0","64","64","64","0","64","64","64","NA","64","64","0","64","NA","64","64","0","64","NA","64","NA","64","0","0","64","64","0","64","64","65","z","02/22/19 13:48:27","The main experiment item","yes","FIN__BA__M21__7%3A10%3A17.osexp","C:\Users\ERP Testing Room\Desktop\Joanna\morph21","no","mono","no","18","no","white","no","yes","1080","legacy","64","64","C:/Users/ERP Testing Room/Desktop/Joanna/morph21/subject-161.csv","xpyriment","Kafkaesque Koffka","3.2.5","0","Z","NA","NA","NA","NA","space","Z","639","NA","NA","NA","NA","230600","639","2","legacy","1024","2","48000","-16","BA_m21","161","odd","FILL_NW","DROES","1140","471437","469778","463586","231755","NA","NA","NA","NA","471434","470275","NA","469278","NA","469266","471434","1155","471837","NA","NA","470445","1140","1140","470837","469266","1140","470445","471837","morph21_Oliver/Morris","50","48425","65","yes","1280","17"
"200","77.2727272727","77.2727272727","740.53030303","740.53030303","black","no","xpyriment","legacy","legacy","0","201","NA","uniform","67940","1000","0.0147188695908","1","undefined","1","0","65","65","65","0","65","65","65","NA","65","65","0","65","NA","65","65","0","65","NA","65","NA","65","0","0","65","65","0","65","65","66","/","02/22/19 13:48:27","The main experiment item","yes","FIN__BA__M21__7%3A10%3A17.osexp","C:\Users\ERP Testing Room\Desktop\Joanna\morph21","no","mono","no","18","no","white","no","yes","1080","legacy","65","65","C:/Users/ERP Testing Room/Desktop/Joanna/morph21/subject-161.csv","xpyriment","Kafkaesque Koffka","3.2.5","0","/","NA","NA","NA","NA","space","/","450","NA","NA","NA","NA","230600","450","2","legacy","1024","2","48000","-16","BA_m21","161","odd","CW_S","LISTENER","1140","476254","473062","474745","231755","NA","NA","NA","NA","474736","473559","NA","472562","NA","472550","474736","1155","476454","NA","NA","473745","1140","1140","474137","472550","1140","473745","476454","morph21_Oliver/Morris","51","48875","66","yes","1280","18"
"200","76.1194029851","76.1194029851","744.268656716","744.268656716","black","no","xpyriment","legacy","legacy","0","208","NA","uniform","48561","1000","0.0205926566586","0","undefined","0","0","66","66","66","0","66","66","66","NA","66","66","0","66","NA","66","66","0","66","NA","66","NA","66","0","0","66","66","0","66","66","67","z","02/22/19 13:48:27","The main experiment item","yes","FIN__BA__M21__7%3A10%3A17.osexp","C:\Users\ERP Testing Room\Desktop\Joanna\morph21","no","mono","no","18","no","white","no","yes","1080","legacy","66","66","C:/Users/ERP Testing Room/Desktop/Joanna/morph21/subject-161.csv","xpyriment","Kafkaesque Koffka","3.2.5","0","None","NA","NA","NA","NA","space","None","991","NA","NA","NA","NA","230600","991","2","legacy","1024","2","48000","-16","BA_m21","161","odd","FILL_NW","SMADE","1140","479296","477595","474745","231755","NA","NA","NA","NA","474736","478092","NA","477095","NA","477085","479286","1155","479496","NA","NA","478295","1140","1140","478687","477085","1140","478295","479496","morph21_Oliver/Morris","51","49866","67","yes","1280","42"
"300","75","75","747.838235294","747.838235294","black","no","xpyriment","legacy","legacy","0","205","NA","uniform","47988","1000","0.0208385429691","0","undefined","0","0","67","67","67","0","67","67","67","NA","67","67","0","67","NA","67","67","0","67","NA","67","NA","67","0","0","67","67","0","67","67","68","z","02/22/19 13:48:27","The main experiment item","yes","FIN__BA__M21__7%3A10%3A17.osexp","C:\Users\ERP Testing Room\Desktop\Joanna\morph21","no","mono","no","18","no","white","no","yes","1080","legacy","67","67","C:/Users/ERP Testing Room/Desktop/Joanna/morph21/subject-161.csv","xpyriment","Kafkaesque Koffka","3.2.5","0","None","NA","NA","NA","NA","space","None","987","NA","NA","NA","NA","230600","987","2","legacy","1024","2","48000","-16","BA_m21","161","odd","NW_S_SIMP","YIELDIST","1140","482405","480696","474745","231755","NA","NA","NA","NA","474736","481194","NA","480196","NA","480188","482401","1155","482705","NA","NA","481413","1140","1140","481805","480188","1140","481413","482705","morph21_Oliver/Morris","51","50853","68","yes","1280","20"
"350","73.9130434783","73.9130434783","751.405797101","751.405797101","black","no","xpyriment","legacy","legacy","0","202","NA","uniform","48207","1000","0.0207438753708","0","undefined","0","0","68","68","68","0","68","68","68","NA","68","68","0","68","NA","68","68","0","68","NA","68","NA","68","0","0","68","68","0","68","68","69","/","02/22/19 13:48:27","The main experiment item","yes","FIN__BA__M21__7%3A10%3A17.osexp","C:\Users\ERP Testing Room\Desktop\Joanna\morph21","no","mono","no","18","no","white","no","yes","1080","legacy","68","68","C:/Users/ERP Testing Room/Desktop/Joanna/morph21/subject-161.csv","xpyriment","Kafkaesque Koffka","3.2.5","0","None","NA","NA","NA","NA","space","None","994","NA","NA","NA","NA","230600","994","2","legacy","1024","2","48000","-16","BA_m21","161","odd","CW_L","BARKER","1140","487163","483988","485655","231755","NA","NA","NA","NA","474736","484485","NA","483488","NA","483478","485649","1155","487514","NA","NA","484655","1140","1140","485047","483478","1140","484655","487514","morph21_Oliver/Morris","51","51847","69","yes","1280","2"
"350","74.2857142857","74.2857142857","747.442857143","747.442857143","black","no","xpyriment","legacy","legacy","0","201","NA","uniform","66030","1000","0.0151446312282","1","undefined","1","0","69","69","69","0","69","69","69","NA","69","69","0","69","NA","69","69","0","69","NA","69","NA","69","0","0","69","69","0","69","69","70","/","02/22/19 13:48:27","The main experiment item","yes","FIN__BA__M21__7%3A10%3A17.osexp","C:\Users\ERP Testing Room\Desktop\Joanna\morph21","no","mono","no","18","no","white","no","yes","1080","legacy","69","69","C:/Users/ERP Testing Room/Desktop/Joanna/morph21/subject-161.csv","xpyriment","Kafkaesque Koffka","3.2.5","0","/","NA","NA","NA","NA","space","/","474","NA","NA","NA","NA","230600","474","2","legacy","1024","2","48000","-16","BA_m21","161","odd","CW_S","TEACHER","1140","490322","488672","485655","231755","NA","NA","NA","NA","490312","489169","NA","488172","NA","488161","490312","1155","490672","NA","NA","489322","1140","1140","489713","488161","1140","489322","490672","morph21_Oliver/Morris","52","52321","70","yes","1280","23"
"400","73.2394366197","73.2394366197","743.633802817","743.633802817","black","no","xpyriment","legacy","legacy","0","204","NA","uniform","68981","1000","0.0144967454806","0","undefined","0","0","70","70","70","0","70","70","70","NA","70","70","0","70","NA","70","70","0","70","NA","70","NA","70","0","0","70","70","0","70","70","71","z","02/22/19 13:48:27","The main experiment item","yes","FIN__BA__M21__7%3A10%3A17.osexp","C:\Users\ERP Testing Room\Desktop\Joanna\morph21","no","mono","no","18","no","white","no","yes","1080","legacy","70","70","C:/Users/ERP Testing Room/Desktop/Joanna/morph21/subject-161.csv","xpyriment","Kafkaesque Koffka","3.2.5","0","/","NA","NA","NA","NA","space","/","477","NA","NA","NA","NA","230600","477","2","legacy","1024","2","48000","-16","BA_m21","161","odd","NW_L_COMP","BOIL","1140","493614","491880","485655","231755","NA","NA","NA","NA","490312","492377","NA","491380","NA","491373","493609","1155","494014","NA","NA","492622","1140","1140","493013","491373","1140","492622","494014","morph21_Oliver/Morris","52","52798","71","yes","1280","18"
"350","73.6111111111","73.6111111111","740.222222222","740.222222222","black","no","xpyriment","legacy","legacy","0","201","NA","uniform","57656","1000","0.0173442486471","1","undefined","1","0","71","71","71","0","71","71","71","NA","71","71","0","71","NA","71","71","0","71","NA","71","NA","71","0","0","71","71","0","71","71","72","/","02/22/19 13:48:27","The main experiment item","yes","FIN__BA__M21__7%3A10%3A17.osexp","C:\Users\ERP Testing Room\Desktop\Joanna\morph21","no","mono","no","18","no","white","no","yes","1080","legacy","71","71","C:/Users/ERP Testing Room/Desktop/Joanna/morph21/subject-161.csv","xpyriment","Kafkaesque Koffka","3.2.5","0","/","NA","NA","NA","NA","space","/","498","NA","NA","NA","NA","230600","498","2","legacy","1024","2","48000","-16","BA_m21","161","odd","CW_S","TOASTER","1140","498406","495239","496898","231755","NA","NA","NA","NA","496895","495736","NA","494739","NA","494728","496895","1155","498757","NA","NA","495905","1140","1140","496297","494728","1140","495905","498757","morph21_Oliver/Morris","53","53296","72","yes","1280","10"
"250","72.602739726","72.602739726","743.698630137","743.698630137","black","no","xpyriment","legacy","legacy","0","201","NA","uniform","51580","1000","0.0193873594416","0","undefined","0","0","72","72","72","0","72","72","72","NA","72","72","0","72","NA","72","72","0","72","NA","72","NA","72","0","0","72","72","0","72","72","73","/","02/22/19 13:48:27","The main experiment item","yes","FIN__BA__M21__7%3A10%3A17.osexp","C:\Users\ERP Testing Room\Desktop\Joanna\morph21","no","mono","no","18","no","white","no","yes","1080","legacy","72","72","C:/Users/ERP Testing Room/Desktop/Joanna/morph21/subject-161.csv","xpyriment","Kafkaesque Koffka","3.2.5","0","None","NA","NA","NA","NA","space","None","994","NA","NA","NA","NA","230600","994","2","legacy","1024","2","48000","-16","BA_m21","161","odd","CW_S","HUGELY","1140","501690","499998","496898","231755","NA","NA","NA","NA","496895","500495","NA","499498","NA","499486","501685","1155","501940","NA","NA","500690","1140","1140","501090","499486","1140","500690","501940","morph21_Oliver/Morris","53","54290","73","yes","1280","35"
"350","72.972972973","72.972972973","743.567567568","743.567567568","black","no","xpyriment","legacy","legacy","0","208","NA","uniform","58653","1000","0.0170494262868","1","undefined","1","0","73","73","73","0","73","73","73","NA","73","73","0","73","NA","73","73","0","73","NA","73","NA","73","0","0","73","73","0","73","73","74","z","02/22/19 13:48:27","The main experiment item","yes","FIN__BA__M21__7%3A10%3A17.osexp","C:\Users\ERP Testing Room\Desktop\Joanna\morph21","no","mono","no","18","no","white","no","yes","1080","legacy","73","73","C:/Users/ERP Testing Room/Desktop/Joanna/morph21/subject-161.csv","xpyriment","Kafkaesque Koffka","3.2.5","0","Z","NA","NA","NA","NA","space","Z","734","NA","NA","NA","NA","230600","734","2","legacy","1024","2","48000","-16","BA_m21","161","odd","FILL_NW","DASP","1140","504798","503123","496898","231755","NA","NA","NA","NA","504788","503620","NA","502623","NA","502615","504788","1155","505148","NA","NA","503798","1140","1140","504190","502615","1140","503798","505148","morph21_Oliver/Morris","54","55024","74","yes","1280","13"
"350","73.3333333333","73.3333333333","741.853333333","741.853333333","black","no","xpyriment","legacy","legacy","0","201","NA","uniform","68647","1000","0.014567278978","undefined","undefined","1","0","74","74","74","0","74","74","74","NA","74","74","0","74","NA","74","74","0","74","NA","74","NA","74","0","0","74","74","0","74","74","75","/","02/22/19 13:48:27","The main experiment item","yes","FIN__BA__M21__7%3A10%3A17.osexp","C:\Users\ERP Testing Room\Desktop\Joanna\morph21","no","mono","no","18","no","white","no","yes","1080","legacy","74","74","C:/Users/ERP Testing Room/Desktop/Joanna/morph21/subject-161.csv","xpyriment","Kafkaesque Koffka","3.2.5","0","space","space","NA","NA","NA","space","/","14381","14381","NA","NA","NA","230600","615","2","legacy","1024","2","48000","-16","BA_m21","161","odd","CW_S","BOSSY","1140","509457","506265","507949","231755","509815","NA","NA","NA","507944","506762","NA","505765","NA","505754","507944","1155","524196","NA","NA","506948","1140","1140","507348","505754","1140","506948","509807","morph21_Oliver/Morris","55","55639","75","yes","1280","49"
"200","72.3684210526","72.3684210526","745.184210526","745.184210526","black","no","xpyriment","legacy","legacy","0","204","NA","uniform","48110","1000","0.0207856994388","0","undefined","0","0","75","75","75","0","75","75","75","NA","75","75","0","75","NA","75","75","0","75","NA","75","NA","75","0","0","75","75","0","75","75","76","z","02/22/19 13:48:27","The main experiment item","yes","FIN__BA__M21__7%3A10%3A17.osexp","C:\Users\ERP Testing Room\Desktop\Joanna\morph21","no","mono","no","18","no","white","no","yes","1080","legacy","75","75","C:/Users/ERP Testing Room/Desktop/Joanna/morph21/subject-161.csv","xpyriment","Kafkaesque Koffka","3.2.5","0","None","space","NA","NA","NA","space","None","995","14381","NA","NA","NA","230600","995","2","legacy","1024","2","48000","-16","BA_m21","161","odd","NW_L_COMP","FLIPODY","1140","527192","525525","507949","231755","509815","NA","NA","NA","507944","526022","NA","525025","NA","525018","527187","1155","527392","NA","NA","526192","1140","1140","526592","525018","1140","526192","527392","morph21_Oliver/Morris","55","56634","76","yes","1280","16"
"200","72.7272727273","72.7272727273","745.25974026","745.25974026","black","no","xpyriment","legacy","legacy","0","201","NA","uniform","56657","1000","0.0176500697178","1","undefined","1","0","76","76","76","0","76","76","76","NA","76","76","0","76","NA","76","76","0","76","NA","76","NA","76","0","0","76","76","0","76","76","77","/","02/22/19 13:48:27","The main experiment item","yes","FIN__BA__M21__7%3A10%3A17.osexp","C:\Users\ERP Testing Room\Desktop\Joanna\morph21","no","mono","no","18","no","white","no","yes","1080","legacy","76","76","C:/Users/ERP Testing Room/Desktop/Joanna/morph21/subject-161.csv","xpyriment","Kafkaesque Koffka","3.2.5","0","/","space","NA","NA","NA","space","/","751","14381","NA","NA","NA","230600","751","2","legacy","1024","2","48000","-16","BA_m21","161","odd","CW_S","CAMPAIGNER","1140","530275","528584","507949","231755","509815","NA","NA","NA","530265","529081","NA","528084","NA","528079","530265","1155","530475","NA","NA","529276","1140","1140","529667","528079","1140","529275","530475","morph21_Oliver/Morris","56","57385","77","yes","1280","15"
"300","71.7948717949","71.7948717949","748.474358974","748.474358974","black","no","xpyriment","legacy","legacy","0","205","NA","uniform","45414","1000","0.0220196415202","0","undefined","0","0","77","77","77","0","77","77","77","NA","77","77","0","77","NA","77","77","0","77","NA","77","NA","77","0","0","77","77","0","77","77","78","z","02/22/19 13:48:27","The main experiment item","yes","FIN__BA__M21__7%3A10%3A17.osexp","C:\Users\ERP Testing Room\Desktop\Joanna\morph21","no","mono","no","18","no","white","no","yes","1080","legacy","77","77","C:/Users/ERP Testing Room/Desktop/Joanna/morph21/subject-161.csv","xpyriment","Kafkaesque Koffka","3.2.5","0","None","space","NA","NA","NA","space","None","996","14381","NA","NA","NA","230600","996","2","legacy","1024","2","48000","-16","BA_m21","161","odd","NW_S_SIMP","SOCKETER","1140","534868","531702","533360","231755","509815","NA","NA","NA","530265","532199","NA","531201","NA","531193","533357","1155","535168","NA","NA","532360","1140","1140","532760","531193","1140","532360","535168","morph21_Oliver/Morris","56","58381","78","yes","1280","1"
"200","72.1518987342","72.1518987342","747.658227848","747.658227848","black","no","xpyriment","legacy","legacy","0","208","NA","uniform","68536","1000","0.0145908719505","1","undefined","1","0","78","78","78","0","78","78","78","NA","78","78","0","78","NA","78","78","0","78","NA","78","NA","78","0","0","78","78","0","78","78","79","z","02/22/19 13:48:27","The main experiment item","yes","FIN__BA__M21__7%3A10%3A17.osexp","C:\Users\ERP Testing Room\Desktop\Joanna\morph21","no","mono","no","18","no","white","no","yes","1080","legacy","78","78","C:/Users/ERP Testing Room/Desktop/Joanna/morph21/subject-161.csv","xpyriment","Kafkaesque Koffka","3.2.5","0","Z","space","NA","NA","NA","space","Z","684","14381","NA","NA","NA","230600","684","2","legacy","1024","2","48000","-16","BA_m21","161","odd","FILL_NW","PUCTS","1140","538160","536510","533360","231755","509815","NA","NA","NA","538154","537007","NA","536010","NA","535998","538154","1155","538360","NA","NA","537160","1140","1140","537552","535998","1140","537160","538360","morph21_Oliver/Morris","57","59065","79","yes","1280","40"
"200","72.5","72.5","744.775","744.775","black","no","xpyriment","legacy","legacy","0","202","NA","uniform","65457","1000","0.0152772048826","1","undefined","1","0","79","79","79","0","79","79","79","NA","79","79","0","79","NA","79","79","0","79","NA","79","NA","79","0","0","79","79","0","79","79","80","/","02/22/19 13:48:27","The main experiment item","yes","FIN__BA__M21__7%3A10%3A17.osexp","C:\Users\ERP Testing Room\Desktop\Joanna\morph21","no","mono","no","18","no","white","no","yes","1080","legacy","79","79","C:/Users/ERP Testing Room/Desktop/Joanna/morph21/subject-161.csv","xpyriment","Kafkaesque Koffka","3.2.5","0","/","space","NA","NA","NA","space","/","517","14381","NA","NA","NA","230600","517","2","legacy","1024","2","48000","-16","BA_m21","161","odd","CW_L","BONELESS","1140","541319","539577","533360","231755","509815","NA","NA","NA","541312","540074","NA","539069","NA","539064","541312","1155","541519","NA","NA","540319","1140","1140","540710","539064","1140","540319","541519","morph21_Oliver/Morris","58","59582","80","yes","1280","34"
"400","72.8395061728","72.8395061728","741.679012346","741.679012346","black","no","xpyriment","legacy","legacy","0","201","NA","uniform","63737","1000","0.0156894739319","1","undefined","1","0","80","80","80","0","80","80","80","NA","80","80","0","80","NA","80","80","0","80","NA","80","NA","80","0","0","80","80","0","80","80","81","/","02/22/19 13:48:27","The main experiment item","yes","FIN__BA__M21__7%3A10%3A17.osexp","C:\Users\ERP Testing Room\Desktop\Joanna\morph21","no","mono","no","18","no","white","no","yes","1080","legacy","80","80","C:/Users/ERP Testing Room/Desktop/Joanna/morph21/subject-161.csv","xpyriment","Kafkaesque Koffka","3.2.5","0","/","space","NA","NA","NA","space","/","494","14381","NA","NA","NA","230600","494","2","legacy","1024","2","48000","-16","BA_m21","161","odd","CW_S","AVOIDABLE","1140","545985","542802","544477","231755","509815","NA","NA","NA","544471","543299","NA","542302","NA","542294","544471","1155","546386","NA","NA","543477","1140","1140","543869","542294","1140","543477","546386","morph21_Oliver/Morris","59","60076","81","yes","1280","2"
"350","73.1707317073","73.1707317073","742.731707317","742.731707317","black","no","xpyriment","legacy","legacy","0","206","NA","uniform","54902","1000","0.0182142727041","1","undefined","1","0","81","81","81","0","81","81","81","NA","81","81","0","81","NA","81","81","0","81","NA","81","NA","81","0","0","81","81","0","81","81","82","z","02/22/19 13:48:27","The main experiment item","yes","FIN__BA__M21__7%3A10%3A17.osexp","C:\Users\ERP Testing Room\Desktop\Joanna\morph21","no","mono","no","18","no","white","no","yes","1080","legacy","81","81","C:/Users/ERP Testing Room/Desktop/Joanna/morph21/subject-161.csv","xpyriment","Kafkaesque Koffka","3.2.5","0","Z","space","NA","NA","NA","space","Z","828","14381","NA","NA","NA","230600","828","2","legacy","1024","2","48000","-16","BA_m21","161","odd","NW_L_SIMP","CRITICANCE","1140","549345","547627","544477","231755","509815","NA","NA","NA","549336","548124","NA","547127","NA","547115","549336","1155","549695","NA","NA","548344","1140","1140","548736","547115","1140","548344","549695","morph21_Oliver/Morris","60","60904","82","yes","1280","22"
"200","73.4939759036","73.4939759036","742.397590361","742.397590361","black","no","xpyriment","legacy","legacy","0","208","NA","uniform","61485","1000","0.0162641294625","1","undefined","1","0","82","82","82","0","82","82","82","NA","82","82","0","82","NA","82","82","0","82","NA","82","NA","82","0","0","82","82","0","82","82","83","z","02/22/19 13:48:27","The main experiment item","yes","FIN__BA__M21__7%3A10%3A17.osexp","C:\Users\ERP Testing Room\Desktop\Joanna\morph21","no","mono","no","18","no","white","no","yes","1080","legacy","82","82","C:/Users/ERP Testing Room/Desktop/Joanna/morph21/subject-161.csv","xpyriment","Kafkaesque Koffka","3.2.5","0","Z","space","NA","NA","NA","space","Z","715","14381","NA","NA","NA","230600","715","2","legacy","1024","2","48000","-16","BA_m21","161","odd","FILL_NW","PORDS","1140","552537","550887","544477","231755","509815","NA","NA","NA","552531","551384","NA","550387","NA","550378","552531","1155","552737","NA","NA","551537","1140","1140","551928","550377","1140","551537","552737","morph21_Oliver/Morris","61","61619","83","yes","1280","39"
"400","73.8095238095","73.8095238095","743.226190476","743.226190476","black","no","xpyriment","legacy","legacy","0","201","NA","uniform","52506","1000","0.0190454424256","1","undefined","1","0","83","83","83","0","83","83","83","NA","83","83","0","83","NA","83","83","0","83","NA","83","NA","83","0","0","83","83","0","83","83","84","/","02/22/19 13:48:27","The main experiment item","yes","FIN__BA__M21__7%3A10%3A17.osexp","C:\Users\ERP Testing Room\Desktop\Joanna\morph21","no","mono","no","18","no","white","no","yes","1080","legacy","83","83","C:/Users/ERP Testing Room/Desktop/Joanna/morph21/subject-161.csv","xpyriment","Kafkaesque Koffka","3.2.5","0","/","space","NA","NA","NA","space","/","812","14381","NA","NA","NA","230600","812","2","legacy","1024","2","48000","-16","BA_m21","161","odd","CW_S","DIETARY","1140","557229","553987","555720","231755","509815","NA","NA","NA","555712","554484","NA","553487","NA","553478","555712","1155","557629","NA","NA","554720","1140","1140","555112","553478","1140","554720","557629","morph21_Oliver/Morris","62","62431","84","yes","1280","6"
"200","74.1176470588","74.1176470588","743.258823529","743.258823529","black","no","xpyriment","legacy","legacy","0","205","NA","uniform","56578","1000","0.0176747145534","1","undefined","1","0","84","84","84","0","84","84","84","NA","84","84","0","84","NA","84","84","0","84","NA","84","NA","84","0","0","84","84","0","84","84","85","z","02/22/19 13:48:27","The main experiment item","yes","FIN__BA__M21__7%3A10%3A17.osexp","C:\Users\ERP Testing Room\Desktop\Joanna\morph21","no","mono","no","18","no","white","no","yes","1080","legacy","84","84","C:/Users/ERP Testing Room/Desktop/Joanna/morph21/subject-161.csv","xpyriment","Kafkaesque Koffka","3.2.5","0","Z","space","NA","NA","NA","space","Z","746","14381","NA","NA","NA","230600","746","2","legacy","1024","2","48000","-16","BA_m21","161","odd","NW_S_SIMP","GUMFUL","1140","560570","558879","555720","231755","509815","NA","NA","NA","560562","559376","NA","558379","NA","558370","560562","1155","560770","NA","NA","559570","1140","1140","559962","558370","1140","559570","560770","morph21_Oliver/Morris","63","63177","85","yes","1280","2"
"400","74.4186046512","74.4186046512","743.802325581","743.802325581","black","no","xpyriment","legacy","legacy","0","202","NA","uniform","57043","1000","0.0175306347843","1","undefined","1","0","85","85","85","0","85","85","85","NA","85","85","0","85","NA","85","85","0","85","NA","85","NA","85","0","0","85","85","0","85","85","86","/","02/22/19 13:48:27","The main experiment item","yes","FIN__BA__M21__7%3A10%3A17.osexp","C:\Users\ERP Testing Room\Desktop\Joanna\morph21","no","mono","no","18","no","white","no","yes","1080","legacy","85","85","C:/Users/ERP Testing Room/Desktop/Joanna/morph21/subject-161.csv","xpyriment","Kafkaesque Koffka","3.2.5","0","/","space","NA","NA","NA","space","/","790","14381","NA","NA","NA","230600","790","2","legacy","1024","2","48000","-16","BA_m21","161","odd","CW_L","LOCKER","1140","563629","561979","555720","231755","509815","NA","NA","NA","563620","562476","NA","561479","NA","561468","563620","1155","564029","NA","NA","562629","1140","1140","563021","561468","1140","562629","564029","morph21_Oliver/Morris","64","63967","86","yes","1280","8"
"400","74.7126436782","74.7126436782","743.287356322","743.287356322","black","no","xpyriment","legacy","legacy","0","208","NA","uniform","61605","1000","0.0162324486649","1","undefined","1","0","86","86","86","0","86","86","86","NA","86","86","0","86","NA","86","86","0","86","NA","86","NA","86","0","0","86","86","0","86","86","87","z","02/22/19 13:48:27","The main experiment item","yes","FIN__BA__M21__7%3A10%3A17.osexp","C:\Users\ERP Testing Room\Desktop\Joanna\morph21","no","mono","no","18","no","white","no","yes","1080","legacy","86","86","C:/Users/ERP Testing Room/Desktop/Joanna/morph21/subject-161.csv","xpyriment","Kafkaesque Koffka","3.2.5","0","Z","space","NA","NA","NA","space","Z","699","14381","NA","NA","NA","230600","699","2","legacy","1024","2","48000","-16","BA_m21","161","odd","FILL_NW","BALFS","1140","568438","565279","566930","231755","509815","NA","NA","NA","566927","565776","NA","564779","NA","564769","566927","1155","568839","NA","NA","565937","1140","1140","566329","564769","1140","565937","568839","morph21_Oliver/Morris","65","64666","87","yes","1280","2"
"200","75","75","743.636363636","743.636363636","black","no","xpyriment","legacy","legacy","0","203","NA","uniform","64043","1000","0.0156145090018","1","undefined","1","0","87","87","87","0","87","87","87","NA","87","87","0","87","NA","87","87","0","87","NA","87","NA","87","0","0","87","87","0","87","87","88","z","02/22/19 13:48:27","The main experiment item","yes","FIN__BA__M21__7%3A10%3A17.osexp","C:\Users\ERP Testing Room\Desktop\Joanna\morph21","no","mono","no","18","no","white","no","yes","1080","legacy","87","87","C:/Users/ERP Testing Room/Desktop/Joanna/morph21/subject-161.csv","xpyriment","Kafkaesque Koffka","3.2.5","0","Z","space","NA","NA","NA","space","Z","774","14381","NA","NA","NA","230600","774","2","legacy","1024","2","48000","-16","BA_m21","161","odd","NW_S_COMP","MELTANGE","1140","571630","569955","566930","231755","509815","NA","NA","NA","571620","570452","NA","569455","NA","569448","571620","1155","571830","NA","NA","570630","1140","1140","571022","569448","1140","570630","571830","morph21_Oliver/Morris","66","65440","88","yes","1280","1"
"300","75.2808988764","75.2808988764","742.258426966","742.258426966","black","no","xpyriment","legacy","legacy","0","205","NA","uniform","67227","1000","0.0148749758282","1","undefined","1","0","88","88","88","0","88","88","88","NA","88","88","0","88","NA","88","88","0","88","NA","88","NA","88","0","0","88","88","0","88","88","89","z","02/22/19 13:48:27","The main experiment item","yes","FIN__BA__M21__7%3A10%3A17.osexp","C:\Users\ERP Testing Room\Desktop\Joanna\morph21","no","mono","no","18","no","white","no","yes","1080","legacy","88","88","C:/Users/ERP Testing Room/Desktop/Joanna/morph21/subject-161.csv","xpyriment","Kafkaesque Koffka","3.2.5","0","Z","space","NA","NA","NA","space","Z","621","14381","NA","NA","NA","230600","621","2","legacy","1024","2","48000","-16","BA_m21","161","odd","NW_S_SIMP","HELMETOUS","1140","574655","572947","566930","231755","509815","NA","NA","NA","574647","573444","NA","572447","NA","572442","574647","1155","574955","NA","NA","573655","1140","1140","574047","572442","1140","573655","574955","morph21_Oliver/Morris","67","66061","89","yes","1280","14"
"400","75.5555555556","75.5555555556","740.911111111","740.911111111","black","no","xpyriment","legacy","legacy","0","208","NA","uniform","59311","1000","0.016860278869","1","undefined","1","0","89","89","89","0","89","89","89","NA","89","89","0","89","NA","89","89","0","89","NA","89","NA","89","0","0","89","89","0","89","89","90","z","02/22/19 13:48:27","The main experiment item","yes","FIN__BA__M21__7%3A10%3A17.osexp","C:\Users\ERP Testing Room\Desktop\Joanna\morph21","no","mono","no","18","no","white","no","yes","1080","legacy","89","89","C:/Users/ERP Testing Room/Desktop/Joanna/morph21/subject-161.csv","xpyriment","Kafkaesque Koffka","3.2.5","0","Z","space","NA","NA","NA","space","Z","621","14381","NA","NA","NA","230600","621","2","legacy","1024","2","48000","-16","BA_m21","161","odd","FILL_NW","BORMS","1140","579364","576155","577855","231755","509815","NA","NA","NA","577850","576653","NA","575655","NA","575646","577850","1155","579764","NA","NA","576855","1140","1140","577247","575646","1140","576855","579764","morph21_Oliver/Morris","68","66682","90","yes","1280","50"
