"ITI","acc","accuracy","average_response_time","avg_rt","background","bidi","canvas_backend","clock_backend","color_backend","compensation","cond_trig","condtrigtime","coordinates","coroutines_cycles","coroutines_duration","coroutines_mean_cycle_duration","correct","correct_instructions_1","correct_new_keyboard_response_1","count_BA_m21","count_ITI","count_blank_screen","count_blink_screen","count_block1","count_break1","count_break2","count_break3_1","count_canvas","count_correct_trigger","count_def_chain","count_end_screen","count_fixation_1","count_getting_started","count_inc_counter","count_incorrect_trigger","count_instructions_1","count_logger","count_logscript","count_new_coroutines","count_new_inline_script","count_new_keyboard_response_1","count_reset_counter_prep","count_reset_counter_run","count_responsescreen","count_sequence","count_start_trigger","count_target_present","count_word_trigger","counter","cresp","datetime","description","disable_garbage_collection","experiment_file","experiment_path","font_bold","font_family","font_italic","font_size","font_underline","foreground","form_clicks","fullscreen","height","keyboard_backend","live_row","live_row_block1","logfile","mouse_backend","opensesame_codename","opensesame_version","repeat_cycle","response","response_break1","response_break2","response_break3_1","response_end_screen","response_instructions_1","response_new_keyboard_response_1","response_time","response_time_break1","response_time_break2","response_time_break3_1","response_time_end_screen","response_time_instructions_1","response_time_new_keyboard_response_1","round_decimals","sampler_backend","sound_buf_size","sound_channels","sound_freq","sound_sample_size","start","subject_nr","subject_parity","targ_type","target","time_BA_m21","time_ITI","time_blank_screen","time_blink_screen","time_block1","time_break1","time_break2","time_break3_1","time_canvas","time_correct_trigger","time_def_chain","time_end_screen","time_fixation_1","time_getting_started","time_inc_counter","time_incorrect_trigger","time_instructions_1","time_logger","time_logscript","time_new_inline_script","time_new_keyboard_response_1","time_reset_counter_prep","time_reset_counter_run","time_responsescreen","time_sequence","time_start_trigger","time_target_present","time_word_trigger","title","total_correct","total_response_time","total_responses","uniform_coordinates","width","word_trig"
"400","0","0","994","994","black","no","xpyriment","legacy","legacy","0","208","NA","uniform","66938","1000","0.0149391974663","0","undefined","0","0","0","0","0","0","0","0","0","NA","0","0","0","0","NA","0","0","0","0","NA","0","NA","0","0","0","0","0","0","0","0","1","z","02/01/18 15:27:24","The main experiment item","yes","FIN__BA__M21__7%3A10%3A17.osexp","C:\Users\ERP Testing Room\Desktop\Joanna\morph21","no","mono","no","18","no","white","no","yes","1080","legacy","0","0","C:/Users/ERP Testing Room/Desktop/Joanna/morph21/subject-123.csv","xpyriment","Jazzy James","3.1.4","0","None","NA","NA","NA","NA","return","None","994","NA","NA","NA","NA","242242","994","2","legacy","1024","2","48000","-16","BA_m21","123","odd","FILL_NW","VELT","1386","246481","244897","NA","243636","NA","NA","NA","NA","NA","245394","NA","244398","NA","244318","246475","1394","246881","NA","NA","245481","1386","1386","245872","244318","1386","245481","246881","morph21_Oliver/Morris","0","994","1","yes","1280","46"
"350","0","0","992.5","992.5","black","no","xpyriment","legacy","legacy","0","203","NA","uniform","63141","1000","0.0158375698833","0","undefined","0","0","1","1","1","0","1","1","1","NA","1","1","0","1","NA","1","1","0","1","NA","1","NA","1","0","0","1","1","0","1","1","2","z","02/01/18 15:27:24","The main experiment item","yes","FIN__BA__M21__7%3A10%3A17.osexp","C:\Users\ERP Testing Room\Desktop\Joanna\morph21","no","mono","no","18","no","white","no","yes","1080","legacy","1","1","C:/Users/ERP Testing Room/Desktop/Joanna/morph21/subject-123.csv","xpyriment","Jazzy James","3.1.4","0","None","NA","NA","NA","NA","return","None","991","NA","NA","NA","NA","242242","991","2","legacy","1024","2","48000","-16","BA_m21","123","odd","NW_S_COMP","WELDIG","1386","249723","248139","NA","243636","NA","NA","NA","NA","NA","248636","NA","247639","NA","247636","249714","1394","250073","NA","NA","248723","1386","1386","249114","247636","1386","248723","250073","morph21_Oliver/Morris","0","1985","2","yes","1280","21"
"300","33.3333333333","33.3333333333","917.666666667","917.666666667","black","no","xpyriment","legacy","legacy","0","204","NA","uniform","66414","1000","0.0150570662812","1","undefined","1","0","2","2","2","0","2","2","2","NA","2","2","0","2","NA","2","2","0","2","NA","2","NA","2","0","0","2","2","0","2","2","3","z","02/01/18 15:27:24","The main experiment item","yes","FIN__BA__M21__7%3A10%3A17.osexp","C:\Users\ERP Testing Room\Desktop\Joanna\morph21","no","mono","no","18","no","white","no","yes","1080","legacy","2","2","C:/Users/ERP Testing Room/Desktop/Joanna/morph21/subject-123.csv","xpyriment","Jazzy James","3.1.4","0","z","NA","NA","NA","NA","return","z","768","NA","NA","NA","NA","242242","768","2","legacy","1024","2","48000","-16","BA_m21","123","odd","NW_L_COMP","SHEETEL","1386","254498","251373","252989","243636","NA","NA","NA","NA","252980","251870","NA","250873","NA","250863","252980","1394","254798","NA","NA","251989","1386","1386","252381","250863","1386","251989","254798","morph21_Oliver/Morris","1","2753","3","yes","1280","5"
"250","25","25","833","833","black","no","xpyriment","legacy","legacy","0","206","NA","uniform","71152","1000","0.0140544187092","0","undefined","0","0","3","3","3","0","3","3","3","NA","3","3","0","3","NA","3","3","0","3","NA","3","NA","3","0","0","3","3","0","3","3","4","z","02/01/18 15:27:24","The main experiment item","yes","FIN__BA__M21__7%3A10%3A17.osexp","C:\Users\ERP Testing Room\Desktop\Joanna\morph21","no","mono","no","18","no","white","no","yes","1080","legacy","3","3","C:/Users/ERP Testing Room/Desktop/Joanna/morph21/subject-123.csv","xpyriment","Jazzy James","3.1.4","0","/","NA","NA","NA","NA","return","/","579","NA","NA","NA","NA","242242","579","2","legacy","1024","2","48000","-16","BA_m21","123","odd","NW_L_SIMP","BEARIST","1386","257665","256065","252989","243636","NA","NA","NA","NA","252980","256562","NA","255565","NA","255559","257661","1394","257915","NA","NA","256665","1386","1386","257065","255559","1386","256665","257915","morph21_Oliver/Morris","1","3332","4","yes","1280","25"
"300","40","40","799.4","799.4","black","no","xpyriment","legacy","legacy","0","201","NA","uniform","72069","1000","0.0138755914471","1","undefined","1","0","4","4","4","0","4","4","4","NA","4","4","0","4","NA","4","4","0","4","NA","4","NA","4","0","0","4","4","0","4","4","5","/","02/01/18 15:27:24","The main experiment item","yes","FIN__BA__M21__7%3A10%3A17.osexp","C:\Users\ERP Testing Room\Desktop\Joanna\morph21","no","mono","no","18","no","white","no","yes","1080","legacy","4","4","C:/Users/ERP Testing Room/Desktop/Joanna/morph21/subject-123.csv","xpyriment","Jazzy James","3.1.4","0","/","NA","NA","NA","NA","return","/","665","NA","NA","NA","NA","242242","665","2","legacy","1024","2","48000","-16","BA_m21","123","odd","CW_S","DESTROYER","1386","260723","259131","252989","243636","NA","NA","NA","NA","260715","259628","NA","258631","NA","258622","260715","1394","261023","NA","NA","259723","1386","1386","260115","258622","1386","259723","261023","morph21_Oliver/Morris","2","3997","5","yes","1280","14"
"400","50","50","793.166666667","793.166666667","black","no","xpyriment","legacy","legacy","0","204","NA","uniform","72076","1000","0.0138742438537","1","undefined","1","0","5","5","5","0","5","5","5","NA","5","5","0","5","NA","5","5","0","5","NA","5","NA","5","0","0","5","5","0","5","5","6","z","02/01/18 15:27:24","The main experiment item","yes","FIN__BA__M21__7%3A10%3A17.osexp","C:\Users\ERP Testing Room\Desktop\Joanna\morph21","no","mono","no","18","no","white","no","yes","1080","legacy","5","5","C:/Users/ERP Testing Room/Desktop/Joanna/morph21/subject-123.csv","xpyriment","Jazzy James","3.1.4","0","z","NA","NA","NA","NA","return","z","762","NA","NA","NA","NA","242242","762","2","legacy","1024","2","48000","-16","BA_m21","123","odd","NW_L_COMP","ANGELITH","1386","265408","262307","263899","243636","NA","NA","NA","NA","263895","262805","NA","261806","NA","261799","263895","1394","265808","NA","NA","262899","1386","1386","263299","261799","1386","262899","265808","morph21_Oliver/Morris","3","4759","6","yes","1280","7"
"250","57.1428571429","57.1428571429","759.285714286","759.285714286","black","no","xpyriment","legacy","legacy","0","202","NA","uniform","70783","1000","0.0141276860263","1","undefined","1","0","6","6","6","0","6","6","6","NA","6","6","0","6","NA","6","6","0","6","NA","6","NA","6","0","0","6","6","0","6","6","7","/","02/01/18 15:27:24","The main experiment item","yes","FIN__BA__M21__7%3A10%3A17.osexp","C:\Users\ERP Testing Room\Desktop\Joanna\morph21","no","mono","no","18","no","white","no","yes","1080","legacy","6","6","C:/Users/ERP Testing Room/Desktop/Joanna/morph21/subject-123.csv","xpyriment","Jazzy James","3.1.4","0","/","NA","NA","NA","NA","return","/","556","NA","NA","NA","NA","242242","556","2","legacy","1024","2","48000","-16","BA_m21","123","odd","CW_L","PUSHER","1386","268641","267049","263899","243636","NA","NA","NA","NA","268634","267546","NA","266549","NA","266542","268634","1394","268891","NA","NA","267641","1386","1386","268033","266542","1386","267641","268891","morph21_Oliver/Morris","4","5315","7","yes","1280","13"
"250","62.5","62.5","715.25","715.25","black","no","xpyriment","legacy","legacy","0","207","NA","uniform","84824","1000","0.0117891162878","1","undefined","1","0","7","7","7","0","7","7","7","NA","7","7","0","7","NA","7","7","0","7","NA","7","NA","7","0","0","7","7","0","7","7","8","/","02/01/18 15:27:24","The main experiment item","yes","FIN__BA__M21__7%3A10%3A17.osexp","C:\Users\ERP Testing Room\Desktop\Joanna\morph21","no","mono","no","18","no","white","no","yes","1080","legacy","7","7","C:/Users/ERP Testing Room/Desktop/Joanna/morph21/subject-123.csv","xpyriment","Jazzy James","3.1.4","0","/","NA","NA","NA","NA","return","/","407","NA","NA","NA","NA","242242","407","2","legacy","1024","2","48000","-16","BA_m21","123","odd","FILL_W","SLIM","1386","271766","270175","263899","243636","NA","NA","NA","NA","271757","270672","NA","269674","NA","269668","271757","1394","272016","NA","NA","270766","1386","1386","271158","269668","1386","270766","272016","morph21_Oliver/Morris","5","5722","8","yes","1280","6"
"200","55.5555555556","55.5555555556","686","686","black","no","xpyriment","legacy","legacy","0","205","NA","uniform","74872","1000","0.0133561277914","0","undefined","0","0","8","8","8","0","8","8","8","NA","8","8","0","8","NA","8","8","0","8","NA","8","NA","8","0","0","8","8","0","8","8","9","z","02/01/18 15:27:24","The main experiment item","yes","FIN__BA__M21__7%3A10%3A17.osexp","C:\Users\ERP Testing Room\Desktop\Joanna\morph21","no","mono","no","18","no","white","no","yes","1080","legacy","8","8","C:/Users/ERP Testing Room/Desktop/Joanna/morph21/subject-123.csv","xpyriment","Jazzy James","3.1.4","0","/","NA","NA","NA","NA","return","/","452","NA","NA","NA","NA","242242","452","2","legacy","1024","2","48000","-16","BA_m21","123","odd","NW_S_SIMP","OPPOSEMENT","1386","276316","273200","274808","243636","NA","NA","NA","NA","271757","273697","NA","272700","NA","272693","274804","1394","276517","NA","NA","273808","1386","1386","274208","272693","1386","273808","276517","morph21_Oliver/Morris","5","6174","9","yes","1280","8"
"350","60","60","653.8","653.8","black","no","xpyriment","legacy","legacy","0","201","NA","uniform","81355","1000","0.0122918075103","1","undefined","1","0","9","9","9","0","9","9","9","NA","9","9","0","9","NA","9","9","0","9","NA","9","NA","9","0","0","9","9","0","9","9","10","/","02/01/18 15:27:24","The main experiment item","yes","FIN__BA__M21__7%3A10%3A17.osexp","C:\Users\ERP Testing Room\Desktop\Joanna\morph21","no","mono","no","18","no","white","no","yes","1080","legacy","9","9","C:/Users/ERP Testing Room/Desktop/Joanna/morph21/subject-123.csv","xpyriment","Jazzy James","3.1.4","0","/","NA","NA","NA","NA","return","/","364","NA","NA","NA","NA","242242","364","2","legacy","1024","2","48000","-16","BA_m21","123","odd","CW_S","BOSSY","1386","279400","277791","274808","243636","NA","NA","NA","NA","279395","278289","NA","277291","NA","277282","279395","1394","279750","NA","NA","278400","1386","1386","278800","277282","1386","278400","279750","morph21_Oliver/Morris","6","6538","10","yes","1280","49"
"200","63.6363636364","63.6363636364","630.636363636","630.636363636","black","no","xpyriment","legacy","legacy","0","207","NA","uniform","78754","1000","0.0126977677324","1","undefined","1","0","10","10","10","0","10","10","10","NA","10","10","0","10","NA","10","10","0","10","NA","10","NA","10","0","0","10","10","0","10","10","11","/","02/01/18 15:27:24","The main experiment item","yes","FIN__BA__M21__7%3A10%3A17.osexp","C:\Users\ERP Testing Room\Desktop\Joanna\morph21","no","mono","no","18","no","white","no","yes","1080","legacy","10","10","C:/Users/ERP Testing Room/Desktop/Joanna/morph21/subject-123.csv","xpyriment","Jazzy James","3.1.4","0","/","NA","NA","NA","NA","return","/","399","NA","NA","NA","NA","242242","399","2","legacy","1024","2","48000","-16","BA_m21","123","odd","FILL_W","FLOAT","1386","282518","280934","274808","243636","NA","NA","NA","NA","282510","281431","NA","280434","NA","280424","282510","1394","282718","NA","NA","281518","1386","1386","281909","280424","1386","281518","282718","morph21_Oliver/Morris","7","6937","11","yes","1280","30"
"250","66.6666666667","66.6666666667","629.75","629.75","black","no","xpyriment","legacy","legacy","0","208","NA","uniform","77430","1000","0.0129148908692","1","undefined","1","0","11","11","11","0","11","11","11","NA","11","11","0","11","NA","11","11","0","11","NA","11","NA","11","0","0","11","11","0","11","11","12","z","02/01/18 15:27:24","The main experiment item","yes","FIN__BA__M21__7%3A10%3A17.osexp","C:\Users\ERP Testing Room\Desktop\Joanna\morph21","no","mono","no","18","no","white","no","yes","1080","legacy","11","11","C:/Users/ERP Testing Room/Desktop/Joanna/morph21/subject-123.csv","xpyriment","Jazzy James","3.1.4","0","z","NA","NA","NA","NA","return","z","620","NA","NA","NA","NA","242242","620","2","legacy","1024","2","48000","-16","BA_m21","123","odd","FILL_NW","PLAODS","1386","287101","284001","285593","243636","NA","NA","NA","NA","285586","284498","NA","283501","NA","283489","285586","1394","287351","NA","NA","284593","1386","1386","284984","283489","1386","284593","287351","morph21_Oliver/Morris","8","7557","12","yes","1280","37"
"250","69.2307692308","69.2307692308","616.230769231","616.230769231","black","no","xpyriment","legacy","legacy","0","202","NA","uniform","76293","1000","0.0131073624055","1","undefined","1","0","12","12","12","0","12","12","12","NA","12","12","0","12","NA","12","12","0","12","NA","12","NA","12","0","0","12","12","0","12","12","13","/","02/01/18 15:27:24","The main experiment item","yes","FIN__BA__M21__7%3A10%3A17.osexp","C:\Users\ERP Testing Room\Desktop\Joanna\morph21","no","mono","no","18","no","white","no","yes","1080","legacy","12","12","C:/Users/ERP Testing Room/Desktop/Joanna/morph21/subject-123.csv","xpyriment","Jazzy James","3.1.4","0","/","NA","NA","NA","NA","return","/","454","NA","NA","NA","NA","242242","454","2","legacy","1024","2","48000","-16","BA_m21","123","odd","CW_L","LAUGHING","1386","290151","288568","285593","243636","NA","NA","NA","NA","290147","289065","NA","288068","NA","288064","290147","1394","290401","NA","NA","289151","1386","1386","289551","288064","1386","289151","290401","morph21_Oliver/Morris","9","8011","13","yes","1280","27"
"200","64.2857142857","64.2857142857","615.214285714","615.214285714","black","no","xpyriment","legacy","legacy","0","205","NA","uniform","69510","1000","0.0143864192203","0","undefined","0","0","13","13","13","0","13","13","13","NA","13","13","0","13","NA","13","13","0","13","NA","13","NA","13","0","0","13","13","0","13","13","14","z","02/01/18 15:27:24","The main experiment item","yes","FIN__BA__M21__7%3A10%3A17.osexp","C:\Users\ERP Testing Room\Desktop\Joanna\morph21","no","mono","no","18","no","white","no","yes","1080","legacy","13","13","C:/Users/ERP Testing Room/Desktop/Joanna/morph21/subject-123.csv","xpyriment","Jazzy James","3.1.4","0","/","NA","NA","NA","NA","return","/","602","NA","NA","NA","NA","242242","602","2","legacy","1024","2","48000","-16","BA_m21","123","odd","NW_S_SIMP","THRILLANCE","1386","293210","291618","285593","243636","NA","NA","NA","NA","290147","292115","NA","291118","NA","291107","293204","1394","293410","NA","NA","292210","1386","1386","292601","291107","1386","292210","293410","morph21_Oliver/Morris","9","8613","14","yes","1280","22"
"250","60","60","606.733333333","606.733333333","black","no","xpyriment","legacy","legacy","0","201","NA","uniform","83167","1000","0.0120239999038","0","undefined","0","0","14","14","14","0","14","14","14","NA","14","14","0","14","NA","14","14","0","14","NA","14","NA","14","0","0","14","14","0","14","14","15","/","02/01/18 15:27:24","The main experiment item","yes","FIN__BA__M21__7%3A10%3A17.osexp","C:\Users\ERP Testing Room\Desktop\Joanna\morph21","no","mono","no","18","no","white","no","yes","1080","legacy","14","14","C:/Users/ERP Testing Room/Desktop/Joanna/morph21/subject-123.csv","xpyriment","Jazzy James","3.1.4","0","z","NA","NA","NA","NA","return","z","488","NA","NA","NA","NA","242242","488","2","legacy","1024","2","48000","-16","BA_m21","123","odd","CW_S","MILDNESS","1386","297778","294677","296268","243636","NA","NA","NA","NA","290147","295174","NA","294177","NA","294165","296263","1394","298028","NA","NA","295268","1386","1386","295668","294165","1386","295268","298028","morph21_Oliver/Morris","9","9101","15","yes","1280","42"
"300","62.5","62.5","602.1875","602.1875","black","no","xpyriment","legacy","legacy","0","201","NA","uniform","82564","1000","0.012111816288","1","undefined","1","0","15","15","15","0","15","15","15","NA","15","15","0","15","NA","15","15","0","15","NA","15","NA","15","0","0","15","15","0","15","15","16","/","02/01/18 15:27:24","The main experiment item","yes","FIN__BA__M21__7%3A10%3A17.osexp","C:\Users\ERP Testing Room\Desktop\Joanna\morph21","no","mono","no","18","no","white","no","yes","1080","legacy","15","15","C:/Users/ERP Testing Room/Desktop/Joanna/morph21/subject-123.csv","xpyriment","Jazzy James","3.1.4","0","/","NA","NA","NA","NA","return","/","534","NA","NA","NA","NA","242242","534","2","legacy","1024","2","48000","-16","BA_m21","123","odd","CW_S","DETECTABLE","1386","300920","299336","296268","243636","NA","NA","NA","NA","300916","299833","NA","298836","NA","298826","300916","1394","301220","NA","NA","299919","1386","1386","300319","298826","1386","299919","301220","morph21_Oliver/Morris","10","9635","16","yes","1280","1"
"350","64.7058823529","64.7058823529","608.411764706","608.411764706","black","no","xpyriment","legacy","legacy","0","208","NA","uniform","74137","1000","0.013488541484","1","undefined","1","0","16","16","16","0","16","16","16","NA","16","16","0","16","NA","16","16","0","16","NA","16","NA","16","0","0","16","16","0","16","16","17","z","02/01/18 15:27:24","The main experiment item","yes","FIN__BA__M21__7%3A10%3A17.osexp","C:\Users\ERP Testing Room\Desktop\Joanna\morph21","no","mono","no","18","no","white","no","yes","1080","legacy","16","16","C:/Users/ERP Testing Room/Desktop/Joanna/morph21/subject-123.csv","xpyriment","Jazzy James","3.1.4","0","z","NA","NA","NA","NA","return","z","708","NA","NA","NA","NA","242242","708","2","legacy","1024","2","48000","-16","BA_m21","123","odd","FILL_NW","DOADS","1386","304145","302553","296268","243636","NA","NA","NA","NA","304138","303050","NA","302053","NA","302042","304138","1394","304495","NA","NA","303145","1386","1386","303536","302041","1386","303145","304495","morph21_Oliver/Morris","11","10343","17","yes","1280","15"
"350","61.1111111111","61.1111111111","615.277777778","615.277777778","black","no","xpyriment","legacy","legacy","0","206","NA","uniform","72104","1000","0.0138688560967","0","undefined","0","0","17","17","17","0","17","17","17","NA","17","17","0","17","NA","17","17","0","17","NA","17","NA","17","0","0","17","17","0","17","17","18","z","02/01/18 15:27:24","The main experiment item","yes","FIN__BA__M21__7%3A10%3A17.osexp","C:\Users\ERP Testing Room\Desktop\Joanna\morph21","no","mono","no","18","no","white","no","yes","1080","legacy","17","17","C:/Users/ERP Testing Room/Desktop/Joanna/morph21/subject-123.csv","xpyriment","Jazzy James","3.1.4","0","/","NA","NA","NA","NA","return","/","732","NA","NA","NA","NA","242242","732","2","legacy","1024","2","48000","-16","BA_m21","123","odd","NW_L_SIMP","NUTLY","1386","308862","305770","307353","243636","NA","NA","NA","NA","304138","306267","NA","305270","NA","305259","307346","1394","309212","NA","NA","306353","1386","1386","306745","305259","1386","306353","309212","morph21_Oliver/Morris","11","11075","18","yes","1280","14"
"250","63.1578947368","63.1578947368","621.578947368","621.578947368","black","no","xpyriment","legacy","legacy","0","206","NA","uniform","64949","1000","0.0153966958691","1","undefined","1","0","18","18","18","0","18","18","18","NA","18","18","0","18","NA","18","18","0","18","NA","18","NA","18","0","0","18","18","0","18","18","19","z","02/01/18 15:27:24","The main experiment item","yes","FIN__BA__M21__7%3A10%3A17.osexp","C:\Users\ERP Testing Room\Desktop\Joanna\morph21","no","mono","no","18","no","white","no","yes","1080","legacy","18","18","C:/Users/ERP Testing Room/Desktop/Joanna/morph21/subject-123.csv","xpyriment","Jazzy James","3.1.4","0","z","NA","NA","NA","NA","return","z","735","NA","NA","NA","NA","242242","735","2","legacy","1024","2","48000","-16","BA_m21","123","odd","NW_L_SIMP","SHOOTMENT","1386","312253","310653","307353","243636","NA","NA","NA","NA","312246","311150","NA","310153","NA","310148","312246","1394","312503","NA","NA","311253","1386","1386","311645","310148","1386","311253","312503","morph21_Oliver/Morris","12","11810","19","yes","1280","16"
"300","65","65","609.5","609.5","black","no","xpyriment","legacy","legacy","0","207","NA","uniform","76416","1000","0.0130862646566","1","undefined","1","0","19","19","19","0","19","19","19","NA","19","19","0","19","NA","19","19","0","19","NA","19","NA","19","0","0","19","19","0","19","19","20","/","02/01/18 15:27:24","The main experiment item","yes","FIN__BA__M21__7%3A10%3A17.osexp","C:\Users\ERP Testing Room\Desktop\Joanna\morph21","no","mono","no","18","no","white","no","yes","1080","legacy","19","19","C:/Users/ERP Testing Room/Desktop/Joanna/morph21/subject-123.csv","xpyriment","Jazzy James","3.1.4","0","/","NA","NA","NA","NA","return","/","380","NA","NA","NA","NA","242242","380","2","legacy","1024","2","48000","-16","BA_m21","123","odd","FILL_W","SICK","1386","315321","313728","307353","243636","NA","NA","NA","NA","315313","314226","NA","313228","NA","313223","315313","1394","315621","NA","NA","314320","1386","1386","314713","313223","1386","314320","315621","morph21_Oliver/Morris","13","12190","20","yes","1280","36"
"250","66.6666666667","66.6666666667","613.285714286","613.285714286","black","no","xpyriment","legacy","legacy","0","201","NA","uniform","70589","1000","0.0141665131961","1","undefined","1","0","20","20","20","0","20","20","20","NA","20","20","0","20","NA","20","20","0","20","NA","20","NA","20","0","0","20","20","0","20","20","21","/","02/01/18 15:27:24","The main experiment item","yes","FIN__BA__M21__7%3A10%3A17.osexp","C:\Users\ERP Testing Room\Desktop\Joanna\morph21","no","mono","no","18","no","white","no","yes","1080","legacy","20","20","C:/Users/ERP Testing Room/Desktop/Joanna/morph21/subject-123.csv","xpyriment","Jazzy James","3.1.4","0","/","NA","NA","NA","NA","return","/","689","NA","NA","NA","NA","242242","689","2","legacy","1024","2","48000","-16","BA_m21","123","odd","CW_S","COSTLY","1386","319888","316796","318380","243636","NA","NA","NA","NA","318376","317293","NA","316296","NA","316288","318376","1394","320138","NA","NA","317388","1386","1386","317780","316288","1386","317388","320138","morph21_Oliver/Morris","14","12879","21","yes","1280","36"
"250","63.6363636364","63.6363636364","602.863636364","602.863636364","black","no","xpyriment","legacy","legacy","0","206","NA","uniform","83135","1000","0.012028628135","0","undefined","0","0","21","21","21","0","21","21","21","NA","21","21","0","21","NA","21","21","0","21","NA","21","NA","21","0","0","21","21","0","21","21","22","z","02/01/18 15:27:24","The main experiment item","yes","FIN__BA__M21__7%3A10%3A17.osexp","C:\Users\ERP Testing Room\Desktop\Joanna\morph21","no","mono","no","18","no","white","no","yes","1080","legacy","21","21","C:/Users/ERP Testing Room/Desktop/Joanna/morph21/subject-123.csv","xpyriment","Jazzy James","3.1.4","0","/","NA","NA","NA","NA","return","/","384","NA","NA","NA","NA","242242","384","2","legacy","1024","2","48000","-16","BA_m21","123","odd","NW_L_SIMP","SMOOTHFUL","1386","323005","321413","318380","243636","NA","NA","NA","NA","318376","321910","NA","320913","NA","320902","322995","1394","323255","NA","NA","322005","1386","1386","322396","320902","1386","322005","323255","morph21_Oliver/Morris","14","13263","22","yes","1280","19"
"400","60.8695652174","60.8695652174","599.260869565","599.260869565","black","no","xpyriment","legacy","legacy","0","206","NA","uniform","77679","1000","0.0128734921922","0","undefined","0","0","22","22","22","0","22","22","22","NA","22","22","0","22","NA","22","22","0","22","NA","22","NA","22","0","0","22","22","0","22","22","23","z","02/01/18 15:27:24","The main experiment item","yes","FIN__BA__M21__7%3A10%3A17.osexp","C:\Users\ERP Testing Room\Desktop\Joanna\morph21","no","mono","no","18","no","white","no","yes","1080","legacy","22","22","C:/Users/ERP Testing Room/Desktop/Joanna/morph21/subject-123.csv","xpyriment","Jazzy James","3.1.4","0","/","NA","NA","NA","NA","return","/","520","NA","NA","NA","NA","242242","520","2","legacy","1024","2","48000","-16","BA_m21","123","odd","NW_L_SIMP","CLASSOUS","1386","326005","324422","318380","243636","NA","NA","NA","NA","318376","324919","NA","323922","NA","323911","326000","1394","326405","NA","NA","325005","1386","1386","325405","323911","1386","325005","326405","morph21_Oliver/Morris","14","13783","23","yes","1280","18"
"250","58.3333333333","58.3333333333","603.208333333","603.208333333","black","no","xpyriment","legacy","legacy","0","208","NA","uniform","68812","1000","0.0145323490089","0","undefined","0","0","23","23","23","0","23","23","23","NA","23","23","0","23","NA","23","23","0","23","NA","23","NA","23","0","0","23","23","0","23","23","24","z","02/01/18 15:27:24","The main experiment item","yes","FIN__BA__M21__7%3A10%3A17.osexp","C:\Users\ERP Testing Room\Desktop\Joanna\morph21","no","mono","no","18","no","white","no","yes","1080","legacy","23","23","C:/Users/ERP Testing Room/Desktop/Joanna/morph21/subject-123.csv","xpyriment","Jazzy James","3.1.4","0","/","NA","NA","NA","NA","return","/","694","NA","NA","NA","NA","242242","694","2","legacy","1024","2","48000","-16","BA_m21","123","odd","FILL_NW","PIFTH","1386","330730","327638","329222","243636","NA","NA","NA","NA","318376","328135","NA","327138","NA","327131","329214","1394","330980","NA","NA","328222","1386","1386","328613","327131","1386","328222","330980","morph21_Oliver/Morris","14","14477","24","yes","1280","36"
"200","60","60","595.92","595.92","black","no","xpyriment","legacy","legacy","0","207","NA","uniform","79101","1000","0.0126420652078","1","undefined","1","0","24","24","24","0","24","24","24","NA","24","24","0","24","NA","24","24","0","24","NA","24","NA","24","0","0","24","24","0","24","24","25","/","02/01/18 15:27:24","The main experiment item","yes","FIN__BA__M21__7%3A10%3A17.osexp","C:\Users\ERP Testing Room\Desktop\Joanna\morph21","no","mono","no","18","no","white","no","yes","1080","legacy","24","24","C:/Users/ERP Testing Room/Desktop/Joanna/morph21/subject-123.csv","xpyriment","Jazzy James","3.1.4","0","/","NA","NA","NA","NA","return","/","421","NA","NA","NA","NA","242242","421","2","legacy","1024","2","48000","-16","BA_m21","123","odd","FILL_W","TEST","1386","333831","332248","329222","243636","NA","NA","NA","NA","333828","332745","NA","331747","NA","331737","333828","1394","334031","NA","NA","332840","1386","1386","333231","331737","1386","332840","334031","morph21_Oliver/Morris","15","14898","25","yes","1280","47"
"300","61.5384615385","61.5384615385","597.884615385","597.884615385","black","no","xpyriment","legacy","legacy","0","201","NA","uniform","77730","1000","0.0128650456709","1","undefined","1","0","25","25","25","0","25","25","25","NA","25","25","0","25","NA","25","25","0","25","NA","25","NA","25","0","0","25","25","0","25","25","26","/","02/01/18 15:27:24","The main experiment item","yes","FIN__BA__M21__7%3A10%3A17.osexp","C:\Users\ERP Testing Room\Desktop\Joanna\morph21","no","mono","no","18","no","white","no","yes","1080","legacy","25","25","C:/Users/ERP Testing Room/Desktop/Joanna/morph21/subject-123.csv","xpyriment","Jazzy James","3.1.4","0","/","NA","NA","NA","NA","return","/","647","NA","NA","NA","NA","242242","647","2","legacy","1024","2","48000","-16","BA_m21","123","odd","CW_S","INSISTENT","1386","336806","335223","329222","243636","NA","NA","NA","NA","336799","335720","NA","334723","NA","334715","336799","1394","337106","NA","NA","335806","1386","1386","336198","334715","1386","335806","337106","morph21_Oliver/Morris","16","15545","26","yes","1280","9"
"350","62.962962963","62.962962963","596.592592593","596.592592593","black","no","xpyriment","legacy","legacy","0","202","NA","uniform","74927","1000","0.0133463237551","1","undefined","1","0","26","26","26","0","26","26","26","NA","26","26","0","26","NA","26","26","0","26","NA","26","NA","26","0","0","26","26","0","26","26","27","/","02/01/18 15:27:24","The main experiment item","yes","FIN__BA__M21__7%3A10%3A17.osexp","C:\Users\ERP Testing Room\Desktop\Joanna\morph21","no","mono","no","18","no","white","no","yes","1080","legacy","26","26","C:/Users/ERP Testing Room/Desktop/Joanna/morph21/subject-123.csv","xpyriment","Jazzy James","3.1.4","0","/","NA","NA","NA","NA","return","/","563","NA","NA","NA","NA","242242","563","2","legacy","1024","2","48000","-16","BA_m21","123","odd","CW_L","PAINTER","1386","341390","338265","339882","243636","NA","NA","NA","NA","339873","338762","NA","337757","NA","337750","339873","1394","341740","NA","NA","338882","1386","1386","339273","337750","1386","338882","341740","morph21_Oliver/Morris","17","16108","27","yes","1280","18"
"350","64.2857142857","64.2857142857","593.714285714","593.714285714","black","no","xpyriment","legacy","legacy","0","202","NA","uniform","81914","1000","0.0122079253852","1","undefined","1","0","27","27","27","0","27","27","27","NA","27","27","0","27","NA","27","27","0","27","NA","27","NA","27","0","0","27","27","0","27","27","28","/","02/01/18 15:27:24","The main experiment item","yes","FIN__BA__M21__7%3A10%3A17.osexp","C:\Users\ERP Testing Room\Desktop\Joanna\morph21","no","mono","no","18","no","white","no","yes","1080","legacy","27","27","C:/Users/ERP Testing Room/Desktop/Joanna/morph21/subject-123.csv","xpyriment","Jazzy James","3.1.4","0","/","NA","NA","NA","NA","return","/","516","NA","NA","NA","NA","242242","516","2","legacy","1024","2","48000","-16","BA_m21","123","odd","CW_L","RENTER","1386","344632","343040","339882","243636","NA","NA","NA","NA","344624","343537","NA","342540","NA","342535","344624","1394","344982","NA","NA","343632","1386","1386","344023","342535","1386","343632","344982","morph21_Oliver/Morris","18","16624","28","yes","1280","9"
"400","65.5172413793","65.5172413793","587.310344828","587.310344828","black","no","xpyriment","legacy","legacy","0","207","NA","uniform","79390","1000","0.0125960448419","1","undefined","1","0","28","28","28","0","28","28","28","NA","28","28","0","28","NA","28","28","0","28","NA","28","NA","28","0","0","28","28","0","28","28","29","/","02/01/18 15:27:24","The main experiment item","yes","FIN__BA__M21__7%3A10%3A17.osexp","C:\Users\ERP Testing Room\Desktop\Joanna\morph21","no","mono","no","18","no","white","no","yes","1080","legacy","28","28","C:/Users/ERP Testing Room/Desktop/Joanna/morph21/subject-123.csv","xpyriment","Jazzy James","3.1.4","0","/","NA","NA","NA","NA","return","/","408","NA","NA","NA","NA","242242","408","2","legacy","1024","2","48000","-16","BA_m21","123","odd","FILL_W","QUIT","1386","347732","346149","339882","243636","NA","NA","NA","NA","347723","346646","NA","345648","NA","345646","347723","1394","348132","NA","NA","346732","1386","1386","347124","345646","1386","346732","348132","morph21_Oliver/Morris","19","17032","29","yes","1280","21"
"400","66.6666666667","66.6666666667","586.466666667","586.466666667","black","no","xpyriment","legacy","legacy","0","202","NA","uniform","72855","1000","0.0137258938988","1","undefined","1","0","29","29","29","0","29","29","29","NA","29","29","0","29","NA","29","29","0","29","NA","29","NA","29","0","0","29","29","0","29","29","30","/","02/01/18 15:27:24","The main experiment item","yes","FIN__BA__M21__7%3A10%3A17.osexp","C:\Users\ERP Testing Room\Desktop\Joanna\morph21","no","mono","no","18","no","white","no","yes","1080","legacy","29","29","C:/Users/ERP Testing Room/Desktop/Joanna/morph21/subject-123.csv","xpyriment","Jazzy James","3.1.4","0","/","NA","NA","NA","NA","return","/","562","NA","NA","NA","NA","242242","562","2","legacy","1024","2","48000","-16","BA_m21","123","odd","CW_L","FAITHFUL","1386","352583","349465","351075","243636","NA","NA","NA","NA","351066","349962","NA","348965","NA","348956","351066","1394","352983","NA","NA","350075","1386","1386","350466","348956","1386","350075","352983","morph21_Oliver/Morris","20","17594","30","yes","1280","20"
"300","67.7419354839","67.7419354839","582.419354839","582.419354839","black","no","xpyriment","legacy","legacy","0","202","NA","uniform","80710","1000","0.0123900384091","1","undefined","1","0","30","30","30","0","30","30","30","NA","30","30","0","30","NA","30","30","0","30","NA","30","NA","30","0","0","30","30","0","30","30","31","/","02/01/18 15:27:24","The main experiment item","yes","FIN__BA__M21__7%3A10%3A17.osexp","C:\Users\ERP Testing Room\Desktop\Joanna\morph21","no","mono","no","18","no","white","no","yes","1080","legacy","30","30","C:/Users/ERP Testing Room/Desktop/Joanna/morph21/subject-123.csv","xpyriment","Jazzy James","3.1.4","0","/","NA","NA","NA","NA","return","/","461","NA","NA","NA","NA","242242","461","2","legacy","1024","2","48000","-16","BA_m21","123","odd","CW_L","HEATER","1386","355792","354200","351075","243636","NA","NA","NA","NA","355785","354697","NA","353700","NA","353695","355785","1394","356092","NA","NA","354792","1386","1386","355183","353695","1386","354792","356092","morph21_Oliver/Morris","21","18055","31","yes","1280","16"
"250","68.75","68.75","575.96875","575.96875","black","no","xpyriment","legacy","legacy","0","207","NA","uniform","82746","1000","0.0120851763227","1","undefined","1","0","31","31","31","0","31","31","31","NA","31","31","0","31","NA","31","31","0","31","NA","31","NA","31","0","0","31","31","0","31","31","32","/","02/01/18 15:27:24","The main experiment item","yes","FIN__BA__M21__7%3A10%3A17.osexp","C:\Users\ERP Testing Room\Desktop\Joanna\morph21","no","mono","no","18","no","white","no","yes","1080","legacy","31","31","C:/Users/ERP Testing Room/Desktop/Joanna/morph21/subject-123.csv","xpyriment","Jazzy James","3.1.4","0","/","NA","NA","NA","NA","return","/","376","NA","NA","NA","NA","242242","376","2","legacy","1024","2","48000","-16","BA_m21","123","odd","FILL_W","PACK","1386","358925","357342","351075","243636","NA","NA","NA","NA","358918","357839","NA","356842","NA","356831","358918","1394","359175","NA","NA","357925","1386","1386","358317","356830","1386","357925","359175","morph21_Oliver/Morris","22","18431","32","yes","1280","41"
"350","69.696969697","69.696969697","569.818181818","569.818181818","black","no","xpyriment","legacy","legacy","0","207","NA","uniform","80272","1000","0.0124576440104","1","undefined","1","0","32","32","32","0","32","32","32","NA","32","32","0","32","NA","32","32","0","32","NA","32","NA","32","0","0","32","32","0","32","32","33","/","02/01/18 15:27:24","The main experiment item","yes","FIN__BA__M21__7%3A10%3A17.osexp","C:\Users\ERP Testing Room\Desktop\Joanna\morph21","no","mono","no","18","no","white","no","yes","1080","legacy","32","32","C:/Users/ERP Testing Room/Desktop/Joanna/morph21/subject-123.csv","xpyriment","Jazzy James","3.1.4","0","/","NA","NA","NA","NA","return","/","373","NA","NA","NA","NA","242242","373","2","legacy","1024","2","48000","-16","BA_m21","123","odd","FILL_W","WEIRD","1386","363484","360383","361975","243636","NA","NA","NA","NA","361966","360881","NA","359883","NA","359877","361966","1394","363834","NA","NA","360975","1386","1386","361367","359877","1386","360975","363834","morph21_Oliver/Morris","23","18804","33","yes","1280","2"
"350","67.6470588235","67.6470588235","582.235294118","582.235294118","black","no","xpyriment","legacy","legacy","0","202","NA","uniform","67211","1000","0.0148785169094","0","undefined","0","0","33","33","33","0","33","33","33","NA","33","33","0","33","NA","33","33","0","33","NA","33","NA","33","0","0","33","33","0","33","33","34","/","02/01/18 15:27:24","The main experiment item","yes","FIN__BA__M21__7%3A10%3A17.osexp","C:\Users\ERP Testing Room\Desktop\Joanna\morph21","no","mono","no","18","no","white","no","yes","1080","legacy","33","33","C:/Users/ERP Testing Room/Desktop/Joanna/morph21/subject-123.csv","xpyriment","Jazzy James","3.1.4","0","None","NA","NA","NA","NA","return","None","992","NA","NA","NA","NA","242242","992","2","legacy","1024","2","48000","-16","BA_m21","123","odd","CW_L","PUNCHER","1386","366600","365017","361975","243636","NA","NA","NA","NA","361966","365514","NA","364517","NA","364512","366592","1394","366950","NA","NA","365600","1386","1386","365992","364512","1386","365600","366950","morph21_Oliver/Morris","23","19796","34","yes","1280","1"
"400","68.5714285714","68.5714285714","582.942857143","582.942857143","black","no","xpyriment","legacy","legacy","0","208","NA","uniform","72093","1000","0.0138709722164","1","undefined","1","0","34","34","34","0","34","34","34","NA","34","34","0","34","NA","34","34","0","34","NA","34","NA","34","0","0","34","34","0","34","34","35","z","02/01/18 15:27:24","The main experiment item","yes","FIN__BA__M21__7%3A10%3A17.osexp","C:\Users\ERP Testing Room\Desktop\Joanna\morph21","no","mono","no","18","no","white","no","yes","1080","legacy","34","34","C:/Users/ERP Testing Room/Desktop/Joanna/morph21/subject-123.csv","xpyriment","Jazzy James","3.1.4","0","z","NA","NA","NA","NA","return","z","607","NA","NA","NA","NA","242242","607","2","legacy","1024","2","48000","-16","BA_m21","123","odd","FILL_NW","DROES","1386","369710","368118","361975","243636","NA","NA","NA","NA","369704","368615","NA","367618","NA","367608","369704","1394","370110","NA","NA","368710","1386","1386","369102","367608","1386","368710","370110","morph21_Oliver/Morris","24","20403","35","yes","1280","17"
"200","66.6666666667","66.6666666667","581.166666667","581.166666667","black","no","xpyriment","legacy","legacy","0","203","NA","uniform","80463","1000","0.0124280725302","0","undefined","0","0","35","35","35","0","35","35","35","NA","35","35","0","35","NA","35","35","0","35","NA","35","NA","35","0","0","35","35","0","35","35","36","z","02/01/18 15:27:24","The main experiment item","yes","FIN__BA__M21__7%3A10%3A17.osexp","C:\Users\ERP Testing Room\Desktop\Joanna\morph21","no","mono","no","18","no","white","no","yes","1080","legacy","35","35","C:/Users/ERP Testing Room/Desktop/Joanna/morph21/subject-123.csv","xpyriment","Jazzy James","3.1.4","0","/","NA","NA","NA","NA","return","/","519","NA","NA","NA","NA","242242","519","2","legacy","1024","2","48000","-16","BA_m21","123","odd","NW_S_COMP","ELMILT","1386","374418","371327","372910","243636","NA","NA","NA","NA","369704","371824","NA","370827","NA","370822","372905","1394","374619","NA","NA","371910","1386","1386","372310","370822","1386","371910","374619","morph21_Oliver/Morris","24","20922","36","yes","1280","10"
"350","67.5675675676","67.5675675676","583.216216216","583.216216216","black","no","xpyriment","legacy","legacy","0","204","NA","uniform","72092","1000","0.013871164623","1","undefined","1","0","36","36","36","0","36","36","36","NA","36","36","0","36","NA","36","36","0","36","NA","36","NA","36","0","0","36","36","0","36","36","37","z","02/01/18 15:27:24","The main experiment item","yes","FIN__BA__M21__7%3A10%3A17.osexp","C:\Users\ERP Testing Room\Desktop\Joanna\morph21","no","mono","no","18","no","white","no","yes","1080","legacy","36","36","C:/Users/ERP Testing Room/Desktop/Joanna/morph21/subject-123.csv","xpyriment","Jazzy James","3.1.4","0","z","NA","NA","NA","NA","return","z","657","NA","NA","NA","NA","242242","657","2","legacy","1024","2","48000","-16","BA_m21","123","odd","NW_L_COMP","AGREELA","1386","377452","375869","372910","243636","NA","NA","NA","NA","377449","376366","NA","375368","NA","375363","377449","1394","377802","NA","NA","376460","1386","1386","376852","375363","1386","376460","377802","morph21_Oliver/Morris","25","21579","37","yes","1280","24"
"200","68.4210526316","68.4210526316","579.684210526","579.684210526","black","no","xpyriment","legacy","legacy","0","207","NA","uniform","79568","1000","0.012567866479","1","undefined","1","0","37","37","37","0","37","37","37","NA","37","37","0","37","NA","37","37","0","37","NA","37","NA","37","0","0","37","37","0","37","37","38","/","02/01/18 15:27:24","The main experiment item","yes","FIN__BA__M21__7%3A10%3A17.osexp","C:\Users\ERP Testing Room\Desktop\Joanna\morph21","no","mono","no","18","no","white","no","yes","1080","legacy","37","37","C:/Users/ERP Testing Room/Desktop/Joanna/morph21/subject-123.csv","xpyriment","Jazzy James","3.1.4","0","/","NA","NA","NA","NA","return","/","449","NA","NA","NA","NA","242242","449","2","legacy","1024","2","48000","-16","BA_m21","123","odd","FILL_W","LEGAL","1386","380635","379052","372910","243636","NA","NA","NA","NA","380629","379549","NA","378552","NA","378547","380629","1394","380836","NA","NA","379635","1386","1386","380027","378547","1386","379635","380836","morph21_Oliver/Morris","26","22028","38","yes","1280","35"
"250","69.2307692308","69.2307692308","577.205128205","577.205128205","black","no","xpyriment","legacy","legacy","0","207","NA","uniform","80565","1000","0.0124123378638","1","undefined","1","0","38","38","38","0","38","38","38","NA","38","38","0","38","NA","38","38","0","38","NA","38","NA","38","0","0","38","38","0","38","38","39","/","02/01/18 15:27:24","The main experiment item","yes","FIN__BA__M21__7%3A10%3A17.osexp","C:\Users\ERP Testing Room\Desktop\Joanna\morph21","no","mono","no","18","no","white","no","yes","1080","legacy","38","38","C:/Users/ERP Testing Room/Desktop/Joanna/morph21/subject-123.csv","xpyriment","Jazzy James","3.1.4","0","/","NA","NA","NA","NA","return","/","483","NA","NA","NA","NA","242242","483","2","legacy","1024","2","48000","-16","BA_m21","123","odd","FILL_W","WEAVE","1386","385087","381985","383577","243636","NA","NA","NA","NA","383567","382483","NA","381485","NA","381479","383567","1394","385337","NA","NA","382577","1386","1386","382969","381479","1386","382577","385337","morph21_Oliver/Morris","27","22511","39","yes","1280","12"
"200","67.5","67.5","575.825","575.825","black","no","xpyriment","legacy","legacy","0","208","NA","uniform","79944","1000","0.0125087561293","0","undefined","0","0","39","39","39","0","39","39","39","NA","39","39","0","39","NA","39","39","0","39","NA","39","NA","39","0","0","39","39","0","39","39","40","z","02/01/18 15:27:24","The main experiment item","yes","FIN__BA__M21__7%3A10%3A17.osexp","C:\Users\ERP Testing Room\Desktop\Joanna\morph21","no","mono","no","18","no","white","no","yes","1080","legacy","39","39","C:/Users/ERP Testing Room/Desktop/Joanna/morph21/subject-123.csv","xpyriment","Jazzy James","3.1.4","0","/","NA","NA","NA","NA","return","/","522","NA","NA","NA","NA","242242","522","2","legacy","1024","2","48000","-16","BA_m21","123","odd","FILL_NW","PUCTS","1386","388195","386603","383577","243636","NA","NA","NA","NA","383567","387100","NA","386103","NA","386096","388187","1394","388395","NA","NA","387195","1386","1386","387587","386096","1386","387195","388395","morph21_Oliver/Morris","27","23033","40","yes","1280","40"
"200","68.2926829268","68.2926829268","579.829268293","579.829268293","black","no","xpyriment","legacy","legacy","0","205","NA","uniform","71376","1000","0.0140103115893","1","undefined","1","0","40","40","40","0","40","40","40","NA","40","40","0","40","NA","40","40","0","40","NA","40","NA","40","0","0","40","40","0","40","40","41","z","02/01/18 15:27:24","The main experiment item","yes","FIN__BA__M21__7%3A10%3A17.osexp","C:\Users\ERP Testing Room\Desktop\Joanna\morph21","no","mono","no","18","no","white","no","yes","1080","legacy","40","40","C:/Users/ERP Testing Room/Desktop/Joanna/morph21/subject-123.csv","xpyriment","Jazzy James","3.1.4","0","z","NA","NA","NA","NA","return","z","740","NA","NA","NA","NA","242242","740","2","legacy","1024","2","48000","-16","BA_m21","123","odd","NW_S_SIMP","GUMFUL","1386","391137","389553","383577","243636","NA","NA","NA","NA","391130","390051","NA","389053","NA","389048","391130","1394","391337","NA","NA","390137","1386","1386","390528","389048","1386","390137","391337","morph21_Oliver/Morris","28","23773","41","yes","1280","2"
"200","69.0476190476","69.0476190476","583.404761905","583.404761905","black","no","xpyriment","legacy","legacy","0","206","NA","uniform","68395","1000","0.014620951824","1","undefined","1","0","41","41","41","0","41","41","41","NA","41","41","0","41","NA","41","41","0","41","NA","41","NA","41","0","0","41","41","0","41","41","42","z","02/01/18 15:27:24","The main experiment item","yes","FIN__BA__M21__7%3A10%3A17.osexp","C:\Users\ERP Testing Room\Desktop\Joanna\morph21","no","mono","no","18","no","white","no","yes","1080","legacy","41","41","C:/Users/ERP Testing Room/Desktop/Joanna/morph21/subject-123.csv","xpyriment","Jazzy James","3.1.4","0","z","NA","NA","NA","NA","return","z","730","NA","NA","NA","NA","242242","730","2","legacy","1024","2","48000","-16","BA_m21","123","odd","NW_L_SIMP","GROWIST","1386","395704","392612","394195","243636","NA","NA","NA","NA","394189","393109","NA","392104","NA","392098","394189","1394","395904","NA","NA","393195","1386","1386","393587","392098","1386","393195","395904","morph21_Oliver/Morris","29","24503","42","yes","1280","20"
"400","69.7674418605","69.7674418605","585.558139535","585.558139535","black","no","xpyriment","legacy","legacy","0","206","NA","uniform","68857","1000","0.0145228517072","1","undefined","1","0","42","42","42","0","42","42","42","NA","42","42","0","42","NA","42","42","0","42","NA","42","NA","42","0","0","42","42","0","42","42","43","z","02/01/18 15:27:24","The main experiment item","yes","FIN__BA__M21__7%3A10%3A17.osexp","C:\Users\ERP Testing Room\Desktop\Joanna\morph21","no","mono","no","18","no","white","no","yes","1080","legacy","42","42","C:/Users/ERP Testing Room/Desktop/Joanna/morph21/subject-123.csv","xpyriment","Jazzy James","3.1.4","0","z","NA","NA","NA","NA","return","z","676","NA","NA","NA","NA","242242","676","2","legacy","1024","2","48000","-16","BA_m21","123","odd","NW_L_SIMP","BOGARY","1386","398704","397120","394195","243636","NA","NA","NA","NA","398697","397617","NA","396620","NA","396615","398697","1394","399104","NA","NA","397704","1386","1386","398095","396615","1386","397704","399104","morph21_Oliver/Morris","30","25179","43","yes","1280","2"
"400","70.4545454545","70.4545454545","581.772727273","581.772727273","black","no","xpyriment","legacy","legacy","0","202","NA","uniform","79648","1000","0.0125552430695","1","undefined","1","0","43","43","43","0","43","43","43","NA","43","43","0","43","NA","43","43","0","43","NA","43","NA","43","0","0","43","43","0","43","43","44","/","02/01/18 15:27:24","The main experiment item","yes","FIN__BA__M21__7%3A10%3A17.osexp","C:\Users\ERP Testing Room\Desktop\Joanna\morph21","no","mono","no","18","no","white","no","yes","1080","legacy","43","43","C:/Users/ERP Testing Room/Desktop/Joanna/morph21/subject-123.csv","xpyriment","Jazzy James","3.1.4","0","/","NA","NA","NA","NA","return","/","419","NA","NA","NA","NA","242242","419","2","legacy","1024","2","48000","-16","BA_m21","123","odd","CW_L","CLEANER","1386","401937","400329","394195","243636","NA","NA","NA","NA","401929","400826","NA","399829","NA","399818","401929","1394","402337","NA","NA","400937","1386","1386","401329","399818","1386","400937","402337","morph21_Oliver/Morris","31","25598","44","yes","1280","15"
"200","71.1111111111","71.1111111111","581.444444444","581.444444444","black","no","xpyriment","legacy","legacy","0","205","NA","uniform","80707","1000","0.0123904989654","1","undefined","1","0","44","44","44","0","44","44","44","NA","44","44","0","44","NA","44","44","0","44","NA","44","NA","44","0","0","44","44","0","44","44","45","z","02/01/18 15:27:24","The main experiment item","yes","FIN__BA__M21__7%3A10%3A17.osexp","C:\Users\ERP Testing Room\Desktop\Joanna\morph21","no","mono","no","18","no","white","no","yes","1080","legacy","44","44","C:/Users/ERP Testing Room/Desktop/Joanna/morph21/subject-123.csv","xpyriment","Jazzy James","3.1.4","0","z","NA","NA","NA","NA","return","z","567","NA","NA","NA","NA","242242","567","2","legacy","1024","2","48000","-16","BA_m21","123","odd","NW_S_SIMP","NULLISH","1386","406747","403630","405238","243636","NA","NA","NA","NA","405230","404127","NA","403130","NA","403124","405230","1394","406947","NA","NA","404238","1386","1386","404630","403124","1386","404238","406947","morph21_Oliver/Morris","32","26165","45","yes","1280","23"
"350","71.7391304348","71.7391304348","579.673913043","579.673913043","black","no","xpyriment","legacy","legacy","0","201","NA","uniform","80222","1000","0.0124654084914","1","undefined","1","0","45","45","45","0","45","45","45","NA","45","45","0","45","NA","45","45","0","45","NA","45","NA","45","0","0","45","45","0","45","45","46","/","02/01/18 15:27:24","The main experiment item","yes","FIN__BA__M21__7%3A10%3A17.osexp","C:\Users\ERP Testing Room\Desktop\Joanna\morph21","no","mono","no","18","no","white","no","yes","1080","legacy","45","45","C:/Users/ERP Testing Room/Desktop/Joanna/morph21/subject-123.csv","xpyriment","Jazzy James","3.1.4","0","/","NA","NA","NA","NA","return","/","500","NA","NA","NA","NA","242242","500","2","legacy","1024","2","48000","-16","BA_m21","123","odd","CW_S","CHILLY","1386","409705","408114","405238","243636","NA","NA","NA","NA","409696","408611","NA","407614","NA","407606","409696","1394","410055","NA","NA","408705","1386","1386","409097","407606","1386","408705","410055","morph21_Oliver/Morris","33","26665","46","yes","1280","48"
"300","72.3404255319","72.3404255319","583.638297872","583.638297872","black","no","xpyriment","legacy","legacy","0","204","NA","uniform","74865","1000","0.0133573766112","1","undefined","1","0","46","46","46","0","46","46","46","NA","46","46","0","46","NA","46","46","0","46","NA","46","NA","46","0","0","46","46","0","46","46","47","z","02/01/18 15:27:24","The main experiment item","yes","FIN__BA__M21__7%3A10%3A17.osexp","C:\Users\ERP Testing Room\Desktop\Joanna\morph21","no","mono","no","18","no","white","no","yes","1080","legacy","46","46","C:/Users/ERP Testing Room/Desktop/Joanna/morph21/subject-123.csv","xpyriment","Jazzy James","3.1.4","0","z","NA","NA","NA","NA","return","z","766","NA","NA","NA","NA","242242","766","2","legacy","1024","2","48000","-16","BA_m21","123","odd","NW_L_COMP","FELLOWOES","1386","412855","411272","405238","243636","NA","NA","NA","NA","412849","411769","NA","410772","NA","410761","412849","1394","413155","NA","NA","411855","1386","1386","412247","410761","1386","411855","413155","morph21_Oliver/Morris","34","27431","47","yes","1280","17"
"250","72.9166666667","72.9166666667","580.166666667","580.166666667","black","no","xpyriment","legacy","legacy","0","207","NA","uniform","83067","1000","0.012038474966","1","undefined","1","0","47","47","47","0","47","47","47","NA","47","47","0","47","NA","47","47","0","47","NA","47","NA","47","0","0","47","47","0","47","47","48","/","02/01/18 15:27:24","The main experiment item","yes","FIN__BA__M21__7%3A10%3A17.osexp","C:\Users\ERP Testing Room\Desktop\Joanna\morph21","no","mono","no","18","no","white","no","yes","1080","legacy","47","47","C:/Users/ERP Testing Room/Desktop/Joanna/morph21/subject-123.csv","xpyriment","Jazzy James","3.1.4","0","/","NA","NA","NA","NA","return","/","417","NA","NA","NA","NA","242242","417","2","legacy","1024","2","48000","-16","BA_m21","123","odd","FILL_W","SUIT","1386","417456","414322","415947","243636","NA","NA","NA","NA","415938","414819","NA","413822","NA","413819","415938","1394","417706","NA","NA","414947","1386","1386","415339","413819","1386","414947","417706","morph21_Oliver/Morris","35","27848","48","yes","1280","49"
"350","73.4693877551","73.4693877551","579.12244898","579.12244898","black","no","xpyriment","legacy","legacy","0","202","NA","uniform","82416","1000","0.0121335662978","1","undefined","1","0","48","48","48","0","48","48","48","NA","48","48","0","48","NA","48","48","0","48","NA","48","NA","48","0","0","48","48","0","48","48","49","/","02/01/18 15:27:24","The main experiment item","yes","FIN__BA__M21__7%3A10%3A17.osexp","C:\Users\ERP Testing Room\Desktop\Joanna\morph21","no","mono","no","18","no","white","no","yes","1080","legacy","48","48","C:/Users/ERP Testing Room/Desktop/Joanna/morph21/subject-123.csv","xpyriment","Jazzy James","3.1.4","0","/","NA","NA","NA","NA","return","/","529","NA","NA","NA","NA","242242","529","2","legacy","1024","2","48000","-16","BA_m21","123","odd","CW_L","BOMBER","1386","420565","418981","415947","243636","NA","NA","NA","NA","420558","419478","NA","418481","NA","418473","420558","1394","420915","NA","NA","419564","1386","1386","419957","418473","1386","419564","420915","morph21_Oliver/Morris","36","28377","49","yes","1280","7"
"250","74","74","581.7","581.7","black","no","xpyriment","legacy","legacy","0","208","NA","uniform","71073","1000","0.0140700406624","1","undefined","1","0","49","49","49","0","49","49","49","NA","49","49","0","49","NA","49","49","0","49","NA","49","NA","49","0","0","49","49","0","49","49","50","z","02/01/18 15:27:24","The main experiment item","yes","FIN__BA__M21__7%3A10%3A17.osexp","C:\Users\ERP Testing Room\Desktop\Joanna\morph21","no","mono","no","18","no","white","no","yes","1080","legacy","49","49","C:/Users/ERP Testing Room/Desktop/Joanna/morph21/subject-123.csv","xpyriment","Jazzy James","3.1.4","0","z","NA","NA","NA","NA","return","z","708","NA","NA","NA","NA","242242","708","2","legacy","1024","2","48000","-16","BA_m21","123","odd","FILL_NW","BUWL","1386","423649","422065","415947","243636","NA","NA","NA","NA","423646","422562","NA","421565","NA","421560","423646","1394","423899","NA","NA","422657","1386","1386","423048","421560","1386","422657","423899","morph21_Oliver/Morris","37","29085","50","yes","1280","9"
"300","74.5098039216","74.5098039216","582.549019608","582.549019608","black","no","xpyriment","legacy","legacy","0","208","NA","uniform","75187","1000","0.0133001715722","1","undefined","1","0","50","50","50","0","50","50","50","NA","50","50","0","50","NA","50","50","0","50","NA","50","NA","50","0","0","50","50","0","50","50","51","z","02/01/18 15:27:24","The main experiment item","yes","FIN__BA__M21__7%3A10%3A17.osexp","C:\Users\ERP Testing Room\Desktop\Joanna\morph21","no","mono","no","18","no","white","no","yes","1080","legacy","50","50","C:/Users/ERP Testing Room/Desktop/Joanna/morph21/subject-123.csv","xpyriment","Jazzy James","3.1.4","0","z","NA","NA","NA","NA","return","z","625","NA","NA","NA","NA","242242","625","2","legacy","1024","2","48000","-16","BA_m21","123","odd","FILL_NW","KEMT","1386","428232","425140","426724","243636","NA","NA","NA","NA","426715","425637","NA","424640","NA","424631","426715","1394","428532","NA","NA","425724","1386","1386","426115","424631","1386","425724","428532","morph21_Oliver/Morris","38","29710","51","yes","1280","32"
"250","75","75","586.096153846","586.096153846","black","no","xpyriment","legacy","legacy","0","208","NA","uniform","69730","1000","0.0143410296859","1","undefined","1","0","51","51","51","0","51","51","51","NA","51","51","0","51","NA","51","51","0","51","NA","51","NA","51","0","0","51","51","0","51","51","52","z","02/01/18 15:27:24","The main experiment item","yes","FIN__BA__M21__7%3A10%3A17.osexp","C:\Users\ERP Testing Room\Desktop\Joanna\morph21","no","mono","no","18","no","white","no","yes","1080","legacy","51","51","C:/Users/ERP Testing Room/Desktop/Joanna/morph21/subject-123.csv","xpyriment","Jazzy James","3.1.4","0","z","NA","NA","NA","NA","return","z","767","NA","NA","NA","NA","242242","767","2","legacy","1024","2","48000","-16","BA_m21","123","odd","FILL_NW","DOWED","1386","431366","429782","426724","243636","NA","NA","NA","NA","431360","430279","NA","429282","NA","429274","431360","1394","431616","NA","NA","430366","1386","1386","430757","429273","1386","430366","431616","morph21_Oliver/Morris","39","30477","52","yes","1280","16"
"250","75.4716981132","75.4716981132","587.018867925","587.018867925","black","no","xpyriment","legacy","legacy","0","201","NA","uniform","77393","1000","0.0129210652126","1","undefined","1","0","52","52","52","0","52","52","52","NA","52","52","0","52","NA","52","52","0","52","NA","52","NA","52","0","0","52","52","0","52","52","53","/","02/01/18 15:27:24","The main experiment item","yes","FIN__BA__M21__7%3A10%3A17.osexp","C:\Users\ERP Testing Room\Desktop\Joanna\morph21","no","mono","no","18","no","white","no","yes","1080","legacy","52","52","C:/Users/ERP Testing Room/Desktop/Joanna/morph21/subject-123.csv","xpyriment","Jazzy James","3.1.4","0","/","NA","NA","NA","NA","return","/","635","NA","NA","NA","NA","242242","635","2","legacy","1024","2","48000","-16","BA_m21","123","odd","CW_S","HUGELY","1386","434441","432857","426724","243636","NA","NA","NA","NA","434435","433354","NA","432357","NA","432349","434435","1394","434691","NA","NA","433441","1386","1386","433832","432349","1386","433441","434691","morph21_Oliver/Morris","40","31112","53","yes","1280","35"
"250","75.9259259259","75.9259259259","586.222222222","586.222222222","black","no","xpyriment","legacy","legacy","0","202","NA","uniform","79756","1000","0.012538241637","1","undefined","1","0","53","53","53","0","53","53","53","NA","53","53","0","53","NA","53","53","0","53","NA","53","NA","53","0","0","53","53","0","53","53","54","/","02/01/18 15:27:24","The main experiment item","yes","FIN__BA__M21__7%3A10%3A17.osexp","C:\Users\ERP Testing Room\Desktop\Joanna\morph21","no","mono","no","18","no","white","no","yes","1080","legacy","53","53","C:/Users/ERP Testing Room/Desktop/Joanna/morph21/subject-123.csv","xpyriment","Jazzy James","3.1.4","0","/","NA","NA","NA","NA","return","/","544","NA","NA","NA","NA","242242","544","2","legacy","1024","2","48000","-16","BA_m21","123","odd","CW_L","EXCITEMENT","1386","439067","435941","437558","243636","NA","NA","NA","NA","437553","436438","NA","435441","NA","435434","437553","1394","439317","NA","NA","436557","1386","1386","436957","435434","1386","436557","439317","morph21_Oliver/Morris","41","31656","54","yes","1280","38"
"350","76.3636363636","76.3636363636","586.036363636","586.036363636","black","no","xpyriment","legacy","legacy","0","202","NA","uniform","76465","1000","0.0130778787681","1","undefined","1","0","54","54","54","0","54","54","54","NA","54","54","0","54","NA","54","54","0","54","NA","54","NA","54","0","0","54","54","0","54","54","55","/","02/01/18 15:27:24","The main experiment item","yes","FIN__BA__M21__7%3A10%3A17.osexp","C:\Users\ERP Testing Room\Desktop\Joanna\morph21","no","mono","no","18","no","white","no","yes","1080","legacy","54","54","C:/Users/ERP Testing Room/Desktop/Joanna/morph21/subject-123.csv","xpyriment","Jazzy James","3.1.4","0","/","NA","NA","NA","NA","return","/","576","NA","NA","NA","NA","242242","576","2","legacy","1024","2","48000","-16","BA_m21","123","odd","CW_L","GUARDING","1386","442117","440500","437558","243636","NA","NA","NA","NA","442110","440997","NA","440000","NA","439994","442110","1394","442467","NA","NA","441117","1386","1386","441509","439994","1386","441117","442467","morph21_Oliver/Morris","42","32232","55","yes","1280","26"
"400","75","75","589.642857143","589.642857143","black","no","xpyriment","legacy","legacy","0","206","NA","uniform","67387","1000","0.0148396575007","0","undefined","0","0","55","55","55","0","55","55","55","NA","55","55","0","55","NA","55","55","0","55","NA","55","NA","55","0","0","55","55","0","55","55","56","z","02/01/18 15:27:24","The main experiment item","yes","FIN__BA__M21__7%3A10%3A17.osexp","C:\Users\ERP Testing Room\Desktop\Joanna\morph21","no","mono","no","18","no","white","no","yes","1080","legacy","55","55","C:/Users/ERP Testing Room/Desktop/Joanna/morph21/subject-123.csv","xpyriment","Jazzy James","3.1.4","0","/","NA","NA","NA","NA","return","/","788","NA","NA","NA","NA","242242","788","2","legacy","1024","2","48000","-16","BA_m21","123","odd","NW_L_SIMP","VALIDER","1386","445209","443625","437558","243636","NA","NA","NA","NA","442110","444123","NA","443125","NA","443121","445200","1394","445609","NA","NA","444209","1386","1386","444600","443120","1386","444209","445609","morph21_Oliver/Morris","42","33020","56","yes","1280","23"
"250","75.4385964912","75.4385964912","587.947368421","587.947368421","black","no","xpyriment","legacy","legacy","0","207","NA","uniform","80293","1000","0.012454385812","1","undefined","1","0","56","56","56","0","56","56","56","NA","56","56","0","56","NA","56","56","0","56","NA","56","NA","56","0","0","56","56","0","56","56","57","/","02/01/18 15:27:24","The main experiment item","yes","FIN__BA__M21__7%3A10%3A17.osexp","C:\Users\ERP Testing Room\Desktop\Joanna\morph21","no","mono","no","18","no","white","no","yes","1080","legacy","56","56","C:/Users/ERP Testing Room/Desktop/Joanna/morph21/subject-123.csv","xpyriment","Jazzy James","3.1.4","0","/","NA","NA","NA","NA","return","/","493","NA","NA","NA","NA","242242","493","2","legacy","1024","2","48000","-16","BA_m21","123","odd","FILL_W","STARVE","1386","449884","446784","448376","243636","NA","NA","NA","NA","448367","447281","NA","446284","NA","446273","448367","1394","450134","NA","NA","447376","1386","1386","447767","446273","1386","447376","450134","morph21_Oliver/Morris","43","33513","57","yes","1280","15"
"350","75.8620689655","75.8620689655","588.551724138","588.551724138","black","no","xpyriment","legacy","legacy","0","202","NA","uniform","80172","1000","0.0124731826573","1","undefined","1","0","57","57","57","0","57","57","57","NA","57","57","0","57","NA","57","57","0","57","NA","57","NA","57","0","0","57","57","0","57","57","58","/","02/01/18 15:27:24","The main experiment item","yes","FIN__BA__M21__7%3A10%3A17.osexp","C:\Users\ERP Testing Room\Desktop\Joanna\morph21","no","mono","no","18","no","white","no","yes","1080","legacy","57","57","C:/Users/ERP Testing Room/Desktop/Joanna/morph21/subject-123.csv","xpyriment","Jazzy James","3.1.4","0","/","NA","NA","NA","NA","return","/","623","NA","NA","NA","NA","242242","623","2","legacy","1024","2","48000","-16","BA_m21","123","odd","CW_L","GUILELESS","1386","452901","451309","448376","243636","NA","NA","NA","NA","452894","451806","NA","450809","NA","450803","452894","1394","453251","NA","NA","451901","1386","1386","452292","450803","1386","451901","453251","morph21_Oliver/Morris","44","34136","58","yes","1280","31"
"200","74.5762711864","74.5762711864","587.983050847","587.983050847","black","no","xpyriment","legacy","legacy","0","203","NA","uniform","81587","1000","0.012256854646","0","undefined","0","0","58","58","58","0","58","58","58","NA","58","58","0","58","NA","58","58","0","58","NA","58","NA","58","0","0","58","58","0","58","58","59","z","02/01/18 15:27:24","The main experiment item","yes","FIN__BA__M21__7%3A10%3A17.osexp","C:\Users\ERP Testing Room\Desktop\Joanna\morph21","no","mono","no","18","no","white","no","yes","1080","legacy","58","58","C:/Users/ERP Testing Room/Desktop/Joanna/morph21/subject-123.csv","xpyriment","Jazzy James","3.1.4","0","/","NA","NA","NA","NA","return","/","555","NA","NA","NA","NA","242242","555","2","legacy","1024","2","48000","-16","BA_m21","123","odd","NW_S_COMP","FANFIL","1386","455994","454401","448376","243636","NA","NA","NA","NA","452894","454898","NA","453901","NA","453897","455985","1394","456194","NA","NA","454994","1386","1386","455385","453897","1386","454994","456194","morph21_Oliver/Morris","44","34691","59","yes","1280","6"
"350","75","75","587.4","587.4","black","no","xpyriment","legacy","legacy","0","201","NA","uniform","74478","1000","0.0134267837482","1","undefined","1","0","59","59","59","0","59","59","59","NA","59","59","0","59","NA","59","59","0","59","NA","59","NA","59","0","0","59","59","0","59","59","60","/","02/01/18 15:27:24","The main experiment item","yes","FIN__BA__M21__7%3A10%3A17.osexp","C:\Users\ERP Testing Room\Desktop\Joanna\morph21","no","mono","no","18","no","white","no","yes","1080","legacy","59","59","C:/Users/ERP Testing Room/Desktop/Joanna/morph21/subject-123.csv","xpyriment","Jazzy James","3.1.4","0","/","NA","NA","NA","NA","return","/","553","NA","NA","NA","NA","242242","553","2","legacy","1024","2","48000","-16","BA_m21","123","odd","CW_S","DENSELY","1386","460561","457469","459052","243636","NA","NA","NA","NA","459048","457966","NA","456969","NA","456962","459048","1394","460911","NA","NA","458052","1386","1386","458452","456962","1386","458052","460911","morph21_Oliver/Morris","45","35244","60","yes","1280","32"
"300","75.4098360656","75.4098360656","589.278688525","589.278688525","black","no","xpyriment","legacy","legacy","0","204","NA","uniform","69027","1000","0.0144870847639","1","undefined","1","0","60","60","60","0","60","60","60","NA","60","60","0","60","NA","60","60","0","60","NA","60","NA","60","0","0","60","60","0","60","60","61","z","02/01/18 15:27:24","The main experiment item","yes","FIN__BA__M21__7%3A10%3A17.osexp","C:\Users\ERP Testing Room\Desktop\Joanna\morph21","no","mono","no","18","no","white","no","yes","1080","legacy","60","60","C:/Users/ERP Testing Room/Desktop/Joanna/morph21/subject-123.csv","xpyriment","Jazzy James","3.1.4","0","z","NA","NA","NA","NA","return","z","702","NA","NA","NA","NA","242242","702","2","legacy","1024","2","48000","-16","BA_m21","123","odd","NW_L_COMP","EMPLOYNELS","1386","463719","462111","459052","243636","NA","NA","NA","NA","463710","462608","NA","461611","NA","461600","463710","1394","464019","NA","NA","462719","1386","1386","463111","461600","1386","462719","464019","morph21_Oliver/Morris","46","35946","61","yes","1280","21"
"250","75.8064516129","75.8064516129","588.887096774","588.887096774","black","no","xpyriment","legacy","legacy","0","207","NA","uniform","72396","1000","0.0138129178408","1","undefined","1","0","61","61","61","0","61","61","61","NA","61","61","0","61","NA","61","61","0","61","NA","61","NA","61","0","0","61","61","0","61","61","62","/","02/01/18 15:27:24","The main experiment item","yes","FIN__BA__M21__7%3A10%3A17.osexp","C:\Users\ERP Testing Room\Desktop\Joanna\morph21","no","mono","no","18","no","white","no","yes","1080","legacy","61","61","C:/Users/ERP Testing Room/Desktop/Joanna/morph21/subject-123.csv","xpyriment","Jazzy James","3.1.4","0","/","NA","NA","NA","NA","return","/","565","NA","NA","NA","NA","242242","565","2","legacy","1024","2","48000","-16","BA_m21","123","odd","FILL_W","FIERCE","1386","466952","465369","459052","243636","NA","NA","NA","NA","466944","465866","NA","464869","NA","464860","466944","1394","467202","NA","NA","465952","1386","1386","466344","464860","1386","465952","467202","morph21_Oliver/Morris","47","36511","62","yes","1280","24"
"250","76.1904761905","76.1904761905","588.666666667","588.666666667","black","no","xpyriment","legacy","legacy","0","204","NA","uniform","76281","1000","0.0131094243652","1","undefined","1","0","62","62","62","0","62","62","62","NA","62","62","0","62","NA","62","62","0","62","NA","62","NA","62","0","0","62","62","0","62","62","63","z","02/01/18 15:27:24","The main experiment item","yes","FIN__BA__M21__7%3A10%3A17.osexp","C:\Users\ERP Testing Room\Desktop\Joanna\morph21","no","mono","no","18","no","white","no","yes","1080","legacy","62","62","C:/Users/ERP Testing Room/Desktop/Joanna/morph21/subject-123.csv","xpyriment","Jazzy James","3.1.4","0","z","NA","NA","NA","NA","return","z","575","NA","NA","NA","NA","242242","575","2","legacy","1024","2","48000","-16","BA_m21","123","odd","NW_L_COMP","BREAKIDY","1386","471578","468486","470069","243636","NA","NA","NA","NA","470060","468983","NA","467986","NA","467982","470060","1394","471828","NA","NA","469069","1386","1386","469461","467982","1386","469069","471828","morph21_Oliver/Morris","48","37086","63","yes","1280","23"
"400","76.5625","76.5625","592.578125","592.578125","black","no","xpyriment","legacy","legacy","0","202","NA","uniform","63462","1000","0.0157574611579","1","undefined","1","0","63","63","63","0","63","63","63","NA","63","63","0","63","NA","63","63","0","63","NA","63","NA","63","0","0","63","63","0","63","63","64","/","02/01/18 15:27:24","The main experiment item","yes","FIN__BA__M21__7%3A10%3A17.osexp","C:\Users\ERP Testing Room\Desktop\Joanna\morph21","no","mono","no","18","no","white","no","yes","1080","legacy","63","63","C:/Users/ERP Testing Room/Desktop/Joanna/morph21/subject-123.csv","xpyriment","Jazzy James","3.1.4","0","/","NA","NA","NA","NA","return","/","839","NA","NA","NA","NA","242242","839","2","legacy","1024","2","48000","-16","BA_m21","123","odd","CW_L","CLOUDLESS","1386","474662","473079","470069","243636","NA","NA","NA","NA","474654","473576","NA","472579","NA","472570","474654","1394","475062","NA","NA","473662","1386","1386","474054","472570","1386","473662","475062","morph21_Oliver/Morris","49","37925","64","yes","1280","33"
"400","76.9230769231","76.9230769231","590.676923077","590.676923077","black","no","xpyriment","legacy","legacy","0","207","NA","uniform","75910","1000","0.0131734949282","1","undefined","1","0","64","64","64","0","64","64","64","NA","64","64","0","64","NA","64","64","0","64","NA","64","NA","64","0","0","64","64","0","64","64","65","/","02/01/18 15:27:24","The main experiment item","yes","FIN__BA__M21__7%3A10%3A17.osexp","C:\Users\ERP Testing Room\Desktop\Joanna\morph21","no","mono","no","18","no","white","no","yes","1080","legacy","64","64","C:/Users/ERP Testing Room/Desktop/Joanna/morph21/subject-123.csv","xpyriment","Jazzy James","3.1.4","0","/","NA","NA","NA","NA","return","/","469","NA","NA","NA","NA","242242","469","2","legacy","1024","2","48000","-16","BA_m21","123","odd","FILL_W","FLIRT","1386","477896","476312","470069","243636","NA","NA","NA","NA","477889","476809","NA","475812","NA","475800","477889","1394","478296","NA","NA","476896","1386","1386","477287","475800","1386","476896","478296","morph21_Oliver/Morris","50","38394","65","yes","1280","1"
"200","77.2727272727","77.2727272727","587.575757576","587.575757576","black","no","xpyriment","legacy","legacy","0","207","NA","uniform","77977","1000","0.0128242943432","1","undefined","1","0","65","65","65","0","65","65","65","NA","65","65","0","65","NA","65","65","0","65","NA","65","NA","65","0","0","65","65","0","65","65","66","/","02/01/18 15:27:24","The main experiment item","yes","FIN__BA__M21__7%3A10%3A17.osexp","C:\Users\ERP Testing Room\Desktop\Joanna\morph21","no","mono","no","18","no","white","no","yes","1080","legacy","65","65","C:/Users/ERP Testing Room/Desktop/Joanna/morph21/subject-123.csv","xpyriment","Jazzy James","3.1.4","0","/","NA","NA","NA","NA","return","/","386","NA","NA","NA","NA","242242","386","2","legacy","1024","2","48000","-16","BA_m21","123","odd","FILL_W","BLEAK","1386","482696","479579","481187","243636","NA","NA","NA","NA","481180","480076","NA","479079","NA","479070","481180","1394","482896","NA","NA","480187","1386","1386","480579","479070","1386","480187","482896","morph21_Oliver/Morris","51","38780","66","yes","1280","5"
"200","77.6119402985","77.6119402985","588.194029851","588.194029851","black","no","xpyriment","legacy","legacy","0","201","NA","uniform","74810","1000","0.0133671968988","1","undefined","1","0","66","66","66","0","66","66","66","NA","66","66","0","66","NA","66","66","0","66","NA","66","NA","66","0","0","66","66","0","66","66","67","/","02/01/18 15:27:24","The main experiment item","yes","FIN__BA__M21__7%3A10%3A17.osexp","C:\Users\ERP Testing Room\Desktop\Joanna\morph21","no","mono","no","18","no","white","no","yes","1080","legacy","66","66","C:/Users/ERP Testing Room/Desktop/Joanna/morph21/subject-123.csv","xpyriment","Jazzy James","3.1.4","0","/","NA","NA","NA","NA","return","/","629","NA","NA","NA","NA","242242","629","2","legacy","1024","2","48000","-16","BA_m21","123","odd","CW_S","ANGELIC","1386","485671","484088","481187","243636","NA","NA","NA","NA","485663","484585","NA","483588","NA","483582","485663","1394","485871","NA","NA","484671","1386","1386","485063","483582","1386","484671","485871","morph21_Oliver/Morris","52","39409","67","yes","1280","25"
"350","77.9411764706","77.9411764706","590.647058824","590.647058824","black","no","xpyriment","legacy","legacy","0","208","NA","uniform","70834","1000","0.0141175141881","1","undefined","1","0","67","67","67","0","67","67","67","NA","67","67","0","67","NA","67","67","0","67","NA","67","NA","67","0","0","67","67","0","67","67","68","z","02/01/18 15:27:24","The main experiment item","yes","FIN__BA__M21__7%3A10%3A17.osexp","C:\Users\ERP Testing Room\Desktop\Joanna\morph21","no","mono","no","18","no","white","no","yes","1080","legacy","67","67","C:/Users/ERP Testing Room/Desktop/Joanna/morph21/subject-123.csv","xpyriment","Jazzy James","3.1.4","0","z","NA","NA","NA","NA","return","z","755","NA","NA","NA","NA","242242","755","2","legacy","1024","2","48000","-16","BA_m21","123","odd","FILL_NW","JADS","1386","488721","487138","481187","243636","NA","NA","NA","NA","488717","487635","NA","486638","NA","486630","488717","1394","489071","NA","NA","487721","1386","1386","488121","486630","1386","487721","489071","morph21_Oliver/Morris","53","40164","68","yes","1280","31"
"300","78.2608695652","78.2608695652","593.376811594","593.376811594","black","no","xpyriment","legacy","legacy","0","205","NA","uniform","73157","1000","0.0136692319259","1","undefined","1","0","68","68","68","0","68","68","68","NA","68","68","0","68","NA","68","68","0","68","NA","68","NA","68","0","0","68","68","0","68","68","69","z","02/01/18 15:27:24","The main experiment item","yes","FIN__BA__M21__7%3A10%3A17.osexp","C:\Users\ERP Testing Room\Desktop\Joanna\morph21","no","mono","no","18","no","white","no","yes","1080","legacy","68","68","C:/Users/ERP Testing Room/Desktop/Joanna/morph21/subject-123.csv","xpyriment","Jazzy James","3.1.4","0","z","NA","NA","NA","NA","return","z","779","NA","NA","NA","NA","242242","779","2","legacy","1024","2","48000","-16","BA_m21","123","odd","NW_S_SIMP","HEIRIC","1386","493422","490305","491914","243636","NA","NA","NA","NA","491907","490803","NA","489805","NA","489798","491907","1394","493722","NA","NA","490914","1386","1386","491306","489797","1386","490914","493722","morph21_Oliver/Morris","54","40943","69","yes","1280","3"
"400","78.5714285714","78.5714285714","594.271428571","594.271428571","black","no","xpyriment","legacy","legacy","0","203","NA","uniform","78771","1000","0.0126950273578","1","undefined","1","0","69","69","69","0","69","69","69","NA","69","69","0","69","NA","69","69","0","69","NA","69","NA","69","0","0","69","69","0","69","69","70","z","02/01/18 15:27:24","The main experiment item","yes","FIN__BA__M21__7%3A10%3A17.osexp","C:\Users\ERP Testing Room\Desktop\Joanna\morph21","no","mono","no","18","no","white","no","yes","1080","legacy","69","69","C:/Users/ERP Testing Room/Desktop/Joanna/morph21/subject-123.csv","xpyriment","Jazzy James","3.1.4","0","z","NA","NA","NA","NA","return","z","656","NA","NA","NA","NA","242242","656","2","legacy","1024","2","48000","-16","BA_m21","123","odd","NW_S_COMP","TRUENELS","1386","496597","495014","491914","243636","NA","NA","NA","NA","496590","495511","NA","494514","NA","494506","496590","1394","496997","NA","NA","495597","1386","1386","495989","494506","1386","495597","496997","morph21_Oliver/Morris","55","41599","70","yes","1280","15"
"200","78.8732394366","78.8732394366","595.169014085","595.169014085","black","no","xpyriment","legacy","legacy","0","207","NA","uniform","77468","1000","0.0129085557908","1","undefined","1","0","70","70","70","0","70","70","70","NA","70","70","0","70","NA","70","70","0","70","NA","70","NA","70","0","0","70","70","0","70","70","71","/","02/01/18 15:27:24","The main experiment item","yes","FIN__BA__M21__7%3A10%3A17.osexp","C:\Users\ERP Testing Room\Desktop\Joanna\morph21","no","mono","no","18","no","white","no","yes","1080","legacy","70","70","C:/Users/ERP Testing Room/Desktop/Joanna/morph21/subject-123.csv","xpyriment","Jazzy James","3.1.4","0","/","NA","NA","NA","NA","return","/","658","NA","NA","NA","NA","242242","658","2","legacy","1024","2","48000","-16","BA_m21","123","odd","FILL_W","BRASS","1386","499939","498348","491914","243636","NA","NA","NA","NA","499934","498845","NA","497848","NA","497841","499934","1394","500139","NA","NA","498939","1386","1386","499339","497841","1386","498939","500139","morph21_Oliver/Morris","56","42257","71","yes","1280","10"
"250","79.1666666667","79.1666666667","593.513888889","593.513888889","black","no","xpyriment","legacy","legacy","0","201","NA","uniform","77733","1000","0.0128645491619","1","undefined","1","0","71","71","71","0","71","71","71","NA","71","71","0","71","NA","71","71","0","71","NA","71","NA","71","0","0","71","71","0","71","71","72","/","02/01/18 15:27:24","The main experiment item","yes","FIN__BA__M21__7%3A10%3A17.osexp","C:\Users\ERP Testing Room\Desktop\Joanna\morph21","no","mono","no","18","no","white","no","yes","1080","legacy","71","71","C:/Users/ERP Testing Room/Desktop/Joanna/morph21/subject-123.csv","xpyriment","Jazzy James","3.1.4","0","/","NA","NA","NA","NA","return","/","476","NA","NA","NA","NA","242242","476","2","legacy","1024","2","48000","-16","BA_m21","123","odd","CW_S","TOSSING","1386","504389","501298","502881","243636","NA","NA","NA","NA","502877","501795","NA","500798","NA","500788","502877","1394","504640","NA","NA","501881","1386","1386","502281","500788","1386","501881","504640","morph21_Oliver/Morris","57","42733","72","yes","1280","26"
"300","79.4520547945","79.4520547945","591.068493151","591.068493151","black","no","xpyriment","legacy","legacy","0","207","NA","uniform","78601","1000","0.0127224844468","1","undefined","1","0","72","72","72","0","72","72","72","NA","72","72","0","72","NA","72","72","0","72","NA","72","NA","72","0","0","72","72","0","72","72","73","/","02/01/18 15:27:24","The main experiment item","yes","FIN__BA__M21__7%3A10%3A17.osexp","C:\Users\ERP Testing Room\Desktop\Joanna\morph21","no","mono","no","18","no","white","no","yes","1080","legacy","72","72","C:/Users/ERP Testing Room/Desktop/Joanna/morph21/subject-123.csv","xpyriment","Jazzy James","3.1.4","0","/","NA","NA","NA","NA","return","/","415","NA","NA","NA","NA","242242","415","2","legacy","1024","2","48000","-16","BA_m21","123","odd","FILL_W","BAKE","1386","507566","505981","502881","243636","NA","NA","NA","NA","507559","506478","NA","505481","NA","505477","507559","1394","507866","NA","NA","506565","1386","1386","506956","505477","1386","506564","507866","morph21_Oliver/Morris","58","43148","73","yes","1280","29"
"250","79.7297297297","79.7297297297","589.581081081","589.581081081","black","no","xpyriment","legacy","legacy","0","202","NA","uniform","71002","1000","0.0140841103068","1","undefined","1","0","73","73","73","0","73","73","73","NA","73","73","0","73","NA","73","73","0","73","NA","73","NA","73","0","0","73","73","0","73","73","74","/","02/01/18 15:27:24","The main experiment item","yes","FIN__BA__M21__7%3A10%3A17.osexp","C:\Users\ERP Testing Room\Desktop\Joanna\morph21","no","mono","no","18","no","white","no","yes","1080","legacy","73","73","C:/Users/ERP Testing Room/Desktop/Joanna/morph21/subject-123.csv","xpyriment","Jazzy James","3.1.4","0","/","NA","NA","NA","NA","return","/","481","NA","NA","NA","NA","242242","481","2","legacy","1024","2","48000","-16","BA_m21","123","odd","CW_L","STRIKER","1386","510732","509116","502881","243636","NA","NA","NA","NA","510724","509613","NA","508616","NA","508611","510724","1394","510982","NA","NA","509732","1386","1386","510124","508611","1386","509732","510982","morph21_Oliver/Morris","59","43629","74","yes","1280","17"
"400","80","80","588.6","588.6","black","no","xpyriment","legacy","legacy","0","207","NA","uniform","75558","1000","0.0132348659308","undefined","undefined","1","0","74","74","74","0","74","74","74","NA","74","74","0","74","NA","74","74","0","74","NA","74","NA","74","0","0","74","74","0","74","74","75","/","02/01/18 15:27:24","The main experiment item","yes","FIN__BA__M21__7%3A10%3A17.osexp","C:\Users\ERP Testing Room\Desktop\Joanna\morph21","no","mono","no","18","no","white","no","yes","1080","legacy","74","74","C:/Users/ERP Testing Room/Desktop/Joanna/morph21/subject-123.csv","xpyriment","Jazzy James","3.1.4","0","space","space","NA","NA","NA","return","/","57214","57214","NA","NA","NA","242242","516","2","legacy","1024","2","48000","-16","BA_m21","123","odd","FILL_W","LITHE","1386","515349","512241","513841","243636","515758","NA","NA","NA","513838","512738","NA","511741","NA","511730","513838","1394","572973","NA","NA","512849","1386","1386","513241","511730","1386","512849","515749","morph21_Oliver/Morris","60","44145","75","yes","1280","23"
"350","80.2631578947","80.2631578947","590.355263158","590.355263158","black","no","xpyriment","legacy","legacy","0","203","NA","uniform","76342","1000","0.0130989494643","1","undefined","1","0","75","75","75","0","75","75","75","NA","75","75","0","75","NA","75","75","0","75","NA","75","NA","75","0","0","75","75","0","75","75","76","z","02/01/18 15:27:24","The main experiment item","yes","FIN__BA__M21__7%3A10%3A17.osexp","C:\Users\ERP Testing Room\Desktop\Joanna\morph21","no","mono","no","18","no","white","no","yes","1080","legacy","75","75","C:/Users/ERP Testing Room/Desktop/Joanna/morph21/subject-123.csv","xpyriment","Jazzy James","3.1.4","0","z","space","NA","NA","NA","return","z","722","57214","NA","NA","NA","242242","722","2","legacy","1024","2","48000","-16","BA_m21","123","odd","NW_S_COMP","HUMIDOES","1386","575738","574155","513841","243636","515758","NA","NA","NA","575732","574652","NA","573655","NA","573643","575732","1394","576088","NA","NA","574738","1386","1386","575130","573643","1386","574738","576088","morph21_Oliver/Morris","61","44867","76","yes","1280","25"
"400","80.5194805195","80.5194805195","592.272727273","592.272727273","black","no","xpyriment","legacy","legacy","0","205","NA","uniform","72923","1000","0.0137130946341","1","undefined","1","0","76","76","76","0","76","76","76","NA","76","76","0","76","NA","76","76","0","76","NA","76","NA","76","0","0","76","76","0","76","76","77","z","02/01/18 15:27:24","The main experiment item","yes","FIN__BA__M21__7%3A10%3A17.osexp","C:\Users\ERP Testing Room\Desktop\Joanna\morph21","no","mono","no","18","no","white","no","yes","1080","legacy","76","76","C:/Users/ERP Testing Room/Desktop/Joanna/morph21/subject-123.csv","xpyriment","Jazzy James","3.1.4","0","z","space","NA","NA","NA","return","z","738","57214","NA","NA","NA","242242","738","2","legacy","1024","2","48000","-16","BA_m21","123","odd","NW_S_SIMP","RAMPIZE","1386","578931","577306","513841","243636","515758","NA","NA","NA","578925","577803","NA","576805","NA","576795","578925","1394","579331","NA","NA","577931","1386","1386","578323","576795","1386","577931","579331","morph21_Oliver/Morris","62","45605","77","yes","1280","6"
"350","80.7692307692","80.7692307692","592.320512821","592.320512821","black","no","xpyriment","legacy","legacy","0","202","NA","uniform","80243","1000","0.0124621462308","1","undefined","1","0","77","77","77","0","77","77","77","NA","77","77","0","77","NA","77","77","0","77","NA","77","NA","77","0","0","77","77","0","77","77","78","/","02/01/18 15:27:24","The main experiment item","yes","FIN__BA__M21__7%3A10%3A17.osexp","C:\Users\ERP Testing Room\Desktop\Joanna\morph21","no","mono","no","18","no","white","no","yes","1080","legacy","77","77","C:/Users/ERP Testing Room/Desktop/Joanna/morph21/subject-123.csv","xpyriment","Jazzy James","3.1.4","0","/","space","NA","NA","NA","return","/","596","57214","NA","NA","NA","242242","596","2","legacy","1024","2","48000","-16","BA_m21","123","odd","CW_L","BARKER","1386","583590","580489","582081","243636","515758","NA","NA","NA","582074","580987","NA","579989","NA","579982","582074","1394","583940","NA","NA","581081","1386","1386","581473","579982","1386","581081","583940","morph21_Oliver/Morris","63","46201","78","yes","1280","2"
"300","81.0126582278","81.0126582278","593.35443038","593.35443038","black","no","xpyriment","legacy","legacy","0","204","NA","uniform","72312","1000","0.0138289633809","1","undefined","1","0","78","78","78","0","78","78","78","NA","78","78","0","78","NA","78","78","0","78","NA","78","NA","78","0","0","78","78","0","78","78","79","z","02/01/18 15:27:24","The main experiment item","yes","FIN__BA__M21__7%3A10%3A17.osexp","C:\Users\ERP Testing Room\Desktop\Joanna\morph21","no","mono","no","18","no","white","no","yes","1080","legacy","78","78","C:/Users/ERP Testing Room/Desktop/Joanna/morph21/subject-123.csv","xpyriment","Jazzy James","3.1.4","0","z","space","NA","NA","NA","return","z","674","57214","NA","NA","NA","242242","674","2","legacy","1024","2","48000","-16","BA_m21","123","odd","NW_L_COMP","BINDIG","1386","586715","585115","582081","243636","515758","NA","NA","NA","586710","585612","NA","584615","NA","584604","586710","1394","587015","NA","NA","585715","1386","1386","586115","584604","1386","585715","587015","morph21_Oliver/Morris","64","46875","79","yes","1280","22"
"400","81.25","81.25","596.6","596.6","black","no","xpyriment","legacy","legacy","0","205","NA","uniform","66428","1000","0.0150538929367","1","undefined","1","0","79","79","79","0","79","79","79","NA","79","79","0","79","NA","79","79","0","79","NA","79","NA","79","0","0","79","79","0","79","79","80","z","02/01/18 15:27:24","The main experiment item","yes","FIN__BA__M21__7%3A10%3A17.osexp","C:\Users\ERP Testing Room\Desktop\Joanna\morph21","no","mono","no","18","no","white","no","yes","1080","legacy","79","79","C:/Users/ERP Testing Room/Desktop/Joanna/morph21/subject-123.csv","xpyriment","Jazzy James","3.1.4","0","z","space","NA","NA","NA","return","z","853","57214","NA","NA","NA","242242","853","2","legacy","1024","2","48000","-16","BA_m21","123","odd","NW_S_SIMP","MEDICALARY","1386","589840","588256","582081","243636","515758","NA","NA","NA","589836","588754","NA","587756","NA","587752","589836","1394","590240","NA","NA","588840","1386","1386","589240","587752","1386","588840","590240","morph21_Oliver/Morris","65","47728","80","yes","1280","18"
"350","81.4814814815","81.4814814815","597.975308642","597.975308642","black","no","xpyriment","legacy","legacy","0","208","NA","uniform","69101","1000","0.0144715705996","1","undefined","1","0","80","80","80","0","80","80","80","NA","80","80","0","80","NA","80","80","0","80","NA","80","NA","80","0","0","80","80","0","80","80","81","z","02/01/18 15:27:24","The main experiment item","yes","FIN__BA__M21__7%3A10%3A17.osexp","C:\Users\ERP Testing Room\Desktop\Joanna\morph21","no","mono","no","18","no","white","no","yes","1080","legacy","80","80","C:/Users/ERP Testing Room/Desktop/Joanna/morph21/subject-123.csv","xpyriment","Jazzy James","3.1.4","0","z","space","NA","NA","NA","return","z","708","57214","NA","NA","NA","242242","708","2","legacy","1024","2","48000","-16","BA_m21","123","odd","FILL_NW","BLANTH","1386","594541","591448","593032","243636","515758","NA","NA","NA","593029","591945","NA","590948","NA","590942","593029","1394","594891","NA","NA","592040","1386","1386","592432","590941","1386","592040","594891","morph21_Oliver/Morris","66","48436","81","yes","1280","3"
"300","81.7073170732","81.7073170732","600.475609756","600.475609756","black","no","xpyriment","legacy","legacy","0","206","NA","uniform","73357","1000","0.0136319642297","1","undefined","1","0","81","81","81","0","81","81","81","NA","81","81","0","81","NA","81","81","0","81","NA","81","NA","81","0","0","81","81","0","81","81","82","z","02/01/18 15:27:24","The main experiment item","yes","FIN__BA__M21__7%3A10%3A17.osexp","C:\Users\ERP Testing Room\Desktop\Joanna\morph21","no","mono","no","18","no","white","no","yes","1080","legacy","81","81","C:/Users/ERP Testing Room/Desktop/Joanna/morph21/subject-123.csv","xpyriment","Jazzy James","3.1.4","0","z","space","NA","NA","NA","return","z","803","57214","NA","NA","NA","242242","803","2","legacy","1024","2","48000","-16","BA_m21","123","odd","NW_L_SIMP","ELBOWISM","1386","597658","596074","593032","243636","515758","NA","NA","NA","597650","596572","NA","595574","NA","595565","597650","1394","597958","NA","NA","596658","1386","1386","597049","595565","1386","596658","597958","morph21_Oliver/Morris","67","49239","82","yes","1280","10"
"250","81.9277108434","81.9277108434","602.204819277","602.204819277","black","no","xpyriment","legacy","legacy","0","208","NA","uniform","74803","1000","0.0133684477895","1","undefined","1","0","82","82","82","0","82","82","82","NA","82","82","0","82","NA","82","82","0","82","NA","82","NA","82","0","0","82","82","0","82","82","83","z","02/01/18 15:27:24","The main experiment item","yes","FIN__BA__M21__7%3A10%3A17.osexp","C:\Users\ERP Testing Room\Desktop\Joanna\morph21","no","mono","no","18","no","white","no","yes","1080","legacy","82","82","C:/Users/ERP Testing Room/Desktop/Joanna/morph21/subject-123.csv","xpyriment","Jazzy James","3.1.4","0","z","space","NA","NA","NA","return","z","744","57214","NA","NA","NA","242242","744","2","legacy","1024","2","48000","-16","BA_m21","123","odd","FILL_NW","POLT","1386","600741","599150","593032","243636","515758","NA","NA","NA","600734","599647","NA","598650","NA","598644","600734","1394","600991","NA","NA","599741","1386","1386","600133","598644","1386","599741","600991","morph21_Oliver/Morris","68","49983","83","yes","1280","38"
"200","82.1428571429","82.1428571429","603.488095238","603.488095238","black","no","xpyriment","legacy","legacy","0","208","NA","uniform","76806","1000","0.0130198161602","1","undefined","1","0","83","83","83","0","83","83","83","NA","83","83","0","83","NA","83","83","0","83","NA","83","NA","83","0","0","83","83","0","83","83","84","z","02/01/18 15:27:24","The main experiment item","yes","FIN__BA__M21__7%3A10%3A17.osexp","C:\Users\ERP Testing Room\Desktop\Joanna\morph21","no","mono","no","18","no","white","no","yes","1080","legacy","83","83","C:/Users/ERP Testing Room/Desktop/Joanna/morph21/subject-123.csv","xpyriment","Jazzy James","3.1.4","0","z","space","NA","NA","NA","return","z","710","57214","NA","NA","NA","242242","710","2","legacy","1024","2","48000","-16","BA_m21","123","odd","FILL_NW","FROT","1386","605291","602200","603783","243636","515758","NA","NA","NA","603776","602697","NA","601700","NA","601693","603776","1394","605492","NA","NA","602783","1386","1386","603175","601693","1386","602783","605492","morph21_Oliver/Morris","69","50693","84","yes","1280","22"
"200","82.3529411765","82.3529411765","601.823529412","601.823529412","black","no","xpyriment","legacy","legacy","0","202","NA","uniform","75269","1000","0.0132856820205","1","undefined","1","0","84","84","84","0","84","84","84","NA","84","84","0","84","NA","84","84","0","84","NA","84","NA","84","0","0","84","84","0","84","84","85","/","02/01/18 15:27:24","The main experiment item","yes","FIN__BA__M21__7%3A10%3A17.osexp","C:\Users\ERP Testing Room\Desktop\Joanna\morph21","no","mono","no","18","no","white","no","yes","1080","legacy","84","84","C:/Users/ERP Testing Room/Desktop/Joanna/morph21/subject-123.csv","xpyriment","Jazzy James","3.1.4","0","/","space","NA","NA","NA","return","/","462","57214","NA","NA","NA","242242","462","2","legacy","1024","2","48000","-16","BA_m21","123","odd","CW_L","BONELESS","1386","608375","606792","603783","243636","515758","NA","NA","NA","608368","607289","NA","606292","NA","606287","608368","1394","608575","NA","NA","607375","1386","1386","607767","606287","1386","607375","608575","morph21_Oliver/Morris","70","51155","85","yes","1280","34"
"250","82.5581395349","82.5581395349","600.593023256","600.593023256","black","no","xpyriment","legacy","legacy","0","202","NA","uniform","78919","1000","0.0126712198583","1","undefined","1","0","85","85","85","0","85","85","85","NA","85","85","0","85","NA","85","85","0","85","NA","85","NA","85","0","0","85","85","0","85","85","86","/","02/01/18 15:27:24","The main experiment item","yes","FIN__BA__M21__7%3A10%3A17.osexp","C:\Users\ERP Testing Room\Desktop\Joanna\morph21","no","mono","no","18","no","white","no","yes","1080","legacy","85","85","C:/Users/ERP Testing Room/Desktop/Joanna/morph21/subject-123.csv","xpyriment","Jazzy James","3.1.4","0","/","space","NA","NA","NA","return","/","496","57214","NA","NA","NA","242242","496","2","legacy","1024","2","48000","-16","BA_m21","123","odd","CW_L","FLEXIBLE","1386","611492","609883","603783","243636","515758","NA","NA","NA","611483","610380","NA","609383","NA","609374","611483","1394","611742","NA","NA","610492","1386","1386","610883","609374","1386","610492","611742","morph21_Oliver/Morris","71","51651","86","yes","1280","22"
"200","82.7586206897","82.7586206897","599.287356322","599.287356322","black","no","xpyriment","legacy","legacy","0","201","NA","uniform","80279","1000","0.0124565577548","1","undefined","1","0","86","86","86","0","86","86","86","NA","86","86","0","86","NA","86","86","0","86","NA","86","NA","86","0","0","86","86","0","86","86","87","/","02/01/18 15:27:24","The main experiment item","yes","FIN__BA__M21__7%3A10%3A17.osexp","C:\Users\ERP Testing Room\Desktop\Joanna\morph21","no","mono","no","18","no","white","no","yes","1080","legacy","86","86","C:/Users/ERP Testing Room/Desktop/Joanna/morph21/subject-123.csv","xpyriment","Jazzy James","3.1.4","0","/","space","NA","NA","NA","return","/","487","57214","NA","NA","NA","242242","487","2","legacy","1024","2","48000","-16","BA_m21","123","odd","CW_S","CAMPAIGNER","1386","616010","612901","614501","243636","515758","NA","NA","NA","614498","613398","NA","612401","NA","612390","614498","1394","616210","NA","NA","613510","1386","1386","613901","612390","1386","613509","616210","morph21_Oliver/Morris","72","52138","87","yes","1280","15"
"350","82.9545454545","82.9545454545","597.863636364","597.863636364","black","no","xpyriment","legacy","legacy","0","201","NA","uniform","76785","1000","0.0130233769616","1","undefined","1","0","87","87","87","0","87","87","87","NA","87","87","0","87","NA","87","87","0","87","NA","87","NA","87","0","0","87","87","0","87","87","88","/","02/01/18 15:27:24","The main experiment item","yes","FIN__BA__M21__7%3A10%3A17.osexp","C:\Users\ERP Testing Room\Desktop\Joanna\morph21","no","mono","no","18","no","white","no","yes","1080","legacy","87","87","C:/Users/ERP Testing Room/Desktop/Joanna/morph21/subject-123.csv","xpyriment","Jazzy James","3.1.4","0","/","space","NA","NA","NA","return","/","474","57214","NA","NA","NA","242242","474","2","legacy","1024","2","48000","-16","BA_m21","123","odd","CW_S","AMAZEMENT","1386","619051","617468","614501","243636","515758","NA","NA","NA","619043","617965","NA","616968","NA","616963","619043","1394","619402","NA","NA","618051","1386","1386","618443","616963","1386","618051","619402","morph21_Oliver/Morris","73","52612","88","yes","1280","39"
"300","82.0224719101","82.0224719101","600.415730337","600.415730337","black","no","xpyriment","legacy","legacy","0","205","NA","uniform","65355","1000","0.0153010481218","0","undefined","0","0","88","88","88","0","88","88","88","NA","88","88","0","88","NA","88","88","0","88","NA","88","NA","88","0","0","88","88","0","88","88","89","z","02/01/18 15:27:24","The main experiment item","yes","FIN__BA__M21__7%3A10%3A17.osexp","C:\Users\ERP Testing Room\Desktop\Joanna\morph21","no","mono","no","18","no","white","no","yes","1080","legacy","88","88","C:/Users/ERP Testing Room/Desktop/Joanna/morph21/subject-123.csv","xpyriment","Jazzy James","3.1.4","0","/","space","NA","NA","NA","return","/","825","57214","NA","NA","NA","242242","825","2","legacy","1024","2","48000","-16","BA_m21","123","odd","NW_S_SIMP","TILTARY","1386","622268","620685","614501","243636","515758","NA","NA","NA","619043","621182","NA","620185","NA","620178","622262","1394","622568","NA","NA","621268","1386","1386","621660","620178","1386","621268","622568","morph21_Oliver/Morris","73","53437","89","yes","1280","17"
"300","81.1111111111","81.1111111111","604.744444444","604.744444444","black","no","xpyriment","legacy","legacy","0","202","NA","uniform","63013","1000","0.0158697411645","0","undefined","0","0","89","89","89","0","89","89","89","NA","89","89","0","89","NA","89","89","0","89","NA","89","NA","89","0","0","89","89","0","89","89","90","/","02/01/18 15:27:24","The main experiment item","yes","FIN__BA__M21__7%3A10%3A17.osexp","C:\Users\ERP Testing Room\Desktop\Joanna\morph21","no","mono","no","18","no","white","no","yes","1080","legacy","89","89","C:/Users/ERP Testing Room/Desktop/Joanna/morph21/subject-123.csv","xpyriment","Jazzy James","3.1.4","0","z","space","NA","NA","NA","return","z","990","57214","NA","NA","NA","242242","990","2","legacy","1024","2","48000","-16","BA_m21","123","odd","CW_L","DAMPISH","1386","626835","623743","625327","243636","515758","NA","NA","NA","619043","624240","NA","623243","NA","623238","625319","1394","627135","NA","NA","624327","1386","1386","624718","623238","1386","624327","627135","morph21_Oliver/Morris","73","54427","90","yes","1280","28"
"350","81.3186813187","81.3186813187","605.186813187","605.186813187","black","no","xpyriment","legacy","legacy","0","208","NA","uniform","74239","1000","0.0134700090249","1","undefined","1","0","90","90","90","0","90","90","90","NA","90","90","0","90","NA","90","90","0","90","NA","90","NA","90","0","0","90","90","0","90","90","91","z","02/01/18 15:27:24","The main experiment item","yes","FIN__BA__M21__7%3A10%3A17.osexp","C:\Users\ERP Testing Room\Desktop\Joanna\morph21","no","mono","no","18","no","white","no","yes","1080","legacy","90","90","C:/Users/ERP Testing Room/Desktop/Joanna/morph21/subject-123.csv","xpyriment","Jazzy James","3.1.4","0","z","space","NA","NA","NA","return","z","645","57214","NA","NA","NA","242242","645","2","legacy","1024","2","48000","-16","BA_m21","123","odd","FILL_NW","DELP","1386","629961","628327","625327","243636","515758","NA","NA","NA","629955","628824","NA","627827","NA","627818","629955","1394","630311","NA","NA","628960","1386","1386","629360","627818","1386","628960","630311","morph21_Oliver/Morris","74","55072","91","yes","1280","14"
