"ITI","acc","accuracy","average_response_time","avg_rt","background","bidi","canvas_backend","clock_backend","color_backend","compensation","cond_trig","condtrigtime","coordinates","coroutines_cycles","coroutines_duration","coroutines_mean_cycle_duration","correct","correct_instructions_1","correct_new_keyboard_response_1","count_BA_m21","count_ITI","count_blank_screen","count_blink_screen","count_block1","count_break1","count_break2","count_break3_1","count_canvas","count_correct_trigger","count_def_chain","count_end_screen","count_fixation_1","count_getting_started","count_inc_counter","count_incorrect_trigger","count_instructions_1","count_logger","count_logscript","count_new_coroutines","count_new_inline_script","count_new_keyboard_response_1","count_reset_counter_prep","count_reset_counter_run","count_responsescreen","count_sequence","count_start_trigger","count_target_present","count_word_trigger","counter","cresp","datetime","description","disable_garbage_collection","experiment_file","experiment_path","font_bold","font_family","font_italic","font_size","font_underline","foreground","form_clicks","fullscreen","height","keyboard_backend","live_row","live_row_block1","logfile","mouse_backend","opensesame_codename","opensesame_version","repeat_cycle","response","response_break1","response_break2","response_break3_1","response_end_screen","response_instructions_1","response_new_keyboard_response_1","response_time","response_time_break1","response_time_break2","response_time_break3_1","response_time_end_screen","response_time_instructions_1","response_time_new_keyboard_response_1","round_decimals","sampler_backend","sound_buf_size","sound_channels","sound_freq","sound_sample_size","start","subject_nr","subject_parity","targ_type","target","time_BA_m21","time_ITI","time_blank_screen","time_blink_screen","time_block1","time_break1","time_break2","time_break3_1","time_canvas","time_correct_trigger","time_def_chain","time_end_screen","time_fixation_1","time_getting_started","time_inc_counter","time_incorrect_trigger","time_instructions_1","time_logger","time_logscript","time_new_inline_script","time_new_keyboard_response_1","time_reset_counter_prep","time_reset_counter_run","time_responsescreen","time_sequence","time_start_trigger","time_target_present","time_word_trigger","title","total_correct","total_response_time","total_responses","uniform_coordinates","width","word_trig"
"350","100","100","974","974","black","no","xpyriment","legacy","legacy","0","201","NA","uniform","55876","1000","0.0178967714224","1","undefined","1","0","0","0","0","0","0","0","0","NA","0","0","0","0","NA","0","0","0","0","NA","0","NA","0","0","0","0","0","0","0","0","1","/","04/02/19 12:24:57","The main experiment item","yes","FIN__BA__M21__7%3A10%3A17.osexp","C:\Users\ERP Testing Room\Desktop\Joanna\morph21","no","mono","no","18","no","white","no","yes","1080","legacy","0","0","C:/Users/ERP Testing Room/Desktop/Joanna/morph21/subject-170.csv","xpyriment","Kafkaesque Koffka","3.2.5","0","/","NA","NA","NA","NA","space","/","974","NA","NA","NA","NA","173903","974","2","legacy","1024","2","48000","-16","BA_m21","170","even","CW_S","RICHNESS","1884","178656","176998","NA","175800","NA","NA","NA","NA","178653","177495","NA","176493","NA","176426","178653","1896","179006","NA","NA","177665","1884","1884","178056","176426","1884","177665","179006","morph21_Oliver/Morris","1","974","1","yes","1280","45"
"200","100","100","783","783","black","no","xpyriment","legacy","legacy","0","207","NA","uniform","68734","1000","0.0145488404574","1","undefined","1","0","1","1","1","0","1","1","1","NA","1","1","0","1","NA","1","1","0","1","NA","1","NA","1","0","0","1","1","0","1","1","2","/","04/02/19 12:24:57","The main experiment item","yes","FIN__BA__M21__7%3A10%3A17.osexp","C:\Users\ERP Testing Room\Desktop\Joanna\morph21","no","mono","no","18","no","white","no","yes","1080","legacy","1","1","C:/Users/ERP Testing Room/Desktop/Joanna/morph21/subject-170.csv","xpyriment","Kafkaesque Koffka","3.2.5","0","/","NA","NA","NA","NA","space","/","592","NA","NA","NA","NA","173903","592","2","legacy","1024","2","48000","-16","BA_m21","170","even","FILL_W","TAX","1884","181815","180165","NA","175800","NA","NA","NA","NA","181808","180662","NA","179665","NA","179656","181808","1896","182015","NA","NA","180815","1884","1884","181206","179656","1884","180815","182015","morph21_Oliver/Morris","2","1566","2","yes","1280","45"
"350","100","100","693","693","black","no","xpyriment","legacy","legacy","0","201","NA","uniform","69520","1000","0.0143843498274","1","undefined","1","0","2","2","2","0","2","2","2","NA","2","2","0","2","NA","2","2","0","2","NA","2","NA","2","0","0","2","2","0","2","2","3","/","04/02/19 12:24:57","The main experiment item","yes","FIN__BA__M21__7%3A10%3A17.osexp","C:\Users\ERP Testing Room\Desktop\Joanna\morph21","no","mono","no","18","no","white","no","yes","1080","legacy","2","2","C:/Users/ERP Testing Room/Desktop/Joanna/morph21/subject-170.csv","xpyriment","Kafkaesque Koffka","3.2.5","0","/","NA","NA","NA","NA","space","/","513","NA","NA","NA","NA","173903","513","2","legacy","1024","2","48000","-16","BA_m21","170","even","CW_S","LENDER","1884","186298","183123","184790","175800","NA","NA","NA","NA","184779","183620","NA","182623","NA","182615","184779","1896","186648","NA","NA","183790","1884","1884","184181","182615","1884","183790","186648","morph21_Oliver/Morris","3","2079","3","yes","1280","11"
"250","100","100","744.75","744.75","black","no","xpyriment","legacy","legacy","0","205","NA","uniform","57777","1000","0.017307925299","1","undefined","1","0","3","3","3","0","3","3","3","NA","3","3","0","3","NA","3","3","0","3","NA","3","NA","3","0","0","3","3","0","3","3","4","z","04/02/19 12:24:57","The main experiment item","yes","FIN__BA__M21__7%3A10%3A17.osexp","C:\Users\ERP Testing Room\Desktop\Joanna\morph21","no","mono","no","18","no","white","no","yes","1080","legacy","3","3","C:/Users/ERP Testing Room/Desktop/Joanna/morph21/subject-170.csv","xpyriment","Kafkaesque Koffka","3.2.5","0","z","NA","NA","NA","NA","space","z","900","NA","NA","NA","NA","173903","900","2","legacy","1024","2","48000","-16","BA_m21","170","even","NW_S_SIMP","DIGORY","1884","189541","187823","184790","175800","NA","NA","NA","NA","189534","188320","NA","187323","NA","187315","189534","1896","189791","NA","NA","188540","1884","1884","188933","187315","1884","188540","189791","morph21_Oliver/Morris","4","2979","4","yes","1280","11"
"250","100","100","715","715","black","no","xpyriment","legacy","legacy","0","202","NA","uniform","63270","1000","0.0158052789632","1","undefined","1","0","4","4","4","0","4","4","4","NA","4","4","0","4","NA","4","4","0","4","NA","4","NA","4","0","0","4","4","0","4","4","5","/","04/02/19 12:24:57","The main experiment item","yes","FIN__BA__M21__7%3A10%3A17.osexp","C:\Users\ERP Testing Room\Desktop\Joanna\morph21","no","mono","no","18","no","white","no","yes","1080","legacy","4","4","C:/Users/ERP Testing Room/Desktop/Joanna/morph21/subject-170.csv","xpyriment","Kafkaesque Koffka","3.2.5","0","/","NA","NA","NA","NA","space","/","596","NA","NA","NA","NA","173903","596","2","legacy","1024","2","48000","-16","BA_m21","170","even","CW_L","DANCER","1884","192691","190983","184790","175800","NA","NA","NA","NA","192685","191480","NA","190483","NA","190476","192685","1896","192941","NA","NA","191691","1884","1884","192083","190475","1884","191691","192941","morph21_Oliver/Morris","5","3575","5","yes","1280","11"
"250","100","100","739.333333333","739.333333333","black","no","xpyriment","legacy","legacy","0","204","NA","uniform","51740","1000","0.0193274062621","1","undefined","1","0","5","5","5","0","5","5","5","NA","5","5","0","5","NA","5","5","0","5","NA","5","NA","5","0","0","5","5","0","5","5","6","z","04/02/19 12:24:57","The main experiment item","yes","FIN__BA__M21__7%3A10%3A17.osexp","C:\Users\ERP Testing Room\Desktop\Joanna\morph21","no","mono","no","18","no","white","no","yes","1080","legacy","5","5","C:/Users/ERP Testing Room/Desktop/Joanna/morph21/subject-170.csv","xpyriment","Kafkaesque Koffka","3.2.5","0","z","NA","NA","NA","NA","space","z","861","NA","NA","NA","NA","173903","861","2","legacy","1024","2","48000","-16","BA_m21","170","even","NW_L_COMP","TRIPADY","1884","197366","194158","195858","175800","NA","NA","NA","NA","195852","194655","NA","193658","NA","193645","195852","1896","197617","NA","NA","194858","1884","1884","195250","193645","1884","194858","197617","morph21_Oliver/Morris","6","4436","6","yes","1280","2"
"400","100","100","702","702","black","no","xpyriment","legacy","legacy","0","207","NA","uniform","67959","1000","0.0147147544843","1","undefined","1","0","6","6","6","0","6","6","6","NA","6","6","0","6","NA","6","6","0","6","NA","6","NA","6","0","0","6","6","0","6","6","7","/","04/02/19 12:24:57","The main experiment item","yes","FIN__BA__M21__7%3A10%3A17.osexp","C:\Users\ERP Testing Room\Desktop\Joanna\morph21","no","mono","no","18","no","white","no","yes","1080","legacy","6","6","C:/Users/ERP Testing Room/Desktop/Joanna/morph21/subject-170.csv","xpyriment","Kafkaesque Koffka","3.2.5","0","/","NA","NA","NA","NA","space","/","478","NA","NA","NA","NA","173903","478","2","legacy","1024","2","48000","-16","BA_m21","170","even","FILL_W","FLIRT","1884","200442","198766","195858","175800","NA","NA","NA","NA","200437","199264","NA","198266","NA","198261","200437","1896","200842","NA","NA","199441","1884","1884","199841","198261","1884","199441","200842","morph21_Oliver/Morris","7","4914","7","yes","1280","1"
"300","100","100","671.875","671.875","black","no","xpyriment","legacy","legacy","0","208","NA","uniform","70449","1000","0.0141946656447","1","undefined","1","0","7","7","7","0","7","7","7","NA","7","7","0","7","NA","7","7","0","7","NA","7","NA","7","0","0","7","7","0","7","7","8","z","04/02/19 12:24:57","The main experiment item","yes","FIN__BA__M21__7%3A10%3A17.osexp","C:\Users\ERP Testing Room\Desktop\Joanna\morph21","no","mono","no","18","no","white","no","yes","1080","legacy","7","7","C:/Users/ERP Testing Room/Desktop/Joanna/morph21/subject-170.csv","xpyriment","Kafkaesque Koffka","3.2.5","0","z","NA","NA","NA","NA","space","z","461","NA","NA","NA","NA","173903","461","2","legacy","1024","2","48000","-16","BA_m21","170","even","FILL_NW","VOOFS","1884","203650","201950","195858","175800","NA","NA","NA","NA","203643","202447","NA","201450","NA","201440","203643","1896","203950","NA","NA","202650","1884","1884","203042","201440","1884","202650","203950","morph21_Oliver/Morris","8","5375","8","yes","1280","48"
"400","100","100","671.888888889","671.888888889","black","no","xpyriment","legacy","legacy","0","204","NA","uniform","61469","1000","0.0162683629146","1","undefined","1","0","8","8","8","0","8","8","8","NA","8","8","0","8","NA","8","8","0","8","NA","8","NA","8","0","0","8","8","0","8","8","9","z","04/02/19 12:24:57","The main experiment item","yes","FIN__BA__M21__7%3A10%3A17.osexp","C:\Users\ERP Testing Room\Desktop\Joanna\morph21","no","mono","no","18","no","white","no","yes","1080","legacy","8","8","C:/Users/ERP Testing Room/Desktop/Joanna/morph21/subject-170.csv","xpyriment","Kafkaesque Koffka","3.2.5","0","z","NA","NA","NA","NA","space","z","672","NA","NA","NA","NA","173903","672","2","legacy","1024","2","48000","-16","BA_m21","170","even","NW_L_COMP","COLDIDY","1884","208301","205100","206793","175800","NA","NA","NA","NA","206787","205597","NA","204600","NA","204590","206787","1896","208701","NA","NA","205792","1884","1884","206192","204590","1884","205792","208701","morph21_Oliver/Morris","9","6047","9","yes","1280","10"
"200","100","100","660.8","660.8","black","no","xpyriment","legacy","legacy","0","207","NA","uniform","69465","1000","0.0143957388613","1","undefined","1","0","9","9","9","0","9","9","9","NA","9","9","0","9","NA","9","9","0","9","NA","9","NA","9","0","0","9","9","0","9","9","10","/","04/02/19 12:24:57","The main experiment item","yes","FIN__BA__M21__7%3A10%3A17.osexp","C:\Users\ERP Testing Room\Desktop\Joanna\morph21","no","mono","no","18","no","white","no","yes","1080","legacy","9","9","C:/Users/ERP Testing Room/Desktop/Joanna/morph21/subject-170.csv","xpyriment","Kafkaesque Koffka","3.2.5","0","/","NA","NA","NA","NA","space","/","561","NA","NA","NA","NA","173903","561","2","legacy","1024","2","48000","-16","BA_m21","170","even","FILL_W","WRECK","1884","211526","209868","206793","175800","NA","NA","NA","NA","211520","210365","NA","209368","NA","209358","211520","1896","211726","NA","NA","210526","1884","1884","210918","209358","1884","210526","211726","morph21_Oliver/Morris","10","6608","10","yes","1280","13"
"200","100","100","653.545454545","653.545454545","black","no","xpyriment","legacy","legacy","0","208","NA","uniform","69256","1000","0.0144391821647","1","undefined","1","0","10","10","10","0","10","10","10","NA","10","10","0","10","NA","10","10","0","10","NA","10","NA","10","0","0","10","10","0","10","10","11","z","04/02/19 12:24:57","The main experiment item","yes","FIN__BA__M21__7%3A10%3A17.osexp","C:\Users\ERP Testing Room\Desktop\Joanna\morph21","no","mono","no","18","no","white","no","yes","1080","legacy","10","10","C:/Users/ERP Testing Room/Desktop/Joanna/morph21/subject-170.csv","xpyriment","Kafkaesque Koffka","3.2.5","0","z","NA","NA","NA","NA","space","z","581","NA","NA","NA","NA","173903","581","2","legacy","1024","2","48000","-16","BA_m21","170","even","FILL_NW","TUEER","1884","214618","212968","206793","175800","NA","NA","NA","NA","214613","213465","NA","212468","NA","212463","214613","1896","214818","NA","NA","213618","1884","1884","214018","212463","1884","213618","214818","morph21_Oliver/Morris","11","7189","11","yes","1280","44"
"350","91.6666666667","91.6666666667","651.5","651.5","black","no","xpyriment","legacy","legacy","0","201","NA","uniform","63469","1000","0.0157557232665","0","undefined","0","0","11","11","11","0","11","11","11","NA","11","11","0","11","NA","11","11","0","11","NA","11","NA","11","0","0","11","11","0","11","11","12","/","04/02/19 12:24:57","The main experiment item","yes","FIN__BA__M21__7%3A10%3A17.osexp","C:\Users\ERP Testing Room\Desktop\Joanna\morph21","no","mono","no","18","no","white","no","yes","1080","legacy","11","11","C:/Users/ERP Testing Room/Desktop/Joanna/morph21/subject-170.csv","xpyriment","Kafkaesque Koffka","3.2.5","0","z","NA","NA","NA","NA","space","z","629","NA","NA","NA","NA","173903","629","2","legacy","1024","2","48000","-16","BA_m21","170","even","CW_S","BEARDED","1884","219110","215943","217602","175800","NA","NA","NA","NA","214613","216440","NA","215443","NA","215436","217598","1896","219460","NA","NA","216610","1884","1884","217001","215435","1884","216610","219460","morph21_Oliver/Morris","11","7818","12","yes","1280","8"
"250","92.3076923077","92.3076923077","645.615384615","645.615384615","black","no","xpyriment","legacy","legacy","0","202","NA","uniform","59332","1000","0.0168543113328","1","undefined","1","0","12","12","12","0","12","12","12","NA","12","12","0","12","NA","12","12","0","12","NA","12","NA","12","0","0","12","12","0","12","12","13","/","04/02/19 12:24:57","The main experiment item","yes","FIN__BA__M21__7%3A10%3A17.osexp","C:\Users\ERP Testing Room\Desktop\Joanna\morph21","no","mono","no","18","no","white","no","yes","1080","legacy","12","12","C:/Users/ERP Testing Room/Desktop/Joanna/morph21/subject-170.csv","xpyriment","Kafkaesque Koffka","3.2.5","0","/","NA","NA","NA","NA","space","/","575","NA","NA","NA","NA","173903","575","2","legacy","1024","2","48000","-16","BA_m21","170","even","CW_L","LAUGHING","1884","222360","220710","217602","175800","NA","NA","NA","NA","222354","221207","NA","220210","NA","220201","222354","1896","222610","NA","NA","221360","1884","1884","221752","220200","1884","221360","222610","morph21_Oliver/Morris","12","8393","13","yes","1280","27"
"300","85.7142857143","85.7142857143","632.142857143","632.142857143","black","no","xpyriment","legacy","legacy","0","206","NA","uniform","73530","1000","0.0135998912009","0","undefined","0","0","13","13","13","0","13","13","13","NA","13","13","0","13","NA","13","13","0","13","NA","13","NA","13","0","0","13","13","0","13","13","14","z","04/02/19 12:24:57","The main experiment item","yes","FIN__BA__M21__7%3A10%3A17.osexp","C:\Users\ERP Testing Room\Desktop\Joanna\morph21","no","mono","no","18","no","white","no","yes","1080","legacy","13","13","C:/Users/ERP Testing Room/Desktop/Joanna/morph21/subject-170.csv","xpyriment","Kafkaesque Koffka","3.2.5","0","/","NA","NA","NA","NA","space","/","457","NA","NA","NA","NA","173903","457","2","legacy","1024","2","48000","-16","BA_m21","170","even","NW_L_SIMP","TAXFUL","1884","225511","223853","217602","175800","NA","NA","NA","NA","222354","224350","NA","223352","NA","223345","225503","1896","225811","NA","NA","224511","1884","1884","224903","223345","1884","224511","225811","morph21_Oliver/Morris","12","8850","14","yes","1280","6"
"250","86.6666666667","86.6666666667","624.866666667","624.866666667","black","no","xpyriment","legacy","legacy","0","202","NA","uniform","69620","1000","0.0143636885952","1","undefined","1","0","14","14","14","0","14","14","14","NA","14","14","0","14","NA","14","14","0","14","NA","14","NA","14","0","0","14","14","0","14","14","15","/","04/02/19 12:24:57","The main experiment item","yes","FIN__BA__M21__7%3A10%3A17.osexp","C:\Users\ERP Testing Room\Desktop\Joanna\morph21","no","mono","no","18","no","white","no","yes","1080","legacy","14","14","C:/Users/ERP Testing Room/Desktop/Joanna/morph21/subject-170.csv","xpyriment","Kafkaesque Koffka","3.2.5","0","/","NA","NA","NA","NA","space","/","523","NA","NA","NA","NA","173903","523","2","legacy","1024","2","48000","-16","BA_m21","170","even","CW_L","DREAMER","1884","230136","226953","228628","175800","NA","NA","NA","NA","228618","227450","NA","226453","NA","226449","228618","1896","230387","NA","NA","227628","1884","1884","228020","226449","1884","227628","230387","morph21_Oliver/Morris","13","9373","15","yes","1280","12"
"350","87.5","87.5","622.875","622.875","black","no","xpyriment","legacy","legacy","0","207","NA","uniform","68179","1000","0.0146672729139","1","undefined","1","0","15","15","15","0","15","15","15","NA","15","15","0","15","NA","15","15","0","15","NA","15","NA","15","0","0","15","15","0","15","15","16","/","04/02/19 12:24:57","The main experiment item","yes","FIN__BA__M21__7%3A10%3A17.osexp","C:\Users\ERP Testing Room\Desktop\Joanna\morph21","no","mono","no","18","no","white","no","yes","1080","legacy","15","15","C:/Users/ERP Testing Room/Desktop/Joanna/morph21/subject-170.csv","xpyriment","Kafkaesque Koffka","3.2.5","0","/","NA","NA","NA","NA","space","/","593","NA","NA","NA","NA","173903","593","2","legacy","1024","2","48000","-16","BA_m21","170","even","FILL_W","LIFT","1884","233287","231603","228628","175800","NA","NA","NA","NA","233278","232100","NA","231103","NA","231098","233278","1896","233637","NA","NA","232286","1884","1884","232678","231098","1884","232286","233637","morph21_Oliver/Morris","14","9966","16","yes","1280","39"
"250","88.2352941176","88.2352941176","617.294117647","617.294117647","black","no","xpyriment","legacy","legacy","0","207","NA","uniform","68505","1000","0.0145974746369","1","undefined","1","0","16","16","16","0","16","16","16","NA","16","16","0","16","NA","16","16","0","16","NA","16","NA","16","0","0","16","16","0","16","16","17","/","04/02/19 12:24:57","The main experiment item","yes","FIN__BA__M21__7%3A10%3A17.osexp","C:\Users\ERP Testing Room\Desktop\Joanna\morph21","no","mono","no","18","no","white","no","yes","1080","legacy","16","16","C:/Users/ERP Testing Room/Desktop/Joanna/morph21/subject-170.csv","xpyriment","Kafkaesque Koffka","3.2.5","0","/","NA","NA","NA","NA","space","/","528","NA","NA","NA","NA","173903","528","2","legacy","1024","2","48000","-16","BA_m21","170","even","FILL_W","COOK","1884","236495","234845","228628","175800","NA","NA","NA","NA","236485","235342","NA","234337","NA","234327","236485","1896","236745","NA","NA","235495","1884","1884","235887","234327","1884","235495","236745","morph21_Oliver/Morris","15","10494","17","yes","1280","38"
"300","88.8888888889","88.8888888889","615.611111111","615.611111111","black","no","xpyriment","legacy","legacy","0","207","NA","uniform","72576","1000","0.013778659612","1","undefined","1","0","17","17","17","0","17","17","17","NA","17","17","0","17","NA","17","17","0","17","NA","17","NA","17","0","0","17","17","0","17","17","18","/","04/02/19 12:24:57","The main experiment item","yes","FIN__BA__M21__7%3A10%3A17.osexp","C:\Users\ERP Testing Room\Desktop\Joanna\morph21","no","mono","no","18","no","white","no","yes","1080","legacy","17","17","C:/Users/ERP Testing Room/Desktop/Joanna/morph21/subject-170.csv","xpyriment","Kafkaesque Koffka","3.2.5","0","/","NA","NA","NA","NA","space","/","587","NA","NA","NA","NA","173903","587","2","legacy","1024","2","48000","-16","BA_m21","170","even","FILL_W","BALD","1884","241112","237903","239603","175800","NA","NA","NA","NA","239601","238401","NA","237403","NA","237398","239601","1896","241412","NA","NA","238612","1884","1884","239003","237398","1884","238612","241412","morph21_Oliver/Morris","16","11081","18","yes","1280","3"
"350","89.4736842105","89.4736842105","614.210526316","614.210526316","black","no","xpyriment","legacy","legacy","0","204","NA","uniform","61207","1000","0.0163380005555","1","undefined","1","0","18","18","18","0","18","18","18","NA","18","18","0","18","NA","18","18","0","18","NA","18","NA","18","0","0","18","18","0","18","18","19","z","04/02/19 12:24:57","The main experiment item","yes","FIN__BA__M21__7%3A10%3A17.osexp","C:\Users\ERP Testing Room\Desktop\Joanna\morph21","no","mono","no","18","no","white","no","yes","1080","legacy","18","18","C:/Users/ERP Testing Room/Desktop/Joanna/morph21/subject-170.csv","xpyriment","Kafkaesque Koffka","3.2.5","0","z","NA","NA","NA","NA","space","z","589","NA","NA","NA","NA","173903","589","2","legacy","1024","2","48000","-16","BA_m21","170","even","NW_L_COMP","AGREELA","1884","244363","242646","239603","175800","NA","NA","NA","NA","244360","243143","NA","242146","NA","242142","244360","1896","244713","NA","NA","243371","1884","1884","243763","242142","1884","243371","244713","morph21_Oliver/Morris","17","11670","19","yes","1280","24"
"200","90","90","613.8","613.8","black","no","xpyriment","legacy","legacy","0","208","NA","uniform","65794","1000","0.0151989543119","1","undefined","1","0","19","19","19","0","19","19","19","NA","19","19","0","19","NA","19","19","0","19","NA","19","NA","19","0","0","19","19","0","19","19","20","z","04/02/19 12:24:57","The main experiment item","yes","FIN__BA__M21__7%3A10%3A17.osexp","C:\Users\ERP Testing Room\Desktop\Joanna\morph21","no","mono","no","18","no","white","no","yes","1080","legacy","19","19","C:/Users/ERP Testing Room/Desktop/Joanna/morph21/subject-170.csv","xpyriment","Kafkaesque Koffka","3.2.5","0","z","NA","NA","NA","NA","space","z","606","NA","NA","NA","NA","173903","606","2","legacy","1024","2","48000","-16","BA_m21","170","even","FILL_NW","VUNKS","1884","247521","245830","239603","175800","NA","NA","NA","NA","247515","246327","NA","245330","NA","245325","247515","1896","247721","NA","NA","246521","1884","1884","246913","245325","1884","246521","247721","morph21_Oliver/Morris","18","12276","20","yes","1280","49"
"300","85.7142857143","85.7142857143","631.952380952","631.952380952","black","no","xpyriment","legacy","legacy","0","205","NA","uniform","53485","1000","0.0186968308872","0","undefined","0","0","20","20","20","0","20","20","20","NA","20","20","0","20","NA","20","20","0","20","NA","20","NA","20","0","0","20","20","0","20","20","21","z","04/02/19 12:24:57","The main experiment item","yes","FIN__BA__M21__7%3A10%3A17.osexp","C:\Users\ERP Testing Room\Desktop\Joanna\morph21","no","mono","no","18","no","white","no","yes","1080","legacy","20","20","C:/Users/ERP Testing Room/Desktop/Joanna/morph21/subject-170.csv","xpyriment","Kafkaesque Koffka","3.2.5","0","None","NA","NA","NA","NA","space","None","995","NA","NA","NA","NA","173903","995","2","legacy","1024","2","48000","-16","BA_m21","170","even","NW_S_SIMP","YIELDIST","1884","252088","248913","250580","175800","NA","NA","NA","NA","247515","249410","NA","248413","NA","248401","250576","1896","252388","NA","NA","249580","1884","1884","249980","248401","1884","249580","252388","morph21_Oliver/Morris","18","13271","21","yes","1280","20"
"300","86.3636363636","86.3636363636","628.363636364","628.363636364","black","no","xpyriment","legacy","legacy","0","207","NA","uniform","70224","1000","0.0142401458191","1","undefined","1","0","21","21","21","0","21","21","21","NA","21","21","0","21","NA","21","21","0","21","NA","21","NA","21","0","0","21","21","0","21","21","22","/","04/02/19 12:24:57","The main experiment item","yes","FIN__BA__M21__7%3A10%3A17.osexp","C:\Users\ERP Testing Room\Desktop\Joanna\morph21","no","mono","no","18","no","white","no","yes","1080","legacy","21","21","C:/Users/ERP Testing Room/Desktop/Joanna/morph21/subject-170.csv","xpyriment","Kafkaesque Koffka","3.2.5","0","/","NA","NA","NA","NA","space","/","553","NA","NA","NA","NA","173903","553","2","legacy","1024","2","48000","-16","BA_m21","170","even","FILL_W","SICK","1884","255230","253555","250580","175800","NA","NA","NA","NA","255220","254052","NA","253055","NA","253044","255220","1896","255530","NA","NA","254230","1884","1884","254622","253044","1884","254230","255530","morph21_Oliver/Morris","19","13824","22","yes","1280","36"
"400","82.6086956522","82.6086956522","624.304347826","624.304347826","black","no","xpyriment","legacy","legacy","0","207","NA","uniform","67187","1000","0.0148838316936","0","undefined","0","0","22","22","22","0","22","22","22","NA","22","22","0","22","NA","22","22","0","22","NA","22","NA","22","0","0","22","22","0","22","22","23","/","04/02/19 12:24:57","The main experiment item","yes","FIN__BA__M21__7%3A10%3A17.osexp","C:\Users\ERP Testing Room\Desktop\Joanna\morph21","no","mono","no","18","no","white","no","yes","1080","legacy","22","22","C:/Users/ERP Testing Room/Desktop/Joanna/morph21/subject-170.csv","xpyriment","Kafkaesque Koffka","3.2.5","0","z","NA","NA","NA","NA","space","z","535","NA","NA","NA","NA","173903","535","2","legacy","1024","2","48000","-16","BA_m21","170","even","FILL_W","CEASE","1884","258464","256764","250580","175800","NA","NA","NA","NA","255220","257261","NA","256263","NA","256255","258460","1896","258864","NA","NA","257472","1884","1884","257864","256255","1884","257472","258864","morph21_Oliver/Morris","19","14359","23","yes","1280","18"
"200","83.3333333333","83.3333333333","629.541666667","629.541666667","black","no","xpyriment","legacy","legacy","0","208","NA","uniform","60229","1000","0.0166032974149","1","undefined","1","0","23","23","23","0","23","23","23","NA","23","23","0","23","NA","23","23","0","23","NA","23","NA","23","0","0","23","23","0","23","23","24","z","04/02/19 12:24:57","The main experiment item","yes","FIN__BA__M21__7%3A10%3A17.osexp","C:\Users\ERP Testing Room\Desktop\Joanna\morph21","no","mono","no","18","no","white","no","yes","1080","legacy","23","23","C:/Users/ERP Testing Room/Desktop/Joanna/morph21/subject-170.csv","xpyriment","Kafkaesque Koffka","3.2.5","0","z","NA","NA","NA","NA","space","z","750","NA","NA","NA","NA","173903","750","2","legacy","1024","2","48000","-16","BA_m21","170","even","FILL_NW","FROT","1884","263206","259990","261698","175800","NA","NA","NA","NA","261692","260487","NA","259490","NA","259487","261692","1896","263407","NA","NA","260698","1884","1884","261090","259487","1884","260698","263407","morph21_Oliver/Morris","20","15109","24","yes","1280","22"
"200","84","84","626.44","626.44","black","no","xpyriment","legacy","legacy","0","207","NA","uniform","73688","1000","0.0135707306481","1","undefined","1","0","24","24","24","0","24","24","24","NA","24","24","0","24","NA","24","24","0","24","NA","24","NA","24","0","0","24","24","0","24","24","25","/","04/02/19 12:24:57","The main experiment item","yes","FIN__BA__M21__7%3A10%3A17.osexp","C:\Users\ERP Testing Room\Desktop\Joanna\morph21","no","mono","no","18","no","white","no","yes","1080","legacy","24","24","C:/Users/ERP Testing Room/Desktop/Joanna/morph21/subject-170.csv","xpyriment","Kafkaesque Koffka","3.2.5","0","/","NA","NA","NA","NA","space","/","552","NA","NA","NA","NA","173903","552","2","legacy","1024","2","48000","-16","BA_m21","170","even","FILL_W","OLD","1884","266215","264565","261698","175800","NA","NA","NA","NA","266212","265062","NA","264065","NA","264054","266212","1896","266415","NA","NA","265223","1884","1884","265615","264053","1884","265223","266415","morph21_Oliver/Morris","21","15661","25","yes","1280","44"
"250","84.6153846154","84.6153846154","624.538461538","624.538461538","black","no","xpyriment","legacy","legacy","0","208","NA","uniform","70466","1000","0.014191241166","1","undefined","1","0","25","25","25","0","25","25","25","NA","25","25","0","25","NA","25","25","0","25","NA","25","NA","25","0","0","25","25","0","25","25","26","z","04/02/19 12:24:57","The main experiment item","yes","FIN__BA__M21__7%3A10%3A17.osexp","C:\Users\ERP Testing Room\Desktop\Joanna\morph21","no","mono","no","18","no","white","no","yes","1080","legacy","25","25","C:/Users/ERP Testing Room/Desktop/Joanna/morph21/subject-170.csv","xpyriment","Kafkaesque Koffka","3.2.5","0","z","NA","NA","NA","NA","space","z","577","NA","NA","NA","NA","173903","577","2","legacy","1024","2","48000","-16","BA_m21","170","even","FILL_NW","PHEEKS","1884","269190","267540","261698","175800","NA","NA","NA","NA","269185","268037","NA","267040","NA","267035","269185","1896","269440","NA","NA","268190","1884","1884","268590","267035","1884","268190","269440","morph21_Oliver/Morris","22","16238","26","yes","1280","35"
"350","85.1851851852","85.1851851852","625.148148148","625.148148148","black","no","xpyriment","legacy","legacy","0","203","NA","uniform","66310","1000","0.0150806816468","1","undefined","1","0","26","26","26","0","26","26","26","NA","26","26","0","26","NA","26","26","0","26","NA","26","NA","26","0","0","26","26","0","26","26","27","z","04/02/19 12:24:57","The main experiment item","yes","FIN__BA__M21__7%3A10%3A17.osexp","C:\Users\ERP Testing Room\Desktop\Joanna\morph21","no","mono","no","18","no","white","no","yes","1080","legacy","26","26","C:/Users/ERP Testing Room/Desktop/Joanna/morph21/subject-170.csv","xpyriment","Kafkaesque Koffka","3.2.5","0","z","NA","NA","NA","NA","space","z","641","NA","NA","NA","NA","173903","641","2","legacy","1024","2","48000","-16","BA_m21","170","even","NW_S_COMP","HUMIDOES","1884","273690","270523","272182","175800","NA","NA","NA","NA","272179","271021","NA","270023","NA","270017","272179","1896","274040","NA","NA","271190","1884","1884","271582","270017","1884","271190","274040","morph21_Oliver/Morris","23","16879","27","yes","1280","25"
"300","85.7142857143","85.7142857143","630.107142857","630.107142857","black","no","xpyriment","legacy","legacy","0","206","NA","uniform","62321","1000","0.0160459556169","1","undefined","1","0","27","27","27","0","27","27","27","NA","27","27","0","27","NA","27","27","0","27","NA","27","NA","27","0","0","27","27","0","27","27","28","z","04/02/19 12:24:57","The main experiment item","yes","FIN__BA__M21__7%3A10%3A17.osexp","C:\Users\ERP Testing Room\Desktop\Joanna\morph21","no","mono","no","18","no","white","no","yes","1080","legacy","27","27","C:/Users/ERP Testing Room/Desktop/Joanna/morph21/subject-170.csv","xpyriment","Kafkaesque Koffka","3.2.5","0","z","NA","NA","NA","NA","space","z","764","NA","NA","NA","NA","173903","764","2","legacy","1024","2","48000","-16","BA_m21","170","even","NW_L_SIMP","BANDARY","1884","276941","275274","272182","175800","NA","NA","NA","NA","276934","275771","NA","274774","NA","274763","276934","1896","277241","NA","NA","275940","1884","1884","276333","274763","1884","275940","277241","morph21_Oliver/Morris","24","17643","28","yes","1280","3"
"350","82.7586206897","82.7586206897","642.689655172","642.689655172","black","no","xpyriment","legacy","legacy","0","206","NA","uniform","50271","1000","0.0198921843608","0","undefined","0","0","28","28","28","0","28","28","28","NA","28","28","0","28","NA","28","28","0","28","NA","28","NA","28","0","0","28","28","0","28","28","29","z","04/02/19 12:24:57","The main experiment item","yes","FIN__BA__M21__7%3A10%3A17.osexp","C:\Users\ERP Testing Room\Desktop\Joanna\morph21","no","mono","no","18","no","white","no","yes","1080","legacy","28","28","C:/Users/ERP Testing Room/Desktop/Joanna/morph21/subject-170.csv","xpyriment","Kafkaesque Koffka","3.2.5","0","None","NA","NA","NA","NA","space","None","995","NA","NA","NA","NA","173903","995","2","legacy","1024","2","48000","-16","BA_m21","170","even","NW_L_SIMP","PICKENCE","1884","280058","278383","272182","175800","NA","NA","NA","NA","276934","278880","NA","277883","NA","277873","280053","1896","280408","NA","NA","279058","1884","1884","279458","277873","1884","279058","280408","morph21_Oliver/Morris","24","18638","29","yes","1280","5"
"350","83.3333333333","83.3333333333","640.1","640.1","black","no","xpyriment","legacy","legacy","0","208","NA","uniform","69250","1000","0.014440433213","1","undefined","1","0","29","29","29","0","29","29","29","NA","29","29","0","29","NA","29","29","0","29","NA","29","NA","29","0","0","29","29","0","29","29","30","z","04/02/19 12:24:57","The main experiment item","yes","FIN__BA__M21__7%3A10%3A17.osexp","C:\Users\ERP Testing Room\Desktop\Joanna\morph21","no","mono","no","18","no","white","no","yes","1080","legacy","29","29","C:/Users/ERP Testing Room/Desktop/Joanna/morph21/subject-170.csv","xpyriment","Kafkaesque Koffka","3.2.5","0","z","NA","NA","NA","NA","space","z","565","NA","NA","NA","NA","173903","565","2","legacy","1024","2","48000","-16","BA_m21","170","even","FILL_NW","DARF","1884","284767","281608","283258","175800","NA","NA","NA","NA","283253","282105","NA","281108","NA","281098","283253","1896","285117","NA","NA","282258","1884","1884","282658","281098","1884","282258","285117","morph21_Oliver/Morris","25","19203","30","yes","1280","10"
"300","83.8709677419","83.8709677419","642.322580645","642.322580645","black","no","xpyriment","legacy","legacy","0","202","NA","uniform","58832","1000","0.0169975523525","1","undefined","1","0","30","30","30","0","30","30","30","NA","30","30","0","30","NA","30","30","0","30","NA","30","NA","30","0","0","30","30","0","30","30","31","/","04/02/19 12:24:57","The main experiment item","yes","FIN__BA__M21__7%3A10%3A17.osexp","C:\Users\ERP Testing Room\Desktop\Joanna\morph21","no","mono","no","18","no","white","no","yes","1080","legacy","30","30","C:/Users/ERP Testing Room/Desktop/Joanna/morph21/subject-170.csv","xpyriment","Kafkaesque Koffka","3.2.5","0","/","NA","NA","NA","NA","space","/","709","NA","NA","NA","NA","173903","709","2","legacy","1024","2","48000","-16","BA_m21","170","even","CW_L","HEATER","1884","287850","286192","283258","175800","NA","NA","NA","NA","287841","286689","NA","285683","NA","285674","287841","1896","288150","NA","NA","286850","1884","1884","287242","285674","1884","286850","288150","morph21_Oliver/Morris","26","19912","31","yes","1280","16"
"350","84.375","84.375","636.84375","636.84375","black","no","xpyriment","legacy","legacy","0","202","NA","uniform","73082","1000","0.0136832598998","1","undefined","1","0","31","31","31","0","31","31","31","NA","31","31","0","31","NA","31","31","0","31","NA","31","NA","31","0","0","31","31","0","31","31","32","/","04/02/19 12:24:57","The main experiment item","yes","FIN__BA__M21__7%3A10%3A17.osexp","C:\Users\ERP Testing Room\Desktop\Joanna\morph21","no","mono","no","18","no","white","no","yes","1080","legacy","31","31","C:/Users/ERP Testing Room/Desktop/Joanna/morph21/subject-170.csv","xpyriment","Kafkaesque Koffka","3.2.5","0","/","NA","NA","NA","NA","space","/","467","NA","NA","NA","NA","173903","467","2","legacy","1024","2","48000","-16","BA_m21","170","even","CW_L","HUNTER","1884","290900","289234","283258","175800","NA","NA","NA","NA","290895","289731","NA","288734","NA","288729","290895","1896","291250","NA","NA","289900","1884","1884","290300","288729","1884","289900","291250","morph21_Oliver/Morris","27","20379","32","yes","1280","10"
"300","84.8484848485","84.8484848485","638.818181818","638.818181818","black","no","xpyriment","legacy","legacy","0","205","NA","uniform","62448","1000","0.0160133230848","1","undefined","1","0","32","32","32","0","32","32","32","NA","32","32","0","32","NA","32","32","0","32","NA","32","NA","32","0","0","32","32","0","32","32","33","z","04/02/19 12:24:57","The main experiment item","yes","FIN__BA__M21__7%3A10%3A17.osexp","C:\Users\ERP Testing Room\Desktop\Joanna\morph21","no","mono","no","18","no","white","no","yes","1080","legacy","32","32","C:/Users/ERP Testing Room/Desktop/Joanna/morph21/subject-170.csv","xpyriment","Kafkaesque Koffka","3.2.5","0","z","NA","NA","NA","NA","space","z","702","NA","NA","NA","NA","173903","702","2","legacy","1024","2","48000","-16","BA_m21","170","even","NW_S_SIMP","HELMETOUS","1884","295543","292359","294035","175800","NA","NA","NA","NA","294024","292856","NA","291859","NA","291850","294024","1896","295843","NA","NA","293034","1884","1884","293425","291850","1884","293034","295843","morph21_Oliver/Morris","28","21081","33","yes","1280","14"
"400","82.3529411765","82.3529411765","648.352941176","648.352941176","black","no","xpyriment","legacy","legacy","0","206","NA","uniform","55209","1000","0.0181129888243","0","undefined","0","0","33","33","33","0","33","33","33","NA","33","33","0","33","NA","33","33","0","33","NA","33","NA","33","0","0","33","33","0","33","33","34","z","04/02/19 12:24:57","The main experiment item","yes","FIN__BA__M21__7%3A10%3A17.osexp","C:\Users\ERP Testing Room\Desktop\Joanna\morph21","no","mono","no","18","no","white","no","yes","1080","legacy","33","33","C:/Users/ERP Testing Room/Desktop/Joanna/morph21/subject-170.csv","xpyriment","Kafkaesque Koffka","3.2.5","0","/","NA","NA","NA","NA","space","/","963","NA","NA","NA","NA","173903","963","2","legacy","1024","2","48000","-16","BA_m21","170","even","NW_L_SIMP","VALIDER","1884","298668","296985","294035","175800","NA","NA","NA","NA","294024","297482","NA","296477","NA","296473","298659","1896","299068","NA","NA","297668","1884","1884","298060","296473","1884","297668","299068","morph21_Oliver/Morris","28","22044","34","yes","1280","23"
"200","82.8571428571","82.8571428571","645.457142857","645.457142857","black","no","xpyriment","legacy","legacy","0","207","NA","uniform","68174","1000","0.0146683486373","1","undefined","1","0","34","34","34","0","34","34","34","NA","34","34","0","34","NA","34","34","0","34","NA","34","NA","34","0","0","34","34","0","34","34","35","/","04/02/19 12:24:57","The main experiment item","yes","FIN__BA__M21__7%3A10%3A17.osexp","C:\Users\ERP Testing Room\Desktop\Joanna\morph21","no","mono","no","18","no","white","no","yes","1080","legacy","34","34","C:/Users/ERP Testing Room/Desktop/Joanna/morph21/subject-170.csv","xpyriment","Kafkaesque Koffka","3.2.5","0","/","NA","NA","NA","NA","space","/","547","NA","NA","NA","NA","173903","547","2","legacy","1024","2","48000","-16","BA_m21","170","even","FILL_W","TEST","1884","301869","300218","294035","175800","NA","NA","NA","NA","301859","300716","NA","299718","NA","299710","301859","1896","302069","NA","NA","300868","1884","1884","301260","299710","1884","300868","302069","morph21_Oliver/Morris","29","22591","35","yes","1280","47"
"250","83.3333333333","83.3333333333","643.305555556","643.305555556","black","no","xpyriment","legacy","legacy","0","207","NA","uniform","71123","1000","0.0140601493188","1","undefined","1","0","35","35","35","0","35","35","35","NA","35","35","0","35","NA","35","35","0","35","NA","35","NA","35","0","0","35","35","0","35","35","36","/","04/02/19 12:24:57","The main experiment item","yes","FIN__BA__M21__7%3A10%3A17.osexp","C:\Users\ERP Testing Room\Desktop\Joanna\morph21","no","mono","no","18","no","white","no","yes","1080","legacy","35","35","C:/Users/ERP Testing Room/Desktop/Joanna/morph21/subject-170.csv","xpyriment","Kafkaesque Koffka","3.2.5","0","/","NA","NA","NA","NA","space","/","568","NA","NA","NA","NA","173903","568","2","legacy","1024","2","48000","-16","BA_m21","170","even","FILL_W","SOUGHT","1884","306419","303210","304910","175800","NA","NA","NA","NA","304906","303707","NA","302710","NA","302706","304906","1896","306669","NA","NA","303919","1884","1884","304310","302706","1884","303919","306669","morph21_Oliver/Morris","30","23159","36","yes","1280","40"
"200","83.7837837838","83.7837837838","644.054054054","644.054054054","black","no","xpyriment","legacy","legacy","0","208","NA","uniform","65453","1000","0.0152781385116","1","undefined","1","0","36","36","36","0","36","36","36","NA","36","36","0","36","NA","36","36","0","36","NA","36","NA","36","0","0","36","36","0","36","36","37","z","04/02/19 12:24:57","The main experiment item","yes","FIN__BA__M21__7%3A10%3A17.osexp","C:\Users\ERP Testing Room\Desktop\Joanna\morph21","no","mono","no","18","no","white","no","yes","1080","legacy","36","36","C:/Users/ERP Testing Room/Desktop/Joanna/morph21/subject-170.csv","xpyriment","Kafkaesque Koffka","3.2.5","0","z","NA","NA","NA","NA","space","z","671","NA","NA","NA","NA","173903","671","2","legacy","1024","2","48000","-16","BA_m21","170","even","FILL_NW","BROUPS","1884","309544","307894","304910","175800","NA","NA","NA","NA","309535","308391","NA","307394","NA","307385","309535","1896","309744","NA","NA","308544","1884","1884","308935","307385","1884","308544","309744","morph21_Oliver/Morris","31","23830","37","yes","1280","4"
"200","84.2105263158","84.2105263158","645.710526316","645.710526316","black","no","xpyriment","legacy","legacy","0","205","NA","uniform","63252","1000","0.015809776766","1","undefined","1","0","37","37","37","0","37","37","37","NA","37","37","0","37","NA","37","37","0","37","NA","37","NA","37","0","0","37","37","0","37","37","38","z","04/02/19 12:24:57","The main experiment item","yes","FIN__BA__M21__7%3A10%3A17.osexp","C:\Users\ERP Testing Room\Desktop\Joanna\morph21","no","mono","no","18","no","white","no","yes","1080","legacy","37","37","C:/Users/ERP Testing Room/Desktop/Joanna/morph21/subject-170.csv","xpyriment","Kafkaesque Koffka","3.2.5","0","z","NA","NA","NA","NA","space","z","707","NA","NA","NA","NA","173903","707","2","legacy","1024","2","48000","-16","BA_m21","170","even","NW_S_SIMP","THRILLANCE","1884","312637","310944","304910","175800","NA","NA","NA","NA","312629","311441","NA","310435","NA","310429","312629","1896","312837","NA","NA","311637","1884","1884","312028","310429","1884","311636","312837","morph21_Oliver/Morris","32","24537","38","yes","1280","22"
"350","84.6153846154","84.6153846154","644.512820513","644.512820513","black","no","xpyriment","legacy","legacy","0","202","NA","uniform","60763","1000","0.0164573836052","1","undefined","1","0","38","38","38","0","38","38","38","NA","38","38","0","38","NA","38","38","0","38","NA","38","NA","38","0","0","38","38","0","38","38","39","/","04/02/19 12:24:57","The main experiment item","yes","FIN__BA__M21__7%3A10%3A17.osexp","C:\Users\ERP Testing Room\Desktop\Joanna\morph21","no","mono","no","18","no","white","no","yes","1080","legacy","38","38","C:/Users/ERP Testing Room/Desktop/Joanna/morph21/subject-170.csv","xpyriment","Kafkaesque Koffka","3.2.5","0","/","NA","NA","NA","NA","space","/","599","NA","NA","NA","NA","173903","599","2","legacy","1024","2","48000","-16","BA_m21","170","even","CW_L","BARKER","1884","317228","314070","315720","175800","NA","NA","NA","NA","315717","314567","NA","313570","NA","313561","315717","1896","317579","NA","NA","314728","1884","1884","315120","313561","1884","314728","317579","morph21_Oliver/Morris","33","25136","39","yes","1280","2"
"350","85","85","643.55","643.55","black","no","xpyriment","legacy","legacy","0","208","NA","uniform","63683","1000","0.0157027778214","1","undefined","1","0","39","39","39","0","39","39","39","NA","39","39","0","39","NA","39","39","0","39","NA","39","NA","39","0","0","39","39","0","39","39","40","z","04/02/19 12:24:57","The main experiment item","yes","FIN__BA__M21__7%3A10%3A17.osexp","C:\Users\ERP Testing Room\Desktop\Joanna\morph21","no","mono","no","18","no","white","no","yes","1080","legacy","39","39","C:/Users/ERP Testing Room/Desktop/Joanna/morph21/subject-170.csv","xpyriment","Kafkaesque Koffka","3.2.5","0","z","NA","NA","NA","NA","space","z","606","NA","NA","NA","NA","173903","606","2","legacy","1024","2","48000","-16","BA_m21","170","even","FILL_NW","JADS","1884","320345","318662","315720","175800","NA","NA","NA","NA","320335","319159","NA","318162","NA","318157","320335","1896","320695","NA","NA","319345","1884","1884","319737","318157","1884","319345","320695","morph21_Oliver/Morris","34","25742","40","yes","1280","31"
"400","85.3658536585","85.3658536585","643.609756098","643.609756098","black","no","xpyriment","legacy","legacy","0","205","NA","uniform","63691","1000","0.0157008054513","1","undefined","1","0","40","40","40","0","40","40","40","NA","40","40","0","40","NA","40","40","0","40","NA","40","NA","40","0","0","40","40","0","40","40","41","z","04/02/19 12:24:57","The main experiment item","yes","FIN__BA__M21__7%3A10%3A17.osexp","C:\Users\ERP Testing Room\Desktop\Joanna\morph21","no","mono","no","18","no","white","no","yes","1080","legacy","40","40","C:/Users/ERP Testing Room/Desktop/Joanna/morph21/subject-170.csv","xpyriment","Kafkaesque Koffka","3.2.5","0","z","NA","NA","NA","NA","space","z","646","NA","NA","NA","NA","173903","646","2","legacy","1024","2","48000","-16","BA_m21","170","even","NW_S_SIMP","SCHEMENESS","1884","323537","321870","315720","175800","NA","NA","NA","NA","323529","322367","NA","321370","NA","321360","323529","1896","323937","NA","NA","322537","1884","1884","322929","321360","1884","322537","323937","morph21_Oliver/Morris","35","26388","41","yes","1280","15"
"250","85.7142857143","85.7142857143","642.119047619","642.119047619","black","no","xpyriment","legacy","legacy","0","201","NA","uniform","72526","1000","0.0137881587293","1","undefined","1","0","41","41","41","0","41","41","41","NA","41","41","0","41","NA","41","41","0","41","NA","41","NA","41","0","0","41","41","0","41","41","42","/","04/02/19 12:24:57","The main experiment item","yes","FIN__BA__M21__7%3A10%3A17.osexp","C:\Users\ERP Testing Room\Desktop\Joanna\morph21","no","mono","no","18","no","white","no","yes","1080","legacy","41","41","C:/Users/ERP Testing Room/Desktop/Joanna/morph21/subject-170.csv","xpyriment","Kafkaesque Koffka","3.2.5","0","/","NA","NA","NA","NA","space","/","581","NA","NA","NA","NA","173903","581","2","legacy","1024","2","48000","-16","BA_m21","170","even","CW_S","HARMLESS","1884","328279","325121","326770","175800","NA","NA","NA","NA","326760","325618","NA","324620","NA","324614","326760","1896","328529","NA","NA","325770","1884","1884","326162","324614","1884","325770","328529","morph21_Oliver/Morris","36","26969","42","yes","1280","29"
"400","86.0465116279","86.0465116279","639.023255814","639.023255814","black","no","xpyriment","legacy","legacy","0","202","NA","uniform","71365","1000","0.0140124710993","1","undefined","1","0","42","42","42","0","42","42","42","NA","42","42","0","42","NA","42","42","0","42","NA","42","NA","42","0","0","42","42","0","42","42","43","/","04/02/19 12:24:57","The main experiment item","yes","FIN__BA__M21__7%3A10%3A17.osexp","C:\Users\ERP Testing Room\Desktop\Joanna\morph21","no","mono","no","18","no","white","no","yes","1080","legacy","42","42","C:/Users/ERP Testing Room/Desktop/Joanna/morph21/subject-170.csv","xpyriment","Kafkaesque Koffka","3.2.5","0","/","NA","NA","NA","NA","space","/","509","NA","NA","NA","NA","173903","509","2","legacy","1024","2","48000","-16","BA_m21","170","even","CW_L","COOLING","1884","331363","329713","326770","175800","NA","NA","NA","NA","331354","330210","NA","329213","NA","329205","331354","1896","331763","NA","NA","330363","1884","1884","330755","329205","1884","330363","331763","morph21_Oliver/Morris","37","27478","43","yes","1280","24"
"200","86.3636363636","86.3636363636","637.340909091","637.340909091","black","no","xpyriment","legacy","legacy","0","207","NA","uniform","69664","1000","0.0143546164446","1","undefined","1","0","43","43","43","0","43","43","43","NA","43","43","0","43","NA","43","43","0","43","NA","43","NA","43","0","0","43","43","0","43","43","44","/","04/02/19 12:24:57","The main experiment item","yes","FIN__BA__M21__7%3A10%3A17.osexp","C:\Users\ERP Testing Room\Desktop\Joanna\morph21","no","mono","no","18","no","white","no","yes","1080","legacy","43","43","C:/Users/ERP Testing Room/Desktop/Joanna/morph21/subject-170.csv","xpyriment","Kafkaesque Koffka","3.2.5","0","/","NA","NA","NA","NA","space","/","565","NA","NA","NA","NA","173903","565","2","legacy","1024","2","48000","-16","BA_m21","170","even","FILL_W","BRASS","1884","334513","332855","326770","175800","NA","NA","NA","NA","334509","333352","NA","332355","NA","332344","334509","1896","334714","NA","NA","333522","1884","1884","333913","332344","1884","333522","334714","morph21_Oliver/Morris","38","28043","44","yes","1280","10"
"400","86.6666666667","86.6666666667","638.288888889","638.288888889","black","no","xpyriment","legacy","legacy","0","204","NA","uniform","63187","1000","0.0158260401665","1","undefined","1","0","44","44","44","0","44","44","44","NA","44","44","0","44","NA","44","44","0","44","NA","44","NA","44","0","0","44","44","0","44","44","45","z","04/02/19 12:24:57","The main experiment item","yes","FIN__BA__M21__7%3A10%3A17.osexp","C:\Users\ERP Testing Room\Desktop\Joanna\morph21","no","mono","no","18","no","white","no","yes","1080","legacy","44","44","C:/Users/ERP Testing Room/Desktop/Joanna/morph21/subject-170.csv","xpyriment","Kafkaesque Koffka","3.2.5","0","z","NA","NA","NA","NA","space","z","680","NA","NA","NA","NA","173903","680","2","legacy","1024","2","48000","-16","BA_m21","170","even","NW_L_COMP","FLITENGE","1884","338964","335805","337455","175800","NA","NA","NA","NA","337448","336302","NA","335305","NA","335296","337448","1896","339364","NA","NA","336455","1884","1884","336847","335296","1884","336455","339364","morph21_Oliver/Morris","39","28723","45","yes","1280","3"
"300","86.9565217391","86.9565217391","636.630434783","636.630434783","black","no","xpyriment","legacy","legacy","0","202","NA","uniform","73310","1000","0.0136407038603","1","undefined","1","0","45","45","45","0","45","45","45","NA","45","45","0","45","NA","45","45","0","45","NA","45","NA","45","0","0","45","45","0","45","45","46","/","04/02/19 12:24:57","The main experiment item","yes","FIN__BA__M21__7%3A10%3A17.osexp","C:\Users\ERP Testing Room\Desktop\Joanna\morph21","no","mono","no","18","no","white","no","yes","1080","legacy","45","45","C:/Users/ERP Testing Room/Desktop/Joanna/morph21/subject-170.csv","xpyriment","Kafkaesque Koffka","3.2.5","0","/","NA","NA","NA","NA","space","/","562","NA","NA","NA","NA","173903","562","2","legacy","1024","2","48000","-16","BA_m21","170","even","CW_L","PROFESSOR","1884","342189","340539","337455","175800","NA","NA","NA","NA","342179","341036","NA","340039","NA","340031","342179","1896","342489","NA","NA","341189","1884","1884","341580","340031","1884","341189","342489","morph21_Oliver/Morris","40","29285","46","yes","1280","47"
"200","87.2340425532","87.2340425532","642.191489362","642.191489362","black","no","xpyriment","legacy","legacy","0","205","NA","uniform","58842","1000","0.0169946636756","1","undefined","1","0","46","46","46","0","46","46","46","NA","46","46","0","46","NA","46","46","0","46","NA","46","NA","46","0","0","46","46","0","46","46","47","z","04/02/19 12:24:57","The main experiment item","yes","FIN__BA__M21__7%3A10%3A17.osexp","C:\Users\ERP Testing Room\Desktop\Joanna\morph21","no","mono","no","18","no","white","no","yes","1080","legacy","46","46","C:/Users/ERP Testing Room/Desktop/Joanna/morph21/subject-170.csv","xpyriment","Kafkaesque Koffka","3.2.5","0","z","NA","NA","NA","NA","space","z","898","NA","NA","NA","NA","173903","898","2","legacy","1024","2","48000","-16","BA_m21","170","even","NW_S_SIMP","OPPOSEMENT","1884","345372","343697","337455","175800","NA","NA","NA","NA","345369","344194","NA","343197","NA","343190","345369","1896","345572","NA","NA","344381","1884","1884","344772","343190","1884","344381","345572","morph21_Oliver/Morris","41","30183","47","yes","1280","8"
"400","85.4166666667","85.4166666667","640.854166667","640.854166667","black","no","xpyriment","legacy","legacy","0","205","NA","uniform","67889","1000","0.0147299267923","0","undefined","0","0","47","47","47","0","47","47","47","NA","47","47","0","47","NA","47","47","0","47","NA","47","NA","47","0","0","47","47","0","47","47","48","z","04/02/19 12:24:57","The main experiment item","yes","FIN__BA__M21__7%3A10%3A17.osexp","C:\Users\ERP Testing Room\Desktop\Joanna\morph21","no","mono","no","18","no","white","no","yes","1080","legacy","47","47","C:/Users/ERP Testing Room/Desktop/Joanna/morph21/subject-170.csv","xpyriment","Kafkaesque Koffka","3.2.5","0","/","NA","NA","NA","NA","space","/","578","NA","NA","NA","NA","173903","578","2","legacy","1024","2","48000","-16","BA_m21","170","even","NW_S_SIMP","URNIST","1884","349890","346723","348382","175800","NA","NA","NA","NA","345369","347220","NA","346223","NA","346214","348379","1896","350290","NA","NA","347390","1884","1884","347782","346214","1884","347390","350290","morph21_Oliver/Morris","41","30761","48","yes","1280","5"
"300","85.7142857143","85.7142857143","643.326530612","643.326530612","black","no","xpyriment","legacy","legacy","0","204","NA","uniform","58026","1000","0.0172336538793","1","undefined","1","0","48","48","48","0","48","48","48","NA","48","48","0","48","NA","48","48","0","48","NA","48","NA","48","0","0","48","48","0","48","48","49","z","04/02/19 12:24:57","The main experiment item","yes","FIN__BA__M21__7%3A10%3A17.osexp","C:\Users\ERP Testing Room\Desktop\Joanna\morph21","no","mono","no","18","no","white","no","yes","1080","legacy","48","48","C:/Users/ERP Testing Room/Desktop/Joanna/morph21/subject-170.csv","xpyriment","Kafkaesque Koffka","3.2.5","0","z","NA","NA","NA","NA","space","z","762","NA","NA","NA","NA","173903","762","2","legacy","1024","2","48000","-16","BA_m21","170","even","NW_L_COMP","BINDIG","1884","353157","351482","348382","175800","NA","NA","NA","NA","353153","351979","NA","350974","NA","350969","353153","1896","353457","NA","NA","352157","1884","1884","352557","350969","1884","352157","353457","morph21_Oliver/Morris","42","31523","49","yes","1280","22"
"350","86","86","640.62","640.62","black","no","xpyriment","legacy","legacy","0","202","NA","uniform","68204","1000","0.014661896663","1","undefined","1","0","49","49","49","0","49","49","49","NA","49","49","0","49","NA","49","49","0","49","NA","49","NA","49","0","0","49","49","0","49","49","50","/","04/02/19 12:24:57","The main experiment item","yes","FIN__BA__M21__7%3A10%3A17.osexp","C:\Users\ERP Testing Room\Desktop\Joanna\morph21","no","mono","no","18","no","white","no","yes","1080","legacy","49","49","C:/Users/ERP Testing Room/Desktop/Joanna/morph21/subject-170.csv","xpyriment","Kafkaesque Koffka","3.2.5","0","/","NA","NA","NA","NA","space","/","508","NA","NA","NA","NA","173903","508","2","legacy","1024","2","48000","-16","BA_m21","170","even","CW_L","JUMPING","1884","356307","354632","348382","175800","NA","NA","NA","NA","356301","355129","NA","354132","NA","354127","356301","1896","356657","NA","NA","355307","1884","1884","355699","354127","1884","355307","356657","morph21_Oliver/Morris","43","32031","50","yes","1280","30"
"350","86.2745098039","86.2745098039","644.31372549","644.31372549","black","no","xpyriment","legacy","legacy","0","206","NA","uniform","59793","1000","0.0167243657284","1","undefined","1","0","50","50","50","0","50","50","50","NA","50","50","0","50","NA","50","50","0","50","NA","50","NA","50","0","0","50","50","0","50","50","51","z","04/02/19 12:24:57","The main experiment item","yes","FIN__BA__M21__7%3A10%3A17.osexp","C:\Users\ERP Testing Room\Desktop\Joanna\morph21","no","mono","no","18","no","white","no","yes","1080","legacy","50","50","C:/Users/ERP Testing Room/Desktop/Joanna/morph21/subject-170.csv","xpyriment","Kafkaesque Koffka","3.2.5","0","z","NA","NA","NA","NA","space","z","829","NA","NA","NA","NA","173903","829","2","legacy","1024","2","48000","-16","BA_m21","170","even","NW_L_SIMP","CRITICANCE","1884","360999","357807","359491","175800","NA","NA","NA","NA","359486","358304","NA","357307","NA","357298","359486","1896","361349","NA","NA","358490","1884","1884","358890","357298","1884","358490","361349","morph21_Oliver/Morris","44","32860","51","yes","1280","22"
"350","86.5384615385","86.5384615385","641.480769231","641.480769231","black","no","xpyriment","legacy","legacy","0","207","NA","uniform","70263","1000","0.0142322417204","1","undefined","1","0","51","51","51","0","51","51","51","NA","51","51","0","51","NA","51","51","0","51","NA","51","NA","51","0","0","51","51","0","51","51","52","/","04/02/19 12:24:57","The main experiment item","yes","FIN__BA__M21__7%3A10%3A17.osexp","C:\Users\ERP Testing Room\Desktop\Joanna\morph21","no","mono","no","18","no","white","no","yes","1080","legacy","51","51","C:/Users/ERP Testing Room/Desktop/Joanna/morph21/subject-170.csv","xpyriment","Kafkaesque Koffka","3.2.5","0","/","NA","NA","NA","NA","space","/","497","NA","NA","NA","NA","173903","497","2","legacy","1024","2","48000","-16","BA_m21","170","even","FILL_W","FOLLOW","1884","364200","362507","359491","175800","NA","NA","NA","NA","364191","363004","NA","362007","NA","362003","364191","1896","364550","NA","NA","363199","1884","1884","363592","362003","1884","363199","364550","morph21_Oliver/Morris","45","33357","52","yes","1280","17"
"350","86.7924528302","86.7924528302","644.905660377","644.905660377","black","no","xpyriment","legacy","legacy","0","203","NA","uniform","58368","1000","0.0171326754386","1","undefined","1","0","52","52","52","0","52","52","52","NA","52","52","0","52","NA","52","52","0","52","NA","52","NA","52","0","0","52","52","0","52","52","53","z","04/02/19 12:24:57","The main experiment item","yes","FIN__BA__M21__7%3A10%3A17.osexp","C:\Users\ERP Testing Room\Desktop\Joanna\morph21","no","mono","no","18","no","white","no","yes","1080","legacy","52","52","C:/Users/ERP Testing Room/Desktop/Joanna/morph21/subject-170.csv","xpyriment","Kafkaesque Koffka","3.2.5","0","z","NA","NA","NA","NA","space","z","823","NA","NA","NA","NA","173903","823","2","legacy","1024","2","48000","-16","BA_m21","170","even","NW_S_COMP","WELDIG","1884","367417","365742","359491","175800","NA","NA","NA","NA","367414","366239","NA","365234","NA","365226","367414","1896","367767","NA","NA","366425","1884","1884","366817","365226","1884","366425","367767","morph21_Oliver/Morris","46","34180","53","yes","1280","21"
"300","85.1851851852","85.1851851852","651.407407407","651.407407407","black","no","xpyriment","legacy","legacy","0","204","NA","uniform","53300","1000","0.0187617260788","0","undefined","0","0","53","53","53","0","53","53","53","NA","53","53","0","53","NA","53","53","0","53","NA","53","NA","53","0","0","53","53","0","53","53","54","z","04/02/19 12:24:57","The main experiment item","yes","FIN__BA__M21__7%3A10%3A17.osexp","C:\Users\ERP Testing Room\Desktop\Joanna\morph21","no","mono","no","18","no","white","no","yes","1080","legacy","53","53","C:/Users/ERP Testing Room/Desktop/Joanna/morph21/subject-170.csv","xpyriment","Kafkaesque Koffka","3.2.5","0","None","NA","NA","NA","NA","space","None","996","NA","NA","NA","NA","173903","996","2","legacy","1024","2","48000","-16","BA_m21","170","even","NW_L_COMP","ILLILT","1884","372159","368942","370650","175800","NA","NA","NA","NA","367414","369439","NA","368442","NA","368438","370646","1896","372459","NA","NA","369650","1884","1884","370050","368438","1884","369650","372459","morph21_Oliver/Morris","46","35176","54","yes","1280","9"
"400","85.4545454545","85.4545454545","655.909090909","655.909090909","black","no","xpyriment","legacy","legacy","0","206","NA","uniform","52635","1000","0.0189987650803","1","undefined","1","0","54","54","54","0","54","54","54","NA","54","54","0","54","NA","54","54","0","54","NA","54","NA","54","0","0","54","54","0","54","54","55","z","04/02/19 12:24:57","The main experiment item","yes","FIN__BA__M21__7%3A10%3A17.osexp","C:\Users\ERP Testing Room\Desktop\Joanna\morph21","no","mono","no","18","no","white","no","yes","1080","legacy","54","54","C:/Users/ERP Testing Room/Desktop/Joanna/morph21/subject-170.csv","xpyriment","Kafkaesque Koffka","3.2.5","0","z","NA","NA","NA","NA","space","z","899","NA","NA","NA","NA","173903","899","2","legacy","1024","2","48000","-16","BA_m21","170","even","NW_L_SIMP","POORITY","1884","375276","373625","370650","175800","NA","NA","NA","NA","375268","374123","NA","373125","NA","373118","375268","1896","375676","NA","NA","374276","1884","1884","374667","373118","1884","374276","375676","morph21_Oliver/Morris","47","36075","55","yes","1280","13"
"400","85.7142857143","85.7142857143","654.732142857","654.732142857","black","no","xpyriment","legacy","legacy","0","202","NA","uniform","72700","1000","0.0137551581843","1","undefined","1","0","55","55","55","0","55","55","55","NA","55","55","0","55","NA","55","55","0","55","NA","55","NA","55","0","0","55","55","0","55","55","56","/","04/02/19 12:24:57","The main experiment item","yes","FIN__BA__M21__7%3A10%3A17.osexp","C:\Users\ERP Testing Room\Desktop\Joanna\morph21","no","mono","no","18","no","white","no","yes","1080","legacy","55","55","C:/Users/ERP Testing Room/Desktop/Joanna/morph21/subject-170.csv","xpyriment","Kafkaesque Koffka","3.2.5","0","/","NA","NA","NA","NA","space","/","590","NA","NA","NA","NA","173903","590","2","legacy","1024","2","48000","-16","BA_m21","170","even","CW_L","CLOUDLESS","1884","378609","376926","370650","175800","NA","NA","NA","NA","378599","377423","NA","376426","NA","376416","378599","1896","379009","NA","NA","377609","1884","1884","378001","376416","1884","377609","379009","morph21_Oliver/Morris","48","36665","56","yes","1280","33"
"400","85.9649122807","85.9649122807","654.403508772","654.403508772","black","no","xpyriment","legacy","legacy","0","204","NA","uniform","63624","1000","0.0157173393688","1","undefined","1","0","56","56","56","0","56","56","56","NA","56","56","0","56","NA","56","56","0","56","NA","56","NA","56","0","0","56","56","0","56","56","57","z","04/02/19 12:24:57","The main experiment item","yes","FIN__BA__M21__7%3A10%3A17.osexp","C:\Users\ERP Testing Room\Desktop\Joanna\morph21","no","mono","no","18","no","white","no","yes","1080","legacy","56","56","C:/Users/ERP Testing Room/Desktop/Joanna/morph21/subject-170.csv","xpyriment","Kafkaesque Koffka","3.2.5","0","z","NA","NA","NA","NA","space","z","636","NA","NA","NA","NA","173903","636","2","legacy","1024","2","48000","-16","BA_m21","170","even","NW_L_COMP","RIPENGE","1884","383385","380226","381877","175800","NA","NA","NA","NA","381874","380723","NA","379726","NA","379713","381874","1896","383785","NA","NA","380884","1884","1884","381277","379713","1884","380884","383785","morph21_Oliver/Morris","49","37301","57","yes","1280","4"
"300","86.2068965517","86.2068965517","652.137931034","652.137931034","black","no","xpyriment","legacy","legacy","0","207","NA","uniform","70527","1000","0.0141789669205","1","undefined","1","0","57","57","57","0","57","57","57","NA","57","57","0","57","NA","57","57","0","57","NA","57","NA","57","0","0","57","57","0","57","57","58","/","04/02/19 12:24:57","The main experiment item","yes","FIN__BA__M21__7%3A10%3A17.osexp","C:\Users\ERP Testing Room\Desktop\Joanna\morph21","no","mono","no","18","no","white","no","yes","1080","legacy","57","57","C:/Users/ERP Testing Room/Desktop/Joanna/morph21/subject-170.csv","xpyriment","Kafkaesque Koffka","3.2.5","0","/","NA","NA","NA","NA","space","/","523","NA","NA","NA","NA","173903","523","2","legacy","1024","2","48000","-16","BA_m21","170","even","FILL_W","BOX","1884","386685","384994","381877","175800","NA","NA","NA","NA","386676","385491","NA","384494","NA","384487","386676","1896","386985","NA","NA","385685","1884","1884","386077","384487","1884","385685","386985","morph21_Oliver/Morris","50","37824","58","yes","1280","42"
"350","86.4406779661","86.4406779661","653.13559322","653.13559322","black","no","xpyriment","legacy","legacy","0","206","NA","uniform","62239","1000","0.0160670961937","1","undefined","1","0","58","58","58","0","58","58","58","NA","58","58","0","58","NA","58","58","0","58","NA","58","NA","58","0","0","58","58","0","58","58","59","z","04/02/19 12:24:57","The main experiment item","yes","FIN__BA__M21__7%3A10%3A17.osexp","C:\Users\ERP Testing Room\Desktop\Joanna\morph21","no","mono","no","18","no","white","no","yes","1080","legacy","58","58","C:/Users/ERP Testing Room/Desktop/Joanna/morph21/subject-170.csv","xpyriment","Kafkaesque Koffka","3.2.5","0","z","NA","NA","NA","NA","space","z","711","NA","NA","NA","NA","173903","711","2","legacy","1024","2","48000","-16","BA_m21","170","even","NW_L_SIMP","HABITIC","1884","389761","388110","381877","175800","NA","NA","NA","NA","389755","388608","NA","387610","NA","387601","389755","1896","390111","NA","NA","388760","1884","1884","389152","387601","1884","388760","390111","morph21_Oliver/Morris","51","38535","59","yes","1280","7"
"300","86.6666666667","86.6666666667","651.566666667","651.566666667","black","no","xpyriment","legacy","legacy","0","201","NA","uniform","71501","1000","0.0139858183802","1","undefined","1","0","59","59","59","0","59","59","59","NA","59","59","0","59","NA","59","59","0","59","NA","59","NA","59","0","0","59","59","0","59","59","60","/","04/02/19 12:24:57","The main experiment item","yes","FIN__BA__M21__7%3A10%3A17.osexp","C:\Users\ERP Testing Room\Desktop\Joanna\morph21","no","mono","no","18","no","white","no","yes","1080","legacy","59","59","C:/Users/ERP Testing Room/Desktop/Joanna/morph21/subject-170.csv","xpyriment","Kafkaesque Koffka","3.2.5","0","/","NA","NA","NA","NA","space","/","559","NA","NA","NA","NA","173903","559","2","legacy","1024","2","48000","-16","BA_m21","170","even","CW_S","GUILTY","1884","394452","391269","392944","175800","NA","NA","NA","NA","392940","391766","NA","390769","NA","390763","392940","1896","394753","NA","NA","391952","1884","1884","392344","390763","1884","391952","394753","morph21_Oliver/Morris","52","39094","60","yes","1280","34"
"300","86.8852459016","86.8852459016","651.327868852","651.327868852","black","no","xpyriment","legacy","legacy","0","202","NA","uniform","65829","1000","0.0151908733233","1","undefined","1","0","60","60","60","0","60","60","60","NA","60","60","0","60","NA","60","60","0","60","NA","60","NA","60","0","0","60","60","0","60","60","61","/","04/02/19 12:24:57","The main experiment item","yes","FIN__BA__M21__7%3A10%3A17.osexp","C:\Users\ERP Testing Room\Desktop\Joanna\morph21","no","mono","no","18","no","white","no","yes","1080","legacy","60","60","C:/Users/ERP Testing Room/Desktop/Joanna/morph21/subject-170.csv","xpyriment","Kafkaesque Koffka","3.2.5","0","/","NA","NA","NA","NA","space","/","637","NA","NA","NA","NA","173903","637","2","legacy","1024","2","48000","-16","BA_m21","170","even","CW_L","COMPOSER","1884","397586","395936","392944","175800","NA","NA","NA","NA","397583","396433","NA","395436","NA","395423","397583","1896","397886","NA","NA","396594","1884","1884","396986","395423","1884","396594","397886","morph21_Oliver/Morris","53","39731","61","yes","1280","6"
"350","87.0967741935","87.0967741935","648.870967742","648.870967742","black","no","xpyriment","legacy","legacy","0","202","NA","uniform","70861","1000","0.0141121350249","1","undefined","1","0","61","61","61","0","61","61","61","NA","61","61","0","61","NA","61","61","0","61","NA","61","NA","61","0","0","61","61","0","61","61","62","/","04/02/19 12:24:57","The main experiment item","yes","FIN__BA__M21__7%3A10%3A17.osexp","C:\Users\ERP Testing Room\Desktop\Joanna\morph21","no","mono","no","18","no","white","no","yes","1080","legacy","61","61","C:/Users/ERP Testing Room/Desktop/Joanna/morph21/subject-170.csv","xpyriment","Kafkaesque Koffka","3.2.5","0","/","NA","NA","NA","NA","space","/","499","NA","NA","NA","NA","173903","499","2","legacy","1024","2","48000","-16","BA_m21","170","even","CW_L","EDITOR","1884","400829","399137","392944","175800","NA","NA","NA","NA","400819","399634","NA","398637","NA","398628","400819","1896","401179","NA","NA","399829","1884","1884","400220","398628","1884","399829","401179","morph21_Oliver/Morris","54","40230","62","yes","1280","45"
"350","87.3015873016","87.3015873016","648","648","black","no","xpyriment","legacy","legacy","0","208","NA","uniform","65140","1000","0.0153515505066","1","undefined","1","0","62","62","62","0","62","62","62","NA","62","62","0","62","NA","62","62","0","62","NA","62","NA","62","0","0","62","62","0","62","62","63","z","04/02/19 12:24:57","The main experiment item","yes","FIN__BA__M21__7%3A10%3A17.osexp","C:\Users\ERP Testing Room\Desktop\Joanna\morph21","no","mono","no","18","no","white","no","yes","1080","legacy","62","62","C:/Users/ERP Testing Room/Desktop/Joanna/morph21/subject-170.csv","xpyriment","Kafkaesque Koffka","3.2.5","0","z","NA","NA","NA","NA","space","z","594","NA","NA","NA","NA","173903","594","2","legacy","1024","2","48000","-16","BA_m21","170","even","FILL_NW","HEAS","1884","405554","402320","404045","175800","NA","NA","NA","NA","404035","402818","NA","401820","NA","401813","404035","1896","405904","NA","NA","403045","1884","1884","403437","401813","1884","403045","405904","morph21_Oliver/Morris","55","40824","63","yes","1280","26"
"400","87.5","87.5","645.859375","645.859375","black","no","xpyriment","legacy","legacy","0","208","NA","uniform","64911","1000","0.0154057093559","1","undefined","1","0","63","63","63","0","63","63","63","NA","63","63","0","63","NA","63","63","0","63","NA","63","NA","63","0","0","63","63","0","63","63","64","z","04/02/19 12:24:57","The main experiment item","yes","FIN__BA__M21__7%3A10%3A17.osexp","C:\Users\ERP Testing Room\Desktop\Joanna\morph21","no","mono","no","18","no","white","no","yes","1080","legacy","63","63","C:/Users/ERP Testing Room/Desktop/Joanna/morph21/subject-170.csv","xpyriment","Kafkaesque Koffka","3.2.5","0","z","NA","NA","NA","NA","space","z","511","NA","NA","NA","NA","173903","511","2","legacy","1024","2","48000","-16","BA_m21","170","even","FILL_NW","DROES","1884","408696","407021","404045","175800","NA","NA","NA","NA","408689","407518","NA","406521","NA","406516","408689","1896","409096","NA","NA","407696","1884","1884","408087","406516","1884","407696","409096","morph21_Oliver/Morris","56","41335","64","yes","1280","17"
"250","87.6923076923","87.6923076923","646.4","646.4","black","no","xpyriment","legacy","legacy","0","203","NA","uniform","67409","1000","0.0148348143423","1","undefined","1","0","64","64","64","0","64","64","64","NA","64","64","0","64","NA","64","64","0","64","NA","64","NA","64","0","0","64","64","0","64","64","65","z","04/02/19 12:24:57","The main experiment item","yes","FIN__BA__M21__7%3A10%3A17.osexp","C:\Users\ERP Testing Room\Desktop\Joanna\morph21","no","mono","no","18","no","white","no","yes","1080","legacy","64","64","C:/Users/ERP Testing Room/Desktop/Joanna/morph21/subject-170.csv","xpyriment","Kafkaesque Koffka","3.2.5","0","z","NA","NA","NA","NA","space","z","681","NA","NA","NA","NA","173903","681","2","legacy","1024","2","48000","-16","BA_m21","170","even","NW_S_COMP","TREASONIME","1884","411862","410187","404045","175800","NA","NA","NA","NA","411857","410685","NA","409687","NA","409679","411857","1896","412112","NA","NA","410862","1884","1884","411262","409679","1884","410862","412112","morph21_Oliver/Morris","57","42016","65","yes","1280","14"
"250","87.8787878788","87.8787878788","644.106060606","644.106060606","black","no","xpyriment","legacy","legacy","0","207","NA","uniform","69736","1000","0.0143397958013","1","undefined","1","0","65","65","65","0","65","65","65","NA","65","65","0","65","NA","65","65","0","65","NA","65","NA","65","0","0","65","65","0","65","65","66","/","04/02/19 12:24:57","The main experiment item","yes","FIN__BA__M21__7%3A10%3A17.osexp","C:\Users\ERP Testing Room\Desktop\Joanna\morph21","no","mono","no","18","no","white","no","yes","1080","legacy","65","65","C:/Users/ERP Testing Room/Desktop/Joanna/morph21/subject-170.csv","xpyriment","Kafkaesque Koffka","3.2.5","0","/","NA","NA","NA","NA","space","/","495","NA","NA","NA","NA","173903","495","2","legacy","1024","2","48000","-16","BA_m21","170","even","FILL_W","WEAVE","1884","416405","413229","414896","175800","NA","NA","NA","NA","414891","413726","NA","412729","NA","412719","414891","1896","416655","NA","NA","413896","1884","1884","414296","412719","1884","413896","416655","morph21_Oliver/Morris","58","42511","66","yes","1280","12"
"350","88.0597014925","88.0597014925","642.119402985","642.119402985","black","no","xpyriment","legacy","legacy","0","202","NA","uniform","72377","1000","0.0138165439297","1","undefined","1","0","66","66","66","0","66","66","66","NA","66","66","0","66","NA","66","66","0","66","NA","66","NA","66","0","0","66","66","0","66","66","67","/","04/02/19 12:24:57","The main experiment item","yes","FIN__BA__M21__7%3A10%3A17.osexp","C:\Users\ERP Testing Room\Desktop\Joanna\morph21","no","mono","no","18","no","white","no","yes","1080","legacy","66","66","C:/Users/ERP Testing Room/Desktop/Joanna/morph21/subject-170.csv","xpyriment","Kafkaesque Koffka","3.2.5","0","/","NA","NA","NA","NA","space","/","511","NA","NA","NA","NA","173903","511","2","legacy","1024","2","48000","-16","BA_m21","170","even","CW_L","PARKING","1884","419489","417830","414896","175800","NA","NA","NA","NA","419482","418328","NA","417330","NA","417319","419482","1896","419839","NA","NA","418489","1884","1884","418880","417319","1884","418489","419839","morph21_Oliver/Morris","59","43022","67","yes","1280","25"
"300","88.2352941176","88.2352941176","643.205882353","643.205882353","black","no","xpyriment","legacy","legacy","0","206","NA","uniform","59001","1000","0.0169488652735","1","undefined","1","0","67","67","67","0","67","67","67","NA","67","67","0","67","NA","67","67","0","67","NA","67","NA","67","0","0","67","67","0","67","67","68","z","04/02/19 12:24:57","The main experiment item","yes","FIN__BA__M21__7%3A10%3A17.osexp","C:\Users\ERP Testing Room\Desktop\Joanna\morph21","no","mono","no","18","no","white","no","yes","1080","legacy","67","67","C:/Users/ERP Testing Room/Desktop/Joanna/morph21/subject-170.csv","xpyriment","Kafkaesque Koffka","3.2.5","0","z","NA","NA","NA","NA","space","z","716","NA","NA","NA","NA","173903","716","2","legacy","1024","2","48000","-16","BA_m21","170","even","NW_L_SIMP","EARIST","1884","422747","421056","414896","175800","NA","NA","NA","NA","422739","421553","NA","420556","NA","420549","422739","1896","423047","NA","NA","421747","1884","1884","422139","420549","1884","421747","423047","morph21_Oliver/Morris","60","43738","68","yes","1280","12"
"200","88.4057971014","88.4057971014","643.68115942","643.68115942","black","no","xpyriment","legacy","legacy","0","205","NA","uniform","60692","1000","0.01647663613","1","undefined","1","0","68","68","68","0","68","68","68","NA","68","68","0","68","NA","68","68","0","68","NA","68","NA","68","0","0","68","68","0","68","68","69","z","04/02/19 12:24:57","The main experiment item","yes","FIN__BA__M21__7%3A10%3A17.osexp","C:\Users\ERP Testing Room\Desktop\Joanna\morph21","no","mono","no","18","no","white","no","yes","1080","legacy","68","68","C:/Users/ERP Testing Room/Desktop/Joanna/morph21/subject-170.csv","xpyriment","Kafkaesque Koffka","3.2.5","0","z","NA","NA","NA","NA","space","z","676","NA","NA","NA","NA","173903","676","2","legacy","1024","2","48000","-16","BA_m21","170","even","NW_S_SIMP","GUMFUL","1884","427456","424256","425947","175800","NA","NA","NA","NA","425940","424753","NA","423756","NA","423748","425940","1896","427656","NA","NA","424947","1884","1884","425339","423748","1884","424947","427656","morph21_Oliver/Morris","61","44414","69","yes","1280","2"
"250","88.5714285714","88.5714285714","641.885714286","641.885714286","black","no","xpyriment","legacy","legacy","0","207","NA","uniform","71240","1000","0.0140370578327","1","undefined","1","0","69","69","69","0","69","69","69","NA","69","69","0","69","NA","69","69","0","69","NA","69","NA","69","0","0","69","69","0","69","69","70","/","04/02/19 12:24:57","The main experiment item","yes","FIN__BA__M21__7%3A10%3A17.osexp","C:\Users\ERP Testing Room\Desktop\Joanna\morph21","no","mono","no","18","no","white","no","yes","1080","legacy","69","69","C:/Users/ERP Testing Room/Desktop/Joanna/morph21/subject-170.csv","xpyriment","Kafkaesque Koffka","3.2.5","0","/","NA","NA","NA","NA","space","/","518","NA","NA","NA","NA","173903","518","2","legacy","1024","2","48000","-16","BA_m21","170","even","FILL_W","SPLICE","1884","430481","428806","425947","175800","NA","NA","NA","NA","430473","429303","NA","428306","NA","428298","430473","1896","430731","NA","NA","429481","1884","1884","429873","428298","1884","429481","430731","morph21_Oliver/Morris","62","44932","70","yes","1280","22"
"400","88.7323943662","88.7323943662","639.774647887","639.774647887","black","no","xpyriment","legacy","legacy","0","202","NA","uniform","69952","1000","0.0142955169259","1","undefined","1","0","70","70","70","0","70","70","70","NA","70","70","0","70","NA","70","70","0","70","NA","70","NA","70","0","0","70","70","0","70","70","71","/","04/02/19 12:24:57","The main experiment item","yes","FIN__BA__M21__7%3A10%3A17.osexp","C:\Users\ERP Testing Room\Desktop\Joanna\morph21","no","mono","no","18","no","white","no","yes","1080","legacy","70","70","C:/Users/ERP Testing Room/Desktop/Joanna/morph21/subject-170.csv","xpyriment","Kafkaesque Koffka","3.2.5","0","/","NA","NA","NA","NA","space","/","492","NA","NA","NA","NA","173903","492","2","legacy","1024","2","48000","-16","BA_m21","170","even","CW_L","CLEANER","1884","433532","431881","425947","175800","NA","NA","NA","NA","433525","432378","NA","431381","NA","431376","433525","1896","433932","NA","NA","432531","1884","1884","432923","431376","1884","432531","433932","morph21_Oliver/Morris","63","45424","71","yes","1280","15"
"300","88.8888888889","88.8888888889","643.055555556","643.055555556","black","no","xpyriment","legacy","legacy","0","206","NA","uniform","55903","1000","0.0178881276497","1","undefined","1","0","71","71","71","0","71","71","71","NA","71","71","0","71","NA","71","71","0","71","NA","71","NA","71","0","0","71","71","0","71","71","72","z","04/02/19 12:24:57","The main experiment item","yes","FIN__BA__M21__7%3A10%3A17.osexp","C:\Users\ERP Testing Room\Desktop\Joanna\morph21","no","mono","no","18","no","white","no","yes","1080","legacy","71","71","C:/Users/ERP Testing Room/Desktop/Joanna/morph21/subject-170.csv","xpyriment","Kafkaesque Koffka","3.2.5","0","z","NA","NA","NA","NA","space","z","876","NA","NA","NA","NA","173903","876","2","legacy","1024","2","48000","-16","BA_m21","170","even","NW_L_SIMP","BEGENCE","1884","438241","435065","436732","175800","NA","NA","NA","NA","436725","435563","NA","434565","NA","434556","436725","1896","438541","NA","NA","435732","1884","1884","436124","434556","1884","435732","438541","morph21_Oliver/Morris","64","46300","72","yes","1280","4"
"200","89.0410958904","89.0410958904","642.794520548","642.794520548","black","no","xpyriment","legacy","legacy","0","203","NA","uniform","66066","1000","0.0151363787727","1","undefined","1","0","72","72","72","0","72","72","72","NA","72","72","0","72","NA","72","72","0","72","NA","72","NA","72","0","0","72","72","0","72","72","73","z","04/02/19 12:24:57","The main experiment item","yes","FIN__BA__M21__7%3A10%3A17.osexp","C:\Users\ERP Testing Room\Desktop\Joanna\morph21","no","mono","no","18","no","white","no","yes","1080","legacy","72","72","C:/Users/ERP Testing Room/Desktop/Joanna/morph21/subject-170.csv","xpyriment","Kafkaesque Koffka","3.2.5","0","z","NA","NA","NA","NA","space","z","624","NA","NA","NA","NA","173903","624","2","legacy","1024","2","48000","-16","BA_m21","170","even","NW_S_COMP","MELTANGE","1884","441399","439707","436732","175800","NA","NA","NA","NA","441395","440204","NA","439207","NA","439201","441395","1896","441599","NA","NA","440399","1884","1884","440799","439201","1884","440399","441599","morph21_Oliver/Morris","65","46924","73","yes","1280","1"
"200","89.1891891892","89.1891891892","640.756756757","640.756756757","black","no","xpyriment","legacy","legacy","0","203","NA","uniform","70478","1000","0.0141888248815","1","undefined","1","0","73","73","73","0","73","73","73","NA","73","73","0","73","NA","73","73","0","73","NA","73","NA","73","0","0","73","73","0","73","73","74","z","04/02/19 12:24:57","The main experiment item","yes","FIN__BA__M21__7%3A10%3A17.osexp","C:\Users\ERP Testing Room\Desktop\Joanna\morph21","no","mono","no","18","no","white","no","yes","1080","legacy","73","73","C:/Users/ERP Testing Room/Desktop/Joanna/morph21/subject-170.csv","xpyriment","Kafkaesque Koffka","3.2.5","0","z","NA","NA","NA","NA","space","z","492","NA","NA","NA","NA","173903","492","2","legacy","1024","2","48000","-16","BA_m21","170","even","NW_S_COMP","ELMILT","1884","444507","442849","436732","175800","NA","NA","NA","NA","444502","443346","NA","442349","NA","442339","444502","1896","444707","NA","NA","443507","1884","1884","443899","442339","1884","443507","444707","morph21_Oliver/Morris","66","47416","74","yes","1280","10"
"400","89.3333333333","89.3333333333","640.16","640.16","black","no","xpyriment","legacy","legacy","0","201","NA","uniform","67286","1000","0.0148619326457","undefined","undefined","1","0","74","74","74","0","74","74","74","NA","74","74","0","74","NA","74","74","0","74","NA","74","NA","74","0","0","74","74","0","74","74","75","/","04/02/19 12:24:57","The main experiment item","yes","FIN__BA__M21__7%3A10%3A17.osexp","C:\Users\ERP Testing Room\Desktop\Joanna\morph21","no","mono","no","18","no","white","no","yes","1080","legacy","74","74","C:/Users/ERP Testing Room/Desktop/Joanna/morph21/subject-170.csv","xpyriment","Kafkaesque Koffka","3.2.5","0","space","space","NA","NA","NA","space","/","19064","19064","NA","NA","NA","173903","596","2","legacy","1024","2","48000","-16","BA_m21","170","even","CW_S","WIDOWED","1884","448991","445841","447483","175800","449399","NA","NA","NA","447479","446338","NA","445341","NA","445333","447479","1896","468464","NA","NA","446491","1884","1884","446883","445333","1884","446491","449391","morph21_Oliver/Morris","67","48012","75","yes","1280","7"
"350","89.4736842105","89.4736842105","639.302631579","639.302631579","black","no","xpyriment","legacy","legacy","0","202","NA","uniform","68363","1000","0.0146277957375","1","undefined","1","0","75","75","75","0","75","75","75","NA","75","75","0","75","NA","75","75","0","75","NA","75","NA","75","0","0","75","75","0","75","75","76","/","04/02/19 12:24:57","The main experiment item","yes","FIN__BA__M21__7%3A10%3A17.osexp","C:\Users\ERP Testing Room\Desktop\Joanna\morph21","no","mono","no","18","no","white","no","yes","1080","legacy","75","75","C:/Users/ERP Testing Room/Desktop/Joanna/morph21/subject-170.csv","xpyriment","Kafkaesque Koffka","3.2.5","0","/","space","NA","NA","NA","space","/","575","19064","NA","NA","NA","173903","575","2","legacy","1024","2","48000","-16","BA_m21","170","even","CW_L","PUNCHER","1884","471369","469694","447483","175800","449399","NA","NA","NA","471359","470191","NA","469186","NA","469178","471359","1896","471719","NA","NA","470369","1884","1884","470761","469178","1884","470369","471719","morph21_Oliver/Morris","68","48587","76","yes","1280","1"
"350","89.6103896104","89.6103896104","639.493506494","639.493506494","black","no","xpyriment","legacy","legacy","0","208","NA","uniform","66609","1000","0.0150129862331","1","undefined","1","0","76","76","76","0","76","76","76","NA","76","76","0","76","NA","76","76","0","76","NA","76","NA","76","0","0","76","76","0","76","76","77","z","04/02/19 12:24:57","The main experiment item","yes","FIN__BA__M21__7%3A10%3A17.osexp","C:\Users\ERP Testing Room\Desktop\Joanna\morph21","no","mono","no","18","no","white","no","yes","1080","legacy","76","76","C:/Users/ERP Testing Room/Desktop/Joanna/morph21/subject-170.csv","xpyriment","Kafkaesque Koffka","3.2.5","0","z","space","NA","NA","NA","space","z","654","19064","NA","NA","NA","173903","654","2","legacy","1024","2","48000","-16","BA_m21","170","even","FILL_NW","DASP","1884","474602","472952","447483","175800","449399","NA","NA","NA","474597","473450","NA","472452","NA","472447","474597","1896","474952","NA","NA","473602","1884","1884","474002","472446","1884","473602","474952","morph21_Oliver/Morris","69","49241","77","yes","1280","13"
"300","88.4615384615","88.4615384615","638.038461538","638.038461538","black","no","xpyriment","legacy","legacy","0","202","NA","uniform","66335","1000","0.0150749981156","0","undefined","0","0","77","77","77","0","77","77","77","NA","77","77","0","77","NA","77","77","0","77","NA","77","NA","77","0","0","77","77","0","77","77","78","/","04/02/19 12:24:57","The main experiment item","yes","FIN__BA__M21__7%3A10%3A17.osexp","C:\Users\ERP Testing Room\Desktop\Joanna\morph21","no","mono","no","18","no","white","no","yes","1080","legacy","77","77","C:/Users/ERP Testing Room/Desktop/Joanna/morph21/subject-170.csv","xpyriment","Kafkaesque Koffka","3.2.5","0","z","space","NA","NA","NA","space","z","526","19064","NA","NA","NA","173903","526","2","legacy","1024","2","48000","-16","BA_m21","170","even","CW_L","DAMPISH","1884","479278","476044","477769","175800","449399","NA","NA","NA","474597","476541","NA","475544","NA","475539","477761","1896","479578","NA","NA","476769","1884","1884","477161","475539","1884","476769","479578","morph21_Oliver/Morris","69","49767","78","yes","1280","28"
"300","88.6075949367","88.6075949367","637.101265823","637.101265823","black","no","xpyriment","legacy","legacy","0","202","NA","uniform","73695","1000","0.0135694416175","1","undefined","1","0","78","78","78","0","78","78","78","NA","78","78","0","78","NA","78","78","0","78","NA","78","NA","78","0","0","78","78","0","78","78","79","/","04/02/19 12:24:57","The main experiment item","yes","FIN__BA__M21__7%3A10%3A17.osexp","C:\Users\ERP Testing Room\Desktop\Joanna\morph21","no","mono","no","18","no","white","no","yes","1080","legacy","78","78","C:/Users/ERP Testing Room/Desktop/Joanna/morph21/subject-170.csv","xpyriment","Kafkaesque Koffka","3.2.5","0","/","space","NA","NA","NA","space","/","564","19064","NA","NA","NA","173903","564","2","legacy","1024","2","48000","-16","BA_m21","170","even","CW_L","KNOCKER","1884","482403","480719","477769","175800","449399","NA","NA","NA","482398","481217","NA","480219","NA","480214","482398","1896","482703","NA","NA","481403","1884","1884","481803","480214","1884","481403","482703","morph21_Oliver/Morris","70","50331","79","yes","1280","4"
"250","87.5","87.5","637.8125","637.8125","black","no","xpyriment","legacy","legacy","0","201","NA","uniform","64062","1000","0.0156098779308","0","undefined","0","0","79","79","79","0","79","79","79","NA","79","79","0","79","NA","79","79","0","79","NA","79","NA","79","0","0","79","79","0","79","79","80","/","04/02/19 12:24:57","The main experiment item","yes","FIN__BA__M21__7%3A10%3A17.osexp","C:\Users\ERP Testing Room\Desktop\Joanna\morph21","no","mono","no","18","no","white","no","yes","1080","legacy","79","79","C:/Users/ERP Testing Room/Desktop/Joanna/morph21/subject-170.csv","xpyriment","Kafkaesque Koffka","3.2.5","0","z","space","NA","NA","NA","space","z","694","19064","NA","NA","NA","173903","694","2","legacy","1024","2","48000","-16","BA_m21","170","even","CW_S","GRIMLY","1884","485561","483861","477769","175800","449399","NA","NA","NA","482398","484358","NA","483361","NA","483356","485554","1896","485811","NA","NA","484561","1884","1884","484953","483356","1884","484561","485811","morph21_Oliver/Morris","70","51025","80","yes","1280","31"
"400","87.6543209877","87.6543209877","636.777777778","636.777777778","black","no","xpyriment","legacy","legacy","0","208","NA","uniform","68187","1000","0.0146655520847","1","undefined","1","0","80","80","80","0","80","80","80","NA","80","80","0","80","NA","80","80","0","80","NA","80","NA","80","0","0","80","80","0","80","80","81","z","04/02/19 12:24:57","The main experiment item","yes","FIN__BA__M21__7%3A10%3A17.osexp","C:\Users\ERP Testing Room\Desktop\Joanna\morph21","no","mono","no","18","no","white","no","yes","1080","legacy","80","80","C:/Users/ERP Testing Room/Desktop/Joanna/morph21/subject-170.csv","xpyriment","Kafkaesque Koffka","3.2.5","0","z","space","NA","NA","NA","space","z","554","19064","NA","NA","NA","173903","554","2","legacy","1024","2","48000","-16","BA_m21","170","even","FILL_NW","HEND","1884","490362","487162","488854","175800","449399","NA","NA","NA","488845","487659","NA","486662","NA","486657","488845","1896","490763","NA","NA","487854","1884","1884","488246","486657","1884","487854","490763","morph21_Oliver/Morris","71","51579","81","yes","1280","28"
"200","87.8048780488","87.8048780488","636.634146341","636.634146341","black","no","xpyriment","legacy","legacy","0","202","NA","uniform","62993","1000","0.0158747797374","1","undefined","1","0","81","81","81","0","81","81","81","NA","81","81","0","81","NA","81","81","0","81","NA","81","NA","81","0","0","81","81","0","81","81","82","/","04/02/19 12:24:57","The main experiment item","yes","FIN__BA__M21__7%3A10%3A17.osexp","C:\Users\ERP Testing Room\Desktop\Joanna\morph21","no","mono","no","18","no","white","no","yes","1080","legacy","81","81","C:/Users/ERP Testing Room/Desktop/Joanna/morph21/subject-170.csv","xpyriment","Kafkaesque Koffka","3.2.5","0","/","space","NA","NA","NA","space","/","625","19064","NA","NA","NA","173903","625","2","legacy","1024","2","48000","-16","BA_m21","170","even","CW_L","VERBAL","1884","493646","491979","488854","175800","449399","NA","NA","NA","493640","492476","NA","491479","NA","491470","493640","1896","493846","NA","NA","492646","1884","1884","493037","491470","1884","492646","493846","morph21_Oliver/Morris","72","52204","82","yes","1280","50"
"200","87.9518072289","87.9518072289","636.277108434","636.277108434","black","no","xpyriment","legacy","legacy","0","208","NA","uniform","68280","1000","0.0146455770357","1","undefined","1","0","82","82","82","0","82","82","82","NA","82","82","0","82","NA","82","82","0","82","NA","82","NA","82","0","0","82","82","0","82","82","83","z","04/02/19 12:24:57","The main experiment item","yes","FIN__BA__M21__7%3A10%3A17.osexp","C:\Users\ERP Testing Room\Desktop\Joanna\morph21","no","mono","no","18","no","white","no","yes","1080","legacy","82","82","C:/Users/ERP Testing Room/Desktop/Joanna/morph21/subject-170.csv","xpyriment","Kafkaesque Koffka","3.2.5","0","z","space","NA","NA","NA","space","z","607","19064","NA","NA","NA","173903","607","2","legacy","1024","2","48000","-16","BA_m21","170","even","FILL_NW","HOITS","1884","496704","495046","488854","175800","449399","NA","NA","NA","496700","495543","NA","494546","NA","494537","496700","1896","496904","NA","NA","495704","1884","1884","496104","494537","1884","495704","496904","morph21_Oliver/Morris","73","52811","83","yes","1280","30"
"250","88.0952380952","88.0952380952","635.011904762","635.011904762","black","no","xpyriment","legacy","legacy","0","207","NA","uniform","65887","1000","0.0151775008727","1","undefined","1","0","83","83","83","0","83","83","83","NA","83","83","0","83","NA","83","83","0","83","NA","83","NA","83","0","0","83","83","0","83","83","84","/","04/02/19 12:24:57","The main experiment item","yes","FIN__BA__M21__7%3A10%3A17.osexp","C:\Users\ERP Testing Room\Desktop\Joanna\morph21","no","mono","no","18","no","white","no","yes","1080","legacy","83","83","C:/Users/ERP Testing Room/Desktop/Joanna/morph21/subject-170.csv","xpyriment","Kafkaesque Koffka","3.2.5","0","/","space","NA","NA","NA","space","/","530","19064","NA","NA","NA","173903","530","2","legacy","1024","2","48000","-16","BA_m21","170","even","FILL_W","FIERCE","1884","501321","498121","499813","175800","449399","NA","NA","NA","499808","498618","NA","497621","NA","497612","499808","1896","501571","NA","NA","498813","1884","1884","499213","497612","1884","498813","501571","morph21_Oliver/Morris","74","53341","84","yes","1280","24"
"350","88.2352941176","88.2352941176","636.423529412","636.423529412","black","no","xpyriment","legacy","legacy","0","205","NA","uniform","62489","1000","0.0160028164957","1","undefined","1","0","84","84","84","0","84","84","84","NA","84","84","0","84","NA","84","84","0","84","NA","84","NA","84","0","0","84","84","0","84","84","85","z","04/02/19 12:24:57","The main experiment item","yes","FIN__BA__M21__7%3A10%3A17.osexp","C:\Users\ERP Testing Room\Desktop\Joanna\morph21","no","mono","no","18","no","white","no","yes","1080","legacy","84","84","C:/Users/ERP Testing Room/Desktop/Joanna/morph21/subject-170.csv","xpyriment","Kafkaesque Koffka","3.2.5","0","z","space","NA","NA","NA","space","z","755","19064","NA","NA","NA","173903","755","2","legacy","1024","2","48000","-16","BA_m21","170","even","NW_S_SIMP","ACREMENT","1884","504422","502763","499813","175800","449399","NA","NA","NA","504413","503260","NA","502263","NA","502256","504413","1896","504772","NA","NA","503421","1884","1884","503814","502256","1884","503421","504772","morph21_Oliver/Morris","75","54096","85","yes","1280","16"
"400","88.3720930233","88.3720930233","635.720930233","635.720930233","black","no","xpyriment","legacy","legacy","0","202","NA","uniform","63165","1000","0.0158315522837","1","undefined","1","0","85","85","85","0","85","85","85","NA","85","85","0","85","NA","85","85","0","85","NA","85","NA","85","0","0","85","85","0","85","85","86","/","04/02/19 12:24:57","The main experiment item","yes","FIN__BA__M21__7%3A10%3A17.osexp","C:\Users\ERP Testing Room\Desktop\Joanna\morph21","no","mono","no","18","no","white","no","yes","1080","legacy","85","85","C:/Users/ERP Testing Room/Desktop/Joanna/morph21/subject-170.csv","xpyriment","Kafkaesque Koffka","3.2.5","0","/","space","NA","NA","NA","space","/","576","19064","NA","NA","NA","173903","576","2","legacy","1024","2","48000","-16","BA_m21","170","even","CW_L","CONDUCTOR","1884","507648","505989","499813","175800","449399","NA","NA","NA","507638","506486","NA","505489","NA","505483","507638","1896","508048","NA","NA","506648","1884","1884","507039","505483","1884","506647","508048","morph21_Oliver/Morris","76","54672","86","yes","1280","44"
"350","88.5057471264","88.5057471264","635.287356322","635.287356322","black","no","xpyriment","legacy","legacy","0","202","NA","uniform","72328","1000","0.0138259042141","1","undefined","1","0","86","86","86","0","86","86","86","NA","86","86","0","86","NA","86","86","0","86","NA","86","NA","86","0","0","86","86","0","86","86","87","/","04/02/19 12:24:57","The main experiment item","yes","FIN__BA__M21__7%3A10%3A17.osexp","C:\Users\ERP Testing Room\Desktop\Joanna\morph21","no","mono","no","18","no","white","no","yes","1080","legacy","86","86","C:/Users/ERP Testing Room/Desktop/Joanna/morph21/subject-170.csv","xpyriment","Kafkaesque Koffka","3.2.5","0","/","space","NA","NA","NA","space","/","598","19064","NA","NA","NA","173903","598","2","legacy","1024","2","48000","-16","BA_m21","170","even","CW_L","RENTER","1884","512389","509231","510881","175800","449399","NA","NA","NA","510875","509728","NA","508731","NA","508727","510875","1896","512740","NA","NA","509881","1884","1884","510273","508727","1884","509881","512740","morph21_Oliver/Morris","77","55270","87","yes","1280","9"
"400","88.6363636364","88.6363636364","635.284090909","635.284090909","black","no","xpyriment","legacy","legacy","0","207","NA","uniform","65415","1000","0.0152870136819","1","undefined","1","0","87","87","87","0","87","87","87","NA","87","87","0","87","NA","87","87","0","87","NA","87","NA","87","0","0","87","87","0","87","87","88","/","04/02/19 12:24:57","The main experiment item","yes","FIN__BA__M21__7%3A10%3A17.osexp","C:\Users\ERP Testing Room\Desktop\Joanna\morph21","no","mono","no","18","no","white","no","yes","1080","legacy","87","87","C:/Users/ERP Testing Room/Desktop/Joanna/morph21/subject-170.csv","xpyriment","Kafkaesque Koffka","3.2.5","0","/","space","NA","NA","NA","space","/","635","19064","NA","NA","NA","173903","635","2","legacy","1024","2","48000","-16","BA_m21","170","even","FILL_W","QUIT","1884","515556","513873","510881","175800","449399","NA","NA","NA","515551","514370","NA","513373","NA","513365","515551","1896","515956","NA","NA","514556","1884","1884","514956","513365","1884","514556","515956","morph21_Oliver/Morris","78","55905","88","yes","1280","21"
"200","87.6404494382","87.6404494382","639.303370787","639.303370787","black","no","xpyriment","legacy","legacy","0","203","NA","uniform","51571","1000","0.0193907428594","0","undefined","0","0","88","88","88","0","88","88","88","NA","88","88","0","88","NA","88","88","0","88","NA","88","NA","88","0","0","88","88","0","88","88","89","z","04/02/19 12:24:57","The main experiment item","yes","FIN__BA__M21__7%3A10%3A17.osexp","C:\Users\ERP Testing Room\Desktop\Joanna\morph21","no","mono","no","18","no","white","no","yes","1080","legacy","88","88","C:/Users/ERP Testing Room/Desktop/Joanna/morph21/subject-170.csv","xpyriment","Kafkaesque Koffka","3.2.5","0","None","space","NA","NA","NA","space","None","993","19064","NA","NA","NA","173903","993","2","legacy","1024","2","48000","-16","BA_m21","170","even","NW_S_COMP","ADOPTISH","1884","518806","517156","510881","175800","449399","NA","NA","NA","515551","517653","NA","516656","NA","516650","518799","1896","519007","NA","NA","517806","1884","1884","518198","516650","1884","517806","519007","morph21_Oliver/Morris","78","56898","89","yes","1280","19"
"300","87.7777777778","87.7777777778","638.255555556","638.255555556","black","no","xpyriment","legacy","legacy","0","207","NA","uniform","71965","1000","0.0138956437157","1","undefined","1","0","89","89","89","0","89","89","89","NA","89","89","0","89","NA","89","89","0","89","NA","89","NA","89","0","0","89","89","0","89","89","90","/","04/02/19 12:24:57","The main experiment item","yes","FIN__BA__M21__7%3A10%3A17.osexp","C:\Users\ERP Testing Room\Desktop\Joanna\morph21","no","mono","no","18","no","white","no","yes","1080","legacy","89","89","C:/Users/ERP Testing Room/Desktop/Joanna/morph21/subject-170.csv","xpyriment","Kafkaesque Koffka","3.2.5","0","/","space","NA","NA","NA","space","/","545","19064","NA","NA","NA","173903","545","2","legacy","1024","2","48000","-16","BA_m21","170","even","FILL_W","IRON","1884","523332","520140","521824","175800","449399","NA","NA","NA","521814","520637","NA","519640","NA","519632","521814","1896","523633","NA","NA","520823","1884","1884","521216","519631","1884","520823","523633","morph21_Oliver/Morris","79","57443","90","yes","1280","33"
