"ITI","acc","accuracy","average_response_time","avg_rt","background","bidi","canvas_backend","clock_backend","color_backend","compensation","cond_trig","condtrigtime","coordinates","coroutines_cycles","coroutines_duration","coroutines_mean_cycle_duration","correct","correct_instructions_1","correct_new_keyboard_response_1","count_AB_m21","count_ITI","count_blank_screen","count_blink_screen","count_block1","count_break1","count_break2","count_break3_1","count_canvas","count_correct_trigger","count_def_chain","count_end_screen","count_fixation_1","count_getting_started","count_inc_counter","count_incorrect_trigger","count_instructions_1","count_logger","count_logscript","count_new_coroutines","count_new_inline_script","count_new_keyboard_response_1","count_reset_counter_prep","count_reset_counter_run","count_responsescreen","count_sequence","count_start_trigger","count_target_present","count_word_trigger","counter","cresp","datetime","description","disable_garbage_collection","experiment_file","experiment_path","font_bold","font_family","font_italic","font_size","font_underline","foreground","form_clicks","fullscreen","height","keyboard_backend","live_row","live_row_block1","logfile","mouse_backend","opensesame_codename","opensesame_version","repeat_cycle","response","response_break1","response_break2","response_break3_1","response_end_screen","response_instructions_1","response_new_keyboard_response_1","response_time","response_time_break1","response_time_break2","response_time_break3_1","response_time_end_screen","response_time_instructions_1","response_time_new_keyboard_response_1","round_decimals","sampler_backend","sound_buf_size","sound_channels","sound_freq","sound_sample_size","start","subject_nr","subject_parity","targ_type","target","time_AB_m21","time_ITI","time_blank_screen","time_blink_screen","time_block1","time_break1","time_break2","time_break3_1","time_canvas","time_correct_trigger","time_def_chain","time_end_screen","time_fixation_1","time_getting_started","time_inc_counter","time_incorrect_trigger","time_instructions_1","time_logger","time_logscript","time_new_inline_script","time_new_keyboard_response_1","time_reset_counter_prep","time_reset_counter_run","time_responsescreen","time_sequence","time_start_trigger","time_target_present","time_word_trigger","title","total_correct","total_response_time","total_responses","uniform_coordinates","width","word_trig"
"300","0","0","990","990","black","no","xpyriment","legacy","legacy","0","204","NA","uniform","54279","1000","0.0184233313068","0","undefined","0","0","0","0","0","0","0","0","0","NA","0","0","0","0","NA","0","0","0","0","NA","0","NA","0","0","0","0","0","0","0","0","1","z","04/23/19 15:32:53","The main experiment item","yes","FIN__AB__M21__7%3A10%3A17.osexp","C:\Users\ERP Testing Room\Desktop\Joanna\morph21","no","mono","no","18","no","white","no","yes","1080","legacy","0","0","C:/Users/ERP Testing Room/Desktop/Joanna/morph21/subject-174.csv","xpyriment","Kafkaesque Koffka","3.2.5","0","None","NA","NA","NA","NA","/","None","990","NA","NA","NA","NA","84542","990","2","legacy","1024","2","48000","-16","AB_m21","174","even","NW_L_COMP","KINGISM","1801","89119","87460","NA","86363","NA","NA","NA","NA","NA","87958","NA","86956","NA","86881","89110","1820","89419","NA","NA","88119","1801","1801","88510","86881","1801","88119","89419","morph21_Oliver/Morris","0","990","1","yes","1280","19"
"250","0","0","990.5","990.5","black","no","xpyriment","legacy","legacy","0","204","NA","uniform","54800","1000","0.0182481751825","0","undefined","0","0","1","1","1","0","1","1","1","NA","1","1","0","1","NA","1","1","0","1","NA","1","NA","1","0","0","1","1","0","1","1","2","z","04/23/19 15:32:53","The main experiment item","yes","FIN__AB__M21__7%3A10%3A17.osexp","C:\Users\ERP Testing Room\Desktop\Joanna\morph21","no","mono","no","18","no","white","no","yes","1080","legacy","1","1","C:/Users/ERP Testing Room/Desktop/Joanna/morph21/subject-174.csv","xpyriment","Kafkaesque Koffka","3.2.5","0","None","NA","NA","NA","NA","/","None","991","NA","NA","NA","NA","84542","991","2","legacy","1024","2","48000","-16","AB_m21","174","even","NW_L_COMP","BREAKITY","1801","92144","90486","NA","86363","NA","NA","NA","NA","NA","90983","NA","89986","NA","89981","92135","1820","92394","NA","NA","91144","1801","1801","91536","89981","1801","91144","92394","morph21_Oliver/Morris","0","1981","2","yes","1280","23"
"250","33.3333333333","33.3333333333","853","853","black","no","xpyriment","legacy","legacy","0","207","NA","uniform","67847","1000","0.0147390452047","1","undefined","1","0","2","2","2","0","2","2","2","NA","2","2","0","2","NA","2","2","0","2","NA","2","NA","2","0","0","2","2","0","2","2","3","/","04/23/19 15:32:53","The main experiment item","yes","FIN__AB__M21__7%3A10%3A17.osexp","C:\Users\ERP Testing Room\Desktop\Joanna\morph21","no","mono","no","18","no","white","no","yes","1080","legacy","2","2","C:/Users/ERP Testing Room/Desktop/Joanna/morph21/subject-174.csv","xpyriment","Kafkaesque Koffka","3.2.5","0","/","NA","NA","NA","NA","/","/","578","NA","NA","NA","NA","84542","578","2","legacy","1024","2","48000","-16","AB_m21","174","even","FILL_W","SMOKE","1801","96653","93494","95144","86363","NA","NA","NA","NA","95137","93991","NA","92994","NA","92989","95137","1820","96903","NA","NA","94144","1801","1801","94536","92989","1801","94144","96903","morph21_Oliver/Morris","1","2559","3","yes","1280","50"
"400","50","50","831","831","black","no","xpyriment","legacy","legacy","0","201","NA","uniform","62835","1000","0.0159146972229","1","undefined","1","0","3","3","3","0","3","3","3","NA","3","3","0","3","NA","3","3","0","3","NA","3","NA","3","0","0","3","3","0","3","3","4","/","04/23/19 15:32:53","The main experiment item","yes","FIN__AB__M21__7%3A10%3A17.osexp","C:\Users\ERP Testing Room\Desktop\Joanna\morph21","no","mono","no","18","no","white","no","yes","1080","legacy","3","3","C:/Users/ERP Testing Room/Desktop/Joanna/morph21/subject-174.csv","xpyriment","Kafkaesque Koffka","3.2.5","0","/","NA","NA","NA","NA","/","/","765","NA","NA","NA","NA","84542","765","2","legacy","1024","2","48000","-16","AB_m21","174","even","CW_S","WIDOWED","1801","99629","97962","95144","86363","NA","NA","NA","NA","99619","98459","NA","97461","NA","97456","99619","1820","100029","NA","NA","98629","1801","1801","99020","97456","1801","98629","100029","morph21_Oliver/Morris","2","3324","4","yes","1280","7"
"350","40","40","863.8","863.8","black","no","xpyriment","legacy","legacy","0","208","NA","uniform","50114","1000","0.0199545037315","0","undefined","0","0","4","4","4","0","4","4","4","NA","4","4","0","4","NA","4","4","0","4","NA","4","NA","4","0","0","4","4","0","4","4","5","z","04/23/19 15:32:53","The main experiment item","yes","FIN__AB__M21__7%3A10%3A17.osexp","C:\Users\ERP Testing Room\Desktop\Joanna\morph21","no","mono","no","18","no","white","no","yes","1080","legacy","4","4","C:/Users/ERP Testing Room/Desktop/Joanna/morph21/subject-174.csv","xpyriment","Kafkaesque Koffka","3.2.5","0","None","NA","NA","NA","NA","/","None","995","NA","NA","NA","NA","84542","995","2","legacy","1024","2","48000","-16","AB_m21","174","even","FILL_NW","KRAISE","1801","102912","101262","95144","86363","NA","NA","NA","NA","99619","101759","NA","100762","NA","100756","102907","1820","103262","NA","NA","101912","1801","1801","102312","100756","1801","101912","103262","morph21_Oliver/Morris","2","4319","5","yes","1280","33"
"300","50","50","884.333333333","884.333333333","black","no","xpyriment","legacy","legacy","0","206","NA","uniform","54552","1000","0.0183311335973","1","undefined","1","0","5","5","5","0","5","5","5","NA","5","5","0","5","NA","5","5","0","5","NA","5","NA","5","0","0","5","5","0","5","5","6","z","04/23/19 15:32:53","The main experiment item","yes","FIN__AB__M21__7%3A10%3A17.osexp","C:\Users\ERP Testing Room\Desktop\Joanna\morph21","no","mono","no","18","no","white","no","yes","1080","legacy","5","5","C:/Users/ERP Testing Room/Desktop/Joanna/morph21/subject-174.csv","xpyriment","Kafkaesque Koffka","3.2.5","0","z","NA","NA","NA","NA","/","z","987","NA","NA","NA","NA","84542","987","2","legacy","1024","2","48000","-16","AB_m21","174","even","NW_L_SIMP","BEGENGE","1801","107604","104446","106095","86363","NA","NA","NA","NA","106091","104943","NA","103945","NA","103940","106091","1820","107904","NA","NA","105095","1801","1801","105495","103940","1801","105095","107904","morph21_Oliver/Morris","3","5306","6","yes","1280","4"
"300","57.1428571429","57.1428571429","887.714285714","887.714285714","black","no","xpyriment","legacy","legacy","0","203","NA","uniform","48879","1000","0.0204586836883","1","undefined","1","0","6","6","6","0","6","6","6","NA","6","6","0","6","NA","6","6","0","6","NA","6","NA","6","0","0","6","6","0","6","6","7","z","04/23/19 15:32:53","The main experiment item","yes","FIN__AB__M21__7%3A10%3A17.osexp","C:\Users\ERP Testing Room\Desktop\Joanna\morph21","no","mono","no","18","no","white","no","yes","1080","legacy","6","6","C:/Users/ERP Testing Room/Desktop/Joanna/morph21/subject-174.csv","xpyriment","Kafkaesque Koffka","3.2.5","0","z","NA","NA","NA","NA","/","z","908","NA","NA","NA","NA","84542","908","2","legacy","1024","2","48000","-16","AB_m21","174","even","NW_S_COMP","FIGER","1801","110646","108987","106095","86363","NA","NA","NA","NA","110643","109485","NA","108487","NA","108476","110643","1820","110946","NA","NA","109654","1801","1801","110046","108476","1801","109654","110946","morph21_Oliver/Morris","4","6214","7","yes","1280","4"
"350","50","50","867.375","867.375","black","no","xpyriment","legacy","legacy","0","204","NA","uniform","64668","1000","0.0154635986887","0","undefined","0","0","7","7","7","0","7","7","7","NA","7","7","0","7","NA","7","7","0","7","NA","7","NA","7","0","0","7","7","0","7","7","8","z","04/23/19 15:32:53","The main experiment item","yes","FIN__AB__M21__7%3A10%3A17.osexp","C:\Users\ERP Testing Room\Desktop\Joanna\morph21","no","mono","no","18","no","white","no","yes","1080","legacy","7","7","C:/Users/ERP Testing Room/Desktop/Joanna/morph21/subject-174.csv","xpyriment","Kafkaesque Koffka","3.2.5","0","/","NA","NA","NA","NA","/","/","725","NA","NA","NA","NA","84542","725","2","legacy","1024","2","48000","-16","AB_m21","174","even","NW_L_COMP","AGREELY","1801","113812","112146","106095","86363","NA","NA","NA","NA","110643","112643","NA","111646","NA","111635","113806","1820","114163","NA","NA","112813","1801","1801","113204","111635","1801","112812","114163","morph21_Oliver/Morris","4","6939","8","yes","1280","24"
"350","55.5555555556","55.5555555556","868.666666667","868.666666667","black","no","xpyriment","legacy","legacy","0","208","NA","uniform","58786","1000","0.0170108529242","1","undefined","1","0","8","8","8","0","8","8","8","NA","8","8","0","8","NA","8","8","0","8","NA","8","NA","8","0","0","8","8","0","8","8","9","z","04/23/19 15:32:53","The main experiment item","yes","FIN__AB__M21__7%3A10%3A17.osexp","C:\Users\ERP Testing Room\Desktop\Joanna\morph21","no","mono","no","18","no","white","no","yes","1080","legacy","8","8","C:/Users/ERP Testing Room/Desktop/Joanna/morph21/subject-174.csv","xpyriment","Kafkaesque Koffka","3.2.5","0","z","NA","NA","NA","NA","/","z","879","NA","NA","NA","NA","84542","879","2","legacy","1024","2","48000","-16","AB_m21","174","even","FILL_NW","DELP","1801","118489","115322","116980","86363","NA","NA","NA","NA","116974","115819","NA","114813","NA","114802","116974","1820","118839","NA","NA","115980","1801","1801","116372","114802","1801","115980","118839","morph21_Oliver/Morris","5","7818","9","yes","1280","14"
"300","60","60","856.8","856.8","black","no","xpyriment","legacy","legacy","0","206","NA","uniform","61901","1000","0.0161548278703","1","undefined","1","0","9","9","9","0","9","9","9","NA","9","9","0","9","NA","9","9","0","9","NA","9","NA","9","0","0","9","9","0","9","9","10","z","04/23/19 15:32:53","The main experiment item","yes","FIN__AB__M21__7%3A10%3A17.osexp","C:\Users\ERP Testing Room\Desktop\Joanna\morph21","no","mono","no","18","no","white","no","yes","1080","legacy","9","9","C:/Users/ERP Testing Room/Desktop/Joanna/morph21/subject-174.csv","xpyriment","Kafkaesque Koffka","3.2.5","0","z","NA","NA","NA","NA","/","z","750","NA","NA","NA","NA","84542","750","2","legacy","1024","2","48000","-16","AB_m21","174","even","NW_L_SIMP","EARILT","1801","121572","119922","116980","86363","NA","NA","NA","NA","121568","120419","NA","119422","NA","119413","121568","1820","121872","NA","NA","120572","1801","1801","120972","119413","1801","120572","121872","morph21_Oliver/Morris","6","8568","10","yes","1280","12"
"350","63.6363636364","63.6363636364","867.272727273","867.272727273","black","no","xpyriment","legacy","legacy","0","201","NA","uniform","54987","1000","0.0181861167185","1","undefined","1","0","10","10","10","0","10","10","10","NA","10","10","0","10","NA","10","10","0","10","NA","10","NA","10","0","0","10","10","0","10","10","11","/","04/23/19 15:32:53","The main experiment item","yes","FIN__AB__M21__7%3A10%3A17.osexp","C:\Users\ERP Testing Room\Desktop\Joanna\morph21","no","mono","no","18","no","white","no","yes","1080","legacy","10","10","C:/Users/ERP Testing Room/Desktop/Joanna/morph21/subject-174.csv","xpyriment","Kafkaesque Koffka","3.2.5","0","/","NA","NA","NA","NA","/","/","972","NA","NA","NA","NA","84542","972","2","legacy","1024","2","48000","-16","AB_m21","174","even","CW_S","STRANGENESS","1801","124814","123147","116980","86363","NA","NA","NA","NA","124805","123644","NA","122647","NA","122638","124805","1820","125164","NA","NA","123814","1801","1801","124206","122638","1801","123814","125164","morph21_Oliver/Morris","7","9540","11","yes","1280","46"
"250","66.6666666667","66.6666666667","854.833333333","854.833333333","black","no","xpyriment","legacy","legacy","0","202","NA","uniform","65335","1000","0.0153057319966","1","undefined","1","0","11","11","11","0","11","11","11","NA","11","11","0","11","NA","11","11","0","11","NA","11","NA","11","0","0","11","11","0","11","11","12","/","04/23/19 15:32:53","The main experiment item","yes","FIN__AB__M21__7%3A10%3A17.osexp","C:\Users\ERP Testing Room\Desktop\Joanna\morph21","no","mono","no","18","no","white","no","yes","1080","legacy","11","11","C:/Users/ERP Testing Room/Desktop/Joanna/morph21/subject-174.csv","xpyriment","Kafkaesque Koffka","3.2.5","0","/","NA","NA","NA","NA","/","/","718","NA","NA","NA","NA","84542","718","2","legacy","1024","2","48000","-16","AB_m21","174","even","CW_L","DREAMER","1801","129473","126306","127964","86363","NA","NA","NA","NA","127959","126803","NA","125806","NA","125797","127959","1820","129723","NA","NA","126964","1801","1801","127364","125797","1801","126964","129723","morph21_Oliver/Morris","8","10258","12","yes","1280","12"
"300","61.5384615385","61.5384615385","865.307692308","865.307692308","black","no","xpyriment","legacy","legacy","0","202","NA","uniform","54297","1000","0.0184172237877","0","undefined","0","0","12","12","12","0","12","12","12","NA","12","12","0","12","NA","12","12","0","12","NA","12","NA","12","0","0","12","12","0","12","12","13","/","04/23/19 15:32:53","The main experiment item","yes","FIN__AB__M21__7%3A10%3A17.osexp","C:\Users\ERP Testing Room\Desktop\Joanna\morph21","no","mono","no","18","no","white","no","yes","1080","legacy","12","12","C:/Users/ERP Testing Room/Desktop/Joanna/morph21/subject-174.csv","xpyriment","Kafkaesque Koffka","3.2.5","0","None","NA","NA","NA","NA","/","None","991","NA","NA","NA","NA","84542","991","2","legacy","1024","2","48000","-16","AB_m21","174","even","CW_L","DAMPISH","1801","132464","130806","127964","86363","NA","NA","NA","NA","127959","131303","NA","130298","NA","130287","132455","1820","132764","NA","NA","131464","1801","1801","131856","130287","1801","131464","132764","morph21_Oliver/Morris","8","11249","13","yes","1280","28"
"200","64.2857142857","64.2857142857","871.071428571","871.071428571","black","no","xpyriment","legacy","legacy","0","207","NA","uniform","50054","1000","0.0199784233028","1","undefined","1","0","13","13","13","0","13","13","13","NA","13","13","0","13","NA","13","13","0","13","NA","13","NA","13","0","0","13","13","0","13","13","14","/","04/23/19 15:32:53","The main experiment item","yes","FIN__AB__M21__7%3A10%3A17.osexp","C:\Users\ERP Testing Room\Desktop\Joanna\morph21","no","mono","no","18","no","white","no","yes","1080","legacy","13","13","C:/Users/ERP Testing Room/Desktop/Joanna/morph21/subject-174.csv","xpyriment","Kafkaesque Koffka","3.2.5","0","/","NA","NA","NA","NA","/","/","946","NA","NA","NA","NA","84542","946","2","legacy","1024","2","48000","-16","AB_m21","174","even","FILL_W","SAVE","1801","135640","133982","127964","86363","NA","NA","NA","NA","135634","134479","NA","133482","NA","133475","135634","1820","135840","NA","NA","134640","1801","1801","135032","133475","1801","134640","135840","morph21_Oliver/Morris","9","12195","14","yes","1280","46"
"300","66.6666666667","66.6666666667","873.8","873.8","black","no","xpyriment","legacy","legacy","0","205","NA","uniform","56626","1000","0.0176597322785","1","undefined","1","0","14","14","14","0","14","14","14","NA","14","14","0","14","NA","14","14","0","14","NA","14","NA","14","0","0","14","14","0","14","14","15","z","04/23/19 15:32:53","The main experiment item","yes","FIN__AB__M21__7%3A10%3A17.osexp","C:\Users\ERP Testing Room\Desktop\Joanna\morph21","no","mono","no","18","no","white","no","yes","1080","legacy","14","14","C:/Users/ERP Testing Room/Desktop/Joanna/morph21/subject-174.csv","xpyriment","Kafkaesque Koffka","3.2.5","0","z","NA","NA","NA","NA","/","z","912","NA","NA","NA","NA","84542","912","2","legacy","1024","2","48000","-16","AB_m21","174","even","NW_S_SIMP","HELMETOES","1801","140182","136982","138674","86363","NA","NA","NA","NA","138669","137479","NA","136482","NA","136474","138669","1820","140483","NA","NA","137674","1801","1801","138074","136474","1801","137674","140483","morph21_Oliver/Morris","10","13107","15","yes","1280","14"
"350","68.75","68.75","863.8125","863.8125","black","no","xpyriment","legacy","legacy","0","202","NA","uniform","60672","1000","0.0164820675105","1","undefined","1","0","15","15","15","0","15","15","15","NA","15","15","0","15","NA","15","15","0","15","NA","15","NA","15","0","0","15","15","0","15","15","16","/","04/23/19 15:32:53","The main experiment item","yes","FIN__AB__M21__7%3A10%3A17.osexp","C:\Users\ERP Testing Room\Desktop\Joanna\morph21","no","mono","no","18","no","white","no","yes","1080","legacy","15","15","C:/Users/ERP Testing Room/Desktop/Joanna/morph21/subject-174.csv","xpyriment","Kafkaesque Koffka","3.2.5","0","/","NA","NA","NA","NA","/","/","714","NA","NA","NA","NA","84542","714","2","legacy","1024","2","48000","-16","AB_m21","174","even","CW_L","KICKING","1801","143216","141557","138674","86363","NA","NA","NA","NA","143212","142054","NA","141057","NA","141047","143212","1820","143566","NA","NA","142224","1801","1801","142616","141047","1801","142224","143566","morph21_Oliver/Morris","11","13821","16","yes","1280","23"
"300","64.7058823529","64.7058823529","871.235294118","871.235294118","black","no","xpyriment","legacy","legacy","0","205","NA","uniform","53952","1000","0.0185349940688","0","undefined","0","0","16","16","16","0","16","16","16","NA","16","16","0","16","NA","16","16","0","16","NA","16","NA","16","0","0","16","16","0","16","16","17","z","04/23/19 15:32:53","The main experiment item","yes","FIN__AB__M21__7%3A10%3A17.osexp","C:\Users\ERP Testing Room\Desktop\Joanna\morph21","no","mono","no","18","no","white","no","yes","1080","legacy","16","16","C:/Users/ERP Testing Room/Desktop/Joanna/morph21/subject-174.csv","xpyriment","Kafkaesque Koffka","3.2.5","0","None","NA","NA","NA","NA","/","None","990","NA","NA","NA","NA","84542","990","2","legacy","1024","2","48000","-16","AB_m21","174","even","NW_S_SIMP","FEVERIME","1801","146391","144741","138674","86363","NA","NA","NA","NA","143212","145238","NA","144241","NA","144232","146381","1820","146691","NA","NA","145391","1801","1801","145782","144232","1801","145391","146691","morph21_Oliver/Morris","11","14811","17","yes","1280","24"
"300","66.6666666667","66.6666666667","872.055555556","872.055555556","black","no","xpyriment","legacy","legacy","0","205","NA","uniform","54056","1000","0.018499334024","1","undefined","1","0","17","17","17","0","17","17","17","NA","17","17","0","17","NA","17","17","0","17","NA","17","NA","17","0","0","17","17","0","17","17","18","z","04/23/19 15:32:53","The main experiment item","yes","FIN__AB__M21__7%3A10%3A17.osexp","C:\Users\ERP Testing Room\Desktop\Joanna\morph21","no","mono","no","18","no","white","no","yes","1080","legacy","17","17","C:/Users/ERP Testing Room/Desktop/Joanna/morph21/subject-174.csv","xpyriment","Kafkaesque Koffka","3.2.5","0","z","NA","NA","NA","NA","/","z","886","NA","NA","NA","NA","84542","886","2","legacy","1024","2","48000","-16","AB_m21","174","even","NW_S_SIMP","NEXTNELS","1801","151042","147866","149533","86363","NA","NA","NA","NA","149522","148363","NA","147366","NA","147362","149522","1820","151342","NA","NA","148524","1801","1801","148924","147362","1801","148524","151342","morph21_Oliver/Morris","12","15697","18","yes","1280","9"
"200","68.4210526316","68.4210526316","869.421052632","869.421052632","black","no","xpyriment","legacy","legacy","0","208","NA","uniform","54675","1000","0.0182898948331","1","undefined","1","0","18","18","18","0","18","18","18","NA","18","18","0","18","NA","18","18","0","18","NA","18","NA","18","0","0","18","18","0","18","18","19","z","04/23/19 15:32:53","The main experiment item","yes","FIN__AB__M21__7%3A10%3A17.osexp","C:\Users\ERP Testing Room\Desktop\Joanna\morph21","no","mono","no","18","no","white","no","yes","1080","legacy","18","18","C:/Users/ERP Testing Room/Desktop/Joanna/morph21/subject-174.csv","xpyriment","Kafkaesque Koffka","3.2.5","0","z","NA","NA","NA","NA","/","z","822","NA","NA","NA","NA","84542","822","2","legacy","1024","2","48000","-16","AB_m21","174","even","FILL_NW","PUCTS","1801","154092","152426","149533","86363","NA","NA","NA","NA","154082","152923","NA","151925","NA","151916","154082","1820","154292","NA","NA","153092","1801","1801","153484","151916","1801","153092","154292","morph21_Oliver/Morris","13","16519","19","yes","1280","40"
"200","70","70","865.85","865.85","black","no","xpyriment","legacy","legacy","0","208","NA","uniform","58988","1000","0.0169526005289","1","undefined","1","0","19","19","19","0","19","19","19","NA","19","19","0","19","NA","19","19","0","19","NA","19","NA","19","0","0","19","19","0","19","19","20","z","04/23/19 15:32:53","The main experiment item","yes","FIN__AB__M21__7%3A10%3A17.osexp","C:\Users\ERP Testing Room\Desktop\Joanna\morph21","no","mono","no","18","no","white","no","yes","1080","legacy","19","19","C:/Users/ERP Testing Room/Desktop/Joanna/morph21/subject-174.csv","xpyriment","Kafkaesque Koffka","3.2.5","0","z","NA","NA","NA","NA","/","z","798","NA","NA","NA","NA","84542","798","2","legacy","1024","2","48000","-16","AB_m21","174","even","FILL_NW","TUEER","1801","157076","155409","149533","86363","NA","NA","NA","NA","157066","155906","NA","154909","NA","154900","157066","1820","157276","NA","NA","156076","1801","1801","156467","154900","1801","156076","157276","morph21_Oliver/Morris","14","17317","20","yes","1280","44"
"250","71.4285714286","71.4285714286","857.904761905","857.904761905","black","no","xpyriment","legacy","legacy","0","202","NA","uniform","65498","1000","0.0152676417601","1","undefined","1","0","20","20","20","0","20","20","20","NA","20","20","0","20","NA","20","20","0","20","NA","20","NA","20","0","0","20","20","0","20","20","21","/","04/23/19 15:32:53","The main experiment item","yes","FIN__AB__M21__7%3A10%3A17.osexp","C:\Users\ERP Testing Room\Desktop\Joanna\morph21","no","mono","no","18","no","white","no","yes","1080","legacy","20","20","C:/Users/ERP Testing Room/Desktop/Joanna/morph21/subject-174.csv","xpyriment","Kafkaesque Koffka","3.2.5","0","/","NA","NA","NA","NA","/","/","699","NA","NA","NA","NA","84542","699","2","legacy","1024","2","48000","-16","AB_m21","174","even","CW_L","DEAFNESS","1801","161668","158509","160159","86363","NA","NA","NA","NA","160154","159006","NA","158009","NA","157999","160154","1820","161918","NA","NA","159159","1801","1801","159559","157999","1801","159159","161918","morph21_Oliver/Morris","15","18016","21","yes","1280","39"
"400","68.1818181818","68.1818181818","845.772727273","845.772727273","black","no","xpyriment","legacy","legacy","0","203","NA","uniform","70262","1000","0.01423244428","0","undefined","0","0","21","21","21","0","21","21","21","NA","21","21","0","21","NA","21","21","0","21","NA","21","NA","21","0","0","21","21","0","21","21","22","z","04/23/19 15:32:53","The main experiment item","yes","FIN__AB__M21__7%3A10%3A17.osexp","C:\Users\ERP Testing Room\Desktop\Joanna\morph21","no","mono","no","18","no","white","no","yes","1080","legacy","21","21","C:/Users/ERP Testing Room/Desktop/Joanna/morph21/subject-174.csv","xpyriment","Kafkaesque Koffka","3.2.5","0","/","NA","NA","NA","NA","/","/","591","NA","NA","NA","NA","84542","591","2","legacy","1024","2","48000","-16","AB_m21","174","even","NW_S_COMP","TRUENESS","1801","164659","163009","160159","86363","NA","NA","NA","NA","160154","163506","NA","162509","NA","162498","164653","1820","165059","NA","NA","163659","1801","1801","164051","162498","1801","163659","165059","morph21_Oliver/Morris","15","18607","22","yes","1280","15"
"400","69.5652173913","69.5652173913","848.130434783","848.130434783","black","no","xpyriment","legacy","legacy","0","208","NA","uniform","56318","1000","0.017756312369","1","undefined","1","0","22","22","22","0","22","22","22","NA","22","22","0","22","NA","22","22","0","22","NA","22","NA","22","0","0","22","22","0","22","22","23","z","04/23/19 15:32:53","The main experiment item","yes","FIN__AB__M21__7%3A10%3A17.osexp","C:\Users\ERP Testing Room\Desktop\Joanna\morph21","no","mono","no","18","no","white","no","yes","1080","legacy","22","22","C:/Users/ERP Testing Room/Desktop/Joanna/morph21/subject-174.csv","xpyriment","Kafkaesque Koffka","3.2.5","0","z","NA","NA","NA","NA","/","z","900","NA","NA","NA","NA","84542","900","2","legacy","1024","2","48000","-16","AB_m21","174","even","FILL_NW","VELT","1801","167952","166293","160159","86363","NA","NA","NA","NA","167944","166790","NA","165793","NA","165782","167944","1820","168352","NA","NA","166951","1801","1801","167343","165782","1801","166951","168352","morph21_Oliver/Morris","16","19507","23","yes","1280","46"
"250","66.6666666667","66.6666666667","854","854","black","no","xpyriment","legacy","legacy","0","204","NA","uniform","49768","1000","0.0200932325993","0","undefined","0","0","23","23","23","0","23","23","23","NA","23","23","0","23","NA","23","23","0","23","NA","23","NA","23","0","0","23","23","0","23","23","24","z","04/23/19 15:32:53","The main experiment item","yes","FIN__AB__M21__7%3A10%3A17.osexp","C:\Users\ERP Testing Room\Desktop\Joanna\morph21","no","mono","no","18","no","white","no","yes","1080","legacy","23","23","C:/Users/ERP Testing Room/Desktop/Joanna/morph21/subject-174.csv","xpyriment","Kafkaesque Koffka","3.2.5","0","None","NA","NA","NA","NA","/","None","989","NA","NA","NA","NA","84542","989","2","legacy","1024","2","48000","-16","AB_m21","174","even","NW_L_COMP","TRIPARY","1801","172761","169594","171252","86363","NA","NA","NA","NA","167944","170091","NA","169094","NA","169086","171242","1820","173011","NA","NA","170252","1801","1801","170644","169085","1801","170252","173011","morph21_Oliver/Morris","16","20496","24","yes","1280","2"
"250","68","68","842.56","842.56","black","no","xpyriment","legacy","legacy","0","201","NA","uniform","67134","1000","0.0148955819704","1","undefined","1","0","24","24","24","0","24","24","24","NA","24","24","0","24","NA","24","24","0","24","NA","24","NA","24","0","0","24","24","0","24","24","25","/","04/23/19 15:32:53","The main experiment item","yes","FIN__AB__M21__7%3A10%3A17.osexp","C:\Users\ERP Testing Room\Desktop\Joanna\morph21","no","mono","no","18","no","white","no","yes","1080","legacy","24","24","C:/Users/ERP Testing Room/Desktop/Joanna/morph21/subject-174.csv","xpyriment","Kafkaesque Koffka","3.2.5","0","/","NA","NA","NA","NA","/","/","568","NA","NA","NA","NA","84542","568","2","legacy","1024","2","48000","-16","AB_m21","174","even","CW_S","SEEKER","1801","175794","174144","171252","86363","NA","NA","NA","NA","175789","174641","NA","173644","NA","173632","175789","1820","176044","NA","NA","174794","1801","1801","175194","173632","1801","174794","176044","morph21_Oliver/Morris","17","21064","25","yes","1280","16"
"250","69.2307692308","69.2307692308","834.384615385","834.384615385","black","no","xpyriment","legacy","legacy","0","201","NA","uniform","68362","1000","0.014628009713","1","undefined","1","0","25","25","25","0","25","25","25","NA","25","25","0","25","NA","25","25","0","25","NA","25","NA","25","0","0","25","25","0","25","25","26","/","04/23/19 15:32:53","The main experiment item","yes","FIN__AB__M21__7%3A10%3A17.osexp","C:\Users\ERP Testing Room\Desktop\Joanna\morph21","no","mono","no","18","no","white","no","yes","1080","legacy","25","25","C:/Users/ERP Testing Room/Desktop/Joanna/morph21/subject-174.csv","xpyriment","Kafkaesque Koffka","3.2.5","0","/","NA","NA","NA","NA","/","/","630","NA","NA","NA","NA","84542","630","2","legacy","1024","2","48000","-16","AB_m21","174","even","CW_S","COSTLY","1801","178844","177186","171252","86363","NA","NA","NA","NA","178835","177683","NA","176686","NA","176681","178835","1820","179094","NA","NA","177844","1801","1801","178236","176681","1801","177844","179094","morph21_Oliver/Morris","18","21694","26","yes","1280","36"
"350","70.3703703704","70.3703703704","829.222222222","829.222222222","black","no","xpyriment","legacy","legacy","0","202","NA","uniform","61068","1000","0.0163751883147","1","undefined","1","0","26","26","26","0","26","26","26","NA","26","26","0","26","NA","26","26","0","26","NA","26","NA","26","0","0","26","26","0","26","26","27","/","04/23/19 15:32:53","The main experiment item","yes","FIN__AB__M21__7%3A10%3A17.osexp","C:\Users\ERP Testing Room\Desktop\Joanna\morph21","no","mono","no","18","no","white","no","yes","1080","legacy","26","26","C:/Users/ERP Testing Room/Desktop/Joanna/morph21/subject-174.csv","xpyriment","Kafkaesque Koffka","3.2.5","0","/","NA","NA","NA","NA","/","/","695","NA","NA","NA","NA","84542","695","2","legacy","1024","2","48000","-16","AB_m21","174","even","CW_L","HUNTER","1801","183503","180303","181994","86363","NA","NA","NA","NA","181990","180800","NA","179803","NA","179798","181990","1820","183853","NA","NA","181003","1801","1801","181394","179798","1801","181003","183853","morph21_Oliver/Morris","19","22389","27","yes","1280","10"
"300","71.4285714286","71.4285714286","821.285714286","821.285714286","black","no","xpyriment","legacy","legacy","0","207","NA","uniform","62130","1000","0.0160952840818","1","undefined","1","0","27","27","27","0","27","27","27","NA","27","27","0","27","NA","27","27","0","27","NA","27","NA","27","0","0","27","27","0","27","27","28","/","04/23/19 15:32:53","The main experiment item","yes","FIN__AB__M21__7%3A10%3A17.osexp","C:\Users\ERP Testing Room\Desktop\Joanna\morph21","no","mono","no","18","no","white","no","yes","1080","legacy","27","27","C:/Users/ERP Testing Room/Desktop/Joanna/morph21/subject-174.csv","xpyriment","Kafkaesque Koffka","3.2.5","0","/","NA","NA","NA","NA","/","/","607","NA","NA","NA","NA","84542","607","2","legacy","1024","2","48000","-16","AB_m21","174","even","FILL_W","IRON","1801","186596","184928","181994","86363","NA","NA","NA","NA","186588","185425","NA","184428","NA","184419","186588","1820","186896","NA","NA","185596","1801","1801","185987","184419","1801","185596","186896","morph21_Oliver/Morris","20","22996","28","yes","1280","33"
"300","72.4137931034","72.4137931034","825.620689655","825.620689655","black","no","xpyriment","legacy","legacy","0","204","NA","uniform","53943","1000","0.0185380864987","1","undefined","1","0","28","28","28","0","28","28","28","NA","28","28","0","28","NA","28","28","0","28","NA","28","NA","28","0","0","28","28","0","28","28","29","z","04/23/19 15:32:53","The main experiment item","yes","FIN__AB__M21__7%3A10%3A17.osexp","C:\Users\ERP Testing Room\Desktop\Joanna\morph21","no","mono","no","18","no","white","no","yes","1080","legacy","28","28","C:/Users/ERP Testing Room/Desktop/Joanna/morph21/subject-174.csv","xpyriment","Kafkaesque Koffka","3.2.5","0","z","NA","NA","NA","NA","/","z","947","NA","NA","NA","NA","84542","947","2","legacy","1024","2","48000","-16","AB_m21","174","even","NW_L_COMP","ADDMENT","1801","189879","188229","181994","86363","NA","NA","NA","NA","189874","188726","NA","187729","NA","187724","189874","1820","190179","NA","NA","188879","1801","1801","189279","187724","1801","188879","190179","morph21_Oliver/Morris","21","23943","29","yes","1280","13"
"400","73.3333333333","73.3333333333","821.133333333","821.133333333","black","no","xpyriment","legacy","legacy","0","206","NA","uniform","65622","1000","0.0152387918686","1","undefined","1","0","29","29","29","0","29","29","29","NA","29","29","0","29","NA","29","29","0","29","NA","29","NA","29","0","0","29","29","0","29","29","30","z","04/23/19 15:32:53","The main experiment item","yes","FIN__AB__M21__7%3A10%3A17.osexp","C:\Users\ERP Testing Room\Desktop\Joanna\morph21","no","mono","no","18","no","white","no","yes","1080","legacy","29","29","C:/Users/ERP Testing Room/Desktop/Joanna/morph21/subject-174.csv","xpyriment","Kafkaesque Koffka","3.2.5","0","z","NA","NA","NA","NA","/","z","691","NA","NA","NA","NA","84542","691","2","legacy","1024","2","48000","-16","AB_m21","174","even","NW_L_SIMP","BLOODEL","1801","194588","191429","193079","86363","NA","NA","NA","NA","193072","191926","NA","190929","NA","190925","193072","1820","194988","NA","NA","192079","1801","1801","192471","190925","1801","192079","194988","morph21_Oliver/Morris","22","24634","30","yes","1280","24"
"300","74.1935483871","74.1935483871","813.064516129","813.064516129","black","no","xpyriment","legacy","legacy","0","208","NA","uniform","65382","1000","0.0152947294362","1","undefined","1","0","30","30","30","0","30","30","30","NA","30","30","0","30","NA","30","30","0","30","NA","30","NA","30","0","0","30","30","0","30","30","31","z","04/23/19 15:32:53","The main experiment item","yes","FIN__AB__M21__7%3A10%3A17.osexp","C:\Users\ERP Testing Room\Desktop\Joanna\morph21","no","mono","no","18","no","white","no","yes","1080","legacy","30","30","C:/Users/ERP Testing Room/Desktop/Joanna/morph21/subject-174.csv","xpyriment","Kafkaesque Koffka","3.2.5","0","z","NA","NA","NA","NA","/","z","571","NA","NA","NA","NA","84542","571","2","legacy","1024","2","48000","-16","AB_m21","174","even","FILL_NW","VOOFS","1801","197854","196196","193079","86363","NA","NA","NA","NA","197851","196693","NA","195688","NA","195678","197851","1820","198154","NA","NA","196863","1801","1801","197254","195678","1801","196863","198154","morph21_Oliver/Morris","23","25205","31","yes","1280","48"
"250","75","75","809.65625","809.65625","black","no","xpyriment","legacy","legacy","0","201","NA","uniform","57228","1000","0.0174739637939","1","undefined","1","0","31","31","31","0","31","31","31","NA","31","31","0","31","NA","31","31","0","31","NA","31","NA","31","0","0","31","31","0","31","31","32","/","04/23/19 15:32:53","The main experiment item","yes","FIN__AB__M21__7%3A10%3A17.osexp","C:\Users\ERP Testing Room\Desktop\Joanna\morph21","no","mono","no","18","no","white","no","yes","1080","legacy","31","31","C:/Users/ERP Testing Room/Desktop/Joanna/morph21/subject-174.csv","xpyriment","Kafkaesque Koffka","3.2.5","0","/","NA","NA","NA","NA","/","/","704","NA","NA","NA","NA","84542","704","2","legacy","1024","2","48000","-16","AB_m21","174","even","CW_S","NOTICEABLE","1801","200946","199280","193079","86363","NA","NA","NA","NA","200937","199777","NA","198779","NA","198775","200937","1820","201196","NA","NA","199946","1801","1801","200338","198775","1801","199946","201196","morph21_Oliver/Morris","24","25909","32","yes","1280","3"
"200","75.7575757576","75.7575757576","805.848484848","805.848484848","black","no","xpyriment","legacy","legacy","0","201","NA","uniform","65969","1000","0.0151586351165","1","undefined","1","0","32","32","32","0","32","32","32","NA","32","32","0","32","NA","32","32","0","32","NA","32","NA","32","0","0","32","32","0","32","32","33","/","04/23/19 15:32:53","The main experiment item","yes","FIN__AB__M21__7%3A10%3A17.osexp","C:\Users\ERP Testing Room\Desktop\Joanna\morph21","no","mono","no","18","no","white","no","yes","1080","legacy","32","32","C:/Users/ERP Testing Room/Desktop/Joanna/morph21/subject-174.csv","xpyriment","Kafkaesque Koffka","3.2.5","0","/","NA","NA","NA","NA","/","/","684","NA","NA","NA","NA","84542","684","2","legacy","1024","2","48000","-16","AB_m21","174","even","CW_S","LISTENER","1801","205547","202388","204039","86363","NA","NA","NA","NA","204036","202885","NA","201888","NA","201877","204036","1820","205748","NA","NA","203047","1801","1801","203439","201877","1801","203047","205748","morph21_Oliver/Morris","25","26593","33","yes","1280","18"
"300","76.4705882353","76.4705882353","800.529411765","800.529411765","black","no","xpyriment","legacy","legacy","0","202","NA","uniform","68682","1000","0.0145598555662","1","undefined","1","0","33","33","33","0","33","33","33","NA","33","33","0","33","NA","33","33","0","33","NA","33","NA","33","0","0","33","33","0","33","33","34","/","04/23/19 15:32:53","The main experiment item","yes","FIN__AB__M21__7%3A10%3A17.osexp","C:\Users\ERP Testing Room\Desktop\Joanna\morph21","no","mono","no","18","no","white","no","yes","1080","legacy","33","33","C:/Users/ERP Testing Room/Desktop/Joanna/morph21/subject-174.csv","xpyriment","Kafkaesque Koffka","3.2.5","0","/","NA","NA","NA","NA","/","/","625","NA","NA","NA","NA","84542","625","2","legacy","1024","2","48000","-16","AB_m21","174","even","CW_L","HEATER","1801","208481","206822","204039","86363","NA","NA","NA","NA","208475","207320","NA","206322","NA","206314","208475","1820","208781","NA","NA","207481","1801","1801","207872","206314","1801","207481","208781","morph21_Oliver/Morris","26","27218","34","yes","1280","16"
"250","74.2857142857","74.2857142857","805.914285714","805.914285714","black","no","xpyriment","legacy","legacy","0","208","NA","uniform","54103","1000","0.018483263405","0","undefined","0","0","34","34","34","0","34","34","34","NA","34","34","0","34","NA","34","34","0","34","NA","34","NA","34","0","0","34","34","0","34","34","35","z","04/23/19 15:32:53","The main experiment item","yes","FIN__AB__M21__7%3A10%3A17.osexp","C:\Users\ERP Testing Room\Desktop\Joanna\morph21","no","mono","no","18","no","white","no","yes","1080","legacy","34","34","C:/Users/ERP Testing Room/Desktop/Joanna/morph21/subject-174.csv","xpyriment","Kafkaesque Koffka","3.2.5","0","None","NA","NA","NA","NA","/","None","989","NA","NA","NA","NA","84542","989","2","legacy","1024","2","48000","-16","AB_m21","174","even","FILL_NW","DOWED","1801","211656","210023","204039","86363","NA","NA","NA","NA","208475","210520","NA","209523","NA","209511","211653","1820","211906","NA","NA","210664","1801","1801","211056","209511","1801","210664","211906","morph21_Oliver/Morris","26","28207","35","yes","1280","16"
"200","75","75","810.583333333","810.583333333","black","no","xpyriment","legacy","legacy","0","208","NA","uniform","52625","1000","0.0190023752969","1","undefined","1","0","35","35","35","0","35","35","35","NA","35","35","0","35","NA","35","35","0","35","NA","35","NA","35","0","0","35","35","0","35","35","36","z","04/23/19 15:32:53","The main experiment item","yes","FIN__AB__M21__7%3A10%3A17.osexp","C:\Users\ERP Testing Room\Desktop\Joanna\morph21","no","mono","no","18","no","white","no","yes","1080","legacy","35","35","C:/Users/ERP Testing Room/Desktop/Joanna/morph21/subject-174.csv","xpyriment","Kafkaesque Koffka","3.2.5","0","z","NA","NA","NA","NA","/","z","974","NA","NA","NA","NA","84542","974","2","legacy","1024","2","48000","-16","AB_m21","174","even","FILL_NW","HOITS","1801","216273","213098","214764","86363","NA","NA","NA","NA","214757","213595","NA","212598","NA","212594","214757","1820","216473","NA","NA","213764","1801","1801","214156","212594","1801","213764","216473","morph21_Oliver/Morris","27","29181","36","yes","1280","30"
"300","75.6756756757","75.6756756757","806.081081081","806.081081081","black","no","xpyriment","legacy","legacy","0","205","NA","uniform","68048","1000","0.0146955090524","1","undefined","1","0","36","36","36","0","36","36","36","NA","36","36","0","36","NA","36","36","0","36","NA","36","NA","36","0","0","36","36","0","36","36","37","z","04/23/19 15:32:53","The main experiment item","yes","FIN__AB__M21__7%3A10%3A17.osexp","C:\Users\ERP Testing Room\Desktop\Joanna\morph21","no","mono","no","18","no","white","no","yes","1080","legacy","36","36","C:/Users/ERP Testing Room/Desktop/Joanna/morph21/subject-174.csv","xpyriment","Kafkaesque Koffka","3.2.5","0","z","NA","NA","NA","NA","/","z","644","NA","NA","NA","NA","84542","644","2","legacy","1024","2","48000","-16","AB_m21","174","even","NW_S_SIMP","BOLTOES","1801","219198","217548","214764","86363","NA","NA","NA","NA","219192","218045","NA","217048","NA","217043","219192","1820","219498","NA","NA","218198","1801","1801","218590","217043","1801","218198","219498","morph21_Oliver/Morris","28","29825","37","yes","1280","13"
"400","76.3157894737","76.3157894737","808.578947368","808.578947368","black","no","xpyriment","legacy","legacy","0","205","NA","uniform","55613","1000","0.0179814072249","1","undefined","1","0","37","37","37","0","37","37","37","NA","37","37","0","37","NA","37","37","0","37","NA","37","NA","37","0","0","37","37","0","37","37","38","z","04/23/19 15:32:53","The main experiment item","yes","FIN__AB__M21__7%3A10%3A17.osexp","C:\Users\ERP Testing Room\Desktop\Joanna\morph21","no","mono","no","18","no","white","no","yes","1080","legacy","37","37","C:/Users/ERP Testing Room/Desktop/Joanna/morph21/subject-174.csv","xpyriment","Kafkaesque Koffka","3.2.5","0","z","NA","NA","NA","NA","/","z","901","NA","NA","NA","NA","84542","901","2","legacy","1024","2","48000","-16","AB_m21","174","even","NW_S_SIMP","SCHEMENELS","1801","222366","220707","214764","86363","NA","NA","NA","NA","222360","221205","NA","220207","NA","220196","222360","1820","222766","NA","NA","221366","1801","1801","221757","220196","1801","221366","222766","morph21_Oliver/Morris","29","30726","38","yes","1280","15"
"350","76.9230769231","76.9230769231","812.076923077","812.076923077","black","no","xpyriment","legacy","legacy","0","202","NA","uniform","50819","1000","0.019677679608","1","undefined","1","0","38","38","38","0","38","38","38","NA","38","38","0","38","NA","38","38","0","38","NA","38","NA","38","0","0","38","38","0","38","38","39","/","04/23/19 15:32:53","The main experiment item","yes","FIN__AB__M21__7%3A10%3A17.osexp","C:\Users\ERP Testing Room\Desktop\Joanna\morph21","no","mono","no","18","no","white","no","yes","1080","legacy","38","38","C:/Users/ERP Testing Room/Desktop/Joanna/morph21/subject-174.csv","xpyriment","Kafkaesque Koffka","3.2.5","0","/","NA","NA","NA","NA","/","/","945","NA","NA","NA","NA","84542","945","2","legacy","1024","2","48000","-16","AB_m21","174","even","CW_L","PARKING","1801","227149","223991","225641","86363","NA","NA","NA","NA","225637","224488","NA","223491","NA","223481","225637","1820","227500","NA","NA","224649","1801","1801","225041","223481","1801","224649","227500","morph21_Oliver/Morris","30","31671","39","yes","1280","25"
"200","77.5","77.5","809.35","809.35","black","no","xpyriment","legacy","legacy","0","208","NA","uniform","58495","1000","0.017095478246","1","undefined","1","0","39","39","39","0","39","39","39","NA","39","39","0","39","NA","39","39","0","39","NA","39","NA","39","0","0","39","39","0","39","39","40","z","04/23/19 15:32:53","The main experiment item","yes","FIN__AB__M21__7%3A10%3A17.osexp","C:\Users\ERP Testing Room\Desktop\Joanna\morph21","no","mono","no","18","no","white","no","yes","1080","legacy","39","39","C:/Users/ERP Testing Room/Desktop/Joanna/morph21/subject-174.csv","xpyriment","Kafkaesque Koffka","3.2.5","0","z","NA","NA","NA","NA","/","z","703","NA","NA","NA","NA","84542","703","2","legacy","1024","2","48000","-16","AB_m21","174","even","FILL_NW","BLAYS","1801","230274","228574","225641","86363","NA","NA","NA","NA","230268","229072","NA","228074","NA","228068","230268","1820","230474","NA","NA","229275","1801","1801","229666","228068","1801","229274","230474","morph21_Oliver/Morris","31","32374","40","yes","1280","8"
"350","78.0487804878","78.0487804878","808.853658537","808.853658537","black","no","xpyriment","legacy","legacy","0","207","NA","uniform","58163","1000","0.0171930608806","1","undefined","1","0","40","40","40","0","40","40","40","NA","40","40","0","40","NA","40","40","0","40","NA","40","NA","40","0","0","40","40","0","40","40","41","/","04/23/19 15:32:53","The main experiment item","yes","FIN__AB__M21__7%3A10%3A17.osexp","C:\Users\ERP Testing Room\Desktop\Joanna\morph21","no","mono","no","18","no","white","no","yes","1080","legacy","40","40","C:/Users/ERP Testing Room/Desktop/Joanna/morph21/subject-174.csv","xpyriment","Kafkaesque Koffka","3.2.5","0","/","NA","NA","NA","NA","/","/","789","NA","NA","NA","NA","84542","789","2","legacy","1024","2","48000","-16","AB_m21","174","even","FILL_W","WEIRD","1801","233325","231658","225641","86363","NA","NA","NA","NA","233314","232155","NA","231158","NA","231148","233314","1820","233675","NA","NA","232325","1801","1801","232716","231148","1801","232325","233675","morph21_Oliver/Morris","32","33163","41","yes","1280","2"
"400","78.5714285714","78.5714285714","810.904761905","810.904761905","black","no","xpyriment","legacy","legacy","0","206","NA","uniform","57085","1000","0.0175177367084","1","undefined","1","0","41","41","41","0","41","41","41","NA","41","41","0","41","NA","41","41","0","41","NA","41","NA","41","0","0","41","41","0","41","41","42","z","04/23/19 15:32:53","The main experiment item","yes","FIN__AB__M21__7%3A10%3A17.osexp","C:\Users\ERP Testing Room\Desktop\Joanna\morph21","no","mono","no","18","no","white","no","yes","1080","legacy","41","41","C:/Users/ERP Testing Room/Desktop/Joanna/morph21/subject-174.csv","xpyriment","Kafkaesque Koffka","3.2.5","0","z","NA","NA","NA","NA","/","z","895","NA","NA","NA","NA","84542","895","2","legacy","1024","2","48000","-16","AB_m21","174","even","NW_L_SIMP","VALIDEL","1801","238184","234975","236675","86363","NA","NA","NA","NA","236672","235472","NA","234475","NA","234465","236672","1820","238584","NA","NA","235683","1801","1801","236075","234464","1801","235683","238584","morph21_Oliver/Morris","33","34058","42","yes","1280","23"
"350","79.0697674419","79.0697674419","804.930232558","804.930232558","black","no","xpyriment","legacy","legacy","0","201","NA","uniform","64615","1000","0.0154762825969","1","undefined","1","0","42","42","42","0","42","42","42","NA","42","42","0","42","NA","42","42","0","42","NA","42","NA","42","0","0","42","42","0","42","42","43","/","04/23/19 15:32:53","The main experiment item","yes","FIN__AB__M21__7%3A10%3A17.osexp","C:\Users\ERP Testing Room\Desktop\Joanna\morph21","no","mono","no","18","no","white","no","yes","1080","legacy","42","42","C:/Users/ERP Testing Room/Desktop/Joanna/morph21/subject-174.csv","xpyriment","Kafkaesque Koffka","3.2.5","0","/","NA","NA","NA","NA","/","/","554","NA","NA","NA","NA","84542","554","2","legacy","1024","2","48000","-16","AB_m21","174","even","CW_S","TOASTER","1801","241384","239726","236675","86363","NA","NA","NA","NA","241382","240223","NA","239218","NA","239211","241382","1820","241734","NA","NA","240393","1801","1801","240784","239211","1801","240393","241734","morph21_Oliver/Morris","34","34612","43","yes","1280","10"
"250","79.5454545455","79.5454545455","800.25","800.25","black","no","xpyriment","legacy","legacy","0","202","NA","uniform","69470","1000","0.0143947027494","1","undefined","1","0","43","43","43","0","43","43","43","NA","43","43","0","43","NA","43","43","0","43","NA","43","NA","43","0","0","43","43","0","43","43","44","/","04/23/19 15:32:53","The main experiment item","yes","FIN__AB__M21__7%3A10%3A17.osexp","C:\Users\ERP Testing Room\Desktop\Joanna\morph21","no","mono","no","18","no","white","no","yes","1080","legacy","43","43","C:/Users/ERP Testing Room/Desktop/Joanna/morph21/subject-174.csv","xpyriment","Kafkaesque Koffka","3.2.5","0","/","NA","NA","NA","NA","/","/","599","NA","NA","NA","NA","84542","599","2","legacy","1024","2","48000","-16","AB_m21","174","even","CW_L","EXCITEMENT","1801","244643","242951","236675","86363","NA","NA","NA","NA","244635","243448","NA","242451","NA","242443","244635","1820","244893","NA","NA","243643","1801","1801","244034","242443","1801","243643","244893","morph21_Oliver/Morris","35","35211","44","yes","1280","38"
"200","80","80","795.733333333","795.733333333","black","no","xpyriment","legacy","legacy","0","202","NA","uniform","69662","1000","0.0143550285665","1","undefined","1","0","44","44","44","0","44","44","44","NA","44","44","0","44","NA","44","44","0","44","NA","44","NA","44","0","0","44","44","0","44","44","45","/","04/23/19 15:32:53","The main experiment item","yes","FIN__AB__M21__7%3A10%3A17.osexp","C:\Users\ERP Testing Room\Desktop\Joanna\morph21","no","mono","no","18","no","white","no","yes","1080","legacy","44","44","C:/Users/ERP Testing Room/Desktop/Joanna/morph21/subject-174.csv","xpyriment","Kafkaesque Koffka","3.2.5","0","/","NA","NA","NA","NA","/","/","597","NA","NA","NA","NA","84542","597","2","legacy","1024","2","48000","-16","AB_m21","174","even","CW_L","COLLECTOR","1801","249201","246043","247693","86363","NA","NA","NA","NA","247688","246540","NA","245543","NA","245532","247688","1820","249402","NA","NA","246693","1801","1801","247093","245532","1801","246693","249402","morph21_Oliver/Morris","36","35808","45","yes","1280","46"
"250","80.4347826087","80.4347826087","792.413043478","792.413043478","black","no","xpyriment","legacy","legacy","0","207","NA","uniform","62809","1000","0.0159212851661","1","undefined","1","0","45","45","45","0","45","45","45","NA","45","45","0","45","NA","45","45","0","45","NA","45","NA","45","0","0","45","45","0","45","45","46","/","04/23/19 15:32:53","The main experiment item","yes","FIN__AB__M21__7%3A10%3A17.osexp","C:\Users\ERP Testing Room\Desktop\Joanna\morph21","no","mono","no","18","no","white","no","yes","1080","legacy","45","45","C:/Users/ERP Testing Room/Desktop/Joanna/morph21/subject-174.csv","xpyriment","Kafkaesque Koffka","3.2.5","0","/","NA","NA","NA","NA","/","/","643","NA","NA","NA","NA","84542","643","2","legacy","1024","2","48000","-16","AB_m21","174","even","FILL_W","STARVE","1801","252135","250485","247693","86363","NA","NA","NA","NA","252130","250982","NA","249985","NA","249981","252130","1820","252385","NA","NA","251135","1801","1801","251535","249980","1801","251135","252385","morph21_Oliver/Morris","37","36451","46","yes","1280","15"
"250","80.8510638298","80.8510638298","792.063829787","792.063829787","black","no","xpyriment","legacy","legacy","0","204","NA","uniform","61244","1000","0.0163281301025","1","undefined","1","0","46","46","46","0","46","46","46","NA","46","46","0","46","NA","46","46","0","46","NA","46","NA","46","0","0","46","46","0","46","46","47","z","04/23/19 15:32:53","The main experiment item","yes","FIN__AB__M21__7%3A10%3A17.osexp","C:\Users\ERP Testing Room\Desktop\Joanna\morph21","no","mono","no","18","no","white","no","yes","1080","legacy","46","46","C:/Users/ERP Testing Room/Desktop/Joanna/morph21/subject-174.csv","xpyriment","Kafkaesque Koffka","3.2.5","0","z","NA","NA","NA","NA","/","z","776","NA","NA","NA","NA","84542","776","2","legacy","1024","2","48000","-16","AB_m21","174","even","NW_L_COMP","MUDLY","1801","255219","253560","247693","86363","NA","NA","NA","NA","255210","254057","NA","253060","NA","253053","255210","1820","255469","NA","NA","254218","1801","1801","254610","253053","1801","254218","255469","morph21_Oliver/Morris","38","37227","47","yes","1280","12"
"250","81.25","81.25","792.166666667","792.166666667","black","no","xpyriment","legacy","legacy","0","206","NA","uniform","61865","1000","0.0161642285622","1","undefined","1","0","47","47","47","0","47","47","47","NA","47","47","0","47","NA","47","47","0","47","NA","47","NA","47","0","0","47","47","0","47","47","48","z","04/23/19 15:32:53","The main experiment item","yes","FIN__AB__M21__7%3A10%3A17.osexp","C:\Users\ERP Testing Room\Desktop\Joanna\morph21","no","mono","no","18","no","white","no","yes","1080","legacy","47","47","C:/Users/ERP Testing Room/Desktop/Joanna/morph21/subject-174.csv","xpyriment","Kafkaesque Koffka","3.2.5","0","z","NA","NA","NA","NA","/","z","797","NA","NA","NA","NA","84542","797","2","legacy","1024","2","48000","-16","AB_m21","174","even","NW_L_SIMP","BEARILT","1801","259803","256619","258294","86363","NA","NA","NA","NA","258285","257116","NA","256119","NA","256114","258285","1820","260053","NA","NA","257294","1801","1801","257686","256114","1801","257294","260053","morph21_Oliver/Morris","39","38024","48","yes","1280","25"
"400","81.6326530612","81.6326530612","791.510204082","791.510204082","black","no","xpyriment","legacy","legacy","0","204","NA","uniform","59577","1000","0.0167850009232","1","undefined","1","0","48","48","48","0","48","48","48","NA","48","48","0","48","NA","48","48","0","48","NA","48","NA","48","0","0","48","48","0","48","48","49","z","04/23/19 15:32:53","The main experiment item","yes","FIN__AB__M21__7%3A10%3A17.osexp","C:\Users\ERP Testing Room\Desktop\Joanna\morph21","no","mono","no","18","no","white","no","yes","1080","legacy","48","48","C:/Users/ERP Testing Room/Desktop/Joanna/morph21/subject-174.csv","xpyriment","Kafkaesque Koffka","3.2.5","0","z","NA","NA","NA","NA","/","z","760","NA","NA","NA","NA","84542","760","2","legacy","1024","2","48000","-16","AB_m21","174","even","NW_L_COMP","RIPENCE","1801","262786","261128","258294","86363","NA","NA","NA","NA","262776","261625","NA","260628","NA","260618","262776","1820","263186","NA","NA","261786","1801","1801","262178","260618","1801","261786","263186","morph21_Oliver/Morris","40","38784","49","yes","1280","4"
"350","80","80","795.04","795.04","black","no","xpyriment","legacy","legacy","0","202","NA","uniform","53279","1000","0.0187691210421","0","undefined","0","0","49","49","49","0","49","49","49","NA","49","49","0","49","NA","49","49","0","49","NA","49","NA","49","0","0","49","49","0","49","49","50","/","04/23/19 15:32:53","The main experiment item","yes","FIN__AB__M21__7%3A10%3A17.osexp","C:\Users\ERP Testing Room\Desktop\Joanna\morph21","no","mono","no","18","no","white","no","yes","1080","legacy","49","49","C:/Users/ERP Testing Room/Desktop/Joanna/morph21/subject-174.csv","xpyriment","Kafkaesque Koffka","3.2.5","0","z","NA","NA","NA","NA","/","z","968","NA","NA","NA","NA","84542","968","2","legacy","1024","2","48000","-16","AB_m21","174","even","CW_L","BARKER","1801","265986","264328","258294","86363","NA","NA","NA","NA","262776","264825","NA","263828","NA","263821","265982","1820","266336","NA","NA","264986","1801","1801","265386","263821","1801","264986","266336","morph21_Oliver/Morris","40","39752","50","yes","1280","2"
"250","80.3921568627","80.3921568627","791.37254902","791.37254902","black","no","xpyriment","legacy","legacy","0","207","NA","uniform","69365","1000","0.0144164924674","1","undefined","1","0","50","50","50","0","50","50","50","NA","50","50","0","50","NA","50","50","0","50","NA","50","NA","50","0","0","50","50","0","50","50","51","/","04/23/19 15:32:53","The main experiment item","yes","FIN__AB__M21__7%3A10%3A17.osexp","C:\Users\ERP Testing Room\Desktop\Joanna\morph21","no","mono","no","18","no","white","no","yes","1080","legacy","50","50","C:/Users/ERP Testing Room/Desktop/Joanna/morph21/subject-174.csv","xpyriment","Kafkaesque Koffka","3.2.5","0","/","NA","NA","NA","NA","/","/","608","NA","NA","NA","NA","84542","608","2","legacy","1024","2","48000","-16","AB_m21","174","even","FILL_W","FIERCE","1801","270678","267511","269170","86363","NA","NA","NA","NA","269164","268009","NA","267011","NA","267003","269164","1820","270928","NA","NA","268170","1801","1801","268561","267003","1801","268170","270928","morph21_Oliver/Morris","41","40360","51","yes","1280","24"
"400","80.7692307692","80.7692307692","791.134615385","791.134615385","black","no","xpyriment","legacy","legacy","0","207","NA","uniform","56073","1000","0.017833895101","1","undefined","1","0","51","51","51","0","51","51","51","NA","51","51","0","51","NA","51","51","0","51","NA","51","NA","51","0","0","51","51","0","51","51","52","/","04/23/19 15:32:53","The main experiment item","yes","FIN__AB__M21__7%3A10%3A17.osexp","C:\Users\ERP Testing Room\Desktop\Joanna\morph21","no","mono","no","18","no","white","no","yes","1080","legacy","51","51","C:/Users/ERP Testing Room/Desktop/Joanna/morph21/subject-174.csv","xpyriment","Kafkaesque Koffka","3.2.5","0","/","NA","NA","NA","NA","/","/","779","NA","NA","NA","NA","84542","779","2","legacy","1024","2","48000","-16","AB_m21","174","even","FILL_W","CHIP","1801","273688","271995","269170","86363","NA","NA","NA","NA","273684","272492","NA","271495","NA","271485","273684","1820","274088","NA","NA","272696","1801","1801","273088","271485","1801","272696","274088","morph21_Oliver/Morris","42","41139","52","yes","1280","11"
"350","81.1320754717","81.1320754717","787.452830189","787.452830189","black","no","xpyriment","legacy","legacy","0","208","NA","uniform","69276","1000","0.0144350135689","1","undefined","1","0","52","52","52","0","52","52","52","NA","52","52","0","52","NA","52","52","0","52","NA","52","NA","52","0","0","52","52","0","52","52","53","z","04/23/19 15:32:53","The main experiment item","yes","FIN__AB__M21__7%3A10%3A17.osexp","C:\Users\ERP Testing Room\Desktop\Joanna\morph21","no","mono","no","18","no","white","no","yes","1080","legacy","52","52","C:/Users/ERP Testing Room/Desktop/Joanna/morph21/subject-174.csv","xpyriment","Kafkaesque Koffka","3.2.5","0","z","NA","NA","NA","NA","/","z","596","NA","NA","NA","NA","84542","596","2","legacy","1024","2","48000","-16","AB_m21","174","even","FILL_NW","DOADS","1801","277029","275379","269170","86363","NA","NA","NA","NA","277027","275877","NA","274879","NA","274871","277027","1820","277379","NA","NA","276038","1801","1801","276429","274871","1801","276038","277379","morph21_Oliver/Morris","43","41735","53","yes","1280","15"
"300","81.4814814815","81.4814814815","787.888888889","787.888888889","black","no","xpyriment","legacy","legacy","0","203","NA","uniform","60950","1000","0.0164068908942","1","undefined","1","0","53","53","53","0","53","53","53","NA","53","53","0","53","NA","53","53","0","53","NA","53","NA","53","0","0","53","53","0","53","53","54","z","04/23/19 15:32:53","The main experiment item","yes","FIN__AB__M21__7%3A10%3A17.osexp","C:\Users\ERP Testing Room\Desktop\Joanna\morph21","no","mono","no","18","no","white","no","yes","1080","legacy","53","53","C:/Users/ERP Testing Room/Desktop/Joanna/morph21/subject-174.csv","xpyriment","Kafkaesque Koffka","3.2.5","0","z","NA","NA","NA","NA","/","z","811","NA","NA","NA","NA","84542","811","2","legacy","1024","2","48000","-16","AB_m21","174","even","NW_S_COMP","CURTITY","1801","281780","278613","280271","86363","NA","NA","NA","NA","280264","279110","NA","278113","NA","278102","280264","1820","282080","NA","NA","279271","1801","1801","279663","278102","1801","279271","282080","morph21_Oliver/Morris","44","42546","54","yes","1280","11"
"350","81.8181818182","81.8181818182","783.109090909","783.109090909","black","no","xpyriment","legacy","legacy","0","201","NA","uniform","71879","1000","0.0139122692302","1","undefined","1","0","54","54","54","0","54","54","54","NA","54","54","0","54","NA","54","54","0","54","NA","54","NA","54","0","0","54","54","0","54","54","55","/","04/23/19 15:32:53","The main experiment item","yes","FIN__AB__M21__7%3A10%3A17.osexp","C:\Users\ERP Testing Room\Desktop\Joanna\morph21","no","mono","no","18","no","white","no","yes","1080","legacy","54","54","C:/Users/ERP Testing Room/Desktop/Joanna/morph21/subject-174.csv","xpyriment","Kafkaesque Koffka","3.2.5","0","/","NA","NA","NA","NA","/","/","525","NA","NA","NA","NA","84542","525","2","legacy","1024","2","48000","-16","AB_m21","174","even","CW_S","BOSSY","1801","284805","283155","280271","86363","NA","NA","NA","NA","284800","283652","NA","282655","NA","282650","284800","1820","285155","NA","NA","283805","1801","1801","284205","282650","1801","283805","285155","morph21_Oliver/Morris","45","43071","55","yes","1280","49"
"200","82.1428571429","82.1428571429","778.464285714","778.464285714","black","no","xpyriment","legacy","legacy","0","207","NA","uniform","72764","1000","0.0137430597548","1","undefined","1","0","55","55","55","0","55","55","55","NA","55","55","0","55","NA","55","55","0","55","NA","55","NA","55","0","0","55","55","0","55","55","56","/","04/23/19 15:32:53","The main experiment item","yes","FIN__AB__M21__7%3A10%3A17.osexp","C:\Users\ERP Testing Room\Desktop\Joanna\morph21","no","mono","no","18","no","white","no","yes","1080","legacy","55","55","C:/Users/ERP Testing Room/Desktop/Joanna/morph21/subject-174.csv","xpyriment","Kafkaesque Koffka","3.2.5","0","/","NA","NA","NA","NA","/","/","523","NA","NA","NA","NA","84542","523","2","legacy","1024","2","48000","-16","AB_m21","174","even","FILL_W","BLEAK","1801","288055","286388","280271","86363","NA","NA","NA","NA","288047","286885","NA","285888","NA","285884","288047","1820","288255","NA","NA","287055","1801","1801","287446","285884","1801","287055","288255","morph21_Oliver/Morris","46","43594","56","yes","1280","5"
"300","82.4561403509","82.4561403509","775.912280702","775.912280702","black","no","xpyriment","legacy","legacy","0","208","NA","uniform","67416","1000","0.0148332740002","1","undefined","1","0","56","56","56","0","56","56","56","NA","56","56","0","56","NA","56","56","0","56","NA","56","NA","56","0","0","56","56","0","56","56","57","z","04/23/19 15:32:53","The main experiment item","yes","FIN__AB__M21__7%3A10%3A17.osexp","C:\Users\ERP Testing Room\Desktop\Joanna\morph21","no","mono","no","18","no","white","no","yes","1080","legacy","56","56","C:/Users/ERP Testing Room/Desktop/Joanna/morph21/subject-174.csv","xpyriment","Kafkaesque Koffka","3.2.5","0","z","NA","NA","NA","NA","/","z","633","NA","NA","NA","NA","84542","633","2","legacy","1024","2","48000","-16","AB_m21","174","even","FILL_NW","KEMT","1801","292639","289472","291131","86363","NA","NA","NA","NA","291123","289969","NA","288963","NA","288951","291123","1820","292940","NA","NA","290130","1801","1801","290523","288951","1801","290130","292940","morph21_Oliver/Morris","47","44227","57","yes","1280","32"
"350","81.0344827586","81.0344827586","779.637931034","779.637931034","black","no","xpyriment","legacy","legacy","0","201","NA","uniform","53927","1000","0.0185435867005","0","undefined","0","0","57","57","57","0","57","57","57","NA","57","57","0","57","NA","57","57","0","57","NA","57","NA","57","0","0","57","57","0","57","57","58","/","04/23/19 15:32:53","The main experiment item","yes","FIN__AB__M21__7%3A10%3A17.osexp","C:\Users\ERP Testing Room\Desktop\Joanna\morph21","no","mono","no","18","no","white","no","yes","1080","legacy","57","57","C:/Users/ERP Testing Room/Desktop/Joanna/morph21/subject-174.csv","xpyriment","Kafkaesque Koffka","3.2.5","0","None","NA","NA","NA","NA","/","None","992","NA","NA","NA","NA","84542","992","2","legacy","1024","2","48000","-16","AB_m21","174","even","CW_S","LENDER","1801","295706","294023","291131","86363","NA","NA","NA","NA","291123","294520","NA","293523","NA","293513","295698","1820","296056","NA","NA","294706","1801","1801","295098","293513","1801","294706","296056","morph21_Oliver/Morris","47","45219","58","yes","1280","11"
"400","81.3559322034","81.3559322034","775.288135593","775.288135593","black","no","xpyriment","legacy","legacy","0","202","NA","uniform","73033","1000","0.0136924404037","1","undefined","1","0","58","58","58","0","58","58","58","NA","58","58","0","58","NA","58","58","0","58","NA","58","NA","58","0","0","58","58","0","58","58","59","/","04/23/19 15:32:53","The main experiment item","yes","FIN__AB__M21__7%3A10%3A17.osexp","C:\Users\ERP Testing Room\Desktop\Joanna\morph21","no","mono","no","18","no","white","no","yes","1080","legacy","58","58","C:/Users/ERP Testing Room/Desktop/Joanna/morph21/subject-174.csv","xpyriment","Kafkaesque Koffka","3.2.5","0","/","NA","NA","NA","NA","/","/","523","NA","NA","NA","NA","84542","523","2","legacy","1024","2","48000","-16","AB_m21","174","even","CW_L","FAITHFUL","1801","298831","297165","291131","86363","NA","NA","NA","NA","298826","297662","NA","296665","NA","296658","298826","1820","299231","NA","NA","297831","1801","1801","298223","296658","1801","297831","299231","morph21_Oliver/Morris","48","45742","59","yes","1280","20"
"250","81.6666666667","81.6666666667","772.783333333","772.783333333","black","no","xpyriment","legacy","legacy","0","208","NA","uniform","66443","1000","0.0150504944087","1","undefined","1","0","59","59","59","0","59","59","59","NA","59","59","0","59","NA","59","59","0","59","NA","59","NA","59","0","0","59","59","0","59","59","60","z","04/23/19 15:32:53","The main experiment item","yes","FIN__AB__M21__7%3A10%3A17.osexp","C:\Users\ERP Testing Room\Desktop\Joanna\morph21","no","mono","no","18","no","white","no","yes","1080","legacy","59","59","C:/Users/ERP Testing Room/Desktop/Joanna/morph21/subject-174.csv","xpyriment","Kafkaesque Koffka","3.2.5","0","z","NA","NA","NA","NA","/","z","625","NA","NA","NA","NA","84542","625","2","legacy","1024","2","48000","-16","AB_m21","174","even","FILL_NW","POLT","1801","303565","300365","302056","86363","NA","NA","NA","NA","302052","300862","NA","299856","NA","299846","302052","1820","303815","NA","NA","301057","1801","1801","301456","299846","1801","301057","303815","morph21_Oliver/Morris","49","46367","60","yes","1280","38"
"400","81.9672131148","81.9672131148","770.147540984","770.147540984","black","no","xpyriment","legacy","legacy","0","202","NA","uniform","65841","1000","0.0151881046764","1","undefined","1","0","60","60","60","0","60","60","60","NA","60","60","0","60","NA","60","60","0","60","NA","60","NA","60","0","0","60","60","0","60","60","61","/","04/23/19 15:32:53","The main experiment item","yes","FIN__AB__M21__7%3A10%3A17.osexp","C:\Users\ERP Testing Room\Desktop\Joanna\morph21","no","mono","no","18","no","white","no","yes","1080","legacy","60","60","C:/Users/ERP Testing Room/Desktop/Joanna/morph21/subject-174.csv","xpyriment","Kafkaesque Koffka","3.2.5","0","/","NA","NA","NA","NA","/","/","612","NA","NA","NA","NA","84542","612","2","legacy","1024","2","48000","-16","AB_m21","174","even","CW_L","BLINDNESS","1801","306590","304940","302056","86363","NA","NA","NA","NA","306585","305437","NA","304440","NA","304430","306585","1820","306990","NA","NA","305590","1801","1801","305990","304430","1801","305590","306990","morph21_Oliver/Morris","50","46979","61","yes","1280","40"
"400","82.2580645161","82.2580645161","770.677419355","770.677419355","black","no","xpyriment","legacy","legacy","0","202","NA","uniform","58700","1000","0.0170357751278","1","undefined","1","0","61","61","61","0","61","61","61","NA","61","61","0","61","NA","61","61","0","61","NA","61","NA","61","0","0","61","61","0","61","61","62","/","04/23/19 15:32:53","The main experiment item","yes","FIN__AB__M21__7%3A10%3A17.osexp","C:\Users\ERP Testing Room\Desktop\Joanna\morph21","no","mono","no","18","no","white","no","yes","1080","legacy","61","61","C:/Users/ERP Testing Room/Desktop/Joanna/morph21/subject-174.csv","xpyriment","Kafkaesque Koffka","3.2.5","0","/","NA","NA","NA","NA","/","/","803","NA","NA","NA","NA","84542","803","2","legacy","1024","2","48000","-16","AB_m21","174","even","CW_L","SHAPELY","1801","309825","308166","302056","86363","NA","NA","NA","NA","309816","308663","NA","307666","NA","307659","309816","1820","310225","NA","NA","308824","1801","1801","309216","307659","1801","308824","310225","morph21_Oliver/Morris","51","47782","62","yes","1280","35"
"400","82.5396825397","82.5396825397","770.365079365","770.365079365","black","no","xpyriment","legacy","legacy","0","204","NA","uniform","61648","1000","0.016221126395","1","undefined","1","0","62","62","62","0","62","62","62","NA","62","62","0","62","NA","62","62","0","62","NA","62","NA","62","0","0","62","62","0","62","62","63","z","04/23/19 15:32:53","The main experiment item","yes","FIN__AB__M21__7%3A10%3A17.osexp","C:\Users\ERP Testing Room\Desktop\Joanna\morph21","no","mono","no","18","no","white","no","yes","1080","legacy","62","62","C:/Users/ERP Testing Room/Desktop/Joanna/morph21/subject-174.csv","xpyriment","Kafkaesque Koffka","3.2.5","0","z","NA","NA","NA","NA","/","z","751","NA","NA","NA","NA","84542","751","2","legacy","1024","2","48000","-16","AB_m21","174","even","NW_L_COMP","COLDITY","1801","314600","311441","313091","86363","NA","NA","NA","NA","313084","311938","NA","310941","NA","310931","313084","1820","315000","NA","NA","312091","1801","1801","312483","310931","1801","312091","315000","morph21_Oliver/Morris","52","48533","63","yes","1280","10"
"250","81.25","81.25","771.09375","771.09375","black","no","xpyriment","legacy","legacy","0","201","NA","uniform","61219","1000","0.0163347980202","0","undefined","0","0","63","63","63","0","63","63","63","NA","63","63","0","63","NA","63","63","0","63","NA","63","NA","63","0","0","63","63","0","63","63","64","/","04/23/19 15:32:53","The main experiment item","yes","FIN__AB__M21__7%3A10%3A17.osexp","C:\Users\ERP Testing Room\Desktop\Joanna\morph21","no","mono","no","18","no","white","no","yes","1080","legacy","63","63","C:/Users/ERP Testing Room/Desktop/Joanna/morph21/subject-174.csv","xpyriment","Kafkaesque Koffka","3.2.5","0","z","NA","NA","NA","NA","/","z","817","NA","NA","NA","NA","84542","817","2","legacy","1024","2","48000","-16","AB_m21","174","even","CW_S","GRIMLY","1801","317816","316150","313091","86363","NA","NA","NA","NA","313084","316647","NA","315650","NA","315641","317809","1820","318066","NA","NA","316817","1801","1801","317208","315641","1801","316816","318066","morph21_Oliver/Morris","52","49350","64","yes","1280","31"
"250","81.5384615385","81.5384615385","768.353846154","768.353846154","black","no","xpyriment","legacy","legacy","0","205","NA","uniform","70038","1000","0.0142779633913","1","undefined","1","0","64","64","64","0","64","64","64","NA","64","64","0","64","NA","64","64","0","64","NA","64","NA","64","0","0","64","64","0","64","64","65","z","04/23/19 15:32:53","The main experiment item","yes","FIN__AB__M21__7%3A10%3A17.osexp","C:\Users\ERP Testing Room\Desktop\Joanna\morph21","no","mono","no","18","no","white","no","yes","1080","legacy","64","64","C:/Users/ERP Testing Room/Desktop/Joanna/morph21/subject-174.csv","xpyriment","Kafkaesque Koffka","3.2.5","0","z","NA","NA","NA","NA","/","z","593","NA","NA","NA","NA","84542","593","2","legacy","1024","2","48000","-16","AB_m21","174","even","NW_S_SIMP","DIGODY","1801","320825","319175","313091","86363","NA","NA","NA","NA","320818","319672","NA","318675","NA","318670","320818","1820","321075","NA","NA","319825","1801","1801","320217","318670","1801","319825","321075","morph21_Oliver/Morris","53","49943","65","yes","1280","11"
"300","81.8181818182","81.8181818182","764.96969697","764.96969697","black","no","xpyriment","legacy","legacy","0","202","NA","uniform","70375","1000","0.0142095914742","1","undefined","1","0","65","65","65","0","65","65","65","NA","65","65","0","65","NA","65","65","0","65","NA","65","NA","65","0","0","65","65","0","65","65","66","/","04/23/19 15:32:53","The main experiment item","yes","FIN__AB__M21__7%3A10%3A17.osexp","C:\Users\ERP Testing Room\Desktop\Joanna\morph21","no","mono","no","18","no","white","no","yes","1080","legacy","65","65","C:/Users/ERP Testing Room/Desktop/Joanna/morph21/subject-174.csv","xpyriment","Kafkaesque Koffka","3.2.5","0","/","NA","NA","NA","NA","/","/","545","NA","NA","NA","NA","84542","545","2","legacy","1024","2","48000","-16","AB_m21","174","even","CW_L","DOUBTFUL","1801","325335","322167","323825","86363","NA","NA","NA","NA","323816","322664","NA","321667","NA","321661","323816","1820","325635","NA","NA","322825","1801","1801","323217","321661","1801","322825","325635","morph21_Oliver/Morris","54","50488","66","yes","1280","21"
"300","82.0895522388","82.0895522388","765.76119403","765.76119403","black","no","xpyriment","legacy","legacy","0","207","NA","uniform","62676","1000","0.0159550705214","1","undefined","1","0","66","66","66","0","66","66","66","NA","66","66","0","66","NA","66","66","0","66","NA","66","NA","66","0","0","66","66","0","66","66","67","/","04/23/19 15:32:53","The main experiment item","yes","FIN__AB__M21__7%3A10%3A17.osexp","C:\Users\ERP Testing Room\Desktop\Joanna\morph21","no","mono","no","18","no","white","no","yes","1080","legacy","66","66","C:/Users/ERP Testing Room/Desktop/Joanna/morph21/subject-174.csv","xpyriment","Kafkaesque Koffka","3.2.5","0","/","NA","NA","NA","NA","/","/","818","NA","NA","NA","NA","84542","818","2","legacy","1024","2","48000","-16","AB_m21","174","even","FILL_W","BLUNT","1801","328393","326693","323825","86363","NA","NA","NA","NA","328386","327190","NA","326193","NA","326190","328386","1820","328693","NA","NA","327393","1801","1801","327785","326190","1801","327393","328693","morph21_Oliver/Morris","55","51306","67","yes","1280","4"
"250","82.3529411765","82.3529411765","769.014705882","769.014705882","black","no","xpyriment","legacy","legacy","0","203","NA","uniform","54628","1000","0.018305630812","1","undefined","1","0","67","67","67","0","67","67","67","NA","67","67","0","67","NA","67","67","0","67","NA","67","NA","67","0","0","67","67","0","67","67","68","z","04/23/19 15:32:53","The main experiment item","yes","FIN__AB__M21__7%3A10%3A17.osexp","C:\Users\ERP Testing Room\Desktop\Joanna\morph21","no","mono","no","18","no","white","no","yes","1080","legacy","67","67","C:/Users/ERP Testing Room/Desktop/Joanna/morph21/subject-174.csv","xpyriment","Kafkaesque Koffka","3.2.5","0","z","NA","NA","NA","NA","/","z","987","NA","NA","NA","NA","84542","987","2","legacy","1024","2","48000","-16","AB_m21","174","even","NW_S_COMP","BRANCHER","1801","331535","329868","323825","86363","NA","NA","NA","NA","331526","330365","NA","329368","NA","329357","331526","1820","331785","NA","NA","330535","1801","1801","330926","329357","1801","330535","331785","morph21_Oliver/Morris","56","52293","68","yes","1280","16"
"200","82.6086956522","82.6086956522","769.884057971","769.884057971","black","no","xpyriment","legacy","legacy","0","206","NA","uniform","59973","1000","0.0166741700432","1","undefined","1","0","68","68","68","0","68","68","68","NA","68","68","0","68","NA","68","68","0","68","NA","68","NA","68","0","0","68","68","0","68","68","69","z","04/23/19 15:32:53","The main experiment item","yes","FIN__AB__M21__7%3A10%3A17.osexp","C:\Users\ERP Testing Room\Desktop\Joanna\morph21","no","mono","no","18","no","white","no","yes","1080","legacy","68","68","C:/Users/ERP Testing Room/Desktop/Joanna/morph21/subject-174.csv","xpyriment","Kafkaesque Koffka","3.2.5","0","z","NA","NA","NA","NA","/","z","829","NA","NA","NA","NA","84542","829","2","legacy","1024","2","48000","-16","AB_m21","174","even","NW_L_SIMP","GROWILT","1801","336202","333043","334693","86363","NA","NA","NA","NA","334688","333540","NA","332543","NA","332537","334688","1820","336402","NA","NA","333693","1801","1801","334093","332537","1801","333693","336402","morph21_Oliver/Morris","57","53122","69","yes","1280","20"
"200","82.8571428571","82.8571428571","768.642857143","768.642857143","black","no","xpyriment","legacy","legacy","0","204","NA","uniform","62499","1000","0.0160002560041","1","undefined","1","0","69","69","69","0","69","69","69","NA","69","69","0","69","NA","69","69","0","69","NA","69","NA","69","0","0","69","69","0","69","69","70","z","04/23/19 15:32:53","The main experiment item","yes","FIN__AB__M21__7%3A10%3A17.osexp","C:\Users\ERP Testing Room\Desktop\Joanna\morph21","no","mono","no","18","no","white","no","yes","1080","legacy","69","69","C:/Users/ERP Testing Room/Desktop/Joanna/morph21/subject-174.csv","xpyriment","Kafkaesque Koffka","3.2.5","0","z","NA","NA","NA","NA","/","z","683","NA","NA","NA","NA","84542","683","2","legacy","1024","2","48000","-16","AB_m21","174","even","NW_L_COMP","FLIPORY","1801","339135","337485","334693","86363","NA","NA","NA","NA","339130","337982","NA","336985","NA","336980","339130","1820","339335","NA","NA","338135","1801","1801","338535","336980","1801","338135","339335","morph21_Oliver/Morris","58","53805","70","yes","1280","16"
"200","83.0985915493","83.0985915493","769.028169014","769.028169014","black","no","xpyriment","legacy","legacy","0","208","NA","uniform","62142","1000","0.016092175984","1","undefined","1","0","70","70","70","0","70","70","70","NA","70","70","0","70","NA","70","70","0","70","NA","70","NA","70","0","0","70","70","0","70","70","71","z","04/23/19 15:32:53","The main experiment item","yes","FIN__AB__M21__7%3A10%3A17.osexp","C:\Users\ERP Testing Room\Desktop\Joanna\morph21","no","mono","no","18","no","white","no","yes","1080","legacy","70","70","C:/Users/ERP Testing Room/Desktop/Joanna/morph21/subject-174.csv","xpyriment","Kafkaesque Koffka","3.2.5","0","z","NA","NA","NA","NA","/","z","796","NA","NA","NA","NA","84542","796","2","legacy","1024","2","48000","-16","AB_m21","174","even","FILL_NW","HESK","1801","342102","340452","334693","86363","NA","NA","NA","NA","342097","340949","NA","339944","NA","339935","342097","1820","342302","NA","NA","341102","1801","1801","341502","339935","1801","341102","342302","morph21_Oliver/Morris","59","54601","71","yes","1280","29"
"350","83.3333333333","83.3333333333","771.555555556","771.555555556","black","no","xpyriment","legacy","legacy","0","202","NA","uniform","47885","1000","0.0208833663987","1","undefined","1","0","71","71","71","0","71","71","71","NA","71","71","0","71","NA","71","71","0","71","NA","71","NA","71","0","0","71","71","0","71","71","72","/","04/23/19 15:32:53","The main experiment item","yes","FIN__AB__M21__7%3A10%3A17.osexp","C:\Users\ERP Testing Room\Desktop\Joanna\morph21","no","mono","no","18","no","white","no","yes","1080","legacy","71","71","C:/Users/ERP Testing Room/Desktop/Joanna/morph21/subject-174.csv","xpyriment","Kafkaesque Koffka","3.2.5","0","/","NA","NA","NA","NA","/","/","951","NA","NA","NA","NA","84542","951","2","legacy","1024","2","48000","-16","AB_m21","174","even","CW_L","FEEDER","1801","346736","343561","345228","86363","NA","NA","NA","NA","345225","344058","NA","343061","NA","343057","345225","1820","347087","NA","NA","344236","1801","1801","344628","343057","1801","344236","347087","morph21_Oliver/Morris","60","55552","72","yes","1280","14"
"200","83.5616438356","83.5616438356","770.479452055","770.479452055","black","no","xpyriment","legacy","legacy","0","208","NA","uniform","65195","1000","0.0153385995859","1","undefined","1","0","72","72","72","0","72","72","72","NA","72","72","0","72","NA","72","72","0","72","NA","72","NA","72","0","0","72","72","0","72","72","73","z","04/23/19 15:32:53","The main experiment item","yes","FIN__AB__M21__7%3A10%3A17.osexp","C:\Users\ERP Testing Room\Desktop\Joanna\morph21","no","mono","no","18","no","white","no","yes","1080","legacy","72","72","C:/Users/ERP Testing Room/Desktop/Joanna/morph21/subject-174.csv","xpyriment","Kafkaesque Koffka","3.2.5","0","z","NA","NA","NA","NA","/","z","693","NA","NA","NA","NA","84542","693","2","legacy","1024","2","48000","-16","AB_m21","174","even","FILL_NW","FALONS","1801","349836","348178","345228","86363","NA","NA","NA","NA","349833","348675","NA","347678","NA","347666","349833","1820","350037","NA","NA","348845","1801","1801","349236","347666","1801","348845","350037","morph21_Oliver/Morris","61","56245","73","yes","1280","19"
"350","83.7837837838","83.7837837838","771.540540541","771.540540541","black","no","xpyriment","legacy","legacy","0","204","NA","uniform","59701","1000","0.0167501381886","1","undefined","1","0","73","73","73","0","73","73","73","NA","73","73","0","73","NA","73","73","0","73","NA","73","NA","73","0","0","73","73","0","73","73","74","z","04/23/19 15:32:53","The main experiment item","yes","FIN__AB__M21__7%3A10%3A17.osexp","C:\Users\ERP Testing Room\Desktop\Joanna\morph21","no","mono","no","18","no","white","no","yes","1080","legacy","73","73","C:/Users/ERP Testing Room/Desktop/Joanna/morph21/subject-174.csv","xpyriment","Kafkaesque Koffka","3.2.5","0","z","NA","NA","NA","NA","/","z","849","NA","NA","NA","NA","84542","849","2","legacy","1024","2","48000","-16","AB_m21","174","even","NW_L_COMP","MOUTHIZE","1801","352937","351278","345228","86363","NA","NA","NA","NA","352928","351775","NA","350778","NA","350771","352928","1820","353287","NA","NA","351937","1801","1801","352328","350771","1801","351937","353287","morph21_Oliver/Morris","62","57094","74","yes","1280","11"
"350","82.6666666667","82.6666666667","774.533333333","774.533333333","black","no","xpyriment","legacy","legacy","0","207","NA","uniform","53604","1000","0.0186553242295","undefined","undefined","0","0","74","74","74","0","74","74","74","NA","74","74","0","74","NA","74","74","0","74","NA","74","NA","74","0","0","74","74","0","74","74","75","/","04/23/19 15:32:53","The main experiment item","yes","FIN__AB__M21__7%3A10%3A17.osexp","C:\Users\ERP Testing Room\Desktop\Joanna\morph21","no","mono","no","18","no","white","no","yes","1080","legacy","74","74","C:/Users/ERP Testing Room/Desktop/Joanna/morph21/subject-174.csv","xpyriment","Kafkaesque Koffka","3.2.5","0","space","space","NA","NA","NA","/","None","12716","12716","NA","NA","NA","84542","996","2","legacy","1024","2","48000","-16","AB_m21","174","even","FILL_W","LIFT","1801","357712","354553","356203","86363","358070","NA","NA","NA","352928","355051","NA","354053","NA","354044","356199","1820","370787","NA","NA","355203","1801","1801","355603","354043","1801","355203","358062","morph21_Oliver/Morris","62","58090","75","yes","1280","39"
"200","82.8947368421","82.8947368421","772.776315789","772.776315789","black","no","xpyriment","legacy","legacy","0","208","NA","uniform","66565","1000","0.0150229099377","1","undefined","1","0","75","75","75","0","75","75","75","NA","75","75","0","75","NA","75","75","0","75","NA","75","NA","75","0","0","75","75","0","75","75","76","z","04/23/19 15:32:53","The main experiment item","yes","FIN__AB__M21__7%3A10%3A17.osexp","C:\Users\ERP Testing Room\Desktop\Joanna\morph21","no","mono","no","18","no","white","no","yes","1080","legacy","75","75","C:/Users/ERP Testing Room/Desktop/Joanna/morph21/subject-174.csv","xpyriment","Kafkaesque Koffka","3.2.5","0","z","space","NA","NA","NA","/","z","641","12716","NA","NA","NA","84542","641","2","legacy","1024","2","48000","-16","AB_m21","174","even","FILL_NW","BROUPS","1801","373497","371830","356203","86363","358070","NA","NA","NA","373488","372327","NA","371330","NA","371322","373488","1820","373697","NA","NA","372497","1801","1801","372888","371322","1801","372497","373697","morph21_Oliver/Morris","63","58731","76","yes","1280","4"
"350","83.1168831169","83.1168831169","771.506493506","771.506493506","black","no","xpyriment","legacy","legacy","0","202","NA","uniform","64375","1000","0.0155339805825","1","undefined","1","0","76","76","76","0","76","76","76","NA","76","76","0","76","NA","76","76","0","76","NA","76","NA","76","0","0","76","76","0","76","76","77","/","04/23/19 15:32:53","The main experiment item","yes","FIN__AB__M21__7%3A10%3A17.osexp","C:\Users\ERP Testing Room\Desktop\Joanna\morph21","no","mono","no","18","no","white","no","yes","1080","legacy","76","76","C:/Users/ERP Testing Room/Desktop/Joanna/morph21/subject-174.csv","xpyriment","Kafkaesque Koffka","3.2.5","0","/","space","NA","NA","NA","/","/","675","12716","NA","NA","NA","84542","675","2","legacy","1024","2","48000","-16","AB_m21","174","even","CW_L","BOMBER","1801","376655","374989","356203","86363","358070","NA","NA","NA","376647","375486","NA","374489","NA","374481","376647","1820","377005","NA","NA","375655","1801","1801","376047","374481","1801","375655","377005","morph21_Oliver/Morris","64","59406","77","yes","1280","7"
"350","83.3333333333","83.3333333333","768.833333333","768.833333333","black","no","xpyriment","legacy","legacy","0","202","NA","uniform","68089","1000","0.0146866601066","1","undefined","1","0","77","77","77","0","77","77","77","NA","77","77","0","77","NA","77","77","0","77","NA","77","NA","77","0","0","77","77","0","77","77","78","/","04/23/19 15:32:53","The main experiment item","yes","FIN__AB__M21__7%3A10%3A17.osexp","C:\Users\ERP Testing Room\Desktop\Joanna\morph21","no","mono","no","18","no","white","no","yes","1080","legacy","77","77","C:/Users/ERP Testing Room/Desktop/Joanna/morph21/subject-174.csv","xpyriment","Kafkaesque Koffka","3.2.5","0","/","space","NA","NA","NA","/","/","563","12716","NA","NA","NA","84542","563","2","legacy","1024","2","48000","-16","AB_m21","174","even","CW_L","EDITOR","1801","381365","378165","379856","86363","358070","NA","NA","NA","379847","378662","NA","377665","NA","377656","379847","1820","381715","NA","NA","378856","1801","1801","379248","377656","1801","378856","381715","morph21_Oliver/Morris","65","59969","78","yes","1280","45"
"250","83.5443037975","83.5443037975","770.151898734","770.151898734","black","no","xpyriment","legacy","legacy","0","201","NA","uniform","57750","1000","0.017316017316","1","undefined","1","0","78","78","78","0","78","78","78","NA","78","78","0","78","NA","78","78","0","78","NA","78","NA","78","0","0","78","78","0","78","78","79","/","04/23/19 15:32:53","The main experiment item","yes","FIN__AB__M21__7%3A10%3A17.osexp","C:\Users\ERP Testing Room\Desktop\Joanna\morph21","no","mono","no","18","no","white","no","yes","1080","legacy","78","78","C:/Users/ERP Testing Room/Desktop/Joanna/morph21/subject-174.csv","xpyriment","Kafkaesque Koffka","3.2.5","0","/","space","NA","NA","NA","/","/","873","12716","NA","NA","NA","84542","873","2","legacy","1024","2","48000","-16","AB_m21","174","even","CW_S","MILDNESS","1801","384457","382798","379856","86363","358070","NA","NA","NA","384454","383295","NA","382298","NA","382292","384454","1820","384707","NA","NA","383465","1801","1801","383857","382292","1801","383465","384707","morph21_Oliver/Morris","66","60842","79","yes","1280","42"
"250","83.75","83.75","769.55","769.55","black","no","xpyriment","legacy","legacy","0","207","NA","uniform","61980","1000","0.0161342368506","1","undefined","1","0","79","79","79","0","79","79","79","NA","79","79","0","79","NA","79","79","0","79","NA","79","NA","79","0","0","79","79","0","79","79","80","/","04/23/19 15:32:53","The main experiment item","yes","FIN__AB__M21__7%3A10%3A17.osexp","C:\Users\ERP Testing Room\Desktop\Joanna\morph21","no","mono","no","18","no","white","no","yes","1080","legacy","79","79","C:/Users/ERP Testing Room/Desktop/Joanna/morph21/subject-174.csv","xpyriment","Kafkaesque Koffka","3.2.5","0","/","space","NA","NA","NA","/","/","722","12716","NA","NA","NA","84542","722","2","legacy","1024","2","48000","-16","AB_m21","174","even","FILL_W","SUIT","1801","387640","385973","379856","86363","358070","NA","NA","NA","387632","386471","NA","385473","NA","385470","387632","1820","387890","NA","NA","386640","1801","1801","387032","385470","1801","386640","387890","morph21_Oliver/Morris","67","61564","80","yes","1280","49"
"300","83.950617284","83.950617284","765.530864198","765.530864198","black","no","xpyriment","legacy","legacy","0","201","NA","uniform","75177","1000","0.0133019407532","1","undefined","1","0","80","80","80","0","80","80","80","NA","80","80","0","80","NA","80","80","0","80","NA","80","NA","80","0","0","80","80","0","80","80","81","/","04/23/19 15:32:53","The main experiment item","yes","FIN__AB__M21__7%3A10%3A17.osexp","C:\Users\ERP Testing Room\Desktop\Joanna\morph21","no","mono","no","18","no","white","no","yes","1080","legacy","80","80","C:/Users/ERP Testing Room/Desktop/Joanna/morph21/subject-174.csv","xpyriment","Kafkaesque Koffka","3.2.5","0","/","space","NA","NA","NA","/","/","444","12716","NA","NA","NA","84542","444","2","legacy","1024","2","48000","-16","AB_m21","174","even","CW_S","ATTACKER","1801","392290","389090","390782","86363","358070","NA","NA","NA","390775","389587","NA","388590","NA","388586","390775","1820","392591","NA","NA","389782","1801","1801","390174","388586","1801","389782","392591","morph21_Oliver/Morris","68","62008","81","yes","1280","20"
"200","84.1463414634","84.1463414634","764.963414634","764.963414634","black","no","xpyriment","legacy","legacy","0","201","NA","uniform","64592","1000","0.0154817934109","1","undefined","1","0","81","81","81","0","81","81","81","NA","81","81","0","81","NA","81","81","0","81","NA","81","NA","81","0","0","81","81","0","81","81","82","/","04/23/19 15:32:53","The main experiment item","yes","FIN__AB__M21__7%3A10%3A17.osexp","C:\Users\ERP Testing Room\Desktop\Joanna\morph21","no","mono","no","18","no","white","no","yes","1080","legacy","81","81","C:/Users/ERP Testing Room/Desktop/Joanna/morph21/subject-174.csv","xpyriment","Kafkaesque Koffka","3.2.5","0","/","space","NA","NA","NA","/","/","719","12716","NA","NA","NA","84542","719","2","legacy","1024","2","48000","-16","AB_m21","174","even","CW_S","LOCALLY","1801","395333","393682","390782","86363","358070","NA","NA","NA","395330","394179","NA","393182","NA","393174","395330","1820","395533","NA","NA","394340","1801","1801","394732","393174","1801","394340","395533","morph21_Oliver/Morris","69","62727","82","yes","1280","37"
"300","84.3373493976","84.3373493976","765.771084337","765.771084337","black","no","xpyriment","legacy","legacy","0","204","NA","uniform","53054","1000","0.0188487201719","1","undefined","1","0","82","82","82","0","82","82","82","NA","82","82","0","82","NA","82","82","0","82","NA","82","NA","82","0","0","82","82","0","82","82","83","z","04/23/19 15:32:53","The main experiment item","yes","FIN__AB__M21__7%3A10%3A17.osexp","C:\Users\ERP Testing Room\Desktop\Joanna\morph21","no","mono","no","18","no","white","no","yes","1080","legacy","82","82","C:/Users/ERP Testing Room/Desktop/Joanna/morph21/subject-174.csv","xpyriment","Kafkaesque Koffka","3.2.5","0","z","space","NA","NA","NA","/","z","832","12716","NA","NA","NA","84542","832","2","legacy","1024","2","48000","-16","AB_m21","174","even","NW_L_COMP","NORTHIZE","1801","398475","396817","390782","86363","358070","NA","NA","NA","398467","397314","NA","396317","NA","396307","398467","1820","398775","NA","NA","397475","1801","1801","397867","396307","1801","397475","398775","morph21_Oliver/Morris","70","63559","83","yes","1280","20"
"400","83.3333333333","83.3333333333","768.416666667","768.416666667","black","no","xpyriment","legacy","legacy","0","202","NA","uniform","53916","1000","0.0185473699829","0","undefined","0","0","83","83","83","0","83","83","83","NA","83","83","0","83","NA","83","83","0","83","NA","83","NA","83","0","0","83","83","0","83","83","84","/","04/23/19 15:32:53","The main experiment item","yes","FIN__AB__M21__7%3A10%3A17.osexp","C:\Users\ERP Testing Room\Desktop\Joanna\morph21","no","mono","no","18","no","white","no","yes","1080","legacy","83","83","C:/Users/ERP Testing Room/Desktop/Joanna/morph21/subject-174.csv","xpyriment","Kafkaesque Koffka","3.2.5","0","None","space","NA","NA","NA","/","None","988","12716","NA","NA","NA","84542","988","2","legacy","1024","2","48000","-16","AB_m21","174","even","CW_L","SPELLER","1801","403234","400058","401725","86363","358070","NA","NA","NA","398467","400555","NA","399558","NA","399547","401721","1820","403634","NA","NA","400733","1801","1801","401125","399547","1801","400733","403634","morph21_Oliver/Morris","70","64547","84","yes","1280","3"
"350","83.5294117647","83.5294117647","767.211764706","767.211764706","black","no","xpyriment","legacy","legacy","0","208","NA","uniform","61957","1000","0.016140226286","1","undefined","1","0","84","84","84","0","84","84","84","NA","84","84","0","84","NA","84","84","0","84","NA","84","NA","84","0","0","84","84","0","84","84","85","z","04/23/19 15:32:53","The main experiment item","yes","FIN__AB__M21__7%3A10%3A17.osexp","C:\Users\ERP Testing Room\Desktop\Joanna\morph21","no","mono","no","18","no","white","no","yes","1080","legacy","84","84","C:/Users/ERP Testing Room/Desktop/Joanna/morph21/subject-174.csv","xpyriment","Kafkaesque Koffka","3.2.5","0","z","space","NA","NA","NA","/","z","666","12716","NA","NA","NA","84542","666","2","legacy","1024","2","48000","-16","AB_m21","174","even","FILL_NW","DARF","1801","406392","404725","401725","86363","358070","NA","NA","NA","406383","405222","NA","404225","NA","404217","406383","1820","406742","NA","NA","405392","1801","1801","405784","404217","1801","405392","406742","morph21_Oliver/Morris","71","65213","85","yes","1280","10"
"250","83.7209302326","83.7209302326","768.848837209","768.848837209","black","no","xpyriment","legacy","legacy","0","204","NA","uniform","57595","1000","0.0173626182828","1","undefined","1","0","85","85","85","0","85","85","85","NA","85","85","0","85","NA","85","85","0","85","NA","85","NA","85","0","0","85","85","0","85","85","86","z","04/23/19 15:32:53","The main experiment item","yes","FIN__AB__M21__7%3A10%3A17.osexp","C:\Users\ERP Testing Room\Desktop\Joanna\morph21","no","mono","no","18","no","white","no","yes","1080","legacy","85","85","C:/Users/ERP Testing Room/Desktop/Joanna/morph21/subject-174.csv","xpyriment","Kafkaesque Koffka","3.2.5","0","z","space","NA","NA","NA","/","z","908","12716","NA","NA","NA","84542","908","2","legacy","1024","2","48000","-16","AB_m21","174","even","NW_L_COMP","STIRANCE","1801","409542","407884","401725","86363","358070","NA","NA","NA","409536","408381","NA","407384","NA","407373","409536","1820","409792","NA","NA","408542","1801","1801","408934","407372","1801","408542","409792","morph21_Oliver/Morris","72","66121","86","yes","1280","1"
"300","83.908045977","83.908045977","769.011494253","769.011494253","black","no","xpyriment","legacy","legacy","0","201","NA","uniform","62018","1000","0.0161243509949","1","undefined","1","0","86","86","86","0","86","86","86","NA","86","86","0","86","NA","86","86","0","86","NA","86","NA","86","0","0","86","86","0","86","86","87","/","04/23/19 15:32:53","The main experiment item","yes","FIN__AB__M21__7%3A10%3A17.osexp","C:\Users\ERP Testing Room\Desktop\Joanna\morph21","no","mono","no","18","no","white","no","yes","1080","legacy","86","86","C:/Users/ERP Testing Room/Desktop/Joanna/morph21/subject-174.csv","xpyriment","Kafkaesque Koffka","3.2.5","0","/","space","NA","NA","NA","/","/","783","12716","NA","NA","NA","84542","783","2","legacy","1024","2","48000","-16","AB_m21","174","even","CW_S","DETECTABLE","1801","414168","410975","412660","86363","358070","NA","NA","NA","412652","411473","NA","410475","NA","410472","412652","1820","414469","NA","NA","411659","1801","1801","412050","410471","1801","411659","414469","morph21_Oliver/Morris","73","66904","87","yes","1280","1"
"350","84.0909090909","84.0909090909","766.465909091","766.465909091","black","no","xpyriment","legacy","legacy","0","204","NA","uniform","71792","1000","0.0139291285937","1","undefined","1","0","87","87","87","0","87","87","87","NA","87","87","0","87","NA","87","87","0","87","NA","87","NA","87","0","0","87","87","0","87","87","88","z","04/23/19 15:32:53","The main experiment item","yes","FIN__AB__M21__7%3A10%3A17.osexp","C:\Users\ERP Testing Room\Desktop\Joanna\morph21","no","mono","no","18","no","white","no","yes","1080","legacy","87","87","C:/Users/ERP Testing Room/Desktop/Joanna/morph21/subject-174.csv","xpyriment","Kafkaesque Koffka","3.2.5","0","z","space","NA","NA","NA","/","z","545","12716","NA","NA","NA","84542","545","2","legacy","1024","2","48000","-16","AB_m21","174","even","NW_L_COMP","INKISM","1801","417210","415543","412660","86363","358070","NA","NA","NA","417202","416041","NA","415043","NA","415037","417202","1820","417560","NA","NA","416210","1801","1801","416602","415037","1801","416210","417560","morph21_Oliver/Morris","74","67449","88","yes","1280","8"
"350","84.2696629213","84.2696629213","763.516853933","763.516853933","black","no","xpyriment","legacy","legacy","0","208","NA","uniform","68091","1000","0.0146862287233","1","undefined","1","0","88","88","88","0","88","88","88","NA","88","88","0","88","NA","88","88","0","88","NA","88","NA","88","0","0","88","88","0","88","88","89","z","04/23/19 15:32:53","The main experiment item","yes","FIN__AB__M21__7%3A10%3A17.osexp","C:\Users\ERP Testing Room\Desktop\Joanna\morph21","no","mono","no","18","no","white","no","yes","1080","legacy","88","88","C:/Users/ERP Testing Room/Desktop/Joanna/morph21/subject-174.csv","xpyriment","Kafkaesque Koffka","3.2.5","0","z","space","NA","NA","NA","/","z","504","12716","NA","NA","NA","84542","504","2","legacy","1024","2","48000","-16","AB_m21","174","even","FILL_NW","JADS","1801","420402","418752","412660","86363","358070","NA","NA","NA","420399","419249","NA","418252","NA","418241","420399","1820","420752","NA","NA","419410","1801","1801","419802","418241","1801","419410","420752","morph21_Oliver/Morris","75","67953","89","yes","1280","31"
"300","84.4444444444","84.4444444444","762.588888889","762.588888889","black","no","xpyriment","legacy","legacy","0","204","NA","uniform","65903","1000","0.015173816063","1","undefined","1","0","89","89","89","0","89","89","89","NA","89","89","0","89","NA","89","89","0","89","NA","89","NA","89","0","0","89","89","0","89","89","90","z","04/23/19 15:32:53","The main experiment item","yes","FIN__AB__M21__7%3A10%3A17.osexp","C:\Users\ERP Testing Room\Desktop\Joanna\morph21","no","mono","no","18","no","white","no","yes","1080","legacy","89","89","C:/Users/ERP Testing Room/Desktop/Joanna/morph21/subject-174.csv","xpyriment","Kafkaesque Koffka","3.2.5","0","z","space","NA","NA","NA","/","z","680","12716","NA","NA","NA","84542","680","2","legacy","1024","2","48000","-16","AB_m21","174","even","NW_L_COMP","FELLOWOUS","1801","425119","421952","423610","86363","358070","NA","NA","NA","423605","422449","NA","421452","NA","421448","423605","1820","425419","NA","NA","422610","1801","1801","423010","421448","1801","422610","425419","morph21_Oliver/Morris","76","68633","90","yes","1280","17"
"350","84.6153846154","84.6153846154","762.923076923","762.923076923","black","no","xpyriment","legacy","legacy","0","201","NA","uniform","61397","1000","0.0162874407544","1","undefined","1","0","90","90","90","0","90","90","90","NA","90","90","0","90","NA","90","90","0","90","NA","90","NA","90","0","0","90","90","0","90","90","91","/","04/23/19 15:32:53","The main experiment item","yes","FIN__AB__M21__7%3A10%3A17.osexp","C:\Users\ERP Testing Room\Desktop\Joanna\morph21","no","mono","no","18","no","white","no","yes","1080","legacy","90","90","C:/Users/ERP Testing Room/Desktop/Joanna/morph21/subject-174.csv","xpyriment","Kafkaesque Koffka","3.2.5","0","/","space","NA","NA","NA","/","/","793","12716","NA","NA","NA","84542","793","2","legacy","1024","2","48000","-16","AB_m21","174","even","CW_S","DENSELY","1801","428169","426510","423610","86363","358070","NA","NA","NA","428165","427008","NA","426010","NA","426001","428165","1820","428519","NA","NA","427177","1801","1801","427569","426001","1801","427177","428519","morph21_Oliver/Morris","77","69426","91","yes","1280","32"
