"ITI","acc","accuracy","average_response_time","avg_rt","background","bidi","canvas_backend","clock_backend","color_backend","compensation","cond_trig","condtrigtime","coordinates","coroutines_cycles","coroutines_duration","coroutines_mean_cycle_duration","correct","correct_instructions_1","correct_new_keyboard_response_1","count_AB_m21","count_ITI","count_blank_screen","count_blink_screen","count_block1","count_break1","count_break2","count_break3_1","count_canvas","count_correct_trigger","count_def_chain","count_end_screen","count_fixation_1","count_getting_started","count_inc_counter","count_incorrect_trigger","count_instructions_1","count_logger","count_logscript","count_new_coroutines","count_new_inline_script","count_new_keyboard_response_1","count_reset_counter_prep","count_reset_counter_run","count_responsescreen","count_sequence","count_start_trigger","count_target_present","count_word_trigger","counter","cresp","datetime","description","disable_garbage_collection","experiment_file","experiment_path","font_bold","font_family","font_italic","font_size","font_underline","foreground","form_clicks","fullscreen","height","keyboard_backend","live_row","live_row_block1","logfile","mouse_backend","opensesame_codename","opensesame_version","repeat_cycle","response","response_break1","response_break2","response_break3_1","response_end_screen","response_instructions_1","response_new_keyboard_response_1","response_time","response_time_break1","response_time_break2","response_time_break3_1","response_time_end_screen","response_time_instructions_1","response_time_new_keyboard_response_1","round_decimals","sampler_backend","sound_buf_size","sound_channels","sound_freq","sound_sample_size","start","subject_nr","subject_parity","targ_type","target","time_AB_m21","time_ITI","time_blank_screen","time_blink_screen","time_block1","time_break1","time_break2","time_break3_1","time_canvas","time_correct_trigger","time_def_chain","time_end_screen","time_fixation_1","time_getting_started","time_inc_counter","time_incorrect_trigger","time_instructions_1","time_logger","time_logscript","time_new_inline_script","time_new_keyboard_response_1","time_reset_counter_prep","time_reset_counter_run","time_responsescreen","time_sequence","time_start_trigger","time_target_present","time_word_trigger","title","total_correct","total_response_time","total_responses","uniform_coordinates","width","word_trig"
"350","100","100","669","669","black","no","xpyriment","legacy","legacy","0","202","NA","uniform","61343","1000","0.016301778524","1","undefined","1","0","0","0","0","0","0","0","0","NA","0","0","0","0","NA","0","0","0","0","NA","0","NA","0","0","0","0","0","0","0","0","1","/","02/28/19 12:24:10","The main experiment item","yes","FIN__AB__M21__7%3A10%3A17.osexp","C:\Users\ERP Testing Room\Desktop\Joanna\morph21","no","mono","no","18","no","white","no","yes","1080","legacy","0","0","C:/Users/ERP Testing Room/Desktop/Joanna/morph21/subject-162.csv","xpyriment","Kafkaesque Koffka","3.2.5","0","/","NA","NA","NA","NA","space","/","669","NA","NA","NA","NA","298345","669","2","legacy","1024","2","48000","-16","AB_m21","162","even","CW_L","SWIMMER","2044","303277","301602","NA","300402","NA","NA","NA","NA","303272","302099","NA","301101","NA","301037","303272","2056","303627","NA","NA","302277","2044","2044","302669","301037","2044","302277","303627","morph21_Oliver/Morris","1","669","1","yes","1280","5"
"400","100","100","605","605","black","no","xpyriment","legacy","legacy","0","202","NA","uniform","67171","1000","0.014887376993","1","undefined","1","0","1","1","1","0","1","1","1","NA","1","1","0","1","NA","1","1","0","1","NA","1","NA","1","0","0","1","1","0","1","1","2","/","02/28/19 12:24:10","The main experiment item","yes","FIN__AB__M21__7%3A10%3A17.osexp","C:\Users\ERP Testing Room\Desktop\Joanna\morph21","no","mono","no","18","no","white","no","yes","1080","legacy","1","1","C:/Users/ERP Testing Room/Desktop/Joanna/morph21/subject-162.csv","xpyriment","Kafkaesque Koffka","3.2.5","0","/","NA","NA","NA","NA","space","/","541","NA","NA","NA","NA","298345","541","2","legacy","1024","2","48000","-16","AB_m21","162","even","CW_L","SPELLER","2044","306461","304777","NA","300402","NA","NA","NA","NA","306452","305275","NA","304277","NA","304270","306452","2056","306861","NA","NA","305461","2044","2044","305852","304269","2044","305461","306861","morph21_Oliver/Morris","2","1210","2","yes","1280","3"
"200","100","100","610","610","black","no","xpyriment","legacy","legacy","0","208","NA","uniform","60597","1000","0.0165024671188","1","undefined","1","0","2","2","2","0","2","2","2","NA","2","2","0","2","NA","2","2","0","2","NA","2","NA","2","0","0","2","2","0","2","2","3","z","02/28/19 12:24:10","The main experiment item","yes","FIN__AB__M21__7%3A10%3A17.osexp","C:\Users\ERP Testing Room\Desktop\Joanna\morph21","no","mono","no","18","no","white","no","yes","1080","legacy","2","2","C:/Users/ERP Testing Room/Desktop/Joanna/morph21/subject-162.csv","xpyriment","Kafkaesque Koffka","3.2.5","0","z","NA","NA","NA","NA","space","z","620","NA","NA","NA","NA","298345","620","2","legacy","1024","2","48000","-16","AB_m21","162","even","FILL_NW","SMADE","2044","311194","308036","309686","300402","NA","NA","NA","NA","309677","308533","NA","307536","NA","307532","309677","2056","311395","NA","NA","308686","2044","2044","309078","307532","2044","308686","311395","morph21_Oliver/Morris","3","1830","3","yes","1280","42"
"400","100","100","603","603","black","no","xpyriment","legacy","legacy","0","201","NA","uniform","70932","1000","0.0140980093611","1","undefined","1","0","3","3","3","0","3","3","3","NA","3","3","0","3","NA","3","3","0","3","NA","3","NA","3","0","0","3","3","0","3","3","4","/","02/28/19 12:24:10","The main experiment item","yes","FIN__AB__M21__7%3A10%3A17.osexp","C:\Users\ERP Testing Room\Desktop\Joanna\morph21","no","mono","no","18","no","white","no","yes","1080","legacy","3","3","C:/Users/ERP Testing Room/Desktop/Joanna/morph21/subject-162.csv","xpyriment","Kafkaesque Koffka","3.2.5","0","/","NA","NA","NA","NA","space","/","582","NA","NA","NA","NA","298345","582","2","legacy","1024","2","48000","-16","AB_m21","162","even","CW_S","EFFORTLESS","2044","314219","312544","309686","300402","NA","NA","NA","NA","314213","313042","NA","312044","NA","312038","314213","2056","314619","NA","NA","313219","2044","2044","313611","312038","2044","313219","314619","morph21_Oliver/Morris","4","2412","4","yes","1280","30"
"200","100","100","571.4","571.4","black","no","xpyriment","legacy","legacy","0","203","NA","uniform","73067","1000","0.0136860689504","1","undefined","1","0","4","4","4","0","4","4","4","NA","4","4","0","4","NA","4","4","0","4","NA","4","NA","4","0","0","4","4","0","4","4","5","z","02/28/19 12:24:10","The main experiment item","yes","FIN__AB__M21__7%3A10%3A17.osexp","C:\Users\ERP Testing Room\Desktop\Joanna\morph21","no","mono","no","18","no","white","no","yes","1080","legacy","4","4","C:/Users/ERP Testing Room/Desktop/Joanna/morph21/subject-162.csv","xpyriment","Kafkaesque Koffka","3.2.5","0","z","NA","NA","NA","NA","space","z","445","NA","NA","NA","NA","298345","445","2","legacy","1024","2","48000","-16","AB_m21","162","even","NW_S_COMP","YANKORY","2044","317420","315761","309686","300402","NA","NA","NA","NA","317409","316258","NA","315261","NA","315253","317409","2056","317620","NA","NA","316420","2044","2044","316811","315253","2044","316420","317620","morph21_Oliver/Morris","5","2857","5","yes","1280","23"
"300","100","100","578.166666667","578.166666667","black","no","xpyriment","legacy","legacy","0","202","NA","uniform","63825","1000","0.0156678417548","1","undefined","1","0","5","5","5","0","5","5","5","NA","5","5","0","5","NA","5","5","0","5","NA","5","NA","5","0","0","5","5","0","5","5","6","/","02/28/19 12:24:10","The main experiment item","yes","FIN__AB__M21__7%3A10%3A17.osexp","C:\Users\ERP Testing Room\Desktop\Joanna\morph21","no","mono","no","18","no","white","no","yes","1080","legacy","5","5","C:/Users/ERP Testing Room/Desktop/Joanna/morph21/subject-162.csv","xpyriment","Kafkaesque Koffka","3.2.5","0","/","NA","NA","NA","NA","space","/","612","NA","NA","NA","NA","298345","612","2","legacy","1024","2","48000","-16","AB_m21","162","even","CW_L","COMPOSER","2044","321963","318804","320454","300402","NA","NA","NA","NA","320448","319301","NA","318304","NA","318297","320448","2056","322263","NA","NA","319454","2044","2044","319846","318297","2044","319454","322263","morph21_Oliver/Morris","6","3469","6","yes","1280","6"
"350","100","100","573.428571429","573.428571429","black","no","xpyriment","legacy","legacy","0","202","NA","uniform","63674","1000","0.0157049973302","1","undefined","1","0","6","6","6","0","6","6","6","NA","6","6","0","6","NA","6","6","0","6","NA","6","NA","6","0","0","6","6","0","6","6","7","/","02/28/19 12:24:10","The main experiment item","yes","FIN__AB__M21__7%3A10%3A17.osexp","C:\Users\ERP Testing Room\Desktop\Joanna\morph21","no","mono","no","18","no","white","no","yes","1080","legacy","6","6","C:/Users/ERP Testing Room/Desktop/Joanna/morph21/subject-162.csv","xpyriment","Kafkaesque Koffka","3.2.5","0","/","NA","NA","NA","NA","space","/","545","NA","NA","NA","NA","298345","545","2","legacy","1024","2","48000","-16","AB_m21","162","even","CW_L","KICKING","2044","325129","323471","320454","300402","NA","NA","NA","NA","325123","323968","NA","322971","NA","322964","325123","2056","325479","NA","NA","324129","2044","2044","324521","322964","2044","324129","325479","morph21_Oliver/Morris","7","4014","7","yes","1280","23"
"250","100","100","570.75","570.75","black","no","xpyriment","legacy","legacy","0","206","NA","uniform","68990","1000","0.0144948543267","1","undefined","1","0","7","7","7","0","7","7","7","NA","7","7","0","7","NA","7","7","0","7","NA","7","NA","7","0","0","7","7","0","7","7","8","z","02/28/19 12:24:10","The main experiment item","yes","FIN__AB__M21__7%3A10%3A17.osexp","C:\Users\ERP Testing Room\Desktop\Joanna\morph21","no","mono","no","18","no","white","no","yes","1080","legacy","7","7","C:/Users/ERP Testing Room/Desktop/Joanna/morph21/subject-162.csv","xpyriment","Kafkaesque Koffka","3.2.5","0","z","NA","NA","NA","NA","space","z","552","NA","NA","NA","NA","298345","552","2","legacy","1024","2","48000","-16","AB_m21","162","even","NW_L_SIMP","SHOOTMANT","2044","328338","326663","320454","300402","NA","NA","NA","NA","328334","327160","NA","326163","NA","326158","328334","2056","328588","NA","NA","327346","2044","2044","327738","326158","2044","327346","328588","morph21_Oliver/Morris","8","4566","8","yes","1280","16"
"350","100","100","569","569","black","no","xpyriment","legacy","legacy","0","206","NA","uniform","69402","1000","0.0144088066626","1","undefined","1","0","8","8","8","0","8","8","8","NA","8","8","0","8","NA","8","8","0","8","NA","8","NA","8","0","0","8","8","0","8","8","9","z","02/28/19 12:24:10","The main experiment item","yes","FIN__AB__M21__7%3A10%3A17.osexp","C:\Users\ERP Testing Room\Desktop\Joanna\morph21","no","mono","no","18","no","white","no","yes","1080","legacy","8","8","C:/Users/ERP Testing Room/Desktop/Joanna/morph21/subject-162.csv","xpyriment","Kafkaesque Koffka","3.2.5","0","z","NA","NA","NA","NA","space","z","555","NA","NA","NA","NA","298345","555","2","legacy","1024","2","48000","-16","AB_m21","162","even","NW_L_SIMP","WITCHITH","2044","332946","329763","331438","300402","NA","NA","NA","NA","331429","330260","NA","329263","NA","329251","331429","2056","333297","NA","NA","330438","2044","2044","330829","329251","2044","330438","333297","morph21_Oliver/Morris","9","5121","9","yes","1280","11"
"400","100","100","565.2","565.2","black","no","xpyriment","legacy","legacy","0","208","NA","uniform","64328","1000","0.0155453301828","1","undefined","1","0","9","9","9","0","9","9","9","NA","9","9","0","9","NA","9","9","0","9","NA","9","NA","9","0","0","9","9","0","9","9","10","z","02/28/19 12:24:10","The main experiment item","yes","FIN__AB__M21__7%3A10%3A17.osexp","C:\Users\ERP Testing Room\Desktop\Joanna\morph21","no","mono","no","18","no","white","no","yes","1080","legacy","9","9","C:/Users/ERP Testing Room/Desktop/Joanna/morph21/subject-162.csv","xpyriment","Kafkaesque Koffka","3.2.5","0","z","NA","NA","NA","NA","space","z","531","NA","NA","NA","NA","298345","531","2","legacy","1024","2","48000","-16","AB_m21","162","even","FILL_NW","BALFS","2044","336047","334396","331438","300402","NA","NA","NA","NA","336041","334893","NA","333896","NA","333890","336041","2056","336447","NA","NA","335046","2044","2044","335438","333890","2044","335046","336447","morph21_Oliver/Morris","10","5652","10","yes","1280","2"
"350","100","100","558.181818182","558.181818182","black","no","xpyriment","legacy","legacy","0","206","NA","uniform","74077","1000","0.0134994667711","1","undefined","1","0","10","10","10","0","10","10","10","NA","10","10","0","10","NA","10","10","0","10","NA","10","NA","10","0","0","10","10","0","10","10","11","z","02/28/19 12:24:10","The main experiment item","yes","FIN__AB__M21__7%3A10%3A17.osexp","C:\Users\ERP Testing Room\Desktop\Joanna\morph21","no","mono","no","18","no","white","no","yes","1080","legacy","10","10","C:/Users/ERP Testing Room/Desktop/Joanna/morph21/subject-162.csv","xpyriment","Kafkaesque Koffka","3.2.5","0","z","NA","NA","NA","NA","space","z","488","NA","NA","NA","NA","298345","488","2","legacy","1024","2","48000","-16","AB_m21","162","even","NW_L_SIMP","NUTLA","2044","339306","337606","331438","300402","NA","NA","NA","NA","339296","338103","NA","337106","NA","337098","339296","2056","339656","NA","NA","338306","2044","2044","338697","337098","2044","338306","339656","morph21_Oliver/Morris","11","6140","11","yes","1280","14"
"300","100","100","558.333333333","558.333333333","black","no","xpyriment","legacy","legacy","0","204","NA","uniform","61967","1000","0.0161376216373","1","undefined","1","0","11","11","11","0","11","11","11","NA","11","11","0","11","NA","11","11","0","11","NA","11","NA","11","0","0","11","11","0","11","11","12","z","02/28/19 12:24:10","The main experiment item","yes","FIN__AB__M21__7%3A10%3A17.osexp","C:\Users\ERP Testing Room\Desktop\Joanna\morph21","no","mono","no","18","no","white","no","yes","1080","legacy","11","11","C:/Users/ERP Testing Room/Desktop/Joanna/morph21/subject-162.csv","xpyriment","Kafkaesque Koffka","3.2.5","0","z","NA","NA","NA","NA","space","z","560","NA","NA","NA","NA","298345","560","2","legacy","1024","2","48000","-16","AB_m21","162","even","NW_L_COMP","ILLIST","2044","344014","340839","342506","300402","NA","NA","NA","NA","342502","341336","NA","340339","NA","340329","342502","2056","344315","NA","NA","341514","2044","2044","341906","340329","2044","341514","344315","morph21_Oliver/Morris","12","6700","12","yes","1280","9"
"400","100","100","559","559","black","no","xpyriment","legacy","legacy","0","208","NA","uniform","68490","1000","0.0146006716309","1","undefined","1","0","12","12","12","0","12","12","12","NA","12","12","0","12","NA","12","12","0","12","NA","12","NA","12","0","0","12","12","0","12","12","13","z","02/28/19 12:24:10","The main experiment item","yes","FIN__AB__M21__7%3A10%3A17.osexp","C:\Users\ERP Testing Room\Desktop\Joanna\morph21","no","mono","no","18","no","white","no","yes","1080","legacy","12","12","C:/Users/ERP Testing Room/Desktop/Joanna/morph21/subject-162.csv","xpyriment","Kafkaesque Koffka","3.2.5","0","z","NA","NA","NA","NA","space","z","567","NA","NA","NA","NA","298345","567","2","legacy","1024","2","48000","-16","AB_m21","162","even","FILL_NW","BORMS","2044","347123","345398","342506","300402","NA","NA","NA","NA","347114","345895","NA","344898","NA","344887","347114","2056","347523","NA","NA","346123","2044","2044","346515","344887","2044","346123","347523","morph21_Oliver/Morris","13","7267","13","yes","1280","50"
"250","100","100","548.571428571","548.571428571","black","no","xpyriment","legacy","legacy","0","208","NA","uniform","68930","1000","0.0145074713477","1","undefined","1","0","13","13","13","0","13","13","13","NA","13","13","0","13","NA","13","13","0","13","NA","13","NA","13","0","0","13","13","0","13","13","14","z","02/28/19 12:24:10","The main experiment item","yes","FIN__AB__M21__7%3A10%3A17.osexp","C:\Users\ERP Testing Room\Desktop\Joanna\morph21","no","mono","no","18","no","white","no","yes","1080","legacy","13","13","C:/Users/ERP Testing Room/Desktop/Joanna/morph21/subject-162.csv","xpyriment","Kafkaesque Koffka","3.2.5","0","z","NA","NA","NA","NA","space","z","413","NA","NA","NA","NA","298345","413","2","legacy","1024","2","48000","-16","AB_m21","162","even","FILL_NW","PLAODS","2044","350340","348648","342506","300402","NA","NA","NA","NA","350329","349145","NA","348148","NA","348143","350329","2056","350590","NA","NA","349340","2044","2044","349731","348143","2044","349340","350590","morph21_Oliver/Morris","14","7680","14","yes","1280","37"
"350","100","100","546.066666667","546.066666667","black","no","xpyriment","legacy","legacy","0","203","NA","uniform","66053","1000","0.0151393577884","1","undefined","1","0","14","14","14","0","14","14","14","NA","14","14","0","14","NA","14","14","0","14","NA","14","NA","14","0","0","14","14","0","14","14","15","z","02/28/19 12:24:10","The main experiment item","yes","FIN__AB__M21__7%3A10%3A17.osexp","C:\Users\ERP Testing Room\Desktop\Joanna\morph21","no","mono","no","18","no","white","no","yes","1080","legacy","14","14","C:/Users/ERP Testing Room/Desktop/Joanna/morph21/subject-162.csv","xpyriment","Kafkaesque Koffka","3.2.5","0","z","NA","NA","NA","NA","space","z","511","NA","NA","NA","NA","298345","511","2","legacy","1024","2","48000","-16","AB_m21","162","even","NW_S_COMP","DEBTISH","2044","354999","351840","353491","300402","NA","NA","NA","NA","353482","352337","NA","351340","NA","351333","353482","2056","355350","NA","NA","352490","2044","2044","352881","351333","2044","352490","355350","morph21_Oliver/Morris","15","8191","15","yes","1280","22"
"400","100","100","545.1875","545.1875","black","no","xpyriment","legacy","legacy","0","208","NA","uniform","71538","1000","0.0139785848081","1","undefined","1","0","15","15","15","0","15","15","15","NA","15","15","0","15","NA","15","15","0","15","NA","15","NA","15","0","0","15","15","0","15","15","16","z","02/28/19 12:24:10","The main experiment item","yes","FIN__AB__M21__7%3A10%3A17.osexp","C:\Users\ERP Testing Room\Desktop\Joanna\morph21","no","mono","no","18","no","white","no","yes","1080","legacy","15","15","C:/Users/ERP Testing Room/Desktop/Joanna/morph21/subject-162.csv","xpyriment","Kafkaesque Koffka","3.2.5","0","z","NA","NA","NA","NA","space","z","532","NA","NA","NA","NA","298345","532","2","legacy","1024","2","48000","-16","AB_m21","162","even","FILL_NW","CORG","2044","358149","356466","353491","300402","NA","NA","NA","NA","358147","356963","NA","355966","NA","355961","358147","2056","358549","NA","NA","357158","2044","2044","357549","355961","2044","357158","358549","morph21_Oliver/Morris","16","8723","16","yes","1280","7"
"400","100","100","540.588235294","540.588235294","black","no","xpyriment","legacy","legacy","0","201","NA","uniform","73190","1000","0.0136630687252","1","undefined","1","0","16","16","16","0","16","16","16","NA","16","16","0","16","NA","16","16","0","16","NA","16","NA","16","0","0","16","16","0","16","16","17","/","02/28/19 12:24:10","The main experiment item","yes","FIN__AB__M21__7%3A10%3A17.osexp","C:\Users\ERP Testing Room\Desktop\Joanna\morph21","no","mono","no","18","no","white","no","yes","1080","legacy","16","16","C:/Users/ERP Testing Room/Desktop/Joanna/morph21/subject-162.csv","xpyriment","Kafkaesque Koffka","3.2.5","0","/","NA","NA","NA","NA","space","/","467","NA","NA","NA","NA","298345","467","2","legacy","1024","2","48000","-16","AB_m21","162","even","CW_S","RAIDER","2044","361383","359708","353491","300402","NA","NA","NA","NA","361378","360205","NA","359208","NA","359195","361378","2056","361783","NA","NA","360383","2044","2044","360783","359195","2044","360383","361783","morph21_Oliver/Morris","17","9190","17","yes","1280","12"
"400","100","100","540.222222222","540.222222222","black","no","xpyriment","legacy","legacy","0","202","NA","uniform","67866","1000","0.0147349188106","1","undefined","1","0","17","17","17","0","17","17","17","NA","17","17","0","17","NA","17","17","0","17","NA","17","NA","17","0","0","17","17","0","17","17","18","/","02/28/19 12:24:10","The main experiment item","yes","FIN__AB__M21__7%3A10%3A17.osexp","C:\Users\ERP Testing Room\Desktop\Joanna\morph21","no","mono","no","18","no","white","no","yes","1080","legacy","17","17","C:/Users/ERP Testing Room/Desktop/Joanna/morph21/subject-162.csv","xpyriment","Kafkaesque Koffka","3.2.5","0","/","NA","NA","NA","NA","space","/","534","NA","NA","NA","NA","298345","534","2","legacy","1024","2","48000","-16","AB_m21","162","even","CW_L","QUIETLY","2044","366216","363016","364708","300402","NA","NA","NA","NA","364701","363513","NA","362516","NA","362504","364701","2056","366617","NA","NA","363708","2044","2044","364100","362504","2044","363708","366617","morph21_Oliver/Morris","18","9724","18","yes","1280","36"
"300","100","100","536.684210526","536.684210526","black","no","xpyriment","legacy","legacy","0","206","NA","uniform","71214","1000","0.0140421827169","1","undefined","1","0","18","18","18","0","18","18","18","NA","18","18","0","18","NA","18","18","0","18","NA","18","NA","18","0","0","18","18","0","18","18","19","z","02/28/19 12:24:10","The main experiment item","yes","FIN__AB__M21__7%3A10%3A17.osexp","C:\Users\ERP Testing Room\Desktop\Joanna\morph21","no","mono","no","18","no","white","no","yes","1080","legacy","18","18","C:/Users/ERP Testing Room/Desktop/Joanna/morph21/subject-162.csv","xpyriment","Kafkaesque Koffka","3.2.5","0","z","NA","NA","NA","NA","space","z","473","NA","NA","NA","NA","298345","473","2","legacy","1024","2","48000","-16","AB_m21","162","even","NW_L_SIMP","BEANITH","2044","369400","367741","364708","300402","NA","NA","NA","NA","369395","368239","NA","367241","NA","367233","369395","2056","369700","NA","NA","368400","2044","2044","368800","367233","2044","368400","369700","morph21_Oliver/Morris","19","10197","19","yes","1280","8"
"300","100","100","531.25","531.25","black","no","xpyriment","legacy","legacy","0","207","NA","uniform","71266","1000","0.0140319366879","1","undefined","1","0","19","19","19","0","19","19","19","NA","19","19","0","19","NA","19","19","0","19","NA","19","NA","19","0","0","19","19","0","19","19","20","/","02/28/19 12:24:10","The main experiment item","yes","FIN__AB__M21__7%3A10%3A17.osexp","C:\Users\ERP Testing Room\Desktop\Joanna\morph21","no","mono","no","18","no","white","no","yes","1080","legacy","19","19","C:/Users/ERP Testing Room/Desktop/Joanna/morph21/subject-162.csv","xpyriment","Kafkaesque Koffka","3.2.5","0","/","NA","NA","NA","NA","space","/","428","NA","NA","NA","NA","298345","428","2","legacy","1024","2","48000","-16","AB_m21","162","even","FILL_W","IRON","2044","372518","370834","364708","300402","NA","NA","NA","NA","372512","371331","NA","370333","NA","370322","372512","2056","372818","NA","NA","371518","2044","2044","371909","370322","2044","371518","372818","morph21_Oliver/Morris","20","10625","20","yes","1280","33"
"250","100","100","529.047619048","529.047619048","black","no","xpyriment","legacy","legacy","0","205","NA","uniform","69749","1000","0.0143371231129","1","undefined","1","0","20","20","20","0","20","20","20","NA","20","20","0","20","NA","20","20","0","20","NA","20","NA","20","0","0","20","20","0","20","20","21","z","02/28/19 12:24:10","The main experiment item","yes","FIN__AB__M21__7%3A10%3A17.osexp","C:\Users\ERP Testing Room\Desktop\Joanna\morph21","no","mono","no","18","no","white","no","yes","1080","legacy","20","20","C:/Users/ERP Testing Room/Desktop/Joanna/morph21/subject-162.csv","xpyriment","Kafkaesque Koffka","3.2.5","0","z","NA","NA","NA","NA","space","z","485","NA","NA","NA","NA","298345","485","2","legacy","1024","2","48000","-16","AB_m21","162","even","NW_S_SIMP","ZOOMFIL","2044","377201","373976","375693","300402","NA","NA","NA","NA","375689","374473","NA","373476","NA","373470","375689","2056","377451","NA","NA","374693","2044","2044","375093","373470","2044","374693","377451","morph21_Oliver/Morris","21","11110","21","yes","1280","19"
"350","100","100","529.954545455","529.954545455","black","no","xpyriment","legacy","legacy","0","202","NA","uniform","71184","1000","0.0140481006968","1","undefined","1","0","21","21","21","0","21","21","21","NA","21","21","0","21","NA","21","21","0","21","NA","21","NA","21","0","0","21","21","0","21","21","22","/","02/28/19 12:24:10","The main experiment item","yes","FIN__AB__M21__7%3A10%3A17.osexp","C:\Users\ERP Testing Room\Desktop\Joanna\morph21","no","mono","no","18","no","white","no","yes","1080","legacy","21","21","C:/Users/ERP Testing Room/Desktop/Joanna/morph21/subject-162.csv","xpyriment","Kafkaesque Koffka","3.2.5","0","/","NA","NA","NA","NA","space","/","549","NA","NA","NA","NA","298345","549","2","legacy","1024","2","48000","-16","AB_m21","162","even","CW_L","PUNCHER","2044","380285","378610","375693","300402","NA","NA","NA","NA","380280","379107","NA","378110","NA","378100","380280","2056","380635","NA","NA","379285","2044","2044","379685","378100","2044","379285","380635","morph21_Oliver/Morris","22","11659","22","yes","1280","1"
"350","100","100","529.782608696","529.782608696","black","no","xpyriment","legacy","legacy","0","207","NA","uniform","67679","1000","0.0147756320277","1","undefined","1","0","22","22","22","0","22","22","22","NA","22","22","0","22","NA","22","22","0","22","NA","22","NA","22","0","0","22","22","0","22","22","23","/","02/28/19 12:24:10","The main experiment item","yes","FIN__AB__M21__7%3A10%3A17.osexp","C:\Users\ERP Testing Room\Desktop\Joanna\morph21","no","mono","no","18","no","white","no","yes","1080","legacy","22","22","C:/Users/ERP Testing Room/Desktop/Joanna/morph21/subject-162.csv","xpyriment","Kafkaesque Koffka","3.2.5","0","/","NA","NA","NA","NA","space","/","526","NA","NA","NA","NA","298345","526","2","legacy","1024","2","48000","-16","AB_m21","162","even","FILL_W","FAINT","2044","383476","381760","375693","300402","NA","NA","NA","NA","383469","382257","NA","381260","NA","381253","383469","2056","383827","NA","NA","382476","2044","2044","382868","381253","2044","382476","383827","morph21_Oliver/Morris","23","12185","23","yes","1280","31"
"300","100","100","537.916666667","537.916666667","black","no","xpyriment","legacy","legacy","0","206","NA","uniform","62661","1000","0.0159588898996","1","undefined","1","0","23","23","23","0","23","23","23","NA","23","23","0","23","NA","23","23","0","23","NA","23","NA","23","0","0","23","23","0","23","23","24","z","02/28/19 12:24:10","The main experiment item","yes","FIN__AB__M21__7%3A10%3A17.osexp","C:\Users\ERP Testing Room\Desktop\Joanna\morph21","no","mono","no","18","no","white","no","yes","1080","legacy","23","23","C:/Users/ERP Testing Room/Desktop/Joanna/morph21/subject-162.csv","xpyriment","Kafkaesque Koffka","3.2.5","0","z","NA","NA","NA","NA","space","z","725","NA","NA","NA","NA","298345","725","2","legacy","1024","2","48000","-16","AB_m21","162","even","NW_L_SIMP","ELBOWILM","2044","388161","384951","386651","300402","NA","NA","NA","NA","386648","385449","NA","384452","NA","384447","386648","2056","388461","NA","NA","385660","2044","2044","386052","384447","2044","385660","388461","morph21_Oliver/Morris","24","12910","24","yes","1280","10"
"300","100","100","539.64","539.64","black","no","xpyriment","legacy","legacy","0","208","NA","uniform","67669","1000","0.0147778155433","1","undefined","1","0","24","24","24","0","24","24","24","NA","24","24","0","24","NA","24","24","0","24","NA","24","NA","24","0","0","24","24","0","24","24","25","z","02/28/19 12:24:10","The main experiment item","yes","FIN__AB__M21__7%3A10%3A17.osexp","C:\Users\ERP Testing Room\Desktop\Joanna\morph21","no","mono","no","18","no","white","no","yes","1080","legacy","24","24","C:/Users/ERP Testing Room/Desktop/Joanna/morph21/subject-162.csv","xpyriment","Kafkaesque Koffka","3.2.5","0","z","NA","NA","NA","NA","space","z","581","NA","NA","NA","NA","298345","581","2","legacy","1024","2","48000","-16","AB_m21","162","even","FILL_NW","TREMP","2044","391253","389561","386651","300402","NA","NA","NA","NA","391250","390058","NA","389061","NA","389050","391250","2056","391553","NA","NA","390261","2044","2044","390653","389050","2044","390261","391553","morph21_Oliver/Morris","25","13491","25","yes","1280","20"
"350","100","100","543.538461538","543.538461538","black","no","xpyriment","legacy","legacy","0","201","NA","uniform","64546","1000","0.0154928268212","1","undefined","1","0","25","25","25","0","25","25","25","NA","25","25","0","25","NA","25","25","0","25","NA","25","NA","25","0","0","25","25","0","25","25","26","/","02/28/19 12:24:10","The main experiment item","yes","FIN__AB__M21__7%3A10%3A17.osexp","C:\Users\ERP Testing Room\Desktop\Joanna\morph21","no","mono","no","18","no","white","no","yes","1080","legacy","25","25","C:/Users/ERP Testing Room/Desktop/Joanna/morph21/subject-162.csv","xpyriment","Kafkaesque Koffka","3.2.5","0","/","NA","NA","NA","NA","space","/","641","NA","NA","NA","NA","298345","641","2","legacy","1024","2","48000","-16","AB_m21","162","even","CW_S","LENDER","2044","394345","392678","386651","300402","NA","NA","NA","NA","394336","393175","NA","392178","NA","392166","394336","2056","394695","NA","NA","393345","2044","2044","393736","392166","2044","393344","394695","morph21_Oliver/Morris","26","14132","26","yes","1280","11"
"200","100","100","551.259259259","551.259259259","black","no","xpyriment","legacy","legacy","0","201","NA","uniform","61089","1000","0.0163695591678","1","undefined","1","0","26","26","26","0","26","26","26","NA","26","26","0","26","NA","26","26","0","26","NA","26","NA","26","0","0","26","26","0","26","26","27","/","02/28/19 12:24:10","The main experiment item","yes","FIN__AB__M21__7%3A10%3A17.osexp","C:\Users\ERP Testing Room\Desktop\Joanna\morph21","no","mono","no","18","no","white","no","yes","1080","legacy","26","26","C:/Users/ERP Testing Room/Desktop/Joanna/morph21/subject-162.csv","xpyriment","Kafkaesque Koffka","3.2.5","0","/","NA","NA","NA","NA","space","/","752","NA","NA","NA","NA","298345","752","2","legacy","1024","2","48000","-16","AB_m21","162","even","CW_S","BOLDNESS","2044","399095","395886","397586","300402","NA","NA","NA","NA","397577","396383","NA","395386","NA","395376","397577","2056","399295","NA","NA","396586","2044","2044","396978","395376","2044","396586","399295","morph21_Oliver/Morris","27","14884","27","yes","1280","41"
"400","100","100","551.857142857","551.857142857","black","no","xpyriment","legacy","legacy","0","207","NA","uniform","70886","1000","0.014107157972","1","undefined","1","0","27","27","27","0","27","27","27","NA","27","27","0","27","NA","27","27","0","27","NA","27","NA","27","0","0","27","27","0","27","27","28","/","02/28/19 12:24:10","The main experiment item","yes","FIN__AB__M21__7%3A10%3A17.osexp","C:\Users\ERP Testing Room\Desktop\Joanna\morph21","no","mono","no","18","no","white","no","yes","1080","legacy","27","27","C:/Users/ERP Testing Room/Desktop/Joanna/morph21/subject-162.csv","xpyriment","Kafkaesque Koffka","3.2.5","0","/","NA","NA","NA","NA","space","/","568","NA","NA","NA","NA","298345","568","2","legacy","1024","2","48000","-16","AB_m21","162","even","FILL_W","QUIT","2044","402136","400420","397586","300402","NA","NA","NA","NA","402130","400917","NA","399920","NA","399912","402130","2056","402537","NA","NA","401137","2044","2044","401528","399912","2044","401136","402537","morph21_Oliver/Morris","28","15452","28","yes","1280","21"
"200","100","100","548.862068966","548.862068966","black","no","xpyriment","legacy","legacy","0","207","NA","uniform","72576","1000","0.013778659612","1","undefined","1","0","28","28","28","0","28","28","28","NA","28","28","0","28","NA","28","28","0","28","NA","28","NA","28","0","0","28","28","0","28","28","29","/","02/28/19 12:24:10","The main experiment item","yes","FIN__AB__M21__7%3A10%3A17.osexp","C:\Users\ERP Testing Room\Desktop\Joanna\morph21","no","mono","no","18","no","white","no","yes","1080","legacy","28","28","C:/Users/ERP Testing Room/Desktop/Joanna/morph21/subject-162.csv","xpyriment","Kafkaesque Koffka","3.2.5","0","/","NA","NA","NA","NA","space","/","465","NA","NA","NA","NA","298345","465","2","legacy","1024","2","48000","-16","AB_m21","162","even","FILL_W","SAVE","2044","405312","403620","397586","300402","NA","NA","NA","NA","405307","404117","NA","403120","NA","403113","405307","2056","405512","NA","NA","404312","2044","2044","404712","403113","2044","404312","405512","morph21_Oliver/Morris","29","15917","29","yes","1280","46"
"400","100","100","555.666666667","555.666666667","black","no","xpyriment","legacy","legacy","0","207","NA","uniform","64195","1000","0.0155775371914","1","undefined","1","0","29","29","29","0","29","29","29","NA","29","29","0","29","NA","29","29","0","29","NA","29","NA","29","0","0","29","29","0","29","29","30","/","02/28/19 12:24:10","The main experiment item","yes","FIN__AB__M21__7%3A10%3A17.osexp","C:\Users\ERP Testing Room\Desktop\Joanna\morph21","no","mono","no","18","no","white","no","yes","1080","legacy","29","29","C:/Users/ERP Testing Room/Desktop/Joanna/morph21/subject-162.csv","xpyriment","Kafkaesque Koffka","3.2.5","0","/","NA","NA","NA","NA","space","/","753","NA","NA","NA","NA","298345","753","2","legacy","1024","2","48000","-16","AB_m21","162","even","FILL_W","STEEP","2044","409838","406621","408329","300402","NA","NA","NA","NA","408319","407118","NA","406121","NA","406116","408319","2056","410238","NA","NA","407329","2044","2044","407721","406116","2044","407329","410238","morph21_Oliver/Morris","30","16670","30","yes","1280","16"
"300","100","100","558.096774194","558.096774194","black","no","xpyriment","legacy","legacy","0","205","NA","uniform","67572","1000","0.0147990291837","1","undefined","1","0","30","30","30","0","30","30","30","NA","30","30","0","30","NA","30","30","0","30","NA","30","NA","30","0","0","30","30","0","30","30","31","z","02/28/19 12:24:10","The main experiment item","yes","FIN__AB__M21__7%3A10%3A17.osexp","C:\Users\ERP Testing Room\Desktop\Joanna\morph21","no","mono","no","18","no","white","no","yes","1080","legacy","30","30","C:/Users/ERP Testing Room/Desktop/Joanna/morph21/subject-162.csv","xpyriment","Kafkaesque Koffka","3.2.5","0","z","NA","NA","NA","NA","space","z","631","NA","NA","NA","NA","298345","631","2","legacy","1024","2","48000","-16","AB_m21","162","even","NW_S_SIMP","YIELDILT","2044","413163","411446","408329","300402","NA","NA","NA","NA","413156","411943","NA","410946","NA","410941","413156","2056","413463","NA","NA","412163","2044","2044","412555","410941","2044","412163","413463","morph21_Oliver/Morris","31","17301","31","yes","1280","20"
"400","100","100","562.15625","562.15625","black","no","xpyriment","legacy","legacy","0","202","NA","uniform","64581","1000","0.0154844304052","1","undefined","1","0","31","31","31","0","31","31","31","NA","31","31","0","31","NA","31","31","0","31","NA","31","NA","31","0","0","31","31","0","31","31","32","/","02/28/19 12:24:10","The main experiment item","yes","FIN__AB__M21__7%3A10%3A17.osexp","C:\Users\ERP Testing Room\Desktop\Joanna\morph21","no","mono","no","18","no","white","no","yes","1080","legacy","31","31","C:/Users/ERP Testing Room/Desktop/Joanna/morph21/subject-162.csv","xpyriment","Kafkaesque Koffka","3.2.5","0","/","NA","NA","NA","NA","space","/","688","NA","NA","NA","NA","298345","688","2","legacy","1024","2","48000","-16","AB_m21","162","even","CW_L","SHAPELY","2044","416330","414638","408329","300402","NA","NA","NA","NA","416326","415135","NA","414138","NA","414128","416326","2056","416730","NA","NA","415338","2044","2044","415730","414128","2044","415338","416730","morph21_Oliver/Morris","32","17989","32","yes","1280","35"
"250","100","100","561.303030303","561.303030303","black","no","xpyriment","legacy","legacy","0","208","NA","uniform","68670","1000","0.0145623998835","1","undefined","1","0","32","32","32","0","32","32","32","NA","32","32","0","32","NA","32","32","0","32","NA","32","NA","32","0","0","32","32","0","32","32","33","z","02/28/19 12:24:10","The main experiment item","yes","FIN__AB__M21__7%3A10%3A17.osexp","C:\Users\ERP Testing Room\Desktop\Joanna\morph21","no","mono","no","18","no","white","no","yes","1080","legacy","32","32","C:/Users/ERP Testing Room/Desktop/Joanna/morph21/subject-162.csv","xpyriment","Kafkaesque Koffka","3.2.5","0","z","NA","NA","NA","NA","space","z","534","NA","NA","NA","NA","298345","534","2","legacy","1024","2","48000","-16","AB_m21","162","even","FILL_NW","PIFTH","2044","421080","417855","419572","300402","NA","NA","NA","NA","419563","418352","NA","417355","NA","417343","419563","2056","421330","NA","NA","418572","2044","2044","418963","417343","2044","418572","421330","morph21_Oliver/Morris","33","18523","33","yes","1280","36"
"400","100","100","561.441176471","561.441176471","black","no","xpyriment","legacy","legacy","0","201","NA","uniform","67645","1000","0.0147830586148","1","undefined","1","0","33","33","33","0","33","33","33","NA","33","33","0","33","NA","33","33","0","33","NA","33","NA","33","0","0","33","33","0","33","33","34","/","02/28/19 12:24:10","The main experiment item","yes","FIN__AB__M21__7%3A10%3A17.osexp","C:\Users\ERP Testing Room\Desktop\Joanna\morph21","no","mono","no","18","no","white","no","yes","1080","legacy","33","33","C:/Users/ERP Testing Room/Desktop/Joanna/morph21/subject-162.csv","xpyriment","Kafkaesque Koffka","3.2.5","0","/","NA","NA","NA","NA","space","/","566","NA","NA","NA","NA","298345","566","2","legacy","1024","2","48000","-16","AB_m21","162","even","CW_S","AVOIDABLE","2044","424156","422497","419572","300402","NA","NA","NA","NA","424149","422994","NA","421997","NA","421992","424149","2056","424556","NA","NA","423156","2044","2044","423548","421992","2044","423156","424556","morph21_Oliver/Morris","34","19089","34","yes","1280","2"
"200","97.1428571429","97.1428571429","558.114285714","558.114285714","black","no","xpyriment","legacy","legacy","0","207","NA","uniform","70981","1000","0.0140882771446","0","undefined","0","0","34","34","34","0","34","34","34","NA","34","34","0","34","NA","34","34","0","34","NA","34","NA","34","0","0","34","34","0","34","34","35","/","02/28/19 12:24:10","The main experiment item","yes","FIN__AB__M21__7%3A10%3A17.osexp","C:\Users\ERP Testing Room\Desktop\Joanna\morph21","no","mono","no","18","no","white","no","yes","1080","legacy","34","34","C:/Users/ERP Testing Room/Desktop/Joanna/morph21/subject-162.csv","xpyriment","Kafkaesque Koffka","3.2.5","0","z","NA","NA","NA","NA","space","z","445","NA","NA","NA","NA","298345","445","2","legacy","1024","2","48000","-16","AB_m21","162","even","FILL_W","STALK","2044","427381","425731","419572","300402","NA","NA","NA","NA","424149","426228","NA","425231","NA","425226","427375","2056","427581","NA","NA","426381","2044","2044","426773","425226","2044","426381","427581","morph21_Oliver/Morris","34","19534","35","yes","1280","27"
"200","97.2222222222","97.2222222222","556.111111111","556.111111111","black","no","xpyriment","legacy","legacy","0","201","NA","uniform","74685","1000","0.0133895695253","1","undefined","1","0","35","35","35","0","35","35","35","NA","35","35","0","35","NA","35","35","0","35","NA","35","NA","35","0","0","35","35","0","35","35","36","/","02/28/19 12:24:10","The main experiment item","yes","FIN__AB__M21__7%3A10%3A17.osexp","C:\Users\ERP Testing Room\Desktop\Joanna\morph21","no","mono","no","18","no","white","no","yes","1080","legacy","35","35","C:/Users/ERP Testing Room/Desktop/Joanna/morph21/subject-162.csv","xpyriment","Kafkaesque Koffka","3.2.5","0","/","NA","NA","NA","NA","space","/","486","NA","NA","NA","NA","298345","486","2","legacy","1024","2","48000","-16","AB_m21","162","even","CW_S","LOCALLY","2044","431865","428690","430356","300402","NA","NA","NA","NA","430348","429187","NA","428190","NA","428179","430348","2056","432065","NA","NA","429356","2044","2044","429748","428179","2044","429356","432065","morph21_Oliver/Morris","35","20020","36","yes","1280","37"
"250","97.2972972973","97.2972972973","554.108108108","554.108108108","black","no","xpyriment","legacy","legacy","0","201","NA","uniform","67576","1000","0.0147981531905","1","undefined","1","0","36","36","36","0","36","36","36","NA","36","36","0","36","NA","36","36","0","36","NA","36","NA","36","0","0","36","36","0","36","36","37","/","02/28/19 12:24:10","The main experiment item","yes","FIN__AB__M21__7%3A10%3A17.osexp","C:\Users\ERP Testing Room\Desktop\Joanna\morph21","no","mono","no","18","no","white","no","yes","1080","legacy","36","36","C:/Users/ERP Testing Room/Desktop/Joanna/morph21/subject-162.csv","xpyriment","Kafkaesque Koffka","3.2.5","0","/","NA","NA","NA","NA","space","/","482","NA","NA","NA","NA","298345","482","2","legacy","1024","2","48000","-16","AB_m21","162","even","CW_S","GRIMLY","2044","434840","433173","430356","300402","NA","NA","NA","NA","434837","433670","NA","432673","NA","432664","434837","2056","435090","NA","NA","433848","2044","2044","434240","432664","2044","433848","435090","morph21_Oliver/Morris","36","20502","37","yes","1280","31"
"350","97.3684210526","97.3684210526","551","551","black","no","xpyriment","legacy","legacy","0","202","NA","uniform","62118","1000","0.0160983933803","1","undefined","1","0","37","37","37","0","37","37","37","NA","37","37","0","37","NA","37","37","0","37","NA","37","NA","37","0","0","37","37","0","37","37","38","/","02/28/19 12:24:10","The main experiment item","yes","FIN__AB__M21__7%3A10%3A17.osexp","C:\Users\ERP Testing Room\Desktop\Joanna\morph21","no","mono","no","18","no","white","no","yes","1080","legacy","37","37","C:/Users/ERP Testing Room/Desktop/Joanna/morph21/subject-162.csv","xpyriment","Kafkaesque Koffka","3.2.5","0","/","NA","NA","NA","NA","space","/","436","NA","NA","NA","NA","298345","436","2","legacy","1024","2","48000","-16","AB_m21","162","even","CW_L","GUILELESS","2044","437965","436290","430356","300402","NA","NA","NA","NA","437959","436787","NA","435790","NA","435785","437959","2056","438315","NA","NA","436965","2044","2044","437357","435785","2044","436965","438315","morph21_Oliver/Morris","37","20938","38","yes","1280","31"
"400","97.4358974359","97.4358974359","553.820512821","553.820512821","black","no","xpyriment","legacy","legacy","0","202","NA","uniform","63468","1000","0.0157559715132","1","undefined","1","0","38","38","38","0","38","38","38","NA","38","38","0","38","NA","38","38","0","38","NA","38","NA","38","0","0","38","38","0","38","38","39","/","02/28/19 12:24:10","The main experiment item","yes","FIN__AB__M21__7%3A10%3A17.osexp","C:\Users\ERP Testing Room\Desktop\Joanna\morph21","no","mono","no","18","no","white","no","yes","1080","legacy","38","38","C:/Users/ERP Testing Room/Desktop/Joanna/morph21/subject-162.csv","xpyriment","Kafkaesque Koffka","3.2.5","0","/","NA","NA","NA","NA","space","/","661","NA","NA","NA","NA","298345","661","2","legacy","1024","2","48000","-16","AB_m21","162","even","CW_L","COOLING","2044","442658","439457","441149","300402","NA","NA","NA","NA","441139","439954","NA","438957","NA","438952","441139","2056","443058","NA","NA","440149","2044","2044","440540","438952","2044","440148","443058","morph21_Oliver/Morris","38","21599","39","yes","1280","24"
"400","97.5","97.5","554.15","554.15","black","no","xpyriment","legacy","legacy","0","206","NA","uniform","67554","1000","0.0148029724369","1","undefined","1","0","39","39","39","0","39","39","39","NA","39","39","0","39","NA","39","39","0","39","NA","39","NA","39","0","0","39","39","0","39","39","40","z","02/28/19 12:24:10","The main experiment item","yes","FIN__AB__M21__7%3A10%3A17.osexp","C:\Users\ERP Testing Room\Desktop\Joanna\morph21","no","mono","no","18","no","white","no","yes","1080","legacy","39","39","C:/Users/ERP Testing Room/Desktop/Joanna/morph21/subject-162.csv","xpyriment","Kafkaesque Koffka","3.2.5","0","z","NA","NA","NA","NA","space","z","567","NA","NA","NA","NA","298345","567","2","legacy","1024","2","48000","-16","AB_m21","162","even","NW_L_SIMP","BOGADY","2044","445883","444166","441149","300402","NA","NA","NA","NA","445879","444664","NA","443666","NA","443660","445879","2056","446283","NA","NA","444891","2044","2044","445283","443660","2044","444891","446283","morph21_Oliver/Morris","39","22166","40","yes","1280","2"
"300","97.5609756098","97.5609756098","556.146341463","556.146341463","black","no","xpyriment","legacy","legacy","0","202","NA","uniform","69111","1000","0.014469476639","1","undefined","1","0","40","40","40","0","40","40","40","NA","40","40","0","40","NA","40","40","0","40","NA","40","NA","40","0","0","40","40","0","40","40","41","/","02/28/19 12:24:10","The main experiment item","yes","FIN__AB__M21__7%3A10%3A17.osexp","C:\Users\ERP Testing Room\Desktop\Joanna\morph21","no","mono","no","18","no","white","no","yes","1080","legacy","40","40","C:/Users/ERP Testing Room/Desktop/Joanna/morph21/subject-162.csv","xpyriment","Kafkaesque Koffka","3.2.5","0","/","NA","NA","NA","NA","space","/","636","NA","NA","NA","NA","298345","636","2","legacy","1024","2","48000","-16","AB_m21","162","even","CW_L","DAMPISH","2044","449150","447491","441149","300402","NA","NA","NA","NA","449143","447989","NA","446991","NA","446982","449143","2056","449450","NA","NA","448150","2044","2044","448541","446982","2044","448150","449450","morph21_Oliver/Morris","40","22802","41","yes","1280","28"
"350","97.619047619","97.619047619","560.238095238","560.238095238","black","no","xpyriment","legacy","legacy","0","201","NA","uniform","63277","1000","0.0158035305087","1","undefined","1","0","41","41","41","0","41","41","41","NA","41","41","0","41","NA","41","41","0","41","NA","41","NA","41","0","0","41","41","0","41","41","42","/","02/28/19 12:24:10","The main experiment item","yes","FIN__AB__M21__7%3A10%3A17.osexp","C:\Users\ERP Testing Room\Desktop\Joanna\morph21","no","mono","no","18","no","white","no","yes","1080","legacy","41","41","C:/Users/ERP Testing Room/Desktop/Joanna/morph21/subject-162.csv","xpyriment","Kafkaesque Koffka","3.2.5","0","/","NA","NA","NA","NA","space","/","728","NA","NA","NA","NA","298345","728","2","legacy","1024","2","48000","-16","AB_m21","162","even","CW_S","NEATLY","2044","453767","450575","452258","300402","NA","NA","NA","NA","452250","451072","NA","450075","NA","450069","452250","2056","454117","NA","NA","451258","2044","2044","451650","450069","2044","451258","454117","morph21_Oliver/Morris","41","23530","42","yes","1280","33"
"400","95.3488372093","95.3488372093","559.76744186","559.76744186","black","no","xpyriment","legacy","legacy","0","201","NA","uniform","69488","1000","0.0143909739811","0","undefined","0","0","42","42","42","0","42","42","42","NA","42","42","0","42","NA","42","42","0","42","NA","42","NA","42","0","0","42","42","0","42","42","43","/","02/28/19 12:24:10","The main experiment item","yes","FIN__AB__M21__7%3A10%3A17.osexp","C:\Users\ERP Testing Room\Desktop\Joanna\morph21","no","mono","no","18","no","white","no","yes","1080","legacy","42","42","C:/Users/ERP Testing Room/Desktop/Joanna/morph21/subject-162.csv","xpyriment","Kafkaesque Koffka","3.2.5","0","z","NA","NA","NA","NA","space","z","540","NA","NA","NA","NA","298345","540","2","legacy","1024","2","48000","-16","AB_m21","162","even","CW_S","DIETARY","2044","456917","455258","452258","300402","NA","NA","NA","NA","452250","455756","NA","454758","NA","454748","456911","2056","457317","NA","NA","455917","2044","2044","456308","454748","2044","455917","457317","morph21_Oliver/Morris","41","24070","43","yes","1280","6"
"200","95.4545454545","95.4545454545","561.136363636","561.136363636","black","no","xpyriment","legacy","legacy","0","207","NA","uniform","69769","1000","0.0143330132294","1","undefined","1","0","43","43","43","0","43","43","43","NA","43","43","0","43","NA","43","43","0","43","NA","43","NA","43","0","0","43","43","0","43","43","44","/","02/28/19 12:24:10","The main experiment item","yes","FIN__AB__M21__7%3A10%3A17.osexp","C:\Users\ERP Testing Room\Desktop\Joanna\morph21","no","mono","no","18","no","white","no","yes","1080","legacy","43","43","C:/Users/ERP Testing Room/Desktop/Joanna/morph21/subject-162.csv","xpyriment","Kafkaesque Koffka","3.2.5","0","/","NA","NA","NA","NA","space","/","620","NA","NA","NA","NA","298345","620","2","legacy","1024","2","48000","-16","AB_m21","162","even","FILL_W","WRECK","2044","460110","458418","452258","300402","NA","NA","NA","NA","460103","458915","NA","457917","NA","457906","460103","2056","460310","NA","NA","459110","2044","2044","459501","457906","2044","459110","460310","morph21_Oliver/Morris","42","24690","44","yes","1280","13"
"350","95.5555555556","95.5555555556","559.555555556","559.555555556","black","no","xpyriment","legacy","legacy","0","207","NA","uniform","64574","1000","0.0154861089603","1","undefined","1","0","44","44","44","0","44","44","44","NA","44","44","0","44","NA","44","44","0","44","NA","44","NA","44","0","0","44","44","0","44","44","45","/","02/28/19 12:24:10","The main experiment item","yes","FIN__AB__M21__7%3A10%3A17.osexp","C:\Users\ERP Testing Room\Desktop\Joanna\morph21","no","mono","no","18","no","white","no","yes","1080","legacy","44","44","C:/Users/ERP Testing Room/Desktop/Joanna/morph21/subject-162.csv","xpyriment","Kafkaesque Koffka","3.2.5","0","/","NA","NA","NA","NA","space","/","490","NA","NA","NA","NA","298345","490","2","legacy","1024","2","48000","-16","AB_m21","162","even","FILL_W","LIFT","2044","464668","461460","463160","300402","NA","NA","NA","NA","463151","461957","NA","460960","NA","460950","463151","2056","465018","NA","NA","462160","2044","2044","462551","460950","2044","462160","465018","morph21_Oliver/Morris","43","25180","45","yes","1280","39"
"250","95.652173913","95.652173913","559.065217391","559.065217391","black","no","xpyriment","legacy","legacy","0","202","NA","uniform","70423","1000","0.0141999062806","1","undefined","1","0","45","45","45","0","45","45","45","NA","45","45","0","45","NA","45","45","0","45","NA","45","NA","45","0","0","45","45","0","45","45","46","/","02/28/19 12:24:10","The main experiment item","yes","FIN__AB__M21__7%3A10%3A17.osexp","C:\Users\ERP Testing Room\Desktop\Joanna\morph21","no","mono","no","18","no","white","no","yes","1080","legacy","45","45","C:/Users/ERP Testing Room/Desktop/Joanna/morph21/subject-162.csv","xpyriment","Kafkaesque Koffka","3.2.5","0","/","NA","NA","NA","NA","space","/","537","NA","NA","NA","NA","298345","537","2","legacy","1024","2","48000","-16","AB_m21","162","even","CW_L","STRIKER","2044","467785","466110","463160","300402","NA","NA","NA","NA","467777","466607","NA","465610","NA","465599","467777","2056","468035","NA","NA","466785","2044","2044","467177","465599","2044","466785","468035","morph21_Oliver/Morris","44","25717","46","yes","1280","17"
"400","93.6170212766","93.6170212766","559.255319149","559.255319149","black","no","xpyriment","legacy","legacy","0","204","NA","uniform","64668","1000","0.0154635986887","0","undefined","0","0","46","46","46","0","46","46","46","NA","46","46","0","46","NA","46","46","0","46","NA","46","NA","46","0","0","46","46","0","46","46","47","z","02/28/19 12:24:10","The main experiment item","yes","FIN__AB__M21__7%3A10%3A17.osexp","C:\Users\ERP Testing Room\Desktop\Joanna\morph21","no","mono","no","18","no","white","no","yes","1080","legacy","46","46","C:/Users/ERP Testing Room/Desktop/Joanna/morph21/subject-162.csv","xpyriment","Kafkaesque Koffka","3.2.5","0","/","NA","NA","NA","NA","space","/","568","NA","NA","NA","NA","298345","568","2","legacy","1024","2","48000","-16","AB_m21","162","even","NW_L_COMP","PASSMENT","2044","470818","469168","463160","300402","NA","NA","NA","NA","467777","469666","NA","468668","NA","468663","470812","2056","471218","NA","NA","469818","2044","2044","470210","468663","2044","469818","471218","morph21_Oliver/Morris","44","26285","47","yes","1280","14"
"350","93.75","93.75","559.895833333","559.895833333","black","no","xpyriment","legacy","legacy","0","208","NA","uniform","66175","1000","0.015111446921","1","undefined","1","0","47","47","47","0","47","47","47","NA","47","47","0","47","NA","47","47","0","47","NA","47","NA","47","0","0","47","47","0","47","47","48","z","02/28/19 12:24:10","The main experiment item","yes","FIN__AB__M21__7%3A10%3A17.osexp","C:\Users\ERP Testing Room\Desktop\Joanna\morph21","no","mono","no","18","no","white","no","yes","1080","legacy","47","47","C:/Users/ERP Testing Room/Desktop/Joanna/morph21/subject-162.csv","xpyriment","Kafkaesque Koffka","3.2.5","0","z","NA","NA","NA","NA","space","z","590","NA","NA","NA","NA","298345","590","2","legacy","1024","2","48000","-16","AB_m21","162","even","FILL_NW","DARF","2044","475520","472352","474010","300402","NA","NA","NA","NA","474007","472849","NA","471844","NA","471834","474007","2056","475870","NA","NA","473019","2044","2044","473410","471834","2044","473019","475870","morph21_Oliver/Morris","45","26875","48","yes","1280","10"
"300","93.8775510204","93.8775510204","560.102040816","560.102040816","black","no","xpyriment","legacy","legacy","0","208","NA","uniform","73066","1000","0.0136862562615","1","undefined","1","0","48","48","48","0","48","48","48","NA","48","48","0","48","NA","48","48","0","48","NA","48","NA","48","0","0","48","48","0","48","48","49","z","02/28/19 12:24:10","The main experiment item","yes","FIN__AB__M21__7%3A10%3A17.osexp","C:\Users\ERP Testing Room\Desktop\Joanna\morph21","no","mono","no","18","no","white","no","yes","1080","legacy","48","48","C:/Users/ERP Testing Room/Desktop/Joanna/morph21/subject-162.csv","xpyriment","Kafkaesque Koffka","3.2.5","0","z","NA","NA","NA","NA","space","z","570","NA","NA","NA","NA","298345","570","2","legacy","1024","2","48000","-16","AB_m21","162","even","FILL_NW","DULKS","2044","478720","477053","474010","300402","NA","NA","NA","NA","478713","477550","NA","476553","NA","476545","478713","2056","479020","NA","NA","477720","2044","2044","478111","476545","2044","477720","479020","morph21_Oliver/Morris","46","27445","49","yes","1280","18"
"200","94","94","558.48","558.48","black","no","xpyriment","legacy","legacy","0","208","NA","uniform","69928","1000","0.0143004232925","1","undefined","1","0","49","49","49","0","49","49","49","NA","49","49","0","49","NA","49","49","0","49","NA","49","NA","49","0","0","49","49","0","49","49","50","z","02/28/19 12:24:10","The main experiment item","yes","FIN__AB__M21__7%3A10%3A17.osexp","C:\Users\ERP Testing Room\Desktop\Joanna\morph21","no","mono","no","18","no","white","no","yes","1080","legacy","49","49","C:/Users/ERP Testing Room/Desktop/Joanna/morph21/subject-162.csv","xpyriment","Kafkaesque Koffka","3.2.5","0","z","NA","NA","NA","NA","space","z","479","NA","NA","NA","NA","298345","479","2","legacy","1024","2","48000","-16","AB_m21","162","even","FILL_NW","BROUPS","2044","481787","480137","474010","300402","NA","NA","NA","NA","481782","480634","NA","479637","NA","479631","481782","2056","481987","NA","NA","480787","2044","2044","481187","479631","2044","480787","481987","morph21_Oliver/Morris","47","27924","50","yes","1280","4"
"400","94.1176470588","94.1176470588","558.862745098","558.862745098","black","no","xpyriment","legacy","legacy","0","208","NA","uniform","68144","1000","0.0146748062926","1","undefined","1","0","50","50","50","0","50","50","50","NA","50","50","0","50","NA","50","50","0","50","NA","50","NA","50","0","0","50","50","0","50","50","51","z","02/28/19 12:24:10","The main experiment item","yes","FIN__AB__M21__7%3A10%3A17.osexp","C:\Users\ERP Testing Room\Desktop\Joanna\morph21","no","mono","no","18","no","white","no","yes","1080","legacy","50","50","C:/Users/ERP Testing Room/Desktop/Joanna/morph21/subject-162.csv","xpyriment","Kafkaesque Koffka","3.2.5","0","z","NA","NA","NA","NA","space","z","578","NA","NA","NA","NA","298345","578","2","legacy","1024","2","48000","-16","AB_m21","162","even","FILL_NW","GIKE","2044","486237","483078","484728","300402","NA","NA","NA","NA","484723","483575","NA","482578","NA","482572","484723","2056","486637","NA","NA","483728","2044","2044","484128","482572","2044","483728","486637","morph21_Oliver/Morris","48","28502","51","yes","1280","24"
"350","94.2307692308","94.2307692308","556.538461538","556.538461538","black","no","xpyriment","legacy","legacy","0","202","NA","uniform","76022","1000","0.0131540869748","1","undefined","1","0","51","51","51","0","51","51","51","NA","51","51","0","51","NA","51","51","0","51","NA","51","NA","51","0","0","51","51","0","51","51","52","/","02/28/19 12:24:10","The main experiment item","yes","FIN__AB__M21__7%3A10%3A17.osexp","C:\Users\ERP Testing Room\Desktop\Joanna\morph21","no","mono","no","18","no","white","no","yes","1080","legacy","51","51","C:/Users/ERP Testing Room/Desktop/Joanna/morph21/subject-162.csv","xpyriment","Kafkaesque Koffka","3.2.5","0","/","NA","NA","NA","NA","space","/","438","NA","NA","NA","NA","298345","438","2","legacy","1024","2","48000","-16","AB_m21","162","even","CW_L","HUNTER","2044","489420","487745","484728","300402","NA","NA","NA","NA","489413","488242","NA","487245","NA","487242","489413","2056","489770","NA","NA","488420","2044","2044","488812","487242","2044","488420","489770","morph21_Oliver/Morris","49","28940","52","yes","1280","10"
"400","94.3396226415","94.3396226415","556.264150943","556.264150943","black","no","xpyriment","legacy","legacy","0","202","NA","uniform","72187","1000","0.0138529098037","1","undefined","1","0","52","52","52","0","52","52","52","NA","52","52","0","52","NA","52","52","0","52","NA","52","NA","52","0","0","52","52","0","52","52","53","/","02/28/19 12:24:10","The main experiment item","yes","FIN__AB__M21__7%3A10%3A17.osexp","C:\Users\ERP Testing Room\Desktop\Joanna\morph21","no","mono","no","18","no","white","no","yes","1080","legacy","52","52","C:/Users/ERP Testing Room/Desktop/Joanna/morph21/subject-162.csv","xpyriment","Kafkaesque Koffka","3.2.5","0","/","NA","NA","NA","NA","space","/","542","NA","NA","NA","NA","298345","542","2","legacy","1024","2","48000","-16","AB_m21","162","even","CW_L","LOCKER","2044","492587","490895","484728","300402","NA","NA","NA","NA","492577","491393","NA","490395","NA","490387","492577","2056","492987","NA","NA","491587","2044","2044","491979","490387","2044","491587","492987","morph21_Oliver/Morris","50","29482","53","yes","1280","8"
"350","94.4444444444","94.4444444444","556.611111111","556.611111111","black","no","xpyriment","legacy","legacy","0","208","NA","uniform","67519","1000","0.0148106458923","1","undefined","1","0","53","53","53","0","53","53","53","NA","53","53","0","53","NA","53","53","0","53","NA","53","NA","53","0","0","53","53","0","53","53","54","z","02/28/19 12:24:10","The main experiment item","yes","FIN__AB__M21__7%3A10%3A17.osexp","C:\Users\ERP Testing Room\Desktop\Joanna\morph21","no","mono","no","18","no","white","no","yes","1080","legacy","53","53","C:/Users/ERP Testing Room/Desktop/Joanna/morph21/subject-162.csv","xpyriment","Kafkaesque Koffka","3.2.5","0","z","NA","NA","NA","NA","space","z","575","NA","NA","NA","NA","298345","575","2","legacy","1024","2","48000","-16","AB_m21","162","even","FILL_NW","BLANTH","2044","497272","494105","495763","300402","NA","NA","NA","NA","495758","494602","NA","493605","NA","493596","495758","2056","497622","NA","NA","494763","2044","2044","495163","493596","2044","494763","497622","morph21_Oliver/Morris","51","30057","54","yes","1280","3"
"400","94.5454545455","94.5454545455","555.927272727","555.927272727","black","no","xpyriment","legacy","legacy","0","207","NA","uniform","65589","1000","0.0152464590099","1","undefined","1","0","54","54","54","0","54","54","54","NA","54","54","0","54","NA","54","54","0","54","NA","54","NA","54","0","0","54","54","0","54","54","55","/","02/28/19 12:24:10","The main experiment item","yes","FIN__AB__M21__7%3A10%3A17.osexp","C:\Users\ERP Testing Room\Desktop\Joanna\morph21","no","mono","no","18","no","white","no","yes","1080","legacy","54","54","C:/Users/ERP Testing Room/Desktop/Joanna/morph21/subject-162.csv","xpyriment","Kafkaesque Koffka","3.2.5","0","/","NA","NA","NA","NA","space","/","519","NA","NA","NA","NA","298345","519","2","legacy","1024","2","48000","-16","AB_m21","162","even","FILL_W","CRUNCH","2044","500547","498897","495763","300402","NA","NA","NA","NA","500540","499394","NA","498397","NA","498389","500540","2056","500947","NA","NA","499547","2044","2044","499938","498389","2044","499547","500947","morph21_Oliver/Morris","52","30576","55","yes","1280","20"
"400","94.6428571429","94.6428571429","556.232142857","556.232142857","black","no","xpyriment","legacy","legacy","0","208","NA","uniform","66600","1000","0.015015015015","1","undefined","1","0","55","55","55","0","55","55","55","NA","55","55","0","55","NA","55","55","0","55","NA","55","NA","55","0","0","55","55","0","55","55","56","z","02/28/19 12:24:10","The main experiment item","yes","FIN__AB__M21__7%3A10%3A17.osexp","C:\Users\ERP Testing Room\Desktop\Joanna\morph21","no","mono","no","18","no","white","no","yes","1080","legacy","55","55","C:/Users/ERP Testing Room/Desktop/Joanna/morph21/subject-162.csv","xpyriment","Kafkaesque Koffka","3.2.5","0","z","NA","NA","NA","NA","space","z","573","NA","NA","NA","NA","298345","573","2","legacy","1024","2","48000","-16","AB_m21","162","even","FILL_NW","FROES","2044","503788","502113","495763","300402","NA","NA","NA","NA","503780","502611","NA","501613","NA","501604","503780","2056","504189","NA","NA","502789","2044","2044","503180","501603","2044","502789","504189","morph21_Oliver/Morris","53","31149","56","yes","1280","21"
"250","94.7368421053","94.7368421053","555.263157895","555.263157895","black","no","xpyriment","legacy","legacy","0","207","NA","uniform","66574","1000","0.0150208790218","1","undefined","1","0","56","56","56","0","56","56","56","NA","56","56","0","56","NA","56","56","0","56","NA","56","NA","56","0","0","56","56","0","56","56","57","/","02/28/19 12:24:10","The main experiment item","yes","FIN__AB__M21__7%3A10%3A17.osexp","C:\Users\ERP Testing Room\Desktop\Joanna\morph21","no","mono","no","18","no","white","no","yes","1080","legacy","56","56","C:/Users/ERP Testing Room/Desktop/Joanna/morph21/subject-162.csv","xpyriment","Kafkaesque Koffka","3.2.5","0","/","NA","NA","NA","NA","space","/","501","NA","NA","NA","NA","298345","501","2","legacy","1024","2","48000","-16","AB_m21","162","even","FILL_W","TASTE","2044","508497","505330","506989","300402","NA","NA","NA","NA","506983","505827","NA","504830","NA","504822","506983","2056","508747","NA","NA","505989","2044","2044","506380","504822","2044","505989","508747","morph21_Oliver/Morris","54","31650","57","yes","1280","34"
"300","94.8275862069","94.8275862069","555.189655172","555.189655172","black","no","xpyriment","legacy","legacy","0","208","NA","uniform","66919","1000","0.0149434390831","1","undefined","1","0","57","57","57","0","57","57","57","NA","57","57","0","57","NA","57","57","0","57","NA","57","NA","57","0","0","57","57","0","57","57","58","z","02/28/19 12:24:10","The main experiment item","yes","FIN__AB__M21__7%3A10%3A17.osexp","C:\Users\ERP Testing Room\Desktop\Joanna\morph21","no","mono","no","18","no","white","no","yes","1080","legacy","57","57","C:/Users/ERP Testing Room/Desktop/Joanna/morph21/subject-162.csv","xpyriment","Kafkaesque Koffka","3.2.5","0","z","NA","NA","NA","NA","space","z","551","NA","NA","NA","NA","298345","551","2","legacy","1024","2","48000","-16","AB_m21","162","even","FILL_NW","DASK","2044","511531","509880","506989","300402","NA","NA","NA","NA","511526","510378","NA","509380","NA","509372","511526","2056","511832","NA","NA","510531","2044","2044","510923","509372","2044","510531","511832","morph21_Oliver/Morris","55","32201","58","yes","1280","12"
"400","94.9152542373","94.9152542373","555.728813559","555.728813559","black","no","xpyriment","legacy","legacy","0","203","NA","uniform","64022","1000","0.0156196307519","1","undefined","1","0","58","58","58","0","58","58","58","NA","58","58","0","58","NA","58","58","0","58","NA","58","NA","58","0","0","58","58","0","58","58","59","z","02/28/19 12:24:10","The main experiment item","yes","FIN__AB__M21__7%3A10%3A17.osexp","C:\Users\ERP Testing Room\Desktop\Joanna\morph21","no","mono","no","18","no","white","no","yes","1080","legacy","58","58","C:/Users/ERP Testing Room/Desktop/Joanna/morph21/subject-162.csv","xpyriment","Kafkaesque Koffka","3.2.5","0","z","NA","NA","NA","NA","space","z","587","NA","NA","NA","NA","298345","587","2","legacy","1024","2","48000","-16","AB_m21","162","even","NW_S_COMP","ALTARIC","2044","514607","512957","506989","300402","NA","NA","NA","NA","514603","513454","NA","512457","NA","512448","514603","2056","515007","NA","NA","513615","2044","2044","514007","512448","2044","513615","515007","morph21_Oliver/Morris","56","32788","59","yes","1280","7"
"250","95","95","556.766666667","556.766666667","black","no","xpyriment","legacy","legacy","0","207","NA","uniform","64859","1000","0.0154180607163","1","undefined","1","0","59","59","59","0","59","59","59","NA","59","59","0","59","NA","59","59","0","59","NA","59","NA","59","0","0","59","59","0","59","59","60","/","02/28/19 12:24:10","The main experiment item","yes","FIN__AB__M21__7%3A10%3A17.osexp","C:\Users\ERP Testing Room\Desktop\Joanna\morph21","no","mono","no","18","no","white","no","yes","1080","legacy","59","59","C:/Users/ERP Testing Room/Desktop/Joanna/morph21/subject-162.csv","xpyriment","Kafkaesque Koffka","3.2.5","0","/","NA","NA","NA","NA","space","/","618","NA","NA","NA","NA","298345","618","2","legacy","1024","2","48000","-16","AB_m21","162","even","FILL_W","SOUGHT","2044","519349","516173","517840","300402","NA","NA","NA","NA","517831","516671","NA","515673","NA","515668","517831","2056","519599","NA","NA","516840","2044","2044","517232","515668","2044","516840","519599","morph21_Oliver/Morris","57","33406","60","yes","1280","40"
"250","95.0819672131","95.0819672131","558.147540984","558.147540984","black","no","xpyriment","legacy","legacy","0","204","NA","uniform","63286","1000","0.0158012830642","1","undefined","1","0","60","60","60","0","60","60","60","NA","60","60","0","60","NA","60","60","0","60","NA","60","NA","60","0","0","60","60","0","60","60","61","z","02/28/19 12:24:10","The main experiment item","yes","FIN__AB__M21__7%3A10%3A17.osexp","C:\Users\ERP Testing Room\Desktop\Joanna\morph21","no","mono","no","18","no","white","no","yes","1080","legacy","60","60","C:/Users/ERP Testing Room/Desktop/Joanna/morph21/subject-162.csv","xpyriment","Kafkaesque Koffka","3.2.5","0","z","NA","NA","NA","NA","space","z","641","NA","NA","NA","NA","298345","641","2","legacy","1024","2","48000","-16","AB_m21","162","even","NW_L_COMP","FREENESS","2044","522457","520790","517840","300402","NA","NA","NA","NA","522453","521287","NA","520290","NA","520283","522453","2056","522707","NA","NA","521457","2044","2044","521857","520283","2044","521457","522707","morph21_Oliver/Morris","58","34047","61","yes","1280","15"
"300","95.1612903226","95.1612903226","559.951612903","559.951612903","black","no","xpyriment","legacy","legacy","0","204","NA","uniform","65935","1000","0.0151664518086","1","undefined","1","0","61","61","61","0","61","61","61","NA","61","61","0","61","NA","61","61","0","61","NA","61","NA","61","0","0","61","61","0","61","61","62","z","02/28/19 12:24:10","The main experiment item","yes","FIN__AB__M21__7%3A10%3A17.osexp","C:\Users\ERP Testing Room\Desktop\Joanna\morph21","no","mono","no","18","no","white","no","yes","1080","legacy","61","61","C:/Users/ERP Testing Room/Desktop/Joanna/morph21/subject-162.csv","xpyriment","Kafkaesque Koffka","3.2.5","0","z","NA","NA","NA","NA","space","z","670","NA","NA","NA","NA","298345","670","2","legacy","1024","2","48000","-16","AB_m21","162","even","NW_L_COMP","ADDMENT","2044","525524","523824","517840","300402","NA","NA","NA","NA","525516","524321","NA","523324","NA","523315","525516","2056","525824","NA","NA","524524","2044","2044","524915","523315","2044","524524","525824","morph21_Oliver/Morris","59","34717","62","yes","1280","13"
"300","95.2380952381","95.2380952381","560.857142857","560.857142857","black","no","xpyriment","legacy","legacy","0","205","NA","uniform","68549","1000","0.0145881048593","1","undefined","1","0","62","62","62","0","62","62","62","NA","62","62","0","62","NA","62","62","0","62","NA","62","NA","62","0","0","62","62","0","62","62","63","z","02/28/19 12:24:10","The main experiment item","yes","FIN__AB__M21__7%3A10%3A17.osexp","C:\Users\ERP Testing Room\Desktop\Joanna\morph21","no","mono","no","18","no","white","no","yes","1080","legacy","62","62","C:/Users/ERP Testing Room/Desktop/Joanna/morph21/subject-162.csv","xpyriment","Kafkaesque Koffka","3.2.5","0","z","NA","NA","NA","NA","space","z","617","NA","NA","NA","NA","298345","617","2","legacy","1024","2","48000","-16","AB_m21","162","even","NW_S_SIMP","WINKIDY","2044","530150","526990","528642","300402","NA","NA","NA","NA","528635","527488","NA","526490","NA","526479","528635","2056","530450","NA","NA","527641","2044","2044","528033","526479","2044","527640","530450","morph21_Oliver/Morris","60","35334","63","yes","1280","21"
"400","95.3125","95.3125","560.6875","560.6875","black","no","xpyriment","legacy","legacy","0","208","NA","uniform","69428","1000","0.0144034107277","1","undefined","1","0","63","63","63","0","63","63","63","NA","63","63","0","63","NA","63","63","0","63","NA","63","NA","63","0","0","63","63","0","63","63","64","z","02/28/19 12:24:10","The main experiment item","yes","FIN__AB__M21__7%3A10%3A17.osexp","C:\Users\ERP Testing Room\Desktop\Joanna\morph21","no","mono","no","18","no","white","no","yes","1080","legacy","63","63","C:/Users/ERP Testing Room/Desktop/Joanna/morph21/subject-162.csv","xpyriment","Kafkaesque Koffka","3.2.5","0","z","NA","NA","NA","NA","space","z","550","NA","NA","NA","NA","298345","550","2","legacy","1024","2","48000","-16","AB_m21","162","even","FILL_NW","VELT","2044","533300","531600","528642","300402","NA","NA","NA","NA","533297","532097","NA","531100","NA","531089","533297","2056","533700","NA","NA","532308","2044","2044","532700","531089","2044","532308","533700","morph21_Oliver/Morris","61","35884","64","yes","1280","46"
"250","95.3846153846","95.3846153846","560.230769231","560.230769231","black","no","xpyriment","legacy","legacy","0","201","NA","uniform","65741","1000","0.0152112076178","1","undefined","1","0","64","64","64","0","64","64","64","NA","64","64","0","64","NA","64","64","0","64","NA","64","NA","64","0","0","64","64","0","64","64","65","/","02/28/19 12:24:10","The main experiment item","yes","FIN__AB__M21__7%3A10%3A17.osexp","C:\Users\ERP Testing Room\Desktop\Joanna\morph21","no","mono","no","18","no","white","no","yes","1080","legacy","64","64","C:/Users/ERP Testing Room/Desktop/Joanna/morph21/subject-162.csv","xpyriment","Kafkaesque Koffka","3.2.5","0","/","NA","NA","NA","NA","space","/","531","NA","NA","NA","NA","298345","531","2","legacy","1024","2","48000","-16","AB_m21","162","even","CW_S","NOTICEABLE","2044","536559","534859","528642","300402","NA","NA","NA","NA","536549","535356","NA","534359","NA","534348","536549","2056","536809","NA","NA","535559","2044","2044","535950","534348","2044","535558","536809","morph21_Oliver/Morris","62","36415","65","yes","1280","3"
"200","95.4545454545","95.4545454545","559.757575758","559.757575758","black","no","xpyriment","legacy","legacy","0","207","NA","uniform","63732","1000","0.0156907048265","1","undefined","1","0","65","65","65","0","65","65","65","NA","65","65","0","65","NA","65","65","0","65","NA","65","NA","65","0","0","65","65","0","65","65","66","/","02/28/19 12:24:10","The main experiment item","yes","FIN__AB__M21__7%3A10%3A17.osexp","C:\Users\ERP Testing Room\Desktop\Joanna\morph21","no","mono","no","18","no","white","no","yes","1080","legacy","65","65","C:/Users/ERP Testing Room/Desktop/Joanna/morph21/subject-162.csv","xpyriment","Kafkaesque Koffka","3.2.5","0","/","NA","NA","NA","NA","space","/","529","NA","NA","NA","NA","298345","529","2","legacy","1024","2","48000","-16","AB_m21","162","even","FILL_W","LEGAL","2044","541134","537967","539625","300402","NA","NA","NA","NA","539622","538464","NA","537467","NA","537459","539622","2056","541334","NA","NA","538625","2044","2044","539025","537459","2044","538625","541334","morph21_Oliver/Morris","63","36944","66","yes","1280","35"
"400","95.5223880597","95.5223880597","561.223880597","561.223880597","black","no","xpyriment","legacy","legacy","0","202","NA","uniform","67347","1000","0.0148484713499","1","undefined","1","0","66","66","66","0","66","66","66","NA","66","66","0","66","NA","66","66","0","66","NA","66","NA","66","0","0","66","66","0","66","66","67","/","02/28/19 12:24:10","The main experiment item","yes","FIN__AB__M21__7%3A10%3A17.osexp","C:\Users\ERP Testing Room\Desktop\Joanna\morph21","no","mono","no","18","no","white","no","yes","1080","legacy","66","66","C:/Users/ERP Testing Room/Desktop/Joanna/morph21/subject-162.csv","xpyriment","Kafkaesque Koffka","3.2.5","0","/","NA","NA","NA","NA","space","/","658","NA","NA","NA","NA","298345","658","2","legacy","1024","2","48000","-16","AB_m21","162","even","CW_L","CLEANER","2044","544159","542484","539625","300402","NA","NA","NA","NA","544150","542981","NA","541976","NA","541970","544150","2056","544559","NA","NA","543159","2044","2044","543550","541970","2044","543159","544559","morph21_Oliver/Morris","64","37602","67","yes","1280","15"
"200","95.5882352941","95.5882352941","560.779411765","560.779411765","black","no","xpyriment","legacy","legacy","0","208","NA","uniform","72484","1000","0.0137961481154","1","undefined","1","0","67","67","67","0","67","67","67","NA","67","67","0","67","NA","67","67","0","67","NA","67","NA","67","0","0","67","67","0","67","67","68","z","02/28/19 12:24:10","The main experiment item","yes","FIN__AB__M21__7%3A10%3A17.osexp","C:\Users\ERP Testing Room\Desktop\Joanna\morph21","no","mono","no","18","no","white","no","yes","1080","legacy","67","67","C:/Users/ERP Testing Room/Desktop/Joanna/morph21/subject-162.csv","xpyriment","Kafkaesque Koffka","3.2.5","0","z","NA","NA","NA","NA","space","z","531","NA","NA","NA","NA","298345","531","2","legacy","1024","2","48000","-16","AB_m21","162","even","FILL_NW","GILN","2044","547327","545660","539625","300402","NA","NA","NA","NA","547319","546157","NA","545159","NA","545154","547319","2056","547527","NA","NA","546327","2044","2044","546718","545154","2044","546327","547527","morph21_Oliver/Morris","65","38133","68","yes","1280","25"
"400","94.2028985507","94.2028985507","559.855072464","559.855072464","black","no","xpyriment","legacy","legacy","0","203","NA","uniform","66636","1000","0.0150069031755","0","undefined","0","0","68","68","68","0","68","68","68","NA","68","68","0","68","NA","68","68","0","68","NA","68","NA","68","0","0","68","68","0","68","68","69","z","02/28/19 12:24:10","The main experiment item","yes","FIN__AB__M21__7%3A10%3A17.osexp","C:\Users\ERP Testing Room\Desktop\Joanna\morph21","no","mono","no","18","no","white","no","yes","1080","legacy","68","68","C:/Users/ERP Testing Room/Desktop/Joanna/morph21/subject-162.csv","xpyriment","Kafkaesque Koffka","3.2.5","0","/","NA","NA","NA","NA","space","/","497","NA","NA","NA","NA","298345","497","2","legacy","1024","2","48000","-16","AB_m21","162","even","NW_S_COMP","TRUENESS","2044","551902","548743","550393","300402","NA","NA","NA","NA","547319","549241","NA","548243","NA","548234","550383","2056","552302","NA","NA","549393","2044","2044","549785","548234","2044","549393","552302","morph21_Oliver/Morris","65","38630","69","yes","1280","15"
"250","94.2857142857","94.2857142857","559.071428571","559.071428571","black","no","xpyriment","legacy","legacy","0","202","NA","uniform","70491","1000","0.0141862081684","1","undefined","1","0","69","69","69","0","69","69","69","NA","69","69","0","69","NA","69","69","0","69","NA","69","NA","69","0","0","69","69","0","69","69","70","/","02/28/19 12:24:10","The main experiment item","yes","FIN__AB__M21__7%3A10%3A17.osexp","C:\Users\ERP Testing Room\Desktop\Joanna\morph21","no","mono","no","18","no","white","no","yes","1080","legacy","69","69","C:/Users/ERP Testing Room/Desktop/Joanna/morph21/subject-162.csv","xpyriment","Kafkaesque Koffka","3.2.5","0","/","NA","NA","NA","NA","space","/","505","NA","NA","NA","NA","298345","505","2","legacy","1024","2","48000","-16","AB_m21","162","even","CW_L","EXCITEMENT","2044","555177","553452","550393","300402","NA","NA","NA","NA","555172","553949","NA","552952","NA","552947","555172","2056","555427","NA","NA","554177","2044","2044","554577","552947","2044","554177","555427","morph21_Oliver/Morris","66","39135","70","yes","1280","38"
"350","94.3661971831","94.3661971831","558.971830986","558.971830986","black","no","xpyriment","legacy","legacy","0","208","NA","uniform","70258","1000","0.014233254576","1","undefined","1","0","70","70","70","0","70","70","70","NA","70","70","0","70","NA","70","70","0","70","NA","70","NA","70","0","0","70","70","0","70","70","71","z","02/28/19 12:24:10","The main experiment item","yes","FIN__AB__M21__7%3A10%3A17.osexp","C:\Users\ERP Testing Room\Desktop\Joanna\morph21","no","mono","no","18","no","white","no","yes","1080","legacy","70","70","C:/Users/ERP Testing Room/Desktop/Joanna/morph21/subject-162.csv","xpyriment","Kafkaesque Koffka","3.2.5","0","z","NA","NA","NA","NA","space","z","552","NA","NA","NA","NA","298345","552","2","legacy","1024","2","48000","-16","AB_m21","162","even","FILL_NW","DELP","2044","558185","556519","550393","300402","NA","NA","NA","NA","558183","557016","NA","556019","NA","556015","558183","2056","558536","NA","NA","557194","2044","2044","557585","556015","2044","557194","558536","morph21_Oliver/Morris","67","39687","71","yes","1280","14"
"350","94.4444444444","94.4444444444","559.361111111","559.361111111","black","no","xpyriment","legacy","legacy","0","203","NA","uniform","55211","1000","0.0181123326873","1","undefined","1","0","71","71","71","0","71","71","71","NA","71","71","0","71","NA","71","71","0","71","NA","71","NA","71","0","0","71","71","0","71","71","72","z","02/28/19 12:24:10","The main experiment item","yes","FIN__AB__M21__7%3A10%3A17.osexp","C:\Users\ERP Testing Room\Desktop\Joanna\morph21","no","mono","no","18","no","white","no","yes","1080","legacy","71","71","C:/Users/ERP Testing Room/Desktop/Joanna/morph21/subject-162.csv","xpyriment","Kafkaesque Koffka","3.2.5","0","z","NA","NA","NA","NA","space","z","587","NA","NA","NA","NA","298345","587","2","legacy","1024","2","48000","-16","AB_m21","162","even","NW_S_COMP","FIENDISM","2044","562794","559594","561286","300402","NA","NA","NA","NA","561275","560091","NA","559094","NA","559086","561275","2056","563144","NA","NA","560286","2044","2044","560677","559086","2044","560286","563144","morph21_Oliver/Morris","68","40274","72","yes","1280","24"
"300","94.5205479452","94.5205479452","559.465753425","559.465753425","black","no","xpyriment","legacy","legacy","0","208","NA","uniform","68606","1000","0.0145759846078","1","undefined","1","0","72","72","72","0","72","72","72","NA","72","72","0","72","NA","72","72","0","72","NA","72","NA","72","0","0","72","72","0","72","72","73","z","02/28/19 12:24:10","The main experiment item","yes","FIN__AB__M21__7%3A10%3A17.osexp","C:\Users\ERP Testing Room\Desktop\Joanna\morph21","no","mono","no","18","no","white","no","yes","1080","legacy","72","72","C:/Users/ERP Testing Room/Desktop/Joanna/morph21/subject-162.csv","xpyriment","Kafkaesque Koffka","3.2.5","0","z","NA","NA","NA","NA","space","z","567","NA","NA","NA","NA","298345","567","2","legacy","1024","2","48000","-16","AB_m21","162","even","FILL_NW","HEEM","2044","565978","564278","561286","300402","NA","NA","NA","NA","565968","564776","NA","563778","NA","563767","565968","2056","566278","NA","NA","564979","2044","2044","565370","563767","2044","564979","566278","morph21_Oliver/Morris","69","40841","73","yes","1280","27"
"250","94.5945945946","94.5945945946","560.283783784","560.283783784","black","no","xpyriment","legacy","legacy","0","202","NA","uniform","61825","1000","0.0161746866154","1","undefined","1","0","73","73","73","0","73","73","73","NA","73","73","0","73","NA","73","73","0","73","NA","73","NA","73","0","0","73","73","0","73","73","74","/","02/28/19 12:24:10","The main experiment item","yes","FIN__AB__M21__7%3A10%3A17.osexp","C:\Users\ERP Testing Room\Desktop\Joanna\morph21","no","mono","no","18","no","white","no","yes","1080","legacy","73","73","C:/Users/ERP Testing Room/Desktop/Joanna/morph21/subject-162.csv","xpyriment","Kafkaesque Koffka","3.2.5","0","/","NA","NA","NA","NA","space","/","620","NA","NA","NA","NA","298345","620","2","legacy","1024","2","48000","-16","AB_m21","162","even","CW_L","FLEXIBLE","2044","569062","567412","561286","300402","NA","NA","NA","NA","569052","567909","NA","566912","NA","566902","569052","2056","569312","NA","NA","568062","2044","2044","568454","566902","2044","568062","569312","morph21_Oliver/Morris","70","41461","74","yes","1280","22"
"350","94.6666666667","94.6666666667","560.72","560.72","black","no","xpyriment","legacy","legacy","0","207","NA","uniform","68459","1000","0.0146072831914","undefined","undefined","1","0","74","74","74","0","74","74","74","NA","74","74","0","74","NA","74","74","0","74","NA","74","NA","74","0","0","74","74","0","74","74","75","/","02/28/19 12:24:10","The main experiment item","yes","FIN__AB__M21__7%3A10%3A17.osexp","C:\Users\ERP Testing Room\Desktop\Joanna\morph21","no","mono","no","18","no","white","no","yes","1080","legacy","74","74","C:/Users/ERP Testing Room/Desktop/Joanna/morph21/subject-162.csv","xpyriment","Kafkaesque Koffka","3.2.5","0","space","space","NA","NA","NA","space","/","25991","25991","NA","NA","NA","298345","593","2","legacy","1024","2","48000","-16","AB_m21","162","even","FILL_W","LEAK","2044","573637","570470","572129","300402","573995","NA","NA","NA","572120","570968","NA","569970","NA","569960","572120","2056","599987","NA","NA","571129","2044","2044","571520","569960","2044","571129","573987","morph21_Oliver/Morris","71","42054","75","yes","1280","9"
"400","94.7368421053","94.7368421053","560.986842105","560.986842105","black","no","xpyriment","legacy","legacy","0","205","NA","uniform","68586","1000","0.0145802350334","1","undefined","1","0","75","75","75","0","75","75","75","NA","75","75","0","75","NA","75","75","0","75","NA","75","NA","75","0","0","75","75","0","75","75","76","z","02/28/19 12:24:10","The main experiment item","yes","FIN__AB__M21__7%3A10%3A17.osexp","C:\Users\ERP Testing Room\Desktop\Joanna\morph21","no","mono","no","18","no","white","no","yes","1080","legacy","75","75","C:/Users/ERP Testing Room/Desktop/Joanna/morph21/subject-162.csv","xpyriment","Kafkaesque Koffka","3.2.5","0","z","space","NA","NA","NA","space","z","581","25991","NA","NA","NA","298345","581","2","legacy","1024","2","48000","-16","AB_m21","162","even","NW_S_SIMP","AIDIG","2044","602757","601065","572129","300402","573995","NA","NA","NA","602753","601562","NA","600565","NA","600562","602753","2056","603157","NA","NA","601765","2044","2044","602157","600561","2044","601765","603157","morph21_Oliver/Morris","72","42635","76","yes","1280","4"
"200","94.8051948052","94.8051948052","560.727272727","560.727272727","black","no","xpyriment","legacy","legacy","0","202","NA","uniform","72939","1000","0.0137100865106","1","undefined","1","0","76","76","76","0","76","76","76","NA","76","76","0","76","NA","76","76","0","76","NA","76","NA","76","0","0","76","76","0","76","76","77","/","02/28/19 12:24:10","The main experiment item","yes","FIN__AB__M21__7%3A10%3A17.osexp","C:\Users\ERP Testing Room\Desktop\Joanna\morph21","no","mono","no","18","no","white","no","yes","1080","legacy","76","76","C:/Users/ERP Testing Room/Desktop/Joanna/morph21/subject-162.csv","xpyriment","Kafkaesque Koffka","3.2.5","0","/","space","NA","NA","NA","space","/","541","25991","NA","NA","NA","298345","541","2","legacy","1024","2","48000","-16","AB_m21","162","even","CW_L","BOOTLESS","2044","605965","604299","572129","300402","573995","NA","NA","NA","605958","604796","NA","603799","NA","603790","605958","2056","606166","NA","NA","604965","2044","2044","605357","603790","2044","604965","606166","morph21_Oliver/Morris","73","43176","77","yes","1280","32"
"350","94.8717948718","94.8717948718","561.717948718","561.717948718","black","no","xpyriment","legacy","legacy","0","201","NA","uniform","56909","1000","0.0175719130542","1","undefined","1","0","77","77","77","0","77","77","77","NA","77","77","0","77","NA","77","77","0","77","NA","77","NA","77","0","0","77","77","0","77","77","78","/","02/28/19 12:24:10","The main experiment item","yes","FIN__AB__M21__7%3A10%3A17.osexp","C:\Users\ERP Testing Room\Desktop\Joanna\morph21","no","mono","no","18","no","white","no","yes","1080","legacy","77","77","C:/Users/ERP Testing Room/Desktop/Joanna/morph21/subject-162.csv","xpyriment","Kafkaesque Koffka","3.2.5","0","/","space","NA","NA","NA","space","/","638","25991","NA","NA","NA","298345","638","2","legacy","1024","2","48000","-16","AB_m21","162","even","CW_S","BOSSY","2044","610432","607257","608924","300402","573995","NA","NA","NA","608917","607754","NA","606757","NA","606745","608917","2056","610783","NA","NA","607924","2044","2044","608316","606745","2044","607924","610783","morph21_Oliver/Morris","74","43814","78","yes","1280","49"
"200","94.9367088608","94.9367088608","561","561","black","no","xpyriment","legacy","legacy","0","202","NA","uniform","72960","1000","0.0137061403509","1","undefined","1","0","78","78","78","0","78","78","78","NA","78","78","0","78","NA","78","78","0","78","NA","78","NA","78","0","0","78","78","0","78","78","79","/","02/28/19 12:24:10","The main experiment item","yes","FIN__AB__M21__7%3A10%3A17.osexp","C:\Users\ERP Testing Room\Desktop\Joanna\morph21","no","mono","no","18","no","white","no","yes","1080","legacy","78","78","C:/Users/ERP Testing Room/Desktop/Joanna/morph21/subject-162.csv","xpyriment","Kafkaesque Koffka","3.2.5","0","/","space","NA","NA","NA","space","/","505","25991","NA","NA","NA","298345","505","2","legacy","1024","2","48000","-16","AB_m21","162","even","CW_L","COLLECTOR","2044","613632","611949","608924","300402","573995","NA","NA","NA","613629","612446","NA","611449","NA","611443","613629","2056","613833","NA","NA","612641","2044","2044","613032","611443","2044","612641","613833","morph21_Oliver/Morris","75","44319","79","yes","1280","46"
"400","95","95","561.1","561.1","black","no","xpyriment","legacy","legacy","0","204","NA","uniform","55152","1000","0.0181317087322","1","undefined","1","0","79","79","79","0","79","79","79","NA","79","79","0","79","NA","79","79","0","79","NA","79","NA","79","0","0","79","79","0","79","79","80","z","02/28/19 12:24:10","The main experiment item","yes","FIN__AB__M21__7%3A10%3A17.osexp","C:\Users\ERP Testing Room\Desktop\Joanna\morph21","no","mono","no","18","no","white","no","yes","1080","legacy","79","79","C:/Users/ERP Testing Room/Desktop/Joanna/morph21/subject-162.csv","xpyriment","Kafkaesque Koffka","3.2.5","0","z","space","NA","NA","NA","space","z","569","25991","NA","NA","NA","298345","569","2","legacy","1024","2","48000","-16","AB_m21","162","even","NW_L_COMP","COLDITY","2044","616609","614949","608924","300402","573995","NA","NA","NA","616604","615446","NA","614449","NA","614442","616604","2056","617009","NA","NA","615617","2044","2044","616009","614442","2044","615617","617009","morph21_Oliver/Morris","76","44888","80","yes","1280","10"
"200","93.8271604938","93.8271604938","566.419753086","566.419753086","black","no","xpyriment","legacy","legacy","0","203","NA","uniform","55887","1000","0.0178932488772","0","undefined","0","0","80","80","80","0","80","80","80","NA","80","80","0","80","NA","80","80","0","80","NA","80","NA","80","0","0","80","80","0","80","80","81","z","02/28/19 12:24:10","The main experiment item","yes","FIN__AB__M21__7%3A10%3A17.osexp","C:\Users\ERP Testing Room\Desktop\Joanna\morph21","no","mono","no","18","no","white","no","yes","1080","legacy","80","80","C:/Users/ERP Testing Room/Desktop/Joanna/morph21/subject-162.csv","xpyriment","Kafkaesque Koffka","3.2.5","0","None","space","NA","NA","NA","space","None","992","25991","NA","NA","NA","298345","992","2","legacy","1024","2","48000","-16","AB_m21","162","even","NW_S_COMP","HAPPENANCE","2044","621451","618259","619942","300402","573995","NA","NA","NA","616604","618756","NA","617759","NA","617752","619934","2056","621651","NA","NA","618942","2044","2044","619334","617752","2044","618942","621651","morph21_Oliver/Morris","76","45880","81","yes","1280","2"
"300","93.9024390244","93.9024390244","569.451219512","569.451219512","black","no","xpyriment","legacy","legacy","0","202","NA","uniform","56125","1000","0.0178173719376","1","undefined","1","0","81","81","81","0","81","81","81","NA","81","81","0","81","NA","81","81","0","81","NA","81","NA","81","0","0","81","81","0","81","81","82","/","02/28/19 12:24:10","The main experiment item","yes","FIN__AB__M21__7%3A10%3A17.osexp","C:\Users\ERP Testing Room\Desktop\Joanna\morph21","no","mono","no","18","no","white","no","yes","1080","legacy","81","81","C:/Users/ERP Testing Room/Desktop/Joanna/morph21/subject-162.csv","xpyriment","Kafkaesque Koffka","3.2.5","0","/","space","NA","NA","NA","space","/","815","25991","NA","NA","NA","298345","815","2","legacy","1024","2","48000","-16","AB_m21","162","even","CW_L","WEEDY","2044","624467","622809","619942","300402","573995","NA","NA","NA","624464","623306","NA","622309","NA","622301","624464","2056","624767","NA","NA","623467","2044","2044","623867","622301","2044","623467","624767","morph21_Oliver/Morris","77","46695","82","yes","1280","48"
"250","93.9759036145","93.9759036145","569.734939759","569.734939759","black","no","xpyriment","legacy","legacy","0","201","NA","uniform","67641","1000","0.0147839328218","1","undefined","1","0","82","82","82","0","82","82","82","NA","82","82","0","82","NA","82","82","0","82","NA","82","NA","82","0","0","82","82","0","82","82","83","/","02/28/19 12:24:10","The main experiment item","yes","FIN__AB__M21__7%3A10%3A17.osexp","C:\Users\ERP Testing Room\Desktop\Joanna\morph21","no","mono","no","18","no","white","no","yes","1080","legacy","82","82","C:/Users/ERP Testing Room/Desktop/Joanna/morph21/subject-162.csv","xpyriment","Kafkaesque Koffka","3.2.5","0","/","space","NA","NA","NA","space","/","593","25991","NA","NA","NA","298345","593","2","legacy","1024","2","48000","-16","AB_m21","162","even","CW_S","TOSSING","2044","627609","625934","619942","300402","573995","NA","NA","NA","627605","626431","NA","625434","NA","625427","627605","2056","627859","NA","NA","626609","2044","2044","627009","625427","2044","626609","627859","morph21_Oliver/Morris","78","47288","83","yes","1280","26"
"250","94.0476190476","94.0476190476","570.285714286","570.285714286","black","no","xpyriment","legacy","legacy","0","208","NA","uniform","68246","1000","0.0146528734285","1","undefined","1","0","83","83","83","0","83","83","83","NA","83","83","0","83","NA","83","83","0","83","NA","83","NA","83","0","0","83","83","0","83","83","84","z","02/28/19 12:24:10","The main experiment item","yes","FIN__AB__M21__7%3A10%3A17.osexp","C:\Users\ERP Testing Room\Desktop\Joanna\morph21","no","mono","no","18","no","white","no","yes","1080","legacy","83","83","C:/Users/ERP Testing Room/Desktop/Joanna/morph21/subject-162.csv","xpyriment","Kafkaesque Koffka","3.2.5","0","z","space","NA","NA","NA","space","z","616","25991","NA","NA","NA","298345","616","2","legacy","1024","2","48000","-16","AB_m21","162","even","FILL_NW","POLT","2044","632143","628901","630634","300402","573995","NA","NA","NA","630626","629398","NA","628401","NA","628396","630626","2056","632393","NA","NA","629634","2044","2044","630026","628396","2044","629634","632393","morph21_Oliver/Morris","79","47904","84","yes","1280","38"
"250","94.1176470588","94.1176470588","572.411764706","572.411764706","black","no","xpyriment","legacy","legacy","0","207","NA","uniform","54393","1000","0.0183847186219","1","undefined","1","0","84","84","84","0","84","84","84","NA","84","84","0","84","NA","84","84","0","84","NA","84","NA","84","0","0","84","84","0","84","84","85","/","02/28/19 12:24:10","The main experiment item","yes","FIN__AB__M21__7%3A10%3A17.osexp","C:\Users\ERP Testing Room\Desktop\Joanna\morph21","no","mono","no","18","no","white","no","yes","1080","legacy","84","84","C:/Users/ERP Testing Room/Desktop/Joanna/morph21/subject-162.csv","xpyriment","Kafkaesque Koffka","3.2.5","0","/","space","NA","NA","NA","space","/","751","25991","NA","NA","NA","298345","751","2","legacy","1024","2","48000","-16","AB_m21","162","even","FILL_W","SLIM","2044","635219","633552","630634","300402","573995","NA","NA","NA","635210","634049","NA","633052","NA","633041","635210","2056","635469","NA","NA","634219","2044","2044","634610","633041","2044","634219","635469","morph21_Oliver/Morris","80","48655","85","yes","1280","6"
"250","94.1860465116","94.1860465116","572.755813953","572.755813953","black","no","xpyriment","legacy","legacy","0","207","NA","uniform","61992","1000","0.0161311136921","1","undefined","1","0","85","85","85","0","85","85","85","NA","85","85","0","85","NA","85","85","0","85","NA","85","NA","85","0","0","85","85","0","85","85","86","/","02/28/19 12:24:10","The main experiment item","yes","FIN__AB__M21__7%3A10%3A17.osexp","C:\Users\ERP Testing Room\Desktop\Joanna\morph21","no","mono","no","18","no","white","no","yes","1080","legacy","85","85","C:/Users/ERP Testing Room/Desktop/Joanna/morph21/subject-162.csv","xpyriment","Kafkaesque Koffka","3.2.5","0","/","space","NA","NA","NA","space","/","602","25991","NA","NA","NA","298345","602","2","legacy","1024","2","48000","-16","AB_m21","162","even","FILL_W","PREACH","2044","638352","636677","630634","300402","573995","NA","NA","NA","638346","637174","NA","636177","NA","636165","638346","2056","638602","NA","NA","637352","2044","2044","637744","636165","2044","637352","638602","morph21_Oliver/Morris","81","49257","86","yes","1280","7"
"350","94.2528735632","94.2528735632","571.402298851","571.402298851","black","no","xpyriment","legacy","legacy","0","201","NA","uniform","71692","1000","0.0139485577191","1","undefined","1","0","86","86","86","0","86","86","86","NA","86","86","0","86","NA","86","86","0","86","NA","86","NA","86","0","0","86","86","0","86","86","87","/","02/28/19 12:24:10","The main experiment item","yes","FIN__AB__M21__7%3A10%3A17.osexp","C:\Users\ERP Testing Room\Desktop\Joanna\morph21","no","mono","no","18","no","white","no","yes","1080","legacy","86","86","C:/Users/ERP Testing Room/Desktop/Joanna/morph21/subject-162.csv","xpyriment","Kafkaesque Koffka","3.2.5","0","/","space","NA","NA","NA","space","/","455","25991","NA","NA","NA","298345","455","2","legacy","1024","2","48000","-16","AB_m21","162","even","CW_S","SINGER","2044","642927","639694","641419","300402","573995","NA","NA","NA","641415","640191","NA","639194","NA","639189","641415","2056","643278","NA","NA","640427","2044","2044","640819","639189","2044","640427","643278","morph21_Oliver/Morris","82","49712","87","yes","1280","17"
"250","94.3181818182","94.3181818182","570.965909091","570.965909091","black","no","xpyriment","legacy","legacy","0","202","NA","uniform","70352","1000","0.0142142369798","1","undefined","1","0","87","87","87","0","87","87","87","NA","87","87","0","87","NA","87","87","0","87","NA","87","NA","87","0","0","87","87","0","87","87","88","/","02/28/19 12:24:10","The main experiment item","yes","FIN__AB__M21__7%3A10%3A17.osexp","C:\Users\ERP Testing Room\Desktop\Joanna\morph21","no","mono","no","18","no","white","no","yes","1080","legacy","87","87","C:/Users/ERP Testing Room/Desktop/Joanna/morph21/subject-162.csv","xpyriment","Kafkaesque Koffka","3.2.5","0","/","space","NA","NA","NA","space","/","533","25991","NA","NA","NA","298345","533","2","legacy","1024","2","48000","-16","AB_m21","162","even","CW_L","CREAMY","2044","646069","644402","641419","300402","573995","NA","NA","NA","646060","644900","NA","643902","NA","643899","646060","2056","646319","NA","NA","645069","2044","2044","645461","643899","2044","645069","646319","morph21_Oliver/Morris","83","50245","88","yes","1280","49"
"300","94.3820224719","94.3820224719","569.674157303","569.674157303","black","no","xpyriment","legacy","legacy","0","202","NA","uniform","70592","1000","0.0141659111514","1","undefined","1","0","88","88","88","0","88","88","88","NA","88","88","0","88","NA","88","88","0","88","NA","88","NA","88","0","0","88","88","0","88","88","89","/","02/28/19 12:24:10","The main experiment item","yes","FIN__AB__M21__7%3A10%3A17.osexp","C:\Users\ERP Testing Room\Desktop\Joanna\morph21","no","mono","no","18","no","white","no","yes","1080","legacy","88","88","C:/Users/ERP Testing Room/Desktop/Joanna/morph21/subject-162.csv","xpyriment","Kafkaesque Koffka","3.2.5","0","/","space","NA","NA","NA","space","/","456","25991","NA","NA","NA","298345","456","2","legacy","1024","2","48000","-16","AB_m21","162","even","CW_L","PROFESSOR","2044","649178","647486","641419","300402","573995","NA","NA","NA","649171","647983","NA","646986","NA","646980","649171","2056","649478","NA","NA","648178","2044","2044","648569","646980","2044","648178","649478","morph21_Oliver/Morris","84","50701","89","yes","1280","47"
"200","94.4444444444","94.4444444444","569.477777778","569.477777778","black","no","xpyriment","legacy","legacy","0","208","NA","uniform","66634","1000","0.0150073536033","1","undefined","1","0","89","89","89","0","89","89","89","NA","89","89","0","89","NA","89","89","0","89","NA","89","NA","89","0","0","89","89","0","89","89","90","z","02/28/19 12:24:10","The main experiment item","yes","FIN__AB__M21__7%3A10%3A17.osexp","C:\Users\ERP Testing Room\Desktop\Joanna\morph21","no","mono","no","18","no","white","no","yes","1080","legacy","89","89","C:/Users/ERP Testing Room/Desktop/Joanna/morph21/subject-162.csv","xpyriment","Kafkaesque Koffka","3.2.5","0","z","space","NA","NA","NA","space","z","552","25991","NA","NA","NA","298345","552","2","legacy","1024","2","48000","-16","AB_m21","162","even","FILL_NW","CINDS","2044","653862","650654","652354","300402","573995","NA","NA","NA","652351","651151","NA","650153","NA","650141","652351","2056","654062","NA","NA","651362","2044","2044","651754","650141","2044","651362","654062","morph21_Oliver/Morris","85","51253","90","yes","1280","6"
"250","94.5054945055","94.5054945055","570.131868132","570.131868132","black","no","xpyriment","legacy","legacy","0","203","NA","uniform","61633","1000","0.0162250742297","1","undefined","1","0","90","90","90","0","90","90","90","NA","90","90","0","90","NA","90","90","0","90","NA","90","NA","90","0","0","90","90","0","90","90","91","z","02/28/19 12:24:10","The main experiment item","yes","FIN__AB__M21__7%3A10%3A17.osexp","C:\Users\ERP Testing Room\Desktop\Joanna\morph21","no","mono","no","18","no","white","no","yes","1080","legacy","90","90","C:/Users/ERP Testing Room/Desktop/Joanna/morph21/subject-162.csv","xpyriment","Kafkaesque Koffka","3.2.5","0","z","space","NA","NA","NA","space","z","629","25991","NA","NA","NA","298345","629","2","legacy","1024","2","48000","-16","AB_m21","162","even","NW_S_COMP","BEERER","2044","656829","655162","652354","300402","573995","NA","NA","NA","656826","655659","NA","654662","NA","654657","656826","2056","657079","NA","NA","655837","2044","2044","656229","654657","2044","655837","657079","morph21_Oliver/Morris","86","51882","91","yes","1280","5"
