"ITI","acc","accuracy","average_response_time","avg_rt","background","bidi","canvas_backend","clock_backend","color_backend","compensation","cond_trig","condtrigtime","coordinates","coroutines_cycles","coroutines_duration","coroutines_mean_cycle_duration","correct","correct_instructions_1","correct_new_keyboard_response_1","count_BA_m21","count_ITI","count_blank_screen","count_blink_screen","count_block1","count_break1","count_break2","count_break3_1","count_canvas","count_correct_trigger","count_def_chain","count_end_screen","count_fixation_1","count_getting_started","count_inc_counter","count_incorrect_trigger","count_instructions_1","count_logger","count_logscript","count_new_coroutines","count_new_inline_script","count_new_keyboard_response_1","count_reset_counter_prep","count_reset_counter_run","count_responsescreen","count_sequence","count_start_trigger","count_target_present","count_word_trigger","counter","cresp","datetime","description","disable_garbage_collection","experiment_file","experiment_path","font_bold","font_family","font_italic","font_size","font_underline","foreground","form_clicks","fullscreen","height","keyboard_backend","live_row","live_row_block1","logfile","mouse_backend","opensesame_codename","opensesame_version","repeat_cycle","response","response_break1","response_break2","response_break3_1","response_end_screen","response_instructions_1","response_new_keyboard_response_1","response_time","response_time_break1","response_time_break2","response_time_break3_1","response_time_end_screen","response_time_instructions_1","response_time_new_keyboard_response_1","round_decimals","sampler_backend","sound_buf_size","sound_channels","sound_freq","sound_sample_size","start","subject_nr","subject_parity","targ_type","target","time_BA_m21","time_ITI","time_blank_screen","time_blink_screen","time_block1","time_break1","time_break2","time_break3_1","time_canvas","time_correct_trigger","time_def_chain","time_end_screen","time_fixation_1","time_getting_started","time_inc_counter","time_incorrect_trigger","time_instructions_1","time_logger","time_logscript","time_new_inline_script","time_new_keyboard_response_1","time_reset_counter_prep","time_reset_counter_run","time_responsescreen","time_sequence","time_start_trigger","time_target_present","time_word_trigger","title","total_correct","total_response_time","total_responses","uniform_coordinates","width","word_trig"
"250","0","0","987","987","black","no","xpyriment","legacy","legacy","0","201","NA","uniform","57860","1000","0.017283097131","0","undefined","0","0","0","0","0","0","0","0","0","NA","0","0","0","0","NA","0","0","0","0","NA","0","NA","0","0","0","0","0","0","0","0","1","/","10/18/18 17:39:57","The main experiment item","yes","FIN__BA__M21__7%3A10%3A17.osexp","C:\Users\ERP Testing Room\Desktop\Joanna\morph21","no","mono","no","18","no","white","no","yes","1080","legacy","0","0","C:/Users/ERP Testing Room/Desktop/Joanna/morph21/subject-142.csv","xpyriment","Jazzy James","3.1.4","0","None","NA","NA","NA","NA","space","None","987","NA","NA","NA","NA","3254682","987","2","legacy","1024","2","48000","-16","BA_m21","142","even","CW_S","PLANNER","2454","3260080","3258464","NA","3257151","NA","NA","NA","NA","NA","3258961","NA","3257959","NA","3257895","3260077","2469","3260330","NA","NA","3259089","2454","2454","3259480","3257895","2454","3259089","3260330","morph21_Oliver/Morris","0","987","1","yes","1280","22"
"350","50","50","775","775","black","no","xpyriment","legacy","legacy","0","202","NA","uniform","75255","1000","0.0132881536111","1","undefined","1","0","1","1","1","0","1","1","1","NA","1","1","0","1","NA","1","1","0","1","NA","1","NA","1","0","0","1","1","0","1","1","2","/","10/18/18 17:39:57","The main experiment item","yes","FIN__BA__M21__7%3A10%3A17.osexp","C:\Users\ERP Testing Room\Desktop\Joanna\morph21","no","mono","no","18","no","white","no","yes","1080","legacy","1","1","C:/Users/ERP Testing Room/Desktop/Joanna/morph21/subject-142.csv","xpyriment","Jazzy James","3.1.4","0","/","NA","NA","NA","NA","space","/","563","NA","NA","NA","NA","3254682","563","2","legacy","1024","2","48000","-16","BA_m21","142","even","CW_L","PUNCHER","2454","3263155","3261555","NA","3257151","NA","NA","NA","NA","3263151","3262052","NA","3261055","NA","3261048","3263151","2469","3263505","NA","NA","3262155","2454","2454","3262555","3261048","2454","3262155","3263505","morph21_Oliver/Morris","1","1550","2","yes","1280","1"
"200","66.6666666667","66.6666666667","669.666666667","669.666666667","black","no","xpyriment","legacy","legacy","0","207","NA","uniform","79590","1000","0.0125643925116","1","undefined","1","0","2","2","2","0","2","2","2","NA","2","2","0","2","NA","2","2","0","2","NA","2","NA","2","0","0","2","2","0","2","2","3","/","10/18/18 17:39:57","The main experiment item","yes","FIN__BA__M21__7%3A10%3A17.osexp","C:\Users\ERP Testing Room\Desktop\Joanna\morph21","no","mono","no","18","no","white","no","yes","1080","legacy","2","2","C:/Users/ERP Testing Room/Desktop/Joanna/morph21/subject-142.csv","xpyriment","Jazzy James","3.1.4","0","/","NA","NA","NA","NA","space","/","459","NA","NA","NA","NA","3254682","459","2","legacy","1024","2","48000","-16","BA_m21","142","even","FILL_W","LEGAL","2454","3267856","3264730","3266347","3257151","NA","NA","NA","NA","3266338","3265228","NA","3264231","NA","3264224","3266338","2469","3268056","NA","NA","3265347","2454","2454","3265739","3264224","2454","3265347","3268056","morph21_Oliver/Morris","2","2009","3","yes","1280","35"
"200","50","50","750.25","750.25","black","no","xpyriment","legacy","legacy","0","205","NA","uniform","63585","1000","0.0157269796336","0","undefined","0","0","3","3","3","0","3","3","3","NA","3","3","0","3","NA","3","3","0","3","NA","3","NA","3","0","0","3","3","0","3","3","4","z","10/18/18 17:39:57","The main experiment item","yes","FIN__BA__M21__7%3A10%3A17.osexp","C:\Users\ERP Testing Room\Desktop\Joanna\morph21","no","mono","no","18","no","white","no","yes","1080","legacy","3","3","C:/Users/ERP Testing Room/Desktop/Joanna/morph21/subject-142.csv","xpyriment","Jazzy James","3.1.4","0","None","NA","NA","NA","NA","space","None","992","NA","NA","NA","NA","3254682","992","2","legacy","1024","2","48000","-16","BA_m21","142","even","NW_S_SIMP","OPPOSEMENT","2454","3270889","3269306","3266347","3257151","NA","NA","NA","NA","3266338","3269803","NA","3268806","NA","3268800","3270881","2469","3271089","NA","NA","3269889","2454","2454","3270281","3268800","2454","3269889","3271089","morph21_Oliver/Morris","2","3001","4","yes","1280","8"
"250","40","40","669.6","669.6","black","no","xpyriment","legacy","legacy","0","205","NA","uniform","78273","1000","0.0127757975292","0","undefined","0","0","4","4","4","0","4","4","4","NA","4","4","0","4","NA","4","4","0","4","NA","4","NA","4","0","0","4","4","0","4","4","5","z","10/18/18 17:39:57","The main experiment item","yes","FIN__BA__M21__7%3A10%3A17.osexp","C:\Users\ERP Testing Room\Desktop\Joanna\morph21","no","mono","no","18","no","white","no","yes","1080","legacy","4","4","C:/Users/ERP Testing Room/Desktop/Joanna/morph21/subject-142.csv","xpyriment","Jazzy James","3.1.4","0","/","NA","NA","NA","NA","space","/","347","NA","NA","NA","NA","3254682","347","2","legacy","1024","2","48000","-16","BA_m21","142","even","NW_S_SIMP","DIGORY","2454","3273940","3272339","3266347","3257151","NA","NA","NA","NA","3266338","3272836","NA","3271839","NA","3271833","3273934","2469","3274190","NA","NA","3272940","2454","2454","3273332","3271833","2454","3272940","3274190","morph21_Oliver/Morris","2","3348","5","yes","1280","11"
"300","50","50","654.5","654.5","black","no","xpyriment","legacy","legacy","0","202","NA","uniform","73281","1000","0.013646101991","1","undefined","1","0","5","5","5","0","5","5","5","NA","5","5","0","5","NA","5","5","0","5","NA","5","NA","5","0","0","5","5","0","5","5","6","/","10/18/18 17:39:57","The main experiment item","yes","FIN__BA__M21__7%3A10%3A17.osexp","C:\Users\ERP Testing Room\Desktop\Joanna\morph21","no","mono","no","18","no","white","no","yes","1080","legacy","5","5","C:/Users/ERP Testing Room/Desktop/Joanna/morph21/subject-142.csv","xpyriment","Jazzy James","3.1.4","0","/","NA","NA","NA","NA","space","/","579","NA","NA","NA","NA","3254682","579","2","legacy","1024","2","48000","-16","BA_m21","142","even","CW_L","MADNESS","2454","3278449","3275324","3276940","3257151","NA","NA","NA","NA","3276932","3275821","NA","3274824","NA","3274820","3276932","2469","3278749","NA","NA","3275940","2454","2454","3276332","3274820","2454","3275940","3278749","morph21_Oliver/Morris","3","3927","6","yes","1280","41"
"350","57.1428571429","57.1428571429","623","623","black","no","xpyriment","legacy","legacy","0","201","NA","uniform","83398","1000","0.0119906952205","1","undefined","1","0","6","6","6","0","6","6","6","NA","6","6","0","6","NA","6","6","0","6","NA","6","NA","6","0","0","6","6","0","6","6","7","/","10/18/18 17:39:57","The main experiment item","yes","FIN__BA__M21__7%3A10%3A17.osexp","C:\Users\ERP Testing Room\Desktop\Joanna\morph21","no","mono","no","18","no","white","no","yes","1080","legacy","6","6","C:/Users/ERP Testing Room/Desktop/Joanna/morph21/subject-142.csv","xpyriment","Jazzy James","3.1.4","0","/","NA","NA","NA","NA","space","/","434","NA","NA","NA","NA","3254682","434","2","legacy","1024","2","48000","-16","BA_m21","142","even","CW_S","AMAZEMENT","2454","3281524","3279915","3276940","3257151","NA","NA","NA","NA","3281518","3280413","NA","3279416","NA","3279405","3281518","2469","3281874","NA","NA","3280524","2454","2454","3280915","3279405","2454","3280524","3281874","morph21_Oliver/Morris","4","4361","7","yes","1280","39"
"400","62.5","62.5","604","604","black","no","xpyriment","legacy","legacy","0","202","NA","uniform","81964","1000","0.0122004782587","1","undefined","1","0","7","7","7","0","7","7","7","NA","7","7","0","7","NA","7","7","0","7","NA","7","NA","7","0","0","7","7","0","7","7","8","/","10/18/18 17:39:57","The main experiment item","yes","FIN__BA__M21__7%3A10%3A17.osexp","C:\Users\ERP Testing Room\Desktop\Joanna\morph21","no","mono","no","18","no","white","no","yes","1080","legacy","7","7","C:/Users/ERP Testing Room/Desktop/Joanna/morph21/subject-142.csv","xpyriment","Jazzy James","3.1.4","0","/","NA","NA","NA","NA","space","/","471","NA","NA","NA","NA","3254682","471","2","legacy","1024","2","48000","-16","BA_m21","142","even","CW_L","STYLISH","2454","3284607","3283024","3276940","3257151","NA","NA","NA","NA","3284601","3283521","NA","3282524","NA","3282518","3284601","2469","3285007","NA","NA","3283607","2454","2454","3283999","3282518","2454","3283607","3285007","morph21_Oliver/Morris","5","4832","8","yes","1280","29"
"200","66.6666666667","66.6666666667","599.666666667","599.666666667","black","no","xpyriment","legacy","legacy","0","208","NA","uniform","66647","1000","0.0150044263058","1","undefined","1","0","8","8","8","0","8","8","8","NA","8","8","0","8","NA","8","8","0","8","NA","8","NA","8","0","0","8","8","0","8","8","9","z","10/18/18 17:39:57","The main experiment item","yes","FIN__BA__M21__7%3A10%3A17.osexp","C:\Users\ERP Testing Room\Desktop\Joanna\morph21","no","mono","no","18","no","white","no","yes","1080","legacy","8","8","C:/Users/ERP Testing Room/Desktop/Joanna/morph21/subject-142.csv","xpyriment","Jazzy James","3.1.4","0","z","NA","NA","NA","NA","space","z","565","NA","NA","NA","NA","3254682","565","2","legacy","1024","2","48000","-16","BA_m21","142","even","FILL_NW","GILN","2454","3289358","3286266","3287849","3257151","NA","NA","NA","NA","3287843","3286763","NA","3285766","NA","3285755","3287843","2469","3289558","NA","NA","3286849","2454","2454","3287241","3285755","2454","3286849","3289558","morph21_Oliver/Morris","6","5397","9","yes","1280","25"
"400","70","70","579.6","579.6","black","no","xpyriment","legacy","legacy","0","207","NA","uniform","77252","1000","0.0129446486822","1","undefined","1","0","9","9","9","0","9","9","9","NA","9","9","0","9","NA","9","9","0","9","NA","9","NA","9","0","0","9","9","0","9","9","10","/","10/18/18 17:39:57","The main experiment item","yes","FIN__BA__M21__7%3A10%3A17.osexp","C:\Users\ERP Testing Room\Desktop\Joanna\morph21","no","mono","no","18","no","white","no","yes","1080","legacy","9","9","C:/Users/ERP Testing Room/Desktop/Joanna/morph21/subject-142.csv","xpyriment","Jazzy James","3.1.4","0","/","NA","NA","NA","NA","space","/","399","NA","NA","NA","NA","3254682","399","2","legacy","1024","2","48000","-16","BA_m21","142","even","FILL_W","EAT","2454","3292392","3290800","3287849","3257151","NA","NA","NA","NA","3292386","3291297","NA","3290299","NA","3290294","3292386","2469","3292792","NA","NA","3291392","2454","2454","3291784","3290294","2454","3291392","3292792","morph21_Oliver/Morris","7","5796","10","yes","1280","25"
"200","72.7272727273","72.7272727273","563.909090909","563.909090909","black","no","xpyriment","legacy","legacy","0","207","NA","uniform","83663","1000","0.0119527150592","1","undefined","1","0","10","10","10","0","10","10","10","NA","10","10","0","10","NA","10","10","0","10","NA","10","NA","10","0","0","10","10","0","10","10","11","/","10/18/18 17:39:57","The main experiment item","yes","FIN__BA__M21__7%3A10%3A17.osexp","C:\Users\ERP Testing Room\Desktop\Joanna\morph21","no","mono","no","18","no","white","no","yes","1080","legacy","10","10","C:/Users/ERP Testing Room/Desktop/Joanna/morph21/subject-142.csv","xpyriment","Jazzy James","3.1.4","0","/","NA","NA","NA","NA","space","/","407","NA","NA","NA","NA","3254682","407","2","legacy","1024","2","48000","-16","BA_m21","142","even","FILL_W","SAVE","2454","3295575","3293984","3287849","3257151","NA","NA","NA","NA","3295566","3294481","NA","3293484","NA","3293473","3295566","2469","3295775","NA","NA","3294575","2454","2454","3294967","3293473","2454","3294575","3295775","morph21_Oliver/Morris","8","6203","11","yes","1280","46"
"350","75","75","556","556","black","no","xpyriment","legacy","legacy","0","201","NA","uniform","79269","1000","0.0126152720483","1","undefined","1","0","11","11","11","0","11","11","11","NA","11","11","0","11","NA","11","11","0","11","NA","11","NA","11","0","0","11","11","0","11","11","12","/","10/18/18 17:39:57","The main experiment item","yes","FIN__BA__M21__7%3A10%3A17.osexp","C:\Users\ERP Testing Room\Desktop\Joanna\morph21","no","mono","no","18","no","white","no","yes","1080","legacy","11","11","C:/Users/ERP Testing Room/Desktop/Joanna/morph21/subject-142.csv","xpyriment","Jazzy James","3.1.4","0","/","NA","NA","NA","NA","space","/","469","NA","NA","NA","NA","3254682","469","2","legacy","1024","2","48000","-16","BA_m21","142","even","CW_S","DENSELY","2454","3300117","3297009","3298609","3257151","NA","NA","NA","NA","3298600","3297506","NA","3296501","NA","3296490","3298600","2469","3300468","NA","NA","3297609","2454","2454","3298001","3296490","2454","3297609","3300468","morph21_Oliver/Morris","9","6672","12","yes","1280","32"
"300","76.9230769231","76.9230769231","561.923076923","561.923076923","black","no","xpyriment","legacy","legacy","0","203","NA","uniform","64549","1000","0.0154921067716","1","undefined","1","0","12","12","12","0","12","12","12","NA","12","12","0","12","NA","12","12","0","12","NA","12","NA","12","0","0","12","12","0","12","12","13","z","10/18/18 17:39:57","The main experiment item","yes","FIN__BA__M21__7%3A10%3A17.osexp","C:\Users\ERP Testing Room\Desktop\Joanna\morph21","no","mono","no","18","no","white","no","yes","1080","legacy","12","12","C:/Users/ERP Testing Room/Desktop/Joanna/morph21/subject-142.csv","xpyriment","Jazzy James","3.1.4","0","z","NA","NA","NA","NA","space","z","633","NA","NA","NA","NA","3254682","633","2","legacy","1024","2","48000","-16","BA_m21","142","even","NW_S_COMP","CURTIDY","2454","3303292","3301692","3298609","3257151","NA","NA","NA","NA","3303282","3302189","NA","3301192","NA","3301189","3303282","2469","3303592","NA","NA","3302293","2454","2454","3302684","3301189","2454","3302292","3303592","morph21_Oliver/Morris","10","7305","13","yes","1280","11"
"300","78.5714285714","78.5714285714","566.071428571","566.071428571","black","no","xpyriment","legacy","legacy","0","208","NA","uniform","74089","1000","0.013497280298","1","undefined","1","0","13","13","13","0","13","13","13","NA","13","13","0","13","NA","13","13","0","13","NA","13","NA","13","0","0","13","13","0","13","13","14","z","10/18/18 17:39:57","The main experiment item","yes","FIN__BA__M21__7%3A10%3A17.osexp","C:\Users\ERP Testing Room\Desktop\Joanna\morph21","no","mono","no","18","no","white","no","yes","1080","legacy","13","13","C:/Users/ERP Testing Room/Desktop/Joanna/morph21/subject-142.csv","xpyriment","Jazzy James","3.1.4","0","z","NA","NA","NA","NA","space","z","620","NA","NA","NA","NA","3254682","620","2","legacy","1024","2","48000","-16","BA_m21","142","even","FILL_NW","DULKS","2454","3306418","3304818","3298609","3257151","NA","NA","NA","NA","3306408","3305315","NA","3304318","NA","3304308","3306408","2469","3306718","NA","NA","3305418","2454","2454","3305809","3304308","2454","3305417","3306718","morph21_Oliver/Morris","11","7925","14","yes","1280","18"
"300","73.3333333333","73.3333333333","569.866666667","569.866666667","black","no","xpyriment","legacy","legacy","0","208","NA","uniform","68187","1000","0.0146655520847","0","undefined","0","0","14","14","14","0","14","14","14","NA","14","14","0","14","NA","14","14","0","14","NA","14","NA","14","0","0","14","14","0","14","14","15","z","10/18/18 17:39:57","The main experiment item","yes","FIN__BA__M21__7%3A10%3A17.osexp","C:\Users\ERP Testing Room\Desktop\Joanna\morph21","no","mono","no","18","no","white","no","yes","1080","legacy","14","14","C:/Users/ERP Testing Room/Desktop/Joanna/morph21/subject-142.csv","xpyriment","Jazzy James","3.1.4","0","/","NA","NA","NA","NA","space","/","623","NA","NA","NA","NA","3254682","623","2","legacy","1024","2","48000","-16","BA_m21","142","even","FILL_NW","HEEM","2454","3311060","3307935","3309552","3257151","NA","NA","NA","NA","3306408","3308432","NA","3307434","NA","3307422","3309547","2469","3311361","NA","NA","3308552","2454","2454","3308952","3307422","2454","3308552","3311361","morph21_Oliver/Morris","11","8548","15","yes","1280","27"
"300","75","75","575.9375","575.9375","black","no","xpyriment","legacy","legacy","0","205","NA","uniform","68464","1000","0.0146062164057","1","undefined","1","0","15","15","15","0","15","15","15","NA","15","15","0","15","NA","15","15","0","15","NA","15","NA","15","0","0","15","15","0","15","15","16","z","10/18/18 17:39:57","The main experiment item","yes","FIN__BA__M21__7%3A10%3A17.osexp","C:\Users\ERP Testing Room\Desktop\Joanna\morph21","no","mono","no","18","no","white","no","yes","1080","legacy","15","15","C:/Users/ERP Testing Room/Desktop/Joanna/morph21/subject-142.csv","xpyriment","Jazzy James","3.1.4","0","z","NA","NA","NA","NA","space","z","667","NA","NA","NA","NA","3254682","667","2","legacy","1024","2","48000","-16","BA_m21","142","even","NW_S_SIMP","TILTARY","2454","3314211","3312627","3309552","3257151","NA","NA","NA","NA","3314201","3313124","NA","3312127","NA","3312118","3314201","2469","3314511","NA","NA","3313211","2454","2454","3313602","3312118","2454","3313211","3314511","morph21_Oliver/Morris","12","9215","16","yes","1280","17"
"350","76.4705882353","76.4705882353","595.235294118","595.235294118","black","no","xpyriment","legacy","legacy","0","205","NA","uniform","53556","1000","0.0186720442154","1","undefined","1","0","16","16","16","0","16","16","16","NA","16","16","0","16","NA","16","16","0","16","NA","16","NA","16","0","0","16","16","0","16","16","17","z","10/18/18 17:39:57","The main experiment item","yes","FIN__BA__M21__7%3A10%3A17.osexp","C:\Users\ERP Testing Room\Desktop\Joanna\morph21","no","mono","no","18","no","white","no","yes","1080","legacy","16","16","C:/Users/ERP Testing Room/Desktop/Joanna/morph21/subject-142.csv","xpyriment","Jazzy James","3.1.4","0","z","NA","NA","NA","NA","space","z","904","NA","NA","NA","NA","3254682","904","2","legacy","1024","2","48000","-16","BA_m21","142","even","NW_S_SIMP","ACREMENT","2454","3317286","3315677","3309552","3257151","NA","NA","NA","NA","3317276","3316175","NA","3315177","NA","3315167","3317276","2469","3317636","NA","NA","3316286","2454","2454","3316677","3315167","2454","3316286","3317636","morph21_Oliver/Morris","13","10119","17","yes","1280","16"
"300","77.7777777778","77.7777777778","602.555555556","602.555555556","black","no","xpyriment","legacy","legacy","0","203","NA","uniform","66543","1000","0.0150278767113","1","undefined","1","0","17","17","17","0","17","17","17","NA","17","17","0","17","NA","17","17","0","17","NA","17","NA","17","0","0","17","17","0","17","17","18","z","10/18/18 17:39:57","The main experiment item","yes","FIN__BA__M21__7%3A10%3A17.osexp","C:\Users\ERP Testing Room\Desktop\Joanna\morph21","no","mono","no","18","no","white","no","yes","1080","legacy","17","17","C:/Users/ERP Testing Room/Desktop/Joanna/morph21/subject-142.csv","xpyriment","Jazzy James","3.1.4","0","z","NA","NA","NA","NA","space","z","727","NA","NA","NA","NA","3254682","727","2","legacy","1024","2","48000","-16","BA_m21","142","even","NW_S_COMP","FIGEL","2454","3322011","3318902","3320502","3257151","NA","NA","NA","NA","3320498","3319400","NA","3318402","NA","3318394","3320498","2469","3322311","NA","NA","3319503","2454","2454","3319903","3318394","2454","3319502","3322311","morph21_Oliver/Morris","14","10846","18","yes","1280","4"
"300","78.9473684211","78.9473684211","614.473684211","614.473684211","black","no","xpyriment","legacy","legacy","0","206","NA","uniform","67422","1000","0.0148319539616","1","undefined","1","0","18","18","18","0","18","18","18","NA","18","18","0","18","NA","18","18","0","18","NA","18","NA","18","0","0","18","18","0","18","18","19","z","10/18/18 17:39:57","The main experiment item","yes","FIN__BA__M21__7%3A10%3A17.osexp","C:\Users\ERP Testing Room\Desktop\Joanna\morph21","no","mono","no","18","no","white","no","yes","1080","legacy","18","18","C:/Users/ERP Testing Room/Desktop/Joanna/morph21/subject-142.csv","xpyriment","Jazzy James","3.1.4","0","z","NA","NA","NA","NA","space","z","829","NA","NA","NA","NA","3254682","829","2","legacy","1024","2","48000","-16","BA_m21","142","even","NW_L_SIMP","BEGENCE","2454","3325153","3323553","3320502","3257151","NA","NA","NA","NA","3325148","3324050","NA","3323053","NA","3323049","3325148","2469","3325453","NA","NA","3324153","2454","2454","3324553","3323049","2454","3324153","3325453","morph21_Oliver/Morris","15","11675","19","yes","1280","4"
"200","75","75","633.35","633.35","black","no","xpyriment","legacy","legacy","0","208","NA","uniform","62929","1000","0.0158909246929","0","undefined","0","0","19","19","19","0","19","19","19","NA","19","19","0","19","NA","19","19","0","19","NA","19","NA","19","0","0","19","19","0","19","19","20","z","10/18/18 17:39:57","The main experiment item","yes","FIN__BA__M21__7%3A10%3A17.osexp","C:\Users\ERP Testing Room\Desktop\Joanna\morph21","no","mono","no","18","no","white","no","yes","1080","legacy","19","19","C:/Users/ERP Testing Room/Desktop/Joanna/morph21/subject-142.csv","xpyriment","Jazzy James","3.1.4","0","None","NA","NA","NA","NA","space","None","992","NA","NA","NA","NA","3254682","992","2","legacy","1024","2","48000","-16","BA_m21","142","even","FILL_NW","DARM","2454","3328271","3326654","3320502","3257151","NA","NA","NA","NA","3325148","3327151","NA","3326154","NA","3326145","3328263","2469","3328471","NA","NA","3327271","2454","2454","3327662","3326145","2454","3327270","3328471","morph21_Oliver/Morris","15","12667","20","yes","1280","11"
"350","71.4285714286","71.4285714286","650.428571429","650.428571429","black","no","xpyriment","legacy","legacy","0","202","NA","uniform","56301","1000","0.0177616738601","0","undefined","0","0","20","20","20","0","20","20","20","NA","20","20","0","20","NA","20","20","0","20","NA","20","NA","20","0","0","20","20","0","20","20","21","/","10/18/18 17:39:57","The main experiment item","yes","FIN__BA__M21__7%3A10%3A17.osexp","C:\Users\ERP Testing Room\Desktop\Joanna\morph21","no","mono","no","18","no","white","no","yes","1080","legacy","20","20","C:/Users/ERP Testing Room/Desktop/Joanna/morph21/subject-142.csv","xpyriment","Jazzy James","3.1.4","0","None","NA","NA","NA","NA","space","None","992","NA","NA","NA","NA","3254682","992","2","legacy","1024","2","48000","-16","BA_m21","142","even","CW_L","RENTER","2454","3332846","3329754","3331337","3257151","NA","NA","NA","NA","3325148","3330251","NA","3329254","NA","3329247","3331330","2469","3333196","NA","NA","3330337","2454","2454","3330729","3329247","2454","3330337","3333196","morph21_Oliver/Morris","15","13659","21","yes","1280","9"
"350","72.7272727273","72.7272727273","652.863636364","652.863636364","black","no","xpyriment","legacy","legacy","0","207","NA","uniform","70338","1000","0.0142170661662","1","undefined","1","0","21","21","21","0","21","21","21","NA","21","21","0","21","NA","21","21","0","21","NA","21","NA","21","0","0","21","21","0","21","21","22","/","10/18/18 17:39:57","The main experiment item","yes","FIN__BA__M21__7%3A10%3A17.osexp","C:\Users\ERP Testing Room\Desktop\Joanna\morph21","no","mono","no","18","no","white","no","yes","1080","legacy","21","21","C:/Users/ERP Testing Room/Desktop/Joanna/morph21/subject-142.csv","xpyriment","Jazzy James","3.1.4","0","/","NA","NA","NA","NA","space","/","704","NA","NA","NA","NA","3254682","704","2","legacy","1024","2","48000","-16","BA_m21","142","even","FILL_W","GLOOM","2454","3336037","3334429","3331337","3257151","NA","NA","NA","NA","3336030","3334926","NA","3333929","NA","3333919","3336030","2469","3336388","NA","NA","3335038","2454","2454","3335429","3333919","2454","3335038","3336388","morph21_Oliver/Morris","16","14363","22","yes","1280","14"
"300","73.9130434783","73.9130434783","655.869565217","655.869565217","black","no","xpyriment","legacy","legacy","0","202","NA","uniform","72006","1000","0.0138877315779","1","undefined","1","0","22","22","22","0","22","22","22","NA","22","22","0","22","NA","22","22","0","22","NA","22","NA","22","0","0","22","22","0","22","22","23","/","10/18/18 17:39:57","The main experiment item","yes","FIN__BA__M21__7%3A10%3A17.osexp","C:\Users\ERP Testing Room\Desktop\Joanna\morph21","no","mono","no","18","no","white","no","yes","1080","legacy","22","22","C:/Users/ERP Testing Room/Desktop/Joanna/morph21/subject-142.csv","xpyriment","Jazzy James","3.1.4","0","/","NA","NA","NA","NA","space","/","722","NA","NA","NA","NA","3254682","722","2","legacy","1024","2","48000","-16","BA_m21","142","even","CW_L","DAMPISH","2454","3339188","3337579","3331337","3257151","NA","NA","NA","NA","3339181","3338076","NA","3337079","NA","3337075","3339181","2469","3339488","NA","NA","3338188","2454","2454","3338579","3337075","2454","3338188","3339488","morph21_Oliver/Morris","17","15085","23","yes","1280","28"
"200","75","75","649.791666667","649.791666667","black","no","xpyriment","legacy","legacy","0","207","NA","uniform","80709","1000","0.0123901919241","1","undefined","1","0","23","23","23","0","23","23","23","NA","23","23","0","23","NA","23","23","0","23","NA","23","NA","23","0","0","23","23","0","23","23","24","/","10/18/18 17:39:57","The main experiment item","yes","FIN__BA__M21__7%3A10%3A17.osexp","C:\Users\ERP Testing Room\Desktop\Joanna\morph21","no","mono","no","18","no","white","no","yes","1080","legacy","23","23","C:/Users/ERP Testing Room/Desktop/Joanna/morph21/subject-142.csv","xpyriment","Jazzy James","3.1.4","0","/","NA","NA","NA","NA","space","/","510","NA","NA","NA","NA","3254682","510","2","legacy","1024","2","48000","-16","BA_m21","142","even","FILL_W","TAX","2454","3343797","3340704","3342288","3257151","NA","NA","NA","NA","3342280","3341202","NA","3340204","NA","3340196","3342280","2469","3343997","NA","NA","3341288","2454","2454","3341679","3340196","2454","3341288","3343997","morph21_Oliver/Morris","18","15595","24","yes","1280","45"
"200","76","76","648.92","648.92","black","no","xpyriment","legacy","legacy","0","205","NA","uniform","76781","1000","0.0130240554304","1","undefined","1","0","24","24","24","0","24","24","24","NA","24","24","0","24","NA","24","24","0","24","NA","24","NA","24","0","0","24","24","0","24","24","25","z","10/18/18 17:39:57","The main experiment item","yes","FIN__BA__M21__7%3A10%3A17.osexp","C:\Users\ERP Testing Room\Desktop\Joanna\morph21","no","mono","no","18","no","white","no","yes","1080","legacy","24","24","C:/Users/ERP Testing Room/Desktop/Joanna/morph21/subject-142.csv","xpyriment","Jazzy James","3.1.4","0","z","NA","NA","NA","NA","space","z","628","NA","NA","NA","NA","3254682","628","2","legacy","1024","2","48000","-16","BA_m21","142","even","NW_S_SIMP","JAWLY","2454","3346731","3345147","3342288","3257151","NA","NA","NA","NA","3346721","3345644","NA","3344647","NA","3344642","3346721","2469","3346931","NA","NA","3345731","2454","2454","3346122","3344642","2454","3345731","3346931","morph21_Oliver/Morris","19","16223","25","yes","1280","7"
"250","73.0769230769","73.0769230769","649.076923077","649.076923077","black","no","xpyriment","legacy","legacy","0","204","NA","uniform","75411","1000","0.0132606648897","0","undefined","0","0","25","25","25","0","25","25","25","NA","25","25","0","25","NA","25","25","0","25","NA","25","NA","25","0","0","25","25","0","25","25","26","z","10/18/18 17:39:57","The main experiment item","yes","FIN__BA__M21__7%3A10%3A17.osexp","C:\Users\ERP Testing Room\Desktop\Joanna\morph21","no","mono","no","18","no","white","no","yes","1080","legacy","25","25","C:/Users/ERP Testing Room/Desktop/Joanna/morph21/subject-142.csv","xpyriment","Jazzy James","3.1.4","0","/","NA","NA","NA","NA","space","/","653","NA","NA","NA","NA","3254682","653","2","legacy","1024","2","48000","-16","BA_m21","142","even","NW_L_COMP","TRIPADY","2454","3349681","3348072","3342288","3257151","NA","NA","NA","NA","3346721","3348569","NA","3347572","NA","3347568","3349671","2469","3349931","NA","NA","3348681","2454","2454","3349072","3347568","2454","3348681","3349931","morph21_Oliver/Morris","19","16876","26","yes","1280","2"
"350","74.0740740741","74.0740740741","647.37037037","647.37037037","black","no","xpyriment","legacy","legacy","0","208","NA","uniform","74818","1000","0.013365767596","1","undefined","1","0","26","26","26","0","26","26","26","NA","26","26","0","26","NA","26","26","0","26","NA","26","NA","26","0","0","26","26","0","26","26","27","z","10/18/18 17:39:57","The main experiment item","yes","FIN__BA__M21__7%3A10%3A17.osexp","C:\Users\ERP Testing Room\Desktop\Joanna\morph21","no","mono","no","18","no","white","no","yes","1080","legacy","26","26","C:/Users/ERP Testing Room/Desktop/Joanna/morph21/subject-142.csv","xpyriment","Jazzy James","3.1.4","0","z","NA","NA","NA","NA","space","z","603","NA","NA","NA","NA","3254682","603","2","legacy","1024","2","48000","-16","BA_m21","142","even","FILL_NW","DOADS","2454","3354231","3351122","3352723","3257151","NA","NA","NA","NA","3352715","3351620","NA","3350622","NA","3350617","3352715","2469","3354581","NA","NA","3351723","2454","2454","3352114","3350617","2454","3351723","3354581","morph21_Oliver/Morris","20","17479","27","yes","1280","15"
"200","75","75","647.035714286","647.035714286","black","no","xpyriment","legacy","legacy","0","207","NA","uniform","69258","1000","0.0144387651968","1","undefined","1","0","27","27","27","0","27","27","27","NA","27","27","0","27","NA","27","27","0","27","NA","27","NA","27","0","0","27","27","0","27","27","28","/","10/18/18 17:39:57","The main experiment item","yes","FIN__BA__M21__7%3A10%3A17.osexp","C:\Users\ERP Testing Room\Desktop\Joanna\morph21","no","mono","no","18","no","white","no","yes","1080","legacy","27","27","C:/Users/ERP Testing Room/Desktop/Joanna/morph21/subject-142.csv","xpyriment","Jazzy James","3.1.4","0","/","NA","NA","NA","NA","space","/","638","NA","NA","NA","NA","3254682","638","2","legacy","1024","2","48000","-16","BA_m21","142","even","FILL_W","FLESH","2454","3357456","3355856","3352723","3257151","NA","NA","NA","NA","3357451","3356353","NA","3355356","NA","3355344","3357451","2469","3357656","NA","NA","3356456","2454","2454","3356856","3355344","2454","3356456","3357656","morph21_Oliver/Morris","21","18117","28","yes","1280","32"
"350","75.8620689655","75.8620689655","649.206896552","649.206896552","black","no","xpyriment","legacy","legacy","0","201","NA","uniform","67706","1000","0.0147697397572","1","undefined","1","0","28","28","28","0","28","28","28","NA","28","28","0","28","NA","28","28","0","28","NA","28","NA","28","0","0","28","28","0","28","28","29","/","10/18/18 17:39:57","The main experiment item","yes","FIN__BA__M21__7%3A10%3A17.osexp","C:\Users\ERP Testing Room\Desktop\Joanna\morph21","no","mono","no","18","no","white","no","yes","1080","legacy","28","28","C:/Users/ERP Testing Room/Desktop/Joanna/morph21/subject-142.csv","xpyriment","Jazzy James","3.1.4","0","/","NA","NA","NA","NA","space","/","710","NA","NA","NA","NA","3254682","710","2","legacy","1024","2","48000","-16","BA_m21","142","even","CW_S","TOASTER","2454","3360432","3358831","3352723","3257151","NA","NA","NA","NA","3360429","3359328","NA","3358331","NA","3358322","3360429","2469","3360782","NA","NA","3359440","2454","2454","3359831","3358322","2454","3359440","3360782","morph21_Oliver/Morris","22","18827","29","yes","1280","10"
"300","76.6666666667","76.6666666667","646.5","646.5","black","no","xpyriment","legacy","legacy","0","201","NA","uniform","70514","1000","0.0141815809626","1","undefined","1","0","29","29","29","0","29","29","29","NA","29","29","0","29","NA","29","29","0","29","NA","29","NA","29","0","0","29","29","0","29","29","30","/","10/18/18 17:39:57","The main experiment item","yes","FIN__BA__M21__7%3A10%3A17.osexp","C:\Users\ERP Testing Room\Desktop\Joanna\morph21","no","mono","no","18","no","white","no","yes","1080","legacy","29","29","C:/Users/ERP Testing Room/Desktop/Joanna/morph21/subject-142.csv","xpyriment","Jazzy James","3.1.4","0","/","NA","NA","NA","NA","space","/","568","NA","NA","NA","NA","3254682","568","2","legacy","1024","2","48000","-16","BA_m21","142","even","CW_S","INSISTENT","2454","3365116","3362016","3363607","3257151","NA","NA","NA","NA","3363601","3362513","NA","3361516","NA","3361506","3363601","2469","3365416","NA","NA","3362607","2454","2454","3362999","3361506","2454","3362607","3365416","morph21_Oliver/Morris","23","19395","30","yes","1280","9"
"200","77.4193548387","77.4193548387","642.806451613","642.806451613","black","no","xpyriment","legacy","legacy","0","201","NA","uniform","74264","1000","0.0134654745233","1","undefined","1","0","30","30","30","0","30","30","30","NA","30","30","0","30","NA","30","30","0","30","NA","30","NA","30","0","0","30","30","0","30","30","31","/","10/18/18 17:39:57","The main experiment item","yes","FIN__BA__M21__7%3A10%3A17.osexp","C:\Users\ERP Testing Room\Desktop\Joanna\morph21","no","mono","no","18","no","white","no","yes","1080","legacy","30","30","C:/Users/ERP Testing Room/Desktop/Joanna/morph21/subject-142.csv","xpyriment","Jazzy James","3.1.4","0","/","NA","NA","NA","NA","space","/","532","NA","NA","NA","NA","3254682","532","2","legacy","1024","2","48000","-16","BA_m21","142","even","CW_S","ENJOYMENT","2454","3368266","3366641","3363607","3257151","NA","NA","NA","NA","3368259","3367138","NA","3366141","NA","3366130","3368259","2469","3368466","NA","NA","3367266","2454","2454","3367657","3366130","2454","3367266","3368466","morph21_Oliver/Morris","24","19927","31","yes","1280","40"
"250","78.125","78.125","645.5","645.5","black","no","xpyriment","legacy","legacy","0","207","NA","uniform","65760","1000","0.0152068126521","1","undefined","1","0","31","31","31","0","31","31","31","NA","31","31","0","31","NA","31","31","0","31","NA","31","NA","31","0","0","31","31","0","31","31","32","/","10/18/18 17:39:57","The main experiment item","yes","FIN__BA__M21__7%3A10%3A17.osexp","C:\Users\ERP Testing Room\Desktop\Joanna\morph21","no","mono","no","18","no","white","no","yes","1080","legacy","31","31","C:/Users/ERP Testing Room/Desktop/Joanna/morph21/subject-142.csv","xpyriment","Jazzy James","3.1.4","0","/","NA","NA","NA","NA","space","/","729","NA","NA","NA","NA","3254682","729","2","legacy","1024","2","48000","-16","BA_m21","142","even","FILL_W","SMOKE","2454","3371341","3369733","3363607","3257151","NA","NA","NA","NA","3371332","3370230","NA","3369233","NA","3369222","3371332","2469","3371591","NA","NA","3370341","2454","2454","3370733","3369222","2454","3370341","3371591","morph21_Oliver/Morris","25","20656","32","yes","1280","50"
"350","78.7878787879","78.7878787879","642.090909091","642.090909091","black","no","xpyriment","legacy","legacy","0","207","NA","uniform","75105","1000","0.0133146927635","1","undefined","1","0","32","32","32","0","32","32","32","NA","32","32","0","32","NA","32","32","0","32","NA","32","NA","32","0","0","32","32","0","32","32","33","/","10/18/18 17:39:57","The main experiment item","yes","FIN__BA__M21__7%3A10%3A17.osexp","C:\Users\ERP Testing Room\Desktop\Joanna\morph21","no","mono","no","18","no","white","no","yes","1080","legacy","32","32","C:/Users/ERP Testing Room/Desktop/Joanna/morph21/subject-142.csv","xpyriment","Jazzy James","3.1.4","0","/","NA","NA","NA","NA","space","/","533","NA","NA","NA","NA","3254682","533","2","legacy","1024","2","48000","-16","BA_m21","142","even","FILL_W","BRISK","2454","3375941","3372833","3374433","3257151","NA","NA","NA","NA","3374430","3373330","NA","3372333","NA","3372326","3374430","2469","3376291","NA","NA","3373441","2454","2454","3373833","3372326","2454","3373441","3376291","morph21_Oliver/Morris","26","21189","33","yes","1280","8"
"300","79.4117647059","79.4117647059","638.617647059","638.617647059","black","no","xpyriment","legacy","legacy","0","202","NA","uniform","78699","1000","0.0127066417616","1","undefined","1","0","33","33","33","0","33","33","33","NA","33","33","0","33","NA","33","33","0","33","NA","33","NA","33","0","0","33","33","0","33","33","34","/","10/18/18 17:39:57","The main experiment item","yes","FIN__BA__M21__7%3A10%3A17.osexp","C:\Users\ERP Testing Room\Desktop\Joanna\morph21","no","mono","no","18","no","white","no","yes","1080","legacy","33","33","C:/Users/ERP Testing Room/Desktop/Joanna/morph21/subject-142.csv","xpyriment","Jazzy James","3.1.4","0","/","NA","NA","NA","NA","space","/","524","NA","NA","NA","NA","3254682","524","2","legacy","1024","2","48000","-16","BA_m21","142","even","CW_L","PROFESSOR","2454","3379259","3377666","3374433","3257151","NA","NA","NA","NA","3379253","3378163","NA","3377166","NA","3377162","3379253","2469","3379559","NA","NA","3378259","2454","2454","3378651","3377162","2454","3378259","3379559","morph21_Oliver/Morris","27","21713","34","yes","1280","47"
"250","80","80","633.657142857","633.657142857","black","no","xpyriment","legacy","legacy","0","202","NA","uniform","75981","1000","0.0131611850331","1","undefined","1","0","34","34","34","0","34","34","34","NA","34","34","0","34","NA","34","34","0","34","NA","34","NA","34","0","0","34","34","0","34","34","35","/","10/18/18 17:39:57","The main experiment item","yes","FIN__BA__M21__7%3A10%3A17.osexp","C:\Users\ERP Testing Room\Desktop\Joanna\morph21","no","mono","no","18","no","white","no","yes","1080","legacy","34","34","C:/Users/ERP Testing Room/Desktop/Joanna/morph21/subject-142.csv","xpyriment","Jazzy James","3.1.4","0","/","NA","NA","NA","NA","space","/","465","NA","NA","NA","NA","3254682","465","2","legacy","1024","2","48000","-16","BA_m21","142","even","CW_L","CREAMY","2454","3382334","3380759","3374433","3257151","NA","NA","NA","NA","3382329","3381256","NA","3380259","NA","3380255","3382329","2469","3382584","NA","NA","3381334","2454","2454","3381734","3380255","2454","3381334","3382584","morph21_Oliver/Morris","28","22178","35","yes","1280","49"
"350","77.7777777778","77.7777777778","634.361111111","634.361111111","black","no","xpyriment","legacy","legacy","0","206","NA","uniform","69834","1000","0.0143196723659","0","undefined","0","0","35","35","35","0","35","35","35","NA","35","35","0","35","NA","35","35","0","35","NA","35","NA","35","0","0","35","35","0","35","35","36","z","10/18/18 17:39:57","The main experiment item","yes","FIN__BA__M21__7%3A10%3A17.osexp","C:\Users\ERP Testing Room\Desktop\Joanna\morph21","no","mono","no","18","no","white","no","yes","1080","legacy","35","35","C:/Users/ERP Testing Room/Desktop/Joanna/morph21/subject-142.csv","xpyriment","Jazzy James","3.1.4","0","/","NA","NA","NA","NA","space","/","659","NA","NA","NA","NA","3254682","659","2","legacy","1024","2","48000","-16","BA_m21","142","even","NW_L_SIMP","WITCHISH","2454","3386968","3383876","3385459","3257151","NA","NA","NA","NA","3382329","3384373","NA","3383376","NA","3383365","3385451","2469","3387318","NA","NA","3384459","2454","2454","3384851","3383365","2454","3384459","3387318","morph21_Oliver/Morris","28","22837","36","yes","1280","11"
"250","78.3783783784","78.3783783784","631.810810811","631.810810811","black","no","xpyriment","legacy","legacy","0","207","NA","uniform","77079","1000","0.0129737023054","1","undefined","1","0","36","36","36","0","36","36","36","NA","36","36","0","36","NA","36","36","0","36","NA","36","NA","36","0","0","36","36","0","36","36","37","/","10/18/18 17:39:57","The main experiment item","yes","FIN__BA__M21__7%3A10%3A17.osexp","C:\Users\ERP Testing Room\Desktop\Joanna\morph21","no","mono","no","18","no","white","no","yes","1080","legacy","36","36","C:/Users/ERP Testing Room/Desktop/Joanna/morph21/subject-142.csv","xpyriment","Jazzy James","3.1.4","0","/","NA","NA","NA","NA","space","/","540","NA","NA","NA","NA","3254682","540","2","legacy","1024","2","48000","-16","BA_m21","142","even","FILL_W","SOUGHT","2454","3390209","3388601","3385459","3257151","NA","NA","NA","NA","3390200","3389098","NA","3388101","NA","3388097","3390200","2469","3390460","NA","NA","3389210","2454","2454","3389601","3388097","2454","3389209","3390460","morph21_Oliver/Morris","29","23377","37","yes","1280","40"
"200","78.9473684211","78.9473684211","630.052631579","630.052631579","black","no","xpyriment","legacy","legacy","0","208","NA","uniform","75103","1000","0.013315047335","1","undefined","1","0","37","37","37","0","37","37","37","NA","37","37","0","37","NA","37","37","0","37","NA","37","NA","37","0","0","37","37","0","37","37","38","z","10/18/18 17:39:57","The main experiment item","yes","FIN__BA__M21__7%3A10%3A17.osexp","C:\Users\ERP Testing Room\Desktop\Joanna\morph21","no","mono","no","18","no","white","no","yes","1080","legacy","37","37","C:/Users/ERP Testing Room/Desktop/Joanna/morph21/subject-142.csv","xpyriment","Jazzy James","3.1.4","0","z","NA","NA","NA","NA","space","z","565","NA","NA","NA","NA","3254682","565","2","legacy","1024","2","48000","-16","BA_m21","142","even","FILL_NW","TUEER","2454","3393193","3391618","3385459","3257151","NA","NA","NA","NA","3393191","3392115","NA","3391118","NA","3391114","3393191","2469","3393393","NA","NA","3392201","2454","2454","3392593","3391114","2454","3392201","3393393","morph21_Oliver/Morris","30","23942","38","yes","1280","44"
"300","79.4871794872","79.4871794872","631.102564103","631.102564103","black","no","xpyriment","legacy","legacy","0","201","NA","uniform","67085","1000","0.0149064619513","1","undefined","1","0","38","38","38","0","38","38","38","NA","38","38","0","38","NA","38","38","0","38","NA","38","NA","38","0","0","38","38","0","38","38","39","/","10/18/18 17:39:57","The main experiment item","yes","FIN__BA__M21__7%3A10%3A17.osexp","C:\Users\ERP Testing Room\Desktop\Joanna\morph21","no","mono","no","18","no","white","no","yes","1080","legacy","38","38","C:/Users/ERP Testing Room/Desktop/Joanna/morph21/subject-142.csv","xpyriment","Jazzy James","3.1.4","0","/","NA","NA","NA","NA","space","/","671","NA","NA","NA","NA","3254682","671","2","legacy","1024","2","48000","-16","BA_m21","142","even","CW_S","GUILTY","2454","3397669","3394560","3396161","3257151","NA","NA","NA","NA","3396153","3395057","NA","3394060","NA","3394051","3396153","2469","3397969","NA","NA","3395160","2454","2454","3395552","3394051","2454","3395160","3397969","morph21_Oliver/Morris","31","24613","39","yes","1280","34"
"350","80","80","629.025","629.025","black","no","xpyriment","legacy","legacy","0","201","NA","uniform","73518","1000","0.0136021110476","1","undefined","1","0","39","39","39","0","39","39","39","NA","39","39","0","39","NA","39","39","0","39","NA","39","NA","39","0","0","39","39","0","39","39","40","/","10/18/18 17:39:57","The main experiment item","yes","FIN__BA__M21__7%3A10%3A17.osexp","C:\Users\ERP Testing Room\Desktop\Joanna\morph21","no","mono","no","18","no","white","no","yes","1080","legacy","39","39","C:/Users/ERP Testing Room/Desktop/Joanna/morph21/subject-142.csv","xpyriment","Jazzy James","3.1.4","0","/","NA","NA","NA","NA","space","/","548","NA","NA","NA","NA","3254682","548","2","legacy","1024","2","48000","-16","BA_m21","142","even","CW_S","LENDER","2454","3400819","3399219","3396161","3257151","NA","NA","NA","NA","3400812","3399716","NA","3398719","NA","3398715","3400812","2469","3401169","NA","NA","3399819","2454","2454","3400211","3398715","2454","3399819","3401169","morph21_Oliver/Morris","32","25161","40","yes","1280","11"
"200","78.0487804878","78.0487804878","628.414634146","628.414634146","black","no","xpyriment","legacy","legacy","0","203","NA","uniform","62790","1000","0.0159261028826","0","undefined","0","0","40","40","40","0","40","40","40","NA","40","40","0","40","NA","40","40","0","40","NA","40","NA","40","0","0","40","40","0","40","40","41","z","10/18/18 17:39:57","The main experiment item","yes","FIN__BA__M21__7%3A10%3A17.osexp","C:\Users\ERP Testing Room\Desktop\Joanna\morph21","no","mono","no","18","no","white","no","yes","1080","legacy","40","40","C:/Users/ERP Testing Room/Desktop/Joanna/morph21/subject-142.csv","xpyriment","Jazzy James","3.1.4","0","/","NA","NA","NA","NA","space","/","604","NA","NA","NA","NA","3254682","604","2","legacy","1024","2","48000","-16","BA_m21","142","even","NW_S_COMP","FANFIL","2454","3403986","3402378","3396161","3257151","NA","NA","NA","NA","3400812","3402875","NA","3401878","NA","3401874","3403976","2469","3404186","NA","NA","3402986","2454","2454","3403378","3401874","2454","3402986","3404186","morph21_Oliver/Morris","32","25765","41","yes","1280","6"
"400","78.5714285714","78.5714285714","627.904761905","627.904761905","black","no","xpyriment","legacy","legacy","0","202","NA","uniform","71559","1000","0.0139744825948","1","undefined","1","0","41","41","41","0","41","41","41","NA","41","41","0","41","NA","41","41","0","41","NA","41","NA","41","0","0","41","41","0","41","41","42","/","10/18/18 17:39:57","The main experiment item","yes","FIN__BA__M21__7%3A10%3A17.osexp","C:\Users\ERP Testing Room\Desktop\Joanna\morph21","no","mono","no","18","no","white","no","yes","1080","legacy","41","41","C:/Users/ERP Testing Room/Desktop/Joanna/morph21/subject-142.csv","xpyriment","Jazzy James","3.1.4","0","/","NA","NA","NA","NA","space","/","607","NA","NA","NA","NA","3254682","607","2","legacy","1024","2","48000","-16","BA_m21","142","even","CW_L","CLEANER","2454","3408603","3405469","3407095","3257151","NA","NA","NA","NA","3407086","3405967","NA","3404969","NA","3404965","3407086","2469","3409003","NA","NA","3406095","2454","2454","3406486","3404965","2454","3406095","3409003","morph21_Oliver/Morris","33","26372","42","yes","1280","15"
"200","79.0697674419","79.0697674419","624.674418605","624.674418605","black","no","xpyriment","legacy","legacy","0","201","NA","uniform","81916","1000","0.0122076273256","1","undefined","1","0","42","42","42","0","42","42","42","NA","42","42","0","42","NA","42","42","0","42","NA","42","NA","42","0","0","42","42","0","42","42","43","/","10/18/18 17:39:57","The main experiment item","yes","FIN__BA__M21__7%3A10%3A17.osexp","C:\Users\ERP Testing Room\Desktop\Joanna\morph21","no","mono","no","18","no","white","no","yes","1080","legacy","42","42","C:/Users/ERP Testing Room/Desktop/Joanna/morph21/subject-142.csv","xpyriment","Jazzy James","3.1.4","0","/","NA","NA","NA","NA","space","/","489","NA","NA","NA","NA","3254682","489","2","legacy","1024","2","48000","-16","BA_m21","142","even","CW_S","LISTENER","2454","3411861","3410278","3407095","3257151","NA","NA","NA","NA","3411853","3410775","NA","3409778","NA","3409774","3411853","2469","3412061","NA","NA","3410861","2454","2454","3411253","3409774","2454","3410861","3412061","morph21_Oliver/Morris","34","26861","43","yes","1280","18"
"300","79.5454545455","79.5454545455","625.568181818","625.568181818","black","no","xpyriment","legacy","legacy","0","206","NA","uniform","61366","1000","0.0162956686113","1","undefined","1","0","43","43","43","0","43","43","43","NA","43","43","0","43","NA","43","43","0","43","NA","43","NA","43","0","0","43","43","0","43","43","44","z","10/18/18 17:39:57","The main experiment item","yes","FIN__BA__M21__7%3A10%3A17.osexp","C:\Users\ERP Testing Room\Desktop\Joanna\morph21","no","mono","no","18","no","white","no","yes","1080","legacy","43","43","C:/Users/ERP Testing Room/Desktop/Joanna/morph21/subject-142.csv","xpyriment","Jazzy James","3.1.4","0","z","NA","NA","NA","NA","space","z","664","NA","NA","NA","NA","3254682","664","2","legacy","1024","2","48000","-16","BA_m21","142","even","NW_L_SIMP","EARIST","2454","3414863","3413279","3407095","3257151","NA","NA","NA","NA","3414853","3413776","NA","3412778","NA","3412766","3414853","2469","3415163","NA","NA","3413863","2454","2454","3414254","3412766","2454","3413863","3415163","morph21_Oliver/Morris","35","27525","44","yes","1280","12"
"400","80","80","627.733333333","627.733333333","black","no","xpyriment","legacy","legacy","0","203","NA","uniform","68114","1000","0.0146812696362","1","undefined","1","0","44","44","44","0","44","44","44","NA","44","44","0","44","NA","44","44","0","44","NA","44","NA","44","0","0","44","44","0","44","44","45","z","10/18/18 17:39:57","The main experiment item","yes","FIN__BA__M21__7%3A10%3A17.osexp","C:\Users\ERP Testing Room\Desktop\Joanna\morph21","no","mono","no","18","no","white","no","yes","1080","legacy","44","44","C:/Users/ERP Testing Room/Desktop/Joanna/morph21/subject-142.csv","xpyriment","Jazzy James","3.1.4","0","z","NA","NA","NA","NA","space","z","723","NA","NA","NA","NA","3254682","723","2","legacy","1024","2","48000","-16","BA_m21","142","even","NW_S_COMP","ALTARIG","2454","3419513","3416404","3418004","3257151","NA","NA","NA","NA","3417999","3416901","NA","3415904","NA","3415901","3417999","2469","3419913","NA","NA","3417004","2454","2454","3417404","3415901","2454","3417004","3419913","morph21_Oliver/Morris","36","28248","45","yes","1280","7"
"350","80.4347826087","80.4347826087","629.47826087","629.47826087","black","no","xpyriment","legacy","legacy","0","206","NA","uniform","64977","1000","0.0153900610985","1","undefined","1","0","45","45","45","0","45","45","45","NA","45","45","0","45","NA","45","45","0","45","NA","45","NA","45","0","0","45","45","0","45","45","46","z","10/18/18 17:39:57","The main experiment item","yes","FIN__BA__M21__7%3A10%3A17.osexp","C:\Users\ERP Testing Room\Desktop\Joanna\morph21","no","mono","no","18","no","white","no","yes","1080","legacy","45","45","C:/Users/ERP Testing Room/Desktop/Joanna/morph21/subject-142.csv","xpyriment","Jazzy James","3.1.4","0","z","NA","NA","NA","NA","space","z","708","NA","NA","NA","NA","3254682","708","2","legacy","1024","2","48000","-16","BA_m21","142","even","NW_L_SIMP","HABITIC","2454","3422730","3421146","3418004","3257151","NA","NA","NA","NA","3422724","3421643","NA","3420646","NA","3420636","3422724","2469","3423080","NA","NA","3421730","2454","2454","3422121","3420636","2454","3421730","3423080","morph21_Oliver/Morris","37","28956","46","yes","1280","7"
"400","80.8510638298","80.8510638298","630.787234043","630.787234043","black","no","xpyriment","legacy","legacy","0","208","NA","uniform","74245","1000","0.013468920466","1","undefined","1","0","46","46","46","0","46","46","46","NA","46","46","0","46","NA","46","46","0","46","NA","46","NA","46","0","0","46","46","0","46","46","47","z","10/18/18 17:39:57","The main experiment item","yes","FIN__BA__M21__7%3A10%3A17.osexp","C:\Users\ERP Testing Room\Desktop\Joanna\morph21","no","mono","no","18","no","white","no","yes","1080","legacy","46","46","C:/Users/ERP Testing Room/Desktop/Joanna/morph21/subject-142.csv","xpyriment","Jazzy James","3.1.4","0","z","NA","NA","NA","NA","space","z","691","NA","NA","NA","NA","3254682","691","2","legacy","1024","2","48000","-16","BA_m21","142","even","FILL_NW","BALFS","2454","3425955","3424380","3418004","3257151","NA","NA","NA","NA","3425952","3424877","NA","3423880","NA","3423870","3425952","2469","3426355","NA","NA","3424963","2454","2454","3425355","3423870","2454","3424963","3426355","morph21_Oliver/Morris","38","29647","47","yes","1280","2"
"400","81.25","81.25","628.604166667","628.604166667","black","no","xpyriment","legacy","legacy","0","207","NA","uniform","80441","1000","0.0124314715133","1","undefined","1","0","47","47","47","0","47","47","47","NA","47","47","0","47","NA","47","47","0","47","NA","47","NA","47","0","0","47","47","0","47","47","48","/","10/18/18 17:39:57","The main experiment item","yes","FIN__BA__M21__7%3A10%3A17.osexp","C:\Users\ERP Testing Room\Desktop\Joanna\morph21","no","mono","no","18","no","white","no","yes","1080","legacy","47","47","C:/Users/ERP Testing Room/Desktop/Joanna/morph21/subject-142.csv","xpyriment","Jazzy James","3.1.4","0","/","NA","NA","NA","NA","space","/","526","NA","NA","NA","NA","3254682","526","2","legacy","1024","2","48000","-16","BA_m21","142","even","FILL_W","FLIRT","2454","3430598","3427505","3429088","3257151","NA","NA","NA","NA","3429081","3428002","NA","3427005","NA","3426998","3429081","2469","3430998","NA","NA","3428088","2454","2454","3428480","3426998","2454","3428088","3430998","morph21_Oliver/Morris","39","30173","48","yes","1280","1"
"400","81.6326530612","81.6326530612","633.183673469","633.183673469","black","no","xpyriment","legacy","legacy","0","202","NA","uniform","68766","1000","0.0145420702091","1","undefined","1","0","48","48","48","0","48","48","48","NA","48","48","0","48","NA","48","48","0","48","NA","48","NA","48","0","0","48","48","0","48","48","49","/","10/18/18 17:39:57","The main experiment item","yes","FIN__BA__M21__7%3A10%3A17.osexp","C:\Users\ERP Testing Room\Desktop\Joanna\morph21","no","mono","no","18","no","white","no","yes","1080","legacy","48","48","C:/Users/ERP Testing Room/Desktop/Joanna/morph21/subject-142.csv","xpyriment","Jazzy James","3.1.4","0","/","NA","NA","NA","NA","space","/","853","NA","NA","NA","NA","3254682","853","2","legacy","1024","2","48000","-16","BA_m21","142","even","CW_L","WRONGLY","2454","3433914","3432331","3429088","3257151","NA","NA","NA","NA","3433908","3432828","NA","3431831","NA","3431823","3433908","2469","3434314","NA","NA","3432914","2454","2454","3433306","3431823","2454","3432914","3434314","morph21_Oliver/Morris","40","31026","49","yes","1280","37"
"250","82","82","632.82","632.82","black","no","xpyriment","legacy","legacy","0","207","NA","uniform","76685","1000","0.0130403599139","1","undefined","1","0","49","49","49","0","49","49","49","NA","49","49","0","49","NA","49","49","0","49","NA","49","NA","49","0","0","49","49","0","49","49","50","/","10/18/18 17:39:57","The main experiment item","yes","FIN__BA__M21__7%3A10%3A17.osexp","C:\Users\ERP Testing Room\Desktop\Joanna\morph21","no","mono","no","18","no","white","no","yes","1080","legacy","49","49","C:/Users/ERP Testing Room/Desktop/Joanna/morph21/subject-142.csv","xpyriment","Jazzy James","3.1.4","0","/","NA","NA","NA","NA","space","/","615","NA","NA","NA","NA","3254682","615","2","legacy","1024","2","48000","-16","BA_m21","142","even","FILL_W","SPLICE","2454","3437056","3435464","3429088","3257151","NA","NA","NA","NA","3437047","3435962","NA","3434964","NA","3434954","3437047","2469","3437306","NA","NA","3436056","2454","2454","3436448","3434954","2454","3436056","3437306","morph21_Oliver/Morris","41","31641","50","yes","1280","22"
"350","82.3529411765","82.3529411765","629.862745098","629.862745098","black","no","xpyriment","legacy","legacy","0","208","NA","uniform","80948","1000","0.0123536097248","1","undefined","1","0","50","50","50","0","50","50","50","NA","50","50","0","50","NA","50","50","0","50","NA","50","NA","50","0","0","50","50","0","50","50","51","z","10/18/18 17:39:57","The main experiment item","yes","FIN__BA__M21__7%3A10%3A17.osexp","C:\Users\ERP Testing Room\Desktop\Joanna\morph21","no","mono","no","18","no","white","no","yes","1080","legacy","50","50","C:/Users/ERP Testing Room/Desktop/Joanna/morph21/subject-142.csv","xpyriment","Jazzy James","3.1.4","0","z","NA","NA","NA","NA","space","z","482","NA","NA","NA","NA","3254682","482","2","legacy","1024","2","48000","-16","BA_m21","142","even","FILL_NW","DELP","2454","3441656","3438565","3440148","3257151","NA","NA","NA","NA","3440140","3439062","NA","3438065","NA","3438055","3440140","2469","3442007","NA","NA","3439148","2454","2454","3439540","3438055","2454","3439148","3442007","morph21_Oliver/Morris","42","32123","51","yes","1280","14"
"400","82.6923076923","82.6923076923","631.326923077","631.326923077","black","no","xpyriment","legacy","legacy","0","201","NA","uniform","70139","1000","0.0142574031566","1","undefined","1","0","51","51","51","0","51","51","51","NA","51","51","0","51","NA","51","51","0","51","NA","51","NA","51","0","0","51","51","0","51","51","52","/","10/18/18 17:39:57","The main experiment item","yes","FIN__BA__M21__7%3A10%3A17.osexp","C:\Users\ERP Testing Room\Desktop\Joanna\morph21","no","mono","no","18","no","white","no","yes","1080","legacy","51","51","C:/Users/ERP Testing Room/Desktop/Joanna/morph21/subject-142.csv","xpyriment","Jazzy James","3.1.4","0","/","NA","NA","NA","NA","space","/","706","NA","NA","NA","NA","3254682","706","2","legacy","1024","2","48000","-16","BA_m21","142","even","CW_S","AVOIDABLE","2454","3444748","3443165","3440148","3257151","NA","NA","NA","NA","3444740","3443662","NA","3442665","NA","3442660","3444740","2469","3445148","NA","NA","3443748","2454","2454","3444140","3442660","2454","3443748","3445148","morph21_Oliver/Morris","43","32829","52","yes","1280","2"
"400","81.1320754717","81.1320754717","631","631","black","no","xpyriment","legacy","legacy","0","201","NA","uniform","65134","1000","0.0153529646575","0","undefined","0","0","52","52","52","0","52","52","52","NA","52","52","0","52","NA","52","52","0","52","NA","52","NA","52","0","0","52","52","0","52","52","53","/","10/18/18 17:39:57","The main experiment item","yes","FIN__BA__M21__7%3A10%3A17.osexp","C:\Users\ERP Testing Room\Desktop\Joanna\morph21","no","mono","no","18","no","white","no","yes","1080","legacy","52","52","C:/Users/ERP Testing Room/Desktop/Joanna/morph21/subject-142.csv","xpyriment","Jazzy James","3.1.4","0","z","NA","NA","NA","NA","space","z","614","NA","NA","NA","NA","3254682","614","2","legacy","1024","2","48000","-16","BA_m21","142","even","CW_S","WIDOWED","2454","3448033","3446423","3440148","3257151","NA","NA","NA","NA","3444740","3446920","NA","3445923","NA","3445918","3448025","2469","3448433","NA","NA","3447032","2454","2454","3447423","3445918","2454","3447032","3448433","morph21_Oliver/Morris","43","33443","53","yes","1280","7"
"350","81.4814814815","81.4814814815","630.185185185","630.185185185","black","no","xpyriment","legacy","legacy","0","202","NA","uniform","70342","1000","0.0142162577123","1","undefined","1","0","53","53","53","0","53","53","53","NA","53","53","0","53","NA","53","53","0","53","NA","53","NA","53","0","0","53","53","0","53","53","54","/","10/18/18 17:39:57","The main experiment item","yes","FIN__BA__M21__7%3A10%3A17.osexp","C:\Users\ERP Testing Room\Desktop\Joanna\morph21","no","mono","no","18","no","white","no","yes","1080","legacy","53","53","C:/Users/ERP Testing Room/Desktop/Joanna/morph21/subject-142.csv","xpyriment","Jazzy James","3.1.4","0","/","NA","NA","NA","NA","space","/","587","NA","NA","NA","NA","3254682","587","2","legacy","1024","2","48000","-16","BA_m21","142","even","CW_L","PAINTER","2454","3452808","3449699","3451299","3257151","NA","NA","NA","NA","3451292","3450197","NA","3449199","NA","3449190","3451292","2469","3453158","NA","NA","3450300","2454","2454","3450691","3449190","2454","3450300","3453158","morph21_Oliver/Morris","44","34030","54","yes","1280","18"
"250","81.8181818182","81.8181818182","631.090909091","631.090909091","black","no","xpyriment","legacy","legacy","0","201","NA","uniform","70598","1000","0.0141647072155","1","undefined","1","0","54","54","54","0","54","54","54","NA","54","54","0","54","NA","54","54","0","54","NA","54","NA","54","0","0","54","54","0","54","54","55","/","10/18/18 17:39:57","The main experiment item","yes","FIN__BA__M21__7%3A10%3A17.osexp","C:\Users\ERP Testing Room\Desktop\Joanna\morph21","no","mono","no","18","no","white","no","yes","1080","legacy","54","54","C:/Users/ERP Testing Room/Desktop/Joanna/morph21/subject-142.csv","xpyriment","Jazzy James","3.1.4","0","/","NA","NA","NA","NA","space","/","680","NA","NA","NA","NA","3254682","680","2","legacy","1024","2","48000","-16","BA_m21","142","even","CW_S","COSTLY","2454","3455958","3454375","3451299","3257151","NA","NA","NA","NA","3455950","3454872","NA","3453875","NA","3453870","3455950","2469","3456208","NA","NA","3454958","2454","2454","3455350","3453870","2454","3454958","3456208","morph21_Oliver/Morris","45","34710","55","yes","1280","36"
"250","82.1428571429","82.1428571429","629.017857143","629.017857143","black","no","xpyriment","legacy","legacy","0","207","NA","uniform","80815","1000","0.0123739404813","1","undefined","1","0","55","55","55","0","55","55","55","NA","55","55","0","55","NA","55","55","0","55","NA","55","NA","55","0","0","55","55","0","55","55","56","/","10/18/18 17:39:57","The main experiment item","yes","FIN__BA__M21__7%3A10%3A17.osexp","C:\Users\ERP Testing Room\Desktop\Joanna\morph21","no","mono","no","18","no","white","no","yes","1080","legacy","55","55","C:/Users/ERP Testing Room/Desktop/Joanna/morph21/subject-142.csv","xpyriment","Jazzy James","3.1.4","0","/","NA","NA","NA","NA","space","/","515","NA","NA","NA","NA","3254682","515","2","legacy","1024","2","48000","-16","BA_m21","142","even","FILL_W","SOFT","2454","3459083","3457466","3451299","3257151","NA","NA","NA","NA","3459079","3457964","NA","3456966","NA","3456962","3459079","2469","3459333","NA","NA","3458083","2454","2454","3458483","3456962","2454","3458083","3459333","morph21_Oliver/Morris","46","35225","56","yes","1280","43"
"400","80.701754386","80.701754386","626.421052632","626.421052632","black","no","xpyriment","legacy","legacy","0","208","NA","uniform","77017","1000","0.0129841463573","0","undefined","0","0","56","56","56","0","56","56","56","NA","56","56","0","56","NA","56","56","0","56","NA","56","NA","56","0","0","56","56","0","56","56","57","z","10/18/18 17:39:57","The main experiment item","yes","FIN__BA__M21__7%3A10%3A17.osexp","C:\Users\ERP Testing Room\Desktop\Joanna\morph21","no","mono","no","18","no","white","no","yes","1080","legacy","56","56","C:/Users/ERP Testing Room/Desktop/Joanna/morph21/subject-142.csv","xpyriment","Jazzy James","3.1.4","0","/","NA","NA","NA","NA","space","/","481","NA","NA","NA","NA","3254682","481","2","legacy","1024","2","48000","-16","BA_m21","142","even","FILL_NW","VELT","2454","3463633","3460517","3462125","3257151","NA","NA","NA","NA","3459079","3461014","NA","3460017","NA","3460013","3462117","2469","3464034","NA","NA","3461125","2454","2454","3461517","3460013","2454","3461125","3464034","morph21_Oliver/Morris","46","35706","57","yes","1280","46"
"250","81.0344827586","81.0344827586","627.775862069","627.775862069","black","no","xpyriment","legacy","legacy","0","208","NA","uniform","61487","1000","0.0162636004359","1","undefined","1","0","57","57","57","0","57","57","57","NA","57","57","0","57","NA","57","57","0","57","NA","57","NA","57","0","0","57","57","0","57","57","58","z","10/18/18 17:39:57","The main experiment item","yes","FIN__BA__M21__7%3A10%3A17.osexp","C:\Users\ERP Testing Room\Desktop\Joanna\morph21","no","mono","no","18","no","white","no","yes","1080","legacy","57","57","C:/Users/ERP Testing Room/Desktop/Joanna/morph21/subject-142.csv","xpyriment","Jazzy James","3.1.4","0","z","NA","NA","NA","NA","space","z","705","NA","NA","NA","NA","3254682","705","2","legacy","1024","2","48000","-16","BA_m21","142","even","FILL_NW","PIFTH","2454","3466918","3465326","3462125","3257151","NA","NA","NA","NA","3466915","3465823","NA","3464825","NA","3464817","3466915","2469","3467168","NA","NA","3465926","2454","2454","3466318","3464817","2454","3465926","3467168","morph21_Oliver/Morris","47","36411","58","yes","1280","36"
"400","81.3559322034","81.3559322034","627.813559322","627.813559322","black","no","xpyriment","legacy","legacy","0","208","NA","uniform","72196","1000","0.013851182891","1","undefined","1","0","58","58","58","0","58","58","58","NA","58","58","0","58","NA","58","58","0","58","NA","58","NA","58","0","0","58","58","0","58","58","59","z","10/18/18 17:39:57","The main experiment item","yes","FIN__BA__M21__7%3A10%3A17.osexp","C:\Users\ERP Testing Room\Desktop\Joanna\morph21","no","mono","no","18","no","white","no","yes","1080","legacy","58","58","C:/Users/ERP Testing Room/Desktop/Joanna/morph21/subject-142.csv","xpyriment","Jazzy James","3.1.4","0","z","NA","NA","NA","NA","space","z","630","NA","NA","NA","NA","3254682","630","2","legacy","1024","2","48000","-16","BA_m21","142","even","FILL_NW","SOISE","2454","3469985","3468376","3462125","3257151","NA","NA","NA","NA","3469976","3468873","NA","3467876","NA","3467872","3469976","2469","3470385","NA","NA","3468985","2454","2454","3469376","3467872","2454","3468985","3470385","morph21_Oliver/Morris","48","37041","59","yes","1280","43"
"200","81.6666666667","81.6666666667","630.216666667","630.216666667","black","no","xpyriment","legacy","legacy","0","208","NA","uniform","69602","1000","0.0143674032355","1","undefined","1","0","59","59","59","0","59","59","59","NA","59","59","0","59","NA","59","59","0","59","NA","59","NA","59","0","0","59","59","0","59","59","60","z","10/18/18 17:39:57","The main experiment item","yes","FIN__BA__M21__7%3A10%3A17.osexp","C:\Users\ERP Testing Room\Desktop\Joanna\morph21","no","mono","no","18","no","white","no","yes","1080","legacy","59","59","C:/Users/ERP Testing Room/Desktop/Joanna/morph21/subject-142.csv","xpyriment","Jazzy James","3.1.4","0","z","NA","NA","NA","NA","space","z","772","NA","NA","NA","NA","3254682","772","2","legacy","1024","2","48000","-16","BA_m21","142","even","FILL_NW","BROUPS","2454","3474727","3471635","3473218","3257151","NA","NA","NA","NA","3473211","3472132","NA","3471135","NA","3471124","3473211","2469","3474927","NA","NA","3472218","2454","2454","3472610","3471124","2454","3472218","3474927","morph21_Oliver/Morris","49","37813","60","yes","1280","4"
"350","81.9672131148","81.9672131148","628.393442623","628.393442623","black","no","xpyriment","legacy","legacy","0","207","NA","uniform","79385","1000","0.0125968381936","1","undefined","1","0","60","60","60","0","60","60","60","NA","60","60","0","60","NA","60","60","0","60","NA","60","NA","60","0","0","60","60","0","60","60","61","/","10/18/18 17:39:57","The main experiment item","yes","FIN__BA__M21__7%3A10%3A17.osexp","C:\Users\ERP Testing Room\Desktop\Joanna\morph21","no","mono","no","18","no","white","no","yes","1080","legacy","60","60","C:/Users/ERP Testing Room/Desktop/Joanna/morph21/subject-142.csv","xpyriment","Jazzy James","3.1.4","0","/","NA","NA","NA","NA","space","/","519","NA","NA","NA","NA","3254682","519","2","legacy","1024","2","48000","-16","BA_m21","142","even","FILL_W","LIFT","2454","3477735","3476160","3473218","3257151","NA","NA","NA","NA","3477732","3476657","NA","3475660","NA","3475656","3477732","2469","3478085","NA","NA","3476743","2454","2454","3477135","3475656","2454","3476743","3478085","morph21_Oliver/Morris","50","38332","61","yes","1280","39"
"250","82.2580645161","82.2580645161","628.209677419","628.209677419","black","no","xpyriment","legacy","legacy","0","202","NA","uniform","67551","1000","0.01480362985","1","undefined","1","0","61","61","61","0","61","61","61","NA","61","61","0","61","NA","61","61","0","61","NA","61","NA","61","0","0","61","61","0","61","61","62","/","10/18/18 17:39:57","The main experiment item","yes","FIN__BA__M21__7%3A10%3A17.osexp","C:\Users\ERP Testing Room\Desktop\Joanna\morph21","no","mono","no","18","no","white","no","yes","1080","legacy","61","61","C:/Users/ERP Testing Room/Desktop/Joanna/morph21/subject-142.csv","xpyriment","Jazzy James","3.1.4","0","/","NA","NA","NA","NA","space","/","617","NA","NA","NA","NA","3254682","617","2","legacy","1024","2","48000","-16","BA_m21","142","even","CW_L","DREAMER","2454","3480885","3479285","3473218","3257151","NA","NA","NA","NA","3480875","3479782","NA","3478785","NA","3478775","3480875","2469","3481135","NA","NA","3479885","2454","2454","3480277","3478775","2454","3479885","3481135","morph21_Oliver/Morris","51","38949","62","yes","1280","12"
"200","82.5396825397","82.5396825397","628.301587302","628.301587302","black","no","xpyriment","legacy","legacy","0","202","NA","uniform","71627","1000","0.0139612157427","1","undefined","1","0","62","62","62","0","62","62","62","NA","62","62","0","62","NA","62","62","0","62","NA","62","NA","62","0","0","62","62","0","62","62","63","/","10/18/18 17:39:57","The main experiment item","yes","FIN__BA__M21__7%3A10%3A17.osexp","C:\Users\ERP Testing Room\Desktop\Joanna\morph21","no","mono","no","18","no","white","no","yes","1080","legacy","62","62","C:/Users/ERP Testing Room/Desktop/Joanna/morph21/subject-142.csv","xpyriment","Jazzy James","3.1.4","0","/","NA","NA","NA","NA","space","/","634","NA","NA","NA","NA","3254682","634","2","legacy","1024","2","48000","-16","BA_m21","142","even","CW_L","VERBAL","2454","3485561","3482452","3484053","3257151","NA","NA","NA","NA","3484050","3482949","NA","3481952","NA","3481947","3484050","2469","3485761","NA","NA","3483061","2454","2454","3483453","3481947","2454","3483061","3485761","morph21_Oliver/Morris","52","39583","63","yes","1280","50"
"350","82.8125","82.8125","628.875","628.875","black","no","xpyriment","legacy","legacy","0","206","NA","uniform","71867","1000","0.0139145922329","1","undefined","1","0","63","63","63","0","63","63","63","NA","63","63","0","63","NA","63","63","0","63","NA","63","NA","63","0","0","63","63","0","63","63","64","z","10/18/18 17:39:57","The main experiment item","yes","FIN__BA__M21__7%3A10%3A17.osexp","C:\Users\ERP Testing Room\Desktop\Joanna\morph21","no","mono","no","18","no","white","no","yes","1080","legacy","63","63","C:/Users/ERP Testing Room/Desktop/Joanna/morph21/subject-142.csv","xpyriment","Jazzy James","3.1.4","0","z","NA","NA","NA","NA","space","z","665","NA","NA","NA","NA","3254682","665","2","legacy","1024","2","48000","-16","BA_m21","142","even","NW_L_SIMP","PICKENCE","2454","3488670","3487061","3484053","3257151","NA","NA","NA","NA","3488660","3487558","NA","3486561","NA","3486558","3488660","2469","3489020","NA","NA","3487670","2454","2454","3488061","3486558","2454","3487670","3489020","morph21_Oliver/Morris","53","40248","64","yes","1280","5"
"200","81.5384615385","81.5384615385","628.630769231","628.630769231","black","no","xpyriment","legacy","legacy","0","206","NA","uniform","74513","1000","0.0134204769638","0","undefined","0","0","64","64","64","0","64","64","64","NA","64","64","0","64","NA","64","64","0","64","NA","64","NA","64","0","0","64","64","0","64","64","65","z","10/18/18 17:39:57","The main experiment item","yes","FIN__BA__M21__7%3A10%3A17.osexp","C:\Users\ERP Testing Room\Desktop\Joanna\morph21","no","mono","no","18","no","white","no","yes","1080","legacy","64","64","C:/Users/ERP Testing Room/Desktop/Joanna/morph21/subject-142.csv","xpyriment","Jazzy James","3.1.4","0","/","NA","NA","NA","NA","space","/","613","NA","NA","NA","NA","3254682","613","2","legacy","1024","2","48000","-16","BA_m21","142","even","NW_L_SIMP","GROWIST","2454","3491737","3490145","3484053","3257151","NA","NA","NA","NA","3488660","3490642","NA","3489645","NA","3489641","3491730","2469","3491937","NA","NA","3490737","2454","2454","3491128","3489641","2454","3490737","3491937","morph21_Oliver/Morris","53","40861","65","yes","1280","20"
"200","81.8181818182","81.8181818182","628.621212121","628.621212121","black","no","xpyriment","legacy","legacy","0","207","NA","uniform","60190","1000","0.0166140554909","1","undefined","1","0","65","65","65","0","65","65","65","NA","65","65","0","65","NA","65","65","0","65","NA","65","NA","65","0","0","65","65","0","65","65","66","/","10/18/18 17:39:57","The main experiment item","yes","FIN__BA__M21__7%3A10%3A17.osexp","C:\Users\ERP Testing Room\Desktop\Joanna\morph21","no","mono","no","18","no","white","no","yes","1080","legacy","65","65","C:/Users/ERP Testing Room/Desktop/Joanna/morph21/subject-142.csv","xpyriment","Jazzy James","3.1.4","0","/","NA","NA","NA","NA","space","/","628","NA","NA","NA","NA","3254682","628","2","legacy","1024","2","48000","-16","BA_m21","142","even","FILL_W","WRECK","2454","3496278","3493187","3494770","3257151","NA","NA","NA","NA","3494762","3493684","NA","3492687","NA","3492676","3494762","2469","3496479","NA","NA","3493770","2454","2454","3494162","3492676","2454","3493770","3496479","morph21_Oliver/Morris","54","41489","66","yes","1280","13"
"300","82.0895522388","82.0895522388","628.074626866","628.074626866","black","no","xpyriment","legacy","legacy","0","207","NA","uniform","75731","1000","0.013204632185","1","undefined","1","0","66","66","66","0","66","66","66","NA","66","66","0","66","NA","66","66","0","66","NA","66","NA","66","0","0","66","66","0","66","66","67","/","10/18/18 17:39:57","The main experiment item","yes","FIN__BA__M21__7%3A10%3A17.osexp","C:\Users\ERP Testing Room\Desktop\Joanna\morph21","no","mono","no","18","no","white","no","yes","1080","legacy","66","66","C:/Users/ERP Testing Room/Desktop/Joanna/morph21/subject-142.csv","xpyriment","Jazzy James","3.1.4","0","/","NA","NA","NA","NA","space","/","592","NA","NA","NA","NA","3254682","592","2","legacy","1024","2","48000","-16","BA_m21","142","even","FILL_W","BAKE","2454","3499262","3497662","3494770","3257151","NA","NA","NA","NA","3499258","3498159","NA","3497162","NA","3497158","3499258","2469","3499562","NA","NA","3498262","2454","2454","3498662","3497158","2454","3498262","3499562","morph21_Oliver/Morris","55","42081","67","yes","1280","29"
"200","82.3529411765","82.3529411765","627.485294118","627.485294118","black","no","xpyriment","legacy","legacy","0","201","NA","uniform","77133","1000","0.0129646195532","1","undefined","1","0","67","67","67","0","67","67","67","NA","67","67","0","67","NA","67","67","0","67","NA","67","NA","67","0","0","67","67","0","67","67","68","/","10/18/18 17:39:57","The main experiment item","yes","FIN__BA__M21__7%3A10%3A17.osexp","C:\Users\ERP Testing Room\Desktop\Joanna\morph21","no","mono","no","18","no","white","no","yes","1080","legacy","67","67","C:/Users/ERP Testing Room/Desktop/Joanna/morph21/subject-142.csv","xpyriment","Jazzy James","3.1.4","0","/","NA","NA","NA","NA","space","/","588","NA","NA","NA","NA","3254682","588","2","legacy","1024","2","48000","-16","BA_m21","142","even","CW_S","LOCALLY","2454","3502363","3500738","3494770","3257151","NA","NA","NA","NA","3502358","3501235","NA","3500238","NA","3500229","3502358","2469","3502563","NA","NA","3501363","2454","2454","3501763","3500229","2454","3501363","3502563","morph21_Oliver/Morris","56","42669","68","yes","1280","37"
"250","82.6086956522","82.6086956522","629.15942029","629.15942029","black","no","xpyriment","legacy","legacy","0","201","NA","uniform","65968","1000","0.0151588649042","1","undefined","1","0","68","68","68","0","68","68","68","NA","68","68","0","68","NA","68","68","0","68","NA","68","NA","68","0","0","68","68","0","68","68","69","/","10/18/18 17:39:57","The main experiment item","yes","FIN__BA__M21__7%3A10%3A17.osexp","C:\Users\ERP Testing Room\Desktop\Joanna\morph21","no","mono","no","18","no","white","no","yes","1080","legacy","68","68","C:/Users/ERP Testing Room/Desktop/Joanna/morph21/subject-142.csv","xpyriment","Jazzy James","3.1.4","0","/","NA","NA","NA","NA","space","/","743","NA","NA","NA","NA","3254682","743","2","legacy","1024","2","48000","-16","BA_m21","142","even","CW_S","PEAKING","2454","3506797","3503705","3505288","3257151","NA","NA","NA","NA","3505281","3504202","NA","3503205","NA","3503198","3505281","2469","3507047","NA","NA","3504288","2454","2454","3504680","3503198","2454","3504288","3507047","morph21_Oliver/Morris","57","43412","69","yes","1280","28"
"300","82.8571428571","82.8571428571","632.485714286","632.485714286","black","no","xpyriment","legacy","legacy","0","205","NA","uniform","68012","1000","0.0147032876551","1","undefined","1","0","69","69","69","0","69","69","69","NA","69","69","0","69","NA","69","69","0","69","NA","69","NA","69","0","0","69","69","0","69","69","70","z","10/18/18 17:39:57","The main experiment item","yes","FIN__BA__M21__7%3A10%3A17.osexp","C:\Users\ERP Testing Room\Desktop\Joanna\morph21","no","mono","no","18","no","white","no","yes","1080","legacy","69","69","C:/Users/ERP Testing Room/Desktop/Joanna/morph21/subject-142.csv","xpyriment","Jazzy James","3.1.4","0","z","NA","NA","NA","NA","space","z","862","NA","NA","NA","NA","3254682","862","2","legacy","1024","2","48000","-16","BA_m21","142","even","NW_S_SIMP","HEIRIC","2454","3509888","3508288","3505288","3257151","NA","NA","NA","NA","3509885","3508785","NA","3507788","NA","3507777","3509885","2469","3510188","NA","NA","3508888","2454","2454","3509288","3507777","2454","3508888","3510188","morph21_Oliver/Morris","58","44274","70","yes","1280","3"
"300","83.0985915493","83.0985915493","634.338028169","634.338028169","black","no","xpyriment","legacy","legacy","0","205","NA","uniform","71640","1000","0.0139586823004","1","undefined","1","0","70","70","70","0","70","70","70","NA","70","70","0","70","NA","70","70","0","70","NA","70","NA","70","0","0","70","70","0","70","70","71","z","10/18/18 17:39:57","The main experiment item","yes","FIN__BA__M21__7%3A10%3A17.osexp","C:\Users\ERP Testing Room\Desktop\Joanna\morph21","no","mono","no","18","no","white","no","yes","1080","legacy","70","70","C:/Users/ERP Testing Room/Desktop/Joanna/morph21/subject-142.csv","xpyriment","Jazzy James","3.1.4","0","z","NA","NA","NA","NA","space","z","764","NA","NA","NA","NA","3254682","764","2","legacy","1024","2","48000","-16","BA_m21","142","even","NW_S_SIMP","BOLTOUS","2454","3512922","3511338","3505288","3257151","NA","NA","NA","NA","3512912","3511835","NA","3510838","NA","3510828","3512912","2469","3513222","NA","NA","3511922","2454","2454","3512313","3510828","2454","3511922","3513222","morph21_Oliver/Morris","59","45038","71","yes","1280","13"
"250","83.3333333333","83.3333333333","632.861111111","632.861111111","black","no","xpyriment","legacy","legacy","0","201","NA","uniform","80363","1000","0.0124435374488","1","undefined","1","0","71","71","71","0","71","71","71","NA","71","71","0","71","NA","71","71","0","71","NA","71","NA","71","0","0","71","71","0","71","71","72","/","10/18/18 17:39:57","The main experiment item","yes","FIN__BA__M21__7%3A10%3A17.osexp","C:\Users\ERP Testing Room\Desktop\Joanna\morph21","no","mono","no","18","no","white","no","yes","1080","legacy","71","71","C:/Users/ERP Testing Room/Desktop/Joanna/morph21/subject-142.csv","xpyriment","Jazzy James","3.1.4","0","/","NA","NA","NA","NA","space","/","528","NA","NA","NA","NA","3254682","528","2","legacy","1024","2","48000","-16","BA_m21","142","even","CW_S","AWARENESS","2454","3517530","3514439","3516022","3257151","NA","NA","NA","NA","3516014","3514936","NA","3513939","NA","3513929","3516014","2469","3517781","NA","NA","3515022","2454","2454","3515414","3513929","2454","3515022","3517781","morph21_Oliver/Morris","60","45566","72","yes","1280","44"
"300","83.5616438356","83.5616438356","632.630136986","632.630136986","black","no","xpyriment","legacy","legacy","0","201","NA","uniform","74452","1000","0.0134314726267","1","undefined","1","0","72","72","72","0","72","72","72","NA","72","72","0","72","NA","72","72","0","72","NA","72","NA","72","0","0","72","72","0","72","72","73","/","10/18/18 17:39:57","The main experiment item","yes","FIN__BA__M21__7%3A10%3A17.osexp","C:\Users\ERP Testing Room\Desktop\Joanna\morph21","no","mono","no","18","no","white","no","yes","1080","legacy","72","72","C:/Users/ERP Testing Room/Desktop/Joanna/morph21/subject-142.csv","xpyriment","Jazzy James","3.1.4","0","/","NA","NA","NA","NA","space","/","616","NA","NA","NA","NA","3254682","616","2","legacy","1024","2","48000","-16","BA_m21","142","even","CW_S","RISKY","2454","3520623","3519023","3516022","3257151","NA","NA","NA","NA","3520615","3519520","NA","3518523","NA","3518518","3520615","2469","3520923","NA","NA","3519623","2454","2454","3520015","3518518","2454","3519623","3520923","morph21_Oliver/Morris","61","46182","73","yes","1280","50"
"250","83.7837837838","83.7837837838","634.635135135","634.635135135","black","no","xpyriment","legacy","legacy","0","207","NA","uniform","66942","1000","0.0149383048012","1","undefined","1","0","73","73","73","0","73","73","73","NA","73","73","0","73","NA","73","73","0","73","NA","73","NA","73","0","0","73","73","0","73","73","74","/","10/18/18 17:39:57","The main experiment item","yes","FIN__BA__M21__7%3A10%3A17.osexp","C:\Users\ERP Testing Room\Desktop\Joanna\morph21","no","mono","no","18","no","white","no","yes","1080","legacy","73","73","C:/Users/ERP Testing Room/Desktop/Joanna/morph21/subject-142.csv","xpyriment","Jazzy James","3.1.4","0","/","NA","NA","NA","NA","space","/","781","NA","NA","NA","NA","3254682","781","2","legacy","1024","2","48000","-16","BA_m21","142","even","FILL_W","PREACH","2454","3523682","3522098","3516022","3257151","NA","NA","NA","NA","3523679","3522595","NA","3521598","NA","3521588","3523679","2469","3523932","NA","NA","3522690","2454","2454","3523082","3521587","2454","3522690","3523932","morph21_Oliver/Morris","62","46963","74","yes","1280","7"
"200","84","84","633.8","633.8","black","no","xpyriment","legacy","legacy","0","204","NA","uniform","76292","1000","0.0131075342107","undefined","undefined","1","0","74","74","74","0","74","74","74","NA","74","74","0","74","NA","74","74","0","74","NA","74","NA","74","0","0","74","74","0","74","74","75","z","10/18/18 17:39:57","The main experiment item","yes","FIN__BA__M21__7%3A10%3A17.osexp","C:\Users\ERP Testing Room\Desktop\Joanna\morph21","no","mono","no","18","no","white","no","yes","1080","legacy","74","74","C:/Users/ERP Testing Room/Desktop/Joanna/morph21/subject-142.csv","xpyriment","Jazzy James","3.1.4","0","space","space","NA","NA","NA","space","z","16423","16423","NA","NA","NA","3254682","572","2","legacy","1024","2","48000","-16","BA_m21","142","even","NW_L_COMP","GASFIL","2454","3528207","3525115","3526698","3257151","3528415","NA","NA","NA","3526690","3525612","NA","3524615","NA","3524612","3526690","2469","3544839","NA","NA","3525698","2454","2454","3526090","3524612","2454","3525698","3528407","morph21_Oliver/Morris","63","47535","75","yes","1280","6"
"250","84.2105263158","84.2105263158","635.513157895","635.513157895","black","no","xpyriment","legacy","legacy","0","206","NA","uniform","68573","1000","0.0145829991396","1","undefined","1","0","75","75","75","0","75","75","75","NA","75","75","0","75","NA","75","75","0","75","NA","75","NA","75","0","0","75","75","0","75","75","76","z","10/18/18 17:39:57","The main experiment item","yes","FIN__BA__M21__7%3A10%3A17.osexp","C:\Users\ERP Testing Room\Desktop\Joanna\morph21","no","mono","no","18","no","white","no","yes","1080","legacy","75","75","C:/Users/ERP Testing Room/Desktop/Joanna/morph21/subject-142.csv","xpyriment","Jazzy James","3.1.4","0","z","space","NA","NA","NA","space","z","764","16423","NA","NA","NA","3254682","764","2","legacy","1024","2","48000","-16","BA_m21","142","even","NW_L_SIMP","BEARIST","2454","3547650","3546050","3526698","3257151","3528415","NA","NA","NA","3547644","3546547","NA","3545550","NA","3545545","3547644","2469","3547900","NA","NA","3546650","2454","2454","3547042","3545545","2454","3546650","3547900","morph21_Oliver/Morris","64","48299","76","yes","1280","25"
"250","84.4155844156","84.4155844156","635.038961039","635.038961039","black","no","xpyriment","legacy","legacy","0","208","NA","uniform","68487","1000","0.0146013111977","1","undefined","1","0","76","76","76","0","76","76","76","NA","76","76","0","76","NA","76","76","0","76","NA","76","NA","76","0","0","76","76","0","76","76","77","z","10/18/18 17:39:57","The main experiment item","yes","FIN__BA__M21__7%3A10%3A17.osexp","C:\Users\ERP Testing Room\Desktop\Joanna\morph21","no","mono","no","18","no","white","no","yes","1080","legacy","76","76","C:/Users/ERP Testing Room/Desktop/Joanna/morph21/subject-142.csv","xpyriment","Jazzy James","3.1.4","0","z","space","NA","NA","NA","space","z","599","16423","NA","NA","NA","3254682","599","2","legacy","1024","2","48000","-16","BA_m21","142","even","FILL_NW","LOLDS","2454","3550767","3549167","3526698","3257151","3528415","NA","NA","NA","3550757","3549664","NA","3548667","NA","3548657","3550757","2469","3551017","NA","NA","3549767","2454","2454","3550159","3548657","2454","3549767","3551017","morph21_Oliver/Morris","65","48898","77","yes","1280","34"
"300","84.6153846154","84.6153846154","634.871794872","634.871794872","black","no","xpyriment","legacy","legacy","0","207","NA","uniform","76333","1000","0.0131004938886","1","undefined","1","0","77","77","77","0","77","77","77","NA","77","77","0","77","NA","77","77","0","77","NA","77","NA","77","0","0","77","77","0","77","77","78","/","10/18/18 17:39:57","The main experiment item","yes","FIN__BA__M21__7%3A10%3A17.osexp","C:\Users\ERP Testing Room\Desktop\Joanna\morph21","no","mono","no","18","no","white","no","yes","1080","legacy","77","77","C:/Users/ERP Testing Room/Desktop/Joanna/morph21/subject-142.csv","xpyriment","Jazzy James","3.1.4","0","/","space","NA","NA","NA","space","/","622","16423","NA","NA","NA","3254682","622","2","legacy","1024","2","48000","-16","BA_m21","142","even","FILL_W","BOX","2454","3555302","3552209","3553793","3257151","3528415","NA","NA","NA","3553785","3552706","NA","3551709","NA","3551701","3553785","2469","3555602","NA","NA","3552793","2454","2454","3553185","3551701","2454","3552793","3555602","morph21_Oliver/Morris","66","49520","78","yes","1280","42"
"400","84.8101265823","84.8101265823","635.797468354","635.797468354","black","no","xpyriment","legacy","legacy","0","208","NA","uniform","68174","1000","0.0146683486373","1","undefined","1","0","78","78","78","0","78","78","78","NA","78","78","0","78","NA","78","78","0","78","NA","78","NA","78","0","0","78","78","0","78","78","79","z","10/18/18 17:39:57","The main experiment item","yes","FIN__BA__M21__7%3A10%3A17.osexp","C:\Users\ERP Testing Room\Desktop\Joanna\morph21","no","mono","no","18","no","white","no","yes","1080","legacy","78","78","C:/Users/ERP Testing Room/Desktop/Joanna/morph21/subject-142.csv","xpyriment","Jazzy James","3.1.4","0","z","space","NA","NA","NA","space","z","708","16423","NA","NA","NA","3254682","708","2","legacy","1024","2","48000","-16","BA_m21","142","even","FILL_NW","ULNS","2454","3558443","3556852","3553793","3257151","3528415","NA","NA","NA","3558433","3557349","NA","3556352","NA","3556341","3558433","2469","3558844","NA","NA","3557443","2454","2454","3557835","3556341","2454","3557443","3558844","morph21_Oliver/Morris","67","50228","79","yes","1280","45"
"250","85","85","636.675","636.675","black","no","xpyriment","legacy","legacy","0","201","NA","uniform","69768","1000","0.0143332186676","1","undefined","1","0","79","79","79","0","79","79","79","NA","79","79","0","79","NA","79","79","0","79","NA","79","NA","79","0","0","79","79","0","79","79","80","/","10/18/18 17:39:57","The main experiment item","yes","FIN__BA__M21__7%3A10%3A17.osexp","C:\Users\ERP Testing Room\Desktop\Joanna\morph21","no","mono","no","18","no","white","no","yes","1080","legacy","79","79","C:/Users/ERP Testing Room/Desktop/Joanna/morph21/subject-142.csv","xpyriment","Jazzy James","3.1.4","0","/","space","NA","NA","NA","space","/","706","16423","NA","NA","NA","3254682","706","2","legacy","1024","2","48000","-16","BA_m21","142","even","CW_S","MOSSY","2454","3561652","3560069","3553793","3257151","3528415","NA","NA","NA","3561644","3560566","NA","3559568","NA","3559564","3561644","2469","3561902","NA","NA","3560652","2454","2454","3561044","3559564","2454","3560652","3561902","morph21_Oliver/Morris","68","50934","80","yes","1280","47"
"400","85.1851851852","85.1851851852","635.925925926","635.925925926","black","no","xpyriment","legacy","legacy","0","207","NA","uniform","69091","1000","0.0144736651662","1","undefined","1","0","80","80","80","0","80","80","80","NA","80","80","0","80","NA","80","80","0","80","NA","80","NA","80","0","0","80","80","0","80","80","81","/","10/18/18 17:39:57","The main experiment item","yes","FIN__BA__M21__7%3A10%3A17.osexp","C:\Users\ERP Testing Room\Desktop\Joanna\morph21","no","mono","no","18","no","white","no","yes","1080","legacy","80","80","C:/Users/ERP Testing Room/Desktop/Joanna/morph21/subject-142.csv","xpyriment","Jazzy James","3.1.4","0","/","space","NA","NA","NA","space","/","576","16423","NA","NA","NA","3254682","576","2","legacy","1024","2","48000","-16","BA_m21","142","even","FILL_W","CRUNCH","2454","3566202","3563094","3564694","3257151","3528415","NA","NA","NA","3564684","3563591","NA","3562594","NA","3562588","3564684","2469","3566602","NA","NA","3563694","2454","2454","3564085","3562588","2454","3563694","3566602","morph21_Oliver/Morris","69","51510","81","yes","1280","20"
"200","85.3658536585","85.3658536585","635.902439024","635.902439024","black","no","xpyriment","legacy","legacy","0","208","NA","uniform","71996","1000","0.0138896605367","1","undefined","1","0","81","81","81","0","81","81","81","NA","81","81","0","81","NA","81","81","0","81","NA","81","NA","81","0","0","81","81","0","81","81","82","z","10/18/18 17:39:57","The main experiment item","yes","FIN__BA__M21__7%3A10%3A17.osexp","C:\Users\ERP Testing Room\Desktop\Joanna\morph21","no","mono","no","18","no","white","no","yes","1080","legacy","81","81","C:/Users/ERP Testing Room/Desktop/Joanna/morph21/subject-142.csv","xpyriment","Jazzy James","3.1.4","0","z","space","NA","NA","NA","space","z","634","16423","NA","NA","NA","3254682","634","2","legacy","1024","2","48000","-16","BA_m21","142","even","FILL_NW","HOITS","2454","3569436","3567819","3564694","3257151","3528415","NA","NA","NA","3569430","3568316","NA","3567319","NA","3567313","3569430","2469","3569636","NA","NA","3568436","2454","2454","3568827","3567313","2454","3568436","3569636","morph21_Oliver/Morris","70","52144","82","yes","1280","30"
"350","85.5421686747","85.5421686747","634.746987952","634.746987952","black","no","xpyriment","legacy","legacy","0","201","NA","uniform","71905","1000","0.0139072387178","1","undefined","1","0","82","82","82","0","82","82","82","NA","82","82","0","82","NA","82","82","0","82","NA","82","NA","82","0","0","82","82","0","82","82","83","/","10/18/18 17:39:57","The main experiment item","yes","FIN__BA__M21__7%3A10%3A17.osexp","C:\Users\ERP Testing Room\Desktop\Joanna\morph21","no","mono","no","18","no","white","no","yes","1080","legacy","82","82","C:/Users/ERP Testing Room/Desktop/Joanna/morph21/subject-142.csv","xpyriment","Jazzy James","3.1.4","0","/","space","NA","NA","NA","space","/","540","16423","NA","NA","NA","3254682","540","2","legacy","1024","2","48000","-16","BA_m21","142","even","CW_S","CHILLY","2454","3572387","3570803","3564694","3257151","3528415","NA","NA","NA","3572384","3571300","NA","3570303","NA","3570296","3572384","2469","3572737","NA","NA","3571395","2454","2454","3571787","3570296","2454","3571395","3572737","morph21_Oliver/Morris","71","52684","83","yes","1280","48"
"400","85.7142857143","85.7142857143","635.130952381","635.130952381","black","no","xpyriment","legacy","legacy","0","205","NA","uniform","72547","1000","0.0137841675052","1","undefined","1","0","83","83","83","0","83","83","83","NA","83","83","0","83","NA","83","83","0","83","NA","83","NA","83","0","0","83","83","0","83","83","84","z","10/18/18 17:39:57","The main experiment item","yes","FIN__BA__M21__7%3A10%3A17.osexp","C:\Users\ERP Testing Room\Desktop\Joanna\morph21","no","mono","no","18","no","white","no","yes","1080","legacy","83","83","C:/Users/ERP Testing Room/Desktop/Joanna/morph21/subject-142.csv","xpyriment","Jazzy James","3.1.4","0","z","space","NA","NA","NA","space","z","667","16423","NA","NA","NA","3254682","667","2","legacy","1024","2","48000","-16","BA_m21","142","even","NW_S_SIMP","MEDICALARY","2454","3577137","3574020","3575629","3257151","3528415","NA","NA","NA","3575620","3574517","NA","3573520","NA","3573511","3575620","2469","3577537","NA","NA","3574628","2454","2454","3575020","3573510","2454","3574628","3577537","morph21_Oliver/Morris","72","53351","84","yes","1280","18"
"250","85.8823529412","85.8823529412","635.247058824","635.247058824","black","no","xpyriment","legacy","legacy","0","201","NA","uniform","73311","1000","0.0136405177941","1","undefined","1","0","84","84","84","0","84","84","84","NA","84","84","0","84","NA","84","84","0","84","NA","84","NA","84","0","0","84","84","0","84","84","85","/","10/18/18 17:39:57","The main experiment item","yes","FIN__BA__M21__7%3A10%3A17.osexp","C:\Users\ERP Testing Room\Desktop\Joanna\morph21","no","mono","no","18","no","white","no","yes","1080","legacy","84","84","C:/Users/ERP Testing Room/Desktop/Joanna/morph21/subject-142.csv","xpyriment","Jazzy James","3.1.4","0","/","space","NA","NA","NA","space","/","645","16423","NA","NA","NA","3254682","645","2","legacy","1024","2","48000","-16","BA_m21","142","even","CW_S","TOSSING","2454","3580329","3578720","3575629","3257151","3528415","NA","NA","NA","3580325","3579217","NA","3578220","NA","3578210","3580325","2469","3580579","NA","NA","3579337","2454","2454","3579729","3578210","2454","3579337","3580579","morph21_Oliver/Morris","73","53996","85","yes","1280","26"
"250","86.0465116279","86.0465116279","634.441860465","634.441860465","black","no","xpyriment","legacy","legacy","0","202","NA","uniform","79174","1000","0.0126304089726","1","undefined","1","0","85","85","85","0","85","85","85","NA","85","85","0","85","NA","85","85","0","85","NA","85","NA","85","0","0","85","85","0","85","85","86","/","10/18/18 17:39:57","The main experiment item","yes","FIN__BA__M21__7%3A10%3A17.osexp","C:\Users\ERP Testing Room\Desktop\Joanna\morph21","no","mono","no","18","no","white","no","yes","1080","legacy","85","85","C:/Users/ERP Testing Room/Desktop/Joanna/morph21/subject-142.csv","xpyriment","Jazzy James","3.1.4","0","/","space","NA","NA","NA","space","/","566","16423","NA","NA","NA","3254682","566","2","legacy","1024","2","48000","-16","BA_m21","142","even","CW_L","STRIKER","2454","3583320","3581737","3575629","3257151","3528415","NA","NA","NA","3583314","3582234","NA","3581237","NA","3581230","3583314","2469","3583571","NA","NA","3582320","2454","2454","3582712","3581230","2454","3582320","3583571","morph21_Oliver/Morris","74","54562","86","yes","1280","17"
"400","86.2068965517","86.2068965517","633.655172414","633.655172414","black","no","xpyriment","legacy","legacy","0","201","NA","uniform","72763","1000","0.0137432486291","1","undefined","1","0","86","86","86","0","86","86","86","NA","86","86","0","86","NA","86","86","0","86","NA","86","NA","86","0","0","86","86","0","86","86","87","/","10/18/18 17:39:57","The main experiment item","yes","FIN__BA__M21__7%3A10%3A17.osexp","C:\Users\ERP Testing Room\Desktop\Joanna\morph21","no","mono","no","18","no","white","no","yes","1080","legacy","86","86","C:/Users/ERP Testing Room/Desktop/Joanna/morph21/subject-142.csv","xpyriment","Jazzy James","3.1.4","0","/","space","NA","NA","NA","space","/","566","16423","NA","NA","NA","3254682","566","2","legacy","1024","2","48000","-16","BA_m21","142","even","CW_S","EFFORTLESS","2454","3587813","3584712","3586304","3257151","3528415","NA","NA","NA","3586296","3585209","NA","3584212","NA","3584207","3586296","2469","3588214","NA","NA","3585304","2454","2454","3585696","3584207","2454","3585304","3588214","morph21_Oliver/Morris","75","55128","87","yes","1280","30"
"400","85.2272727273","85.2272727273","634.863636364","634.863636364","black","no","xpyriment","legacy","legacy","0","206","NA","uniform","68802","1000","0.0145344612075","0","undefined","0","0","87","87","87","0","87","87","87","NA","87","87","0","87","NA","87","87","0","87","NA","87","NA","87","0","0","87","87","0","87","87","88","z","10/18/18 17:39:57","The main experiment item","yes","FIN__BA__M21__7%3A10%3A17.osexp","C:\Users\ERP Testing Room\Desktop\Joanna\morph21","no","mono","no","18","no","white","no","yes","1080","legacy","87","87","C:/Users/ERP Testing Room/Desktop/Joanna/morph21/subject-142.csv","xpyriment","Jazzy James","3.1.4","0","/","space","NA","NA","NA","space","/","740","16423","NA","NA","NA","3254682","740","2","legacy","1024","2","48000","-16","BA_m21","142","even","NW_L_SIMP","POORITY","2454","3590955","3589372","3586304","3257151","3528415","NA","NA","NA","3586296","3589869","NA","3588872","NA","3588863","3590951","2469","3591355","NA","NA","3589955","2454","2454","3590355","3588863","2454","3589955","3591355","morph21_Oliver/Morris","75","55868","88","yes","1280","13"
"250","84.2696629213","84.2696629213","633.786516854","633.786516854","black","no","xpyriment","legacy","legacy","0","207","NA","uniform","74508","1000","0.0134213775702","0","undefined","0","0","88","88","88","0","88","88","88","NA","88","88","0","88","NA","88","88","0","88","NA","88","NA","88","0","0","88","88","0","88","88","89","/","10/18/18 17:39:57","The main experiment item","yes","FIN__BA__M21__7%3A10%3A17.osexp","C:\Users\ERP Testing Room\Desktop\Joanna\morph21","no","mono","no","18","no","white","no","yes","1080","legacy","88","88","C:/Users/ERP Testing Room/Desktop/Joanna/morph21/subject-142.csv","xpyriment","Jazzy James","3.1.4","0","z","space","NA","NA","NA","space","z","539","16423","NA","NA","NA","3254682","539","2","legacy","1024","2","48000","-16","BA_m21","142","even","FILL_W","FIERCE","2454","3594180","3592597","3586304","3257151","3528415","NA","NA","NA","3586296","3593094","NA","3592097","NA","3592088","3594174","2469","3594430","NA","NA","3593180","2454","2454","3593572","3592088","2454","3593180","3594430","morph21_Oliver/Morris","75","56407","89","yes","1280","24"
