"ITI","acc","accuracy","average_response_time","avg_rt","background","bidi","canvas_backend","clock_backend","color_backend","compensation","cond_trig","condtrigtime","coordinates","coroutines_cycles","coroutines_duration","coroutines_mean_cycle_duration","correct","correct_instructions_1","correct_new_keyboard_response_1","count_AB_m21","count_ITI","count_blank_screen","count_blink_screen","count_block1","count_break1","count_break2","count_break3_1","count_canvas","count_correct_trigger","count_def_chain","count_end_screen","count_fixation_1","count_getting_started","count_inc_counter","count_incorrect_trigger","count_instructions_1","count_logger","count_logscript","count_new_coroutines","count_new_inline_script","count_new_keyboard_response_1","count_reset_counter_prep","count_reset_counter_run","count_responsescreen","count_sequence","count_start_trigger","count_target_present","count_word_trigger","counter","cresp","datetime","description","disable_garbage_collection","experiment_file","experiment_path","font_bold","font_family","font_italic","font_size","font_underline","foreground","form_clicks","fullscreen","height","keyboard_backend","live_row","live_row_block1","logfile","mouse_backend","opensesame_codename","opensesame_version","repeat_cycle","response","response_break1","response_break2","response_break3_1","response_end_screen","response_instructions_1","response_new_keyboard_response_1","response_time","response_time_break1","response_time_break2","response_time_break3_1","response_time_end_screen","response_time_instructions_1","response_time_new_keyboard_response_1","round_decimals","sampler_backend","sound_buf_size","sound_channels","sound_freq","sound_sample_size","start","subject_nr","subject_parity","targ_type","target","time_AB_m21","time_ITI","time_blank_screen","time_blink_screen","time_block1","time_break1","time_break2","time_break3_1","time_canvas","time_correct_trigger","time_def_chain","time_end_screen","time_fixation_1","time_getting_started","time_inc_counter","time_incorrect_trigger","time_instructions_1","time_logger","time_logscript","time_new_inline_script","time_new_keyboard_response_1","time_reset_counter_prep","time_reset_counter_run","time_responsescreen","time_sequence","time_start_trigger","time_target_present","time_word_trigger","title","total_correct","total_response_time","total_responses","uniform_coordinates","width","word_trig"
"200","0","0","993","993","black","no","xpyriment","legacy","legacy","0","208","NA","uniform","56414","1000","0.0177260963591","0","undefined","0","0","0","0","0","0","0","0","0","NA","0","0","0","0","NA","0","0","0","0","NA","0","NA","0","0","0","0","0","0","0","0","1","z","12/10/17 12:33:14","The main experiment item","yes","FIN__AB__M21__7%3A10%3A17.osexp","C:\Users\ERP Testing Room\Desktop\Joanna\morph21","no","mono","no","18","no","white","no","yes","1080","legacy","0","0","C:/Users/ERP Testing Room/Desktop/Joanna/morph21/subject-120.csv","xpyriment","Jazzy James","3.1.4","0","None","NA","NA","NA","NA","return","None","993","NA","NA","NA","NA","155001","993","2","legacy","1024","2","48000","-16","AB_m21","120","even","FILL_NW","GILN","1379","159340","157756","NA","156389","NA","NA","NA","NA","NA","158253","NA","157251","NA","157181","159333","1387","159540","NA","NA","158340","1379","1379","158731","157181","1379","158340","159540","morph21_Oliver/Morris","0","993","1","yes","1280","25"
"250","50","50","884","884","black","no","xpyriment","legacy","legacy","0","207","NA","uniform","71289","1000","0.0140274095583","1","undefined","1","0","1","1","1","0","1","1","1","NA","1","1","0","1","NA","1","1","0","1","NA","1","NA","1","0","0","1","1","0","1","1","2","/","12/10/17 12:33:14","The main experiment item","yes","FIN__AB__M21__7%3A10%3A17.osexp","C:\Users\ERP Testing Room\Desktop\Joanna\morph21","no","mono","no","18","no","white","no","yes","1080","legacy","1","1","C:/Users/ERP Testing Room/Desktop/Joanna/morph21/subject-120.csv","xpyriment","Jazzy James","3.1.4","0","/","NA","NA","NA","NA","return","/","775","NA","NA","NA","NA","155001","775","2","legacy","1024","2","48000","-16","AB_m21","120","even","FILL_W","STARVE","1379","162357","160748","NA","156389","NA","NA","NA","NA","162349","161245","NA","160248","NA","160244","162349","1387","162607","NA","NA","161357","1379","1379","161748","160244","1379","161357","162607","morph21_Oliver/Morris","1","1768","2","yes","1280","15"
"250","33.3333333333","33.3333333333","818.666666667","818.666666667","black","no","xpyriment","legacy","legacy","0","205","NA","uniform","66873","1000","0.014953718242","0","undefined","0","0","2","2","2","0","2","2","2","NA","2","2","0","2","NA","2","2","0","2","NA","2","NA","2","0","0","2","2","0","2","2","3","z","12/10/17 12:33:14","The main experiment item","yes","FIN__AB__M21__7%3A10%3A17.osexp","C:\Users\ERP Testing Room\Desktop\Joanna\morph21","no","mono","no","18","no","white","no","yes","1080","legacy","2","2","C:/Users/ERP Testing Room/Desktop/Joanna/morph21/subject-120.csv","xpyriment","Jazzy James","3.1.4","0","/","NA","NA","NA","NA","return","/","688","NA","NA","NA","NA","155001","688","2","legacy","1024","2","48000","-16","AB_m21","120","even","NW_S_SIMP","ZOOMFIL","1379","166840","163740","165332","156389","NA","NA","NA","NA","162349","164237","NA","163240","NA","163236","165324","1387","167090","NA","NA","164332","1379","1379","164723","163236","1379","164332","167090","morph21_Oliver/Morris","1","2456","3","yes","1280","19"
"250","50","50","803.75","803.75","black","no","xpyriment","legacy","legacy","0","206","NA","uniform","66636","1000","0.0150069031755","1","undefined","1","0","3","3","3","0","3","3","3","NA","3","3","0","3","NA","3","3","0","3","NA","3","NA","3","0","0","3","3","0","3","3","4","z","12/10/17 12:33:14","The main experiment item","yes","FIN__AB__M21__7%3A10%3A17.osexp","C:\Users\ERP Testing Room\Desktop\Joanna\morph21","no","mono","no","18","no","white","no","yes","1080","legacy","3","3","C:/Users/ERP Testing Room/Desktop/Joanna/morph21/subject-120.csv","xpyriment","Jazzy James","3.1.4","0","z","NA","NA","NA","NA","return","z","759","NA","NA","NA","NA","155001","759","2","legacy","1024","2","48000","-16","AB_m21","120","even","NW_L_SIMP","BEARILT","1379","169923","168348","165332","156389","NA","NA","NA","NA","169920","168846","NA","167848","NA","167844","169920","1387","170173","NA","NA","168932","1379","1379","169323","167844","1379","168932","170173","morph21_Oliver/Morris","2","3215","4","yes","1280","25"
"400","60","60","744","744","black","no","xpyriment","legacy","legacy","0","202","NA","uniform","80480","1000","0.0124254473161","1","undefined","1","0","4","4","4","0","4","4","4","NA","4","4","0","4","NA","4","4","0","4","NA","4","NA","4","0","0","4","4","0","4","4","5","/","12/10/17 12:33:14","The main experiment item","yes","FIN__AB__M21__7%3A10%3A17.osexp","C:\Users\ERP Testing Room\Desktop\Joanna\morph21","no","mono","no","18","no","white","no","yes","1080","legacy","4","4","C:/Users/ERP Testing Room/Desktop/Joanna/morph21/subject-120.csv","xpyriment","Jazzy James","3.1.4","0","/","NA","NA","NA","NA","return","/","505","NA","NA","NA","NA","155001","505","2","legacy","1024","2","48000","-16","AB_m21","120","even","CW_L","LOCKER","1379","172891","171307","165332","156389","NA","NA","NA","NA","172886","171804","NA","170807","NA","170802","172886","1387","173291","NA","NA","171891","1379","1379","172291","170802","1379","171891","173291","morph21_Oliver/Morris","3","3720","5","yes","1280","8"
"300","66.6666666667","66.6666666667","747.166666667","747.166666667","black","no","xpyriment","legacy","legacy","0","201","NA","uniform","65176","1000","0.0153430710691","1","undefined","1","0","5","5","5","0","5","5","5","NA","5","5","0","5","NA","5","5","0","5","NA","5","NA","5","0","0","5","5","0","5","5","6","/","12/10/17 12:33:14","The main experiment item","yes","FIN__AB__M21__7%3A10%3A17.osexp","C:\Users\ERP Testing Room\Desktop\Joanna\morph21","no","mono","no","18","no","white","no","yes","1080","legacy","5","5","C:/Users/ERP Testing Room/Desktop/Joanna/morph21/subject-120.csv","xpyriment","Jazzy James","3.1.4","0","/","NA","NA","NA","NA","return","/","763","NA","NA","NA","NA","155001","763","2","legacy","1024","2","48000","-16","AB_m21","120","even","CW_S","BUYER","1379","177533","174433","176025","156389","NA","NA","NA","NA","176021","174930","NA","173933","NA","173925","176021","1387","177833","NA","NA","175025","1379","1379","175425","173925","1379","175025","177833","morph21_Oliver/Morris","4","4483","6","yes","1280","21"
"200","71.4285714286","71.4285714286","741.571428571","741.571428571","black","no","xpyriment","legacy","legacy","0","208","NA","uniform","67062","1000","0.014911574364","1","undefined","1","0","6","6","6","0","6","6","6","NA","6","6","0","6","NA","6","6","0","6","NA","6","NA","6","0","0","6","6","0","6","6","7","z","12/10/17 12:33:14","The main experiment item","yes","FIN__AB__M21__7%3A10%3A17.osexp","C:\Users\ERP Testing Room\Desktop\Joanna\morph21","no","mono","no","18","no","white","no","yes","1080","legacy","6","6","C:/Users/ERP Testing Room/Desktop/Joanna/morph21/subject-120.csv","xpyriment","Jazzy James","3.1.4","0","z","NA","NA","NA","NA","return","z","708","NA","NA","NA","NA","155001","708","2","legacy","1024","2","48000","-16","AB_m21","120","even","FILL_NW","PUCTS","1379","180600","179000","176025","156389","NA","NA","NA","NA","180597","179497","NA","178500","NA","178492","180597","1387","180800","NA","NA","179608","1379","1379","180000","178492","1379","179608","180800","morph21_Oliver/Morris","5","5191","7","yes","1280","40"
"400","75","75","707.75","707.75","black","no","xpyriment","legacy","legacy","0","207","NA","uniform","71386","1000","0.014008348976","1","undefined","1","0","7","7","7","0","7","7","7","NA","7","7","0","7","NA","7","7","0","7","NA","7","NA","7","0","0","7","7","0","7","7","8","/","12/10/17 12:33:14","The main experiment item","yes","FIN__AB__M21__7%3A10%3A17.osexp","C:\Users\ERP Testing Room\Desktop\Joanna\morph21","no","mono","no","18","no","white","no","yes","1080","legacy","7","7","C:/Users/ERP Testing Room/Desktop/Joanna/morph21/subject-120.csv","xpyriment","Jazzy James","3.1.4","0","/","NA","NA","NA","NA","return","/","471","NA","NA","NA","NA","155001","471","2","legacy","1024","2","48000","-16","AB_m21","120","even","FILL_W","EAT","1379","183525","181942","176025","156389","NA","NA","NA","NA","183518","182439","NA","181442","NA","181437","183518","1387","183925","NA","NA","182525","1379","1379","182917","181437","1379","182525","183925","morph21_Oliver/Morris","6","5662","8","yes","1280","25"
"350","77.7777777778","77.7777777778","698.777777778","698.777777778","black","no","xpyriment","legacy","legacy","0","206","NA","uniform","71159","1000","0.0140530361585","1","undefined","1","0","8","8","8","0","8","8","8","NA","8","8","0","8","NA","8","8","0","8","NA","8","NA","8","0","0","8","8","0","8","8","9","z","12/10/17 12:33:14","The main experiment item","yes","FIN__AB__M21__7%3A10%3A17.osexp","C:\Users\ERP Testing Room\Desktop\Joanna\morph21","no","mono","no","18","no","white","no","yes","1080","legacy","8","8","C:/Users/ERP Testing Room/Desktop/Joanna/morph21/subject-120.csv","xpyriment","Jazzy James","3.1.4","0","z","NA","NA","NA","NA","return","z","627","NA","NA","NA","NA","155001","627","2","legacy","1024","2","48000","-16","AB_m21","120","even","NW_L_SIMP","CRITICANGE","1379","188292","185192","186784","156389","NA","NA","NA","NA","186774","185689","NA","184692","NA","184684","186774","1387","188642","NA","NA","185784","1379","1379","186175","184684","1379","185784","188642","morph21_Oliver/Morris","7","6289","9","yes","1280","22"
"200","80","80","693.7","693.7","black","no","xpyriment","legacy","legacy","0","203","NA","uniform","66953","1000","0.014935850522","1","undefined","1","0","9","9","9","0","9","9","9","NA","9","9","0","9","NA","9","9","0","9","NA","9","NA","9","0","0","9","9","0","9","9","10","z","12/10/17 12:33:14","The main experiment item","yes","FIN__AB__M21__7%3A10%3A17.osexp","C:\Users\ERP Testing Room\Desktop\Joanna\morph21","no","mono","no","18","no","white","no","yes","1080","legacy","9","9","C:/Users/ERP Testing Room/Desktop/Joanna/morph21/subject-120.csv","xpyriment","Jazzy James","3.1.4","0","z","NA","NA","NA","NA","return","z","648","NA","NA","NA","NA","155001","648","2","legacy","1024","2","48000","-16","AB_m21","120","even","NW_S_COMP","ELMIST","1379","191451","189851","186784","156389","NA","NA","NA","NA","191448","190349","NA","189351","NA","189349","191448","1387","191651","NA","NA","190460","1379","1379","190851","189349","1379","190460","191651","morph21_Oliver/Morris","8","6937","10","yes","1280","10"
"250","81.8181818182","81.8181818182","684.181818182","684.181818182","black","no","xpyriment","legacy","legacy","0","208","NA","uniform","71054","1000","0.0140738030231","1","undefined","1","0","10","10","10","0","10","10","10","NA","10","10","0","10","NA","10","10","0","10","NA","10","NA","10","0","0","10","10","0","10","10","11","z","12/10/17 12:33:14","The main experiment item","yes","FIN__AB__M21__7%3A10%3A17.osexp","C:\Users\ERP Testing Room\Desktop\Joanna\morph21","no","mono","no","18","no","white","no","yes","1080","legacy","10","10","C:/Users/ERP Testing Room/Desktop/Joanna/morph21/subject-120.csv","xpyriment","Jazzy James","3.1.4","0","z","NA","NA","NA","NA","return","z","589","NA","NA","NA","NA","155001","589","2","legacy","1024","2","48000","-16","AB_m21","120","even","FILL_NW","BUWL","1379","194527","192902","186784","156389","NA","NA","NA","NA","194522","193399","NA","192402","NA","192395","194522","1387","194777","NA","NA","193527","1379","1379","193927","192394","1379","193527","194777","morph21_Oliver/Morris","9","7526","11","yes","1280","9"
"250","83.3333333333","83.3333333333","680.833333333","680.833333333","black","no","xpyriment","legacy","legacy","0","208","NA","uniform","64136","1000","0.015591867282","1","undefined","1","0","11","11","11","0","11","11","11","NA","11","11","0","11","NA","11","11","0","11","NA","11","NA","11","0","0","11","11","0","11","11","12","z","12/10/17 12:33:14","The main experiment item","yes","FIN__AB__M21__7%3A10%3A17.osexp","C:\Users\ERP Testing Room\Desktop\Joanna\morph21","no","mono","no","18","no","white","no","yes","1080","legacy","11","11","C:/Users/ERP Testing Room/Desktop/Joanna/morph21/subject-120.csv","xpyriment","Jazzy James","3.1.4","0","z","NA","NA","NA","NA","return","z","644","NA","NA","NA","NA","155001","644","2","legacy","1024","2","48000","-16","AB_m21","120","even","FILL_NW","PLAODS","1379","199060","195968","197552","156389","NA","NA","NA","NA","197547","196465","NA","195468","NA","195457","197547","1387","199310","NA","NA","196552","1379","1379","196952","195457","1379","196552","199310","morph21_Oliver/Morris","10","8170","12","yes","1280","37"
"350","84.6153846154","84.6153846154","663.769230769","663.769230769","black","no","xpyriment","legacy","legacy","0","207","NA","uniform","82027","1000","0.012191107806","1","undefined","1","0","12","12","12","0","12","12","12","NA","12","12","0","12","NA","12","12","0","12","NA","12","NA","12","0","0","12","12","0","12","12","13","/","12/10/17 12:33:14","The main experiment item","yes","FIN__AB__M21__7%3A10%3A17.osexp","C:\Users\ERP Testing Room\Desktop\Joanna\morph21","no","mono","no","18","no","white","no","yes","1080","legacy","12","12","C:/Users/ERP Testing Room/Desktop/Joanna/morph21/subject-120.csv","xpyriment","Jazzy James","3.1.4","0","/","NA","NA","NA","NA","return","/","459","NA","NA","NA","NA","155001","459","2","legacy","1024","2","48000","-16","AB_m21","120","even","FILL_W","FOLLOW","1379","202177","200593","197552","156389","NA","NA","NA","NA","202168","201091","NA","200094","NA","200089","202168","1387","202527","NA","NA","201177","1379","1379","201569","200089","1379","201177","202527","morph21_Oliver/Morris","11","8629","13","yes","1280","17"
"250","78.5714285714","78.5714285714","664.785714286","664.785714286","black","no","xpyriment","legacy","legacy","0","201","NA","uniform","71792","1000","0.0139291285937","0","undefined","0","0","13","13","13","0","13","13","13","NA","13","13","0","13","NA","13","13","0","13","NA","13","NA","13","0","0","13","13","0","13","13","14","/","12/10/17 12:33:14","The main experiment item","yes","FIN__AB__M21__7%3A10%3A17.osexp","C:\Users\ERP Testing Room\Desktop\Joanna\morph21","no","mono","no","18","no","white","no","yes","1080","legacy","13","13","C:/Users/ERP Testing Room/Desktop/Joanna/morph21/subject-120.csv","xpyriment","Jazzy James","3.1.4","0","z","NA","NA","NA","NA","return","z","678","NA","NA","NA","NA","155001","678","2","legacy","1024","2","48000","-16","AB_m21","120","even","CW_S","AWARENESS","1379","205277","203694","197552","156389","NA","NA","NA","NA","202168","204191","NA","203194","NA","203185","205271","1387","205527","NA","NA","204277","1379","1379","204669","203185","1379","204277","205527","morph21_Oliver/Morris","11","9307","14","yes","1280","44"
"400","80","80","684.066666667","684.066666667","black","no","xpyriment","legacy","legacy","0","201","NA","uniform","60201","1000","0.0166110197505","1","undefined","1","0","14","14","14","0","14","14","14","NA","14","14","0","14","NA","14","14","0","14","NA","14","NA","14","0","0","14","14","0","14","14","15","/","12/10/17 12:33:14","The main experiment item","yes","FIN__AB__M21__7%3A10%3A17.osexp","C:\Users\ERP Testing Room\Desktop\Joanna\morph21","no","mono","no","18","no","white","no","yes","1080","legacy","14","14","C:/Users/ERP Testing Room/Desktop/Joanna/morph21/subject-120.csv","xpyriment","Jazzy James","3.1.4","0","/","NA","NA","NA","NA","return","/","954","NA","NA","NA","NA","155001","954","2","legacy","1024","2","48000","-16","AB_m21","120","even","CW_S","ALLOWANCE","1379","209887","206778","208378","156389","NA","NA","NA","NA","208373","207275","NA","206277","NA","206266","208373","1387","210287","NA","NA","207378","1379","1379","207778","206266","1379","207378","210287","morph21_Oliver/Morris","12","10261","15","yes","1280","5"
"200","81.25","81.25","689.0625","689.0625","black","no","xpyriment","legacy","legacy","0","201","NA","uniform","59239","1000","0.0168807711136","1","undefined","1","0","15","15","15","0","15","15","15","NA","15","15","0","15","NA","15","15","0","15","NA","15","NA","15","0","0","15","15","0","15","15","16","/","12/10/17 12:33:14","The main experiment item","yes","FIN__AB__M21__7%3A10%3A17.osexp","C:\Users\ERP Testing Room\Desktop\Joanna\morph21","no","mono","no","18","no","white","no","yes","1080","legacy","15","15","C:/Users/ERP Testing Room/Desktop/Joanna/morph21/subject-120.csv","xpyriment","Jazzy James","3.1.4","0","/","NA","NA","NA","NA","return","/","764","NA","NA","NA","NA","155001","764","2","legacy","1024","2","48000","-16","AB_m21","120","even","CW_S","LOCALLY","1379","213128","211520","208378","156389","NA","NA","NA","NA","213120","212017","NA","211020","NA","211017","213120","1387","213329","NA","NA","212128","1379","1379","212520","211017","1379","212128","213329","morph21_Oliver/Morris","13","11025","16","yes","1280","37"
"300","82.3529411765","82.3529411765","677","677","black","no","xpyriment","legacy","legacy","0","202","NA","uniform","81493","1000","0.0122709926006","1","undefined","1","0","16","16","16","0","16","16","16","NA","16","16","0","16","NA","16","16","0","16","NA","16","NA","16","0","0","16","16","0","16","16","17","/","12/10/17 12:33:14","The main experiment item","yes","FIN__AB__M21__7%3A10%3A17.osexp","C:\Users\ERP Testing Room\Desktop\Joanna\morph21","no","mono","no","18","no","white","no","yes","1080","legacy","16","16","C:/Users/ERP Testing Room/Desktop/Joanna/morph21/subject-120.csv","xpyriment","Jazzy James","3.1.4","0","/","NA","NA","NA","NA","return","/","484","NA","NA","NA","NA","155001","484","2","legacy","1024","2","48000","-16","AB_m21","120","even","CW_L","COMPOSER","1379","216120","214537","208378","156389","NA","NA","NA","NA","216116","215034","NA","214037","NA","214028","216116","1387","216420","NA","NA","215120","1379","1379","215520","214028","1379","215120","216420","morph21_Oliver/Morris","14","11509","17","yes","1280","6"
"250","83.3333333333","83.3333333333","666.944444444","666.944444444","black","no","xpyriment","legacy","legacy","0","201","NA","uniform","68487","1000","0.0146013111977","1","undefined","1","0","17","17","17","0","17","17","17","NA","17","17","0","17","NA","17","17","0","17","NA","17","NA","17","0","0","17","17","0","17","17","18","/","12/10/17 12:33:14","The main experiment item","yes","FIN__AB__M21__7%3A10%3A17.osexp","C:\Users\ERP Testing Room\Desktop\Joanna\morph21","no","mono","no","18","no","white","no","yes","1080","legacy","17","17","C:/Users/ERP Testing Room/Desktop/Joanna/morph21/subject-120.csv","xpyriment","Jazzy James","3.1.4","0","/","NA","NA","NA","NA","return","/","496","NA","NA","NA","NA","155001","496","2","legacy","1024","2","48000","-16","AB_m21","120","even","CW_S","TOSSING","1379","220721","217620","219212","156389","NA","NA","NA","NA","219205","218117","NA","217120","NA","217116","219205","1387","220971","NA","NA","218212","1379","1379","218604","217116","1379","218212","220971","morph21_Oliver/Morris","15","12005","18","yes","1280","26"
"350","84.2105263158","84.2105263158","659.315789474","659.315789474","black","no","xpyriment","legacy","legacy","0","202","NA","uniform","67223","1000","0.0148758609405","1","undefined","1","0","18","18","18","0","18","18","18","NA","18","18","0","18","NA","18","18","0","18","NA","18","NA","18","0","0","18","18","0","18","18","19","/","12/10/17 12:33:14","The main experiment item","yes","FIN__AB__M21__7%3A10%3A17.osexp","C:\Users\ERP Testing Room\Desktop\Joanna\morph21","no","mono","no","18","no","white","no","yes","1080","legacy","18","18","C:/Users/ERP Testing Room/Desktop/Joanna/morph21/subject-120.csv","xpyriment","Jazzy James","3.1.4","0","/","NA","NA","NA","NA","return","/","522","NA","NA","NA","NA","155001","522","2","legacy","1024","2","48000","-16","AB_m21","120","even","CW_L","BARKER","1379","223721","222137","219212","156389","NA","NA","NA","NA","223711","222634","NA","221637","NA","221633","223711","1387","224071","NA","NA","222721","1379","1379","223112","221633","1379","222720","224071","morph21_Oliver/Morris","16","12527","19","yes","1280","2"
"350","85","85","656.75","656.75","black","no","xpyriment","legacy","legacy","0","202","NA","uniform","64570","1000","0.015487068298","1","undefined","1","0","19","19","19","0","19","19","19","NA","19","19","0","19","NA","19","19","0","19","NA","19","NA","19","0","0","19","19","0","19","19","20","/","12/10/17 12:33:14","The main experiment item","yes","FIN__AB__M21__7%3A10%3A17.osexp","C:\Users\ERP Testing Room\Desktop\Joanna\morph21","no","mono","no","18","no","white","no","yes","1080","legacy","19","19","C:/Users/ERP Testing Room/Desktop/Joanna/morph21/subject-120.csv","xpyriment","Jazzy James","3.1.4","0","/","NA","NA","NA","NA","return","/","608","NA","NA","NA","NA","155001","608","2","legacy","1024","2","48000","-16","AB_m21","120","even","CW_L","JUMPING","1379","226980","225397","219212","156389","NA","NA","NA","NA","226976","225894","NA","224897","NA","224892","226976","1387","227330","NA","NA","225980","1379","1379","226380","224891","1379","225980","227330","morph21_Oliver/Morris","17","13135","20","yes","1280","30"
"350","85.7142857143","85.7142857143","648","648","black","no","xpyriment","legacy","legacy","0","207","NA","uniform","70815","1000","0.014121301984","1","undefined","1","0","20","20","20","0","20","20","20","NA","20","20","0","20","NA","20","20","0","20","NA","20","NA","20","0","0","20","20","0","20","20","21","/","12/10/17 12:33:14","The main experiment item","yes","FIN__AB__M21__7%3A10%3A17.osexp","C:\Users\ERP Testing Room\Desktop\Joanna\morph21","no","mono","no","18","no","white","no","yes","1080","legacy","20","20","C:/Users/ERP Testing Room/Desktop/Joanna/morph21/subject-120.csv","xpyriment","Jazzy James","3.1.4","0","/","NA","NA","NA","NA","return","/","473","NA","NA","NA","NA","155001","473","2","legacy","1024","2","48000","-16","AB_m21","120","even","FILL_W","LIFT","1379","231647","228555","230138","156389","NA","NA","NA","NA","230130","229052","NA","228055","NA","228051","230130","1387","231997","NA","NA","229139","1379","1379","229530","228051","1379","229139","231997","morph21_Oliver/Morris","18","13608","21","yes","1280","39"
"200","86.3636363636","86.3636363636","643.090909091","643.090909091","black","no","xpyriment","legacy","legacy","0","207","NA","uniform","69821","1000","0.0143223385514","1","undefined","1","0","21","21","21","0","21","21","21","NA","21","21","0","21","NA","21","21","0","21","NA","21","NA","21","0","0","21","21","0","21","21","22","/","12/10/17 12:33:14","The main experiment item","yes","FIN__AB__M21__7%3A10%3A17.osexp","C:\Users\ERP Testing Room\Desktop\Joanna\morph21","no","mono","no","18","no","white","no","yes","1080","legacy","21","21","C:/Users/ERP Testing Room/Desktop/Joanna/morph21/subject-120.csv","xpyriment","Jazzy James","3.1.4","0","/","NA","NA","NA","NA","return","/","540","NA","NA","NA","NA","155001","540","2","legacy","1024","2","48000","-16","AB_m21","120","even","FILL_W","FLESH","1379","234872","233297","230138","156389","NA","NA","NA","NA","234869","233794","NA","232797","NA","232786","234869","1387","235072","NA","NA","233880","1379","1379","234272","232786","1379","233880","235072","morph21_Oliver/Morris","19","14148","22","yes","1280","32"
"200","86.9565217391","86.9565217391","634.869565217","634.869565217","black","no","xpyriment","legacy","legacy","0","201","NA","uniform","67710","1000","0.0147688672279","1","undefined","1","0","22","22","22","0","22","22","22","NA","22","22","0","22","NA","22","22","0","22","NA","22","NA","22","0","0","22","22","0","22","22","23","/","12/10/17 12:33:14","The main experiment item","yes","FIN__AB__M21__7%3A10%3A17.osexp","C:\Users\ERP Testing Room\Desktop\Joanna\morph21","no","mono","no","18","no","white","no","yes","1080","legacy","22","22","C:/Users/ERP Testing Room/Desktop/Joanna/morph21/subject-120.csv","xpyriment","Jazzy James","3.1.4","0","/","NA","NA","NA","NA","return","/","454","NA","NA","NA","NA","155001","454","2","legacy","1024","2","48000","-16","AB_m21","120","even","CW_S","ENJOYMENT","1379","237822","236239","230138","156389","NA","NA","NA","NA","237814","236736","NA","235739","NA","235729","237814","1387","238022","NA","NA","236822","1379","1379","237214","235729","1379","236822","238022","morph21_Oliver/Morris","20","14602","23","yes","1280","40"
"200","87.5","87.5","626.166666667","626.166666667","black","no","xpyriment","legacy","legacy","0","205","NA","uniform","78023","1000","0.0128167335273","1","undefined","1","0","23","23","23","0","23","23","23","NA","23","23","0","23","NA","23","23","0","23","NA","23","NA","23","0","0","23","23","0","23","23","24","z","12/10/17 12:33:14","The main experiment item","yes","FIN__AB__M21__7%3A10%3A17.osexp","C:\Users\ERP Testing Room\Desktop\Joanna\morph21","no","mono","no","18","no","white","no","yes","1080","legacy","23","23","C:/Users/ERP Testing Room/Desktop/Joanna/morph21/subject-120.csv","xpyriment","Jazzy James","3.1.4","0","z","NA","NA","NA","NA","return","z","426","NA","NA","NA","NA","155001","426","2","legacy","1024","2","48000","-16","AB_m21","120","even","NW_S_SIMP","GUMFIL","1379","242407","239297","240897","156389","NA","NA","NA","NA","240889","239794","NA","238797","NA","238790","240889","1387","242607","NA","NA","239897","1379","1379","240289","238790","1379","239897","242607","morph21_Oliver/Morris","21","15028","24","yes","1280","2"
"400","88","88","618.6","618.6","black","no","xpyriment","legacy","legacy","0","207","NA","uniform","74898","1000","0.0133514913616","1","undefined","1","0","24","24","24","0","24","24","24","NA","24","24","0","24","NA","24","24","0","24","NA","24","NA","24","0","0","24","24","0","24","24","25","/","12/10/17 12:33:14","The main experiment item","yes","FIN__AB__M21__7%3A10%3A17.osexp","C:\Users\ERP Testing Room\Desktop\Joanna\morph21","no","mono","no","18","no","white","no","yes","1080","legacy","24","24","C:/Users/ERP Testing Room/Desktop/Joanna/morph21/subject-120.csv","xpyriment","Jazzy James","3.1.4","0","/","NA","NA","NA","NA","return","/","437","NA","NA","NA","NA","155001","437","2","legacy","1024","2","48000","-16","AB_m21","120","even","FILL_W","QUIT","1379","245407","243832","240897","156389","NA","NA","NA","NA","245404","244329","NA","243332","NA","243325","245404","1387","245807","NA","NA","244415","1379","1379","244807","243325","1379","244415","245807","morph21_Oliver/Morris","22","15465","25","yes","1280","21"
"200","88.4615384615","88.4615384615","619.653846154","619.653846154","black","no","xpyriment","legacy","legacy","0","201","NA","uniform","64922","1000","0.0154030991035","1","undefined","1","0","25","25","25","0","25","25","25","NA","25","25","0","25","NA","25","25","0","25","NA","25","NA","25","0","0","25","25","0","25","25","26","/","12/10/17 12:33:14","The main experiment item","yes","FIN__AB__M21__7%3A10%3A17.osexp","C:\Users\ERP Testing Room\Desktop\Joanna\morph21","no","mono","no","18","no","white","no","yes","1080","legacy","25","25","C:/Users/ERP Testing Room/Desktop/Joanna/morph21/subject-120.csv","xpyriment","Jazzy James","3.1.4","0","/","NA","NA","NA","NA","return","/","646","NA","NA","NA","NA","155001","646","2","legacy","1024","2","48000","-16","AB_m21","120","even","CW_S","ANGELIC","1379","248582","247007","240897","156389","NA","NA","NA","NA","248579","247504","NA","246507","NA","246503","248579","1387","248782","NA","NA","247590","1379","1379","247982","246503","1379","247590","248782","morph21_Oliver/Morris","23","16111","26","yes","1280","25"
"200","88.8888888889","88.8888888889","615.518518519","615.518518519","black","no","xpyriment","legacy","legacy","0","207","NA","uniform","80508","1000","0.0124211258508","1","undefined","1","0","26","26","26","0","26","26","26","NA","26","26","0","26","NA","26","26","0","26","NA","26","NA","26","0","0","26","26","0","26","26","27","/","12/10/17 12:33:14","The main experiment item","yes","FIN__AB__M21__7%3A10%3A17.osexp","C:\Users\ERP Testing Room\Desktop\Joanna\morph21","no","mono","no","18","no","white","no","yes","1080","legacy","26","26","C:/Users/ERP Testing Room/Desktop/Joanna/morph21/subject-120.csv","xpyriment","Jazzy James","3.1.4","0","/","NA","NA","NA","NA","return","/","508","NA","NA","NA","NA","155001","508","2","legacy","1024","2","48000","-16","AB_m21","120","even","FILL_W","LEGAL","1379","253132","249999","251624","156389","NA","NA","NA","NA","251618","250496","NA","249499","NA","249492","251618","1387","253332","NA","NA","250624","1379","1379","251015","249492","1379","250624","253332","morph21_Oliver/Morris","24","16619","27","yes","1280","35"
"400","89.2857142857","89.2857142857","618.714285714","618.714285714","black","no","xpyriment","legacy","legacy","0","208","NA","uniform","60916","1000","0.0164160483288","1","undefined","1","0","27","27","27","0","27","27","27","NA","27","27","0","27","NA","27","27","0","27","NA","27","NA","27","0","0","27","27","0","27","27","28","z","12/10/17 12:33:14","The main experiment item","yes","FIN__AB__M21__7%3A10%3A17.osexp","C:\Users\ERP Testing Room\Desktop\Joanna\morph21","no","mono","no","18","no","white","no","yes","1080","legacy","27","27","C:/Users/ERP Testing Room/Desktop/Joanna/morph21/subject-120.csv","xpyriment","Jazzy James","3.1.4","0","z","NA","NA","NA","NA","return","z","705","NA","NA","NA","NA","155001","705","2","legacy","1024","2","48000","-16","AB_m21","120","even","FILL_NW","FROES","1379","256082","254491","251624","156389","NA","NA","NA","NA","256073","254988","NA","253991","NA","253982","256073","1387","256482","NA","NA","255082","1379","1379","255474","253982","1379","255082","256482","morph21_Oliver/Morris","25","17324","28","yes","1280","21"
"200","89.6551724138","89.6551724138","613.103448276","613.103448276","black","no","xpyriment","legacy","legacy","0","207","NA","uniform","74663","1000","0.0133935148601","1","undefined","1","0","28","28","28","0","28","28","28","NA","28","28","0","28","NA","28","28","0","28","NA","28","NA","28","0","0","28","28","0","28","28","29","/","12/10/17 12:33:14","The main experiment item","yes","FIN__AB__M21__7%3A10%3A17.osexp","C:\Users\ERP Testing Room\Desktop\Joanna\morph21","no","mono","no","18","no","white","no","yes","1080","legacy","28","28","C:/Users/ERP Testing Room/Desktop/Joanna/morph21/subject-120.csv","xpyriment","Jazzy James","3.1.4","0","/","NA","NA","NA","NA","return","/","456","NA","NA","NA","NA","155001","456","2","legacy","1024","2","48000","-16","AB_m21","120","even","FILL_W","STALK","1379","259317","257707","251624","156389","NA","NA","NA","NA","259312","258205","NA","257207","NA","257201","259312","1387","259517","NA","NA","258316","1379","1379","258716","257201","1379","258316","259517","morph21_Oliver/Morris","26","17780","29","yes","1280","27"
"300","90","90","615.066666667","615.066666667","black","no","xpyriment","legacy","legacy","0","208","NA","uniform","68970","1000","0.0144990575613","1","undefined","1","0","29","29","29","0","29","29","29","NA","29","29","0","29","NA","29","29","0","29","NA","29","NA","29","0","0","29","29","0","29","29","30","z","12/10/17 12:33:14","The main experiment item","yes","FIN__AB__M21__7%3A10%3A17.osexp","C:\Users\ERP Testing Room\Desktop\Joanna\morph21","no","mono","no","18","no","white","no","yes","1080","legacy","29","29","C:/Users/ERP Testing Room/Desktop/Joanna/morph21/subject-120.csv","xpyriment","Jazzy James","3.1.4","0","z","NA","NA","NA","NA","return","z","672","NA","NA","NA","NA","155001","672","2","legacy","1024","2","48000","-16","AB_m21","120","even","FILL_NW","VOGS","1379","263800","260717","262292","156389","NA","NA","NA","NA","262289","261214","NA","260217","NA","260212","262289","1387","264100","NA","NA","261300","1379","1379","261692","260212","1379","261300","264100","morph21_Oliver/Morris","27","18452","30","yes","1280","47"
"300","90.3225806452","90.3225806452","611.774193548","611.774193548","black","no","xpyriment","legacy","legacy","0","202","NA","uniform","64978","1000","0.0153898242482","1","undefined","1","0","30","30","30","0","30","30","30","NA","30","30","0","30","NA","30","30","0","30","NA","30","NA","30","0","0","30","30","0","30","30","31","/","12/10/17 12:33:14","The main experiment item","yes","FIN__AB__M21__7%3A10%3A17.osexp","C:\Users\ERP Testing Room\Desktop\Joanna\morph21","no","mono","no","18","no","white","no","yes","1080","legacy","30","30","C:/Users/ERP Testing Room/Desktop/Joanna/morph21/subject-120.csv","xpyriment","Jazzy James","3.1.4","0","/","NA","NA","NA","NA","return","/","513","NA","NA","NA","NA","155001","513","2","legacy","1024","2","48000","-16","AB_m21","120","even","CW_L","KNOCKER","1379","266875","265275","262292","156389","NA","NA","NA","NA","266870","265773","NA","264775","NA","264765","266870","1387","267176","NA","NA","265875","1379","1379","266267","264765","1379","265875","267176","morph21_Oliver/Morris","28","18965","31","yes","1280","4"
"250","90.625","90.625","614.125","614.125","black","no","xpyriment","legacy","legacy","0","203","NA","uniform","70958","1000","0.014092843654","1","undefined","1","0","31","31","31","0","31","31","31","NA","31","31","0","31","NA","31","31","0","31","NA","31","NA","31","0","0","31","31","0","31","31","32","z","12/10/17 12:33:14","The main experiment item","yes","FIN__AB__M21__7%3A10%3A17.osexp","C:\Users\ERP Testing Room\Desktop\Joanna\morph21","no","mono","no","18","no","white","no","yes","1080","legacy","31","31","C:/Users/ERP Testing Room/Desktop/Joanna/morph21/subject-120.csv","xpyriment","Jazzy James","3.1.4","0","z","NA","NA","NA","NA","return","z","687","NA","NA","NA","NA","155001","687","2","legacy","1024","2","48000","-16","AB_m21","120","even","NW_S_COMP","LIDARY","1379","269917","268342","262292","156389","NA","NA","NA","NA","269912","268839","NA","267842","NA","267837","269912","1387","270167","NA","NA","268917","1379","1379","269317","267837","1379","268917","270167","morph21_Oliver/Morris","29","19652","32","yes","1280","3"
"350","90.9090909091","90.9090909091","615.090909091","615.090909091","black","no","xpyriment","legacy","legacy","0","201","NA","uniform","67562","1000","0.0148012196205","1","undefined","1","0","32","32","32","0","32","32","32","NA","32","32","0","32","NA","32","32","0","32","NA","32","NA","32","0","0","32","32","0","32","32","33","/","12/10/17 12:33:14","The main experiment item","yes","FIN__AB__M21__7%3A10%3A17.osexp","C:\Users\ERP Testing Room\Desktop\Joanna\morph21","no","mono","no","18","no","white","no","yes","1080","legacy","32","32","C:/Users/ERP Testing Room/Desktop/Joanna/morph21/subject-120.csv","xpyriment","Jazzy James","3.1.4","0","/","NA","NA","NA","NA","return","/","646","NA","NA","NA","NA","155001","646","2","legacy","1024","2","48000","-16","AB_m21","120","even","CW_S","RICHNESS","1379","274451","271351","272942","156389","NA","NA","NA","NA","272933","271848","NA","270851","NA","270845","272933","1387","274801","NA","NA","271942","1379","1379","272334","270845","1379","271942","274801","morph21_Oliver/Morris","30","20298","33","yes","1280","45"
"250","91.1764705882","91.1764705882","613.5","613.5","black","no","xpyriment","legacy","legacy","0","208","NA","uniform","71596","1000","0.0139672607408","1","undefined","1","0","33","33","33","0","33","33","33","NA","33","33","0","33","NA","33","33","0","33","NA","33","NA","33","0","0","33","33","0","33","33","34","z","12/10/17 12:33:14","The main experiment item","yes","FIN__AB__M21__7%3A10%3A17.osexp","C:\Users\ERP Testing Room\Desktop\Joanna\morph21","no","mono","no","18","no","white","no","yes","1080","legacy","33","33","C:/Users/ERP Testing Room/Desktop/Joanna/morph21/subject-120.csv","xpyriment","Jazzy James","3.1.4","0","z","NA","NA","NA","NA","return","z","561","NA","NA","NA","NA","155001","561","2","legacy","1024","2","48000","-16","AB_m21","120","even","FILL_NW","PIFTH","1379","277619","276017","272942","156389","NA","NA","NA","NA","277613","276515","NA","275518","NA","275512","277613","1387","277869","NA","NA","276619","1379","1379","277010","275512","1379","276619","277869","morph21_Oliver/Morris","31","20859","34","yes","1280","36"
"200","88.5714285714","88.5714285714","614.228571429","614.228571429","black","no","xpyriment","legacy","legacy","0","203","NA","uniform","67394","1000","0.0148381161528","0","undefined","0","0","34","34","34","0","34","34","34","NA","34","34","0","34","NA","34","34","0","34","NA","34","NA","34","0","0","34","34","0","34","34","35","z","12/10/17 12:33:14","The main experiment item","yes","FIN__AB__M21__7%3A10%3A17.osexp","C:\Users\ERP Testing Room\Desktop\Joanna\morph21","no","mono","no","18","no","white","no","yes","1080","legacy","34","34","C:/Users/ERP Testing Room/Desktop/Joanna/morph21/subject-120.csv","xpyriment","Jazzy James","3.1.4","0","/","NA","NA","NA","NA","return","/","639","NA","NA","NA","NA","155001","639","2","legacy","1024","2","48000","-16","AB_m21","120","even","NW_S_COMP","FANFUL","1379","280669","279060","272942","156389","NA","NA","NA","NA","277613","279557","NA","278560","NA","278554","280664","1387","280869","NA","NA","279669","1379","1379","280069","278554","1379","279669","280869","morph21_Oliver/Morris","31","21498","35","yes","1280","6"
"200","88.8888888889","88.8888888889","618.25","618.25","black","no","xpyriment","legacy","legacy","0","202","NA","uniform","71597","1000","0.0139670656592","1","undefined","1","0","35","35","35","0","35","35","35","NA","35","35","0","35","NA","35","35","0","35","NA","35","NA","35","0","0","35","35","0","35","35","36","/","12/10/17 12:33:14","The main experiment item","yes","FIN__AB__M21__7%3A10%3A17.osexp","C:\Users\ERP Testing Room\Desktop\Joanna\morph21","no","mono","no","18","no","white","no","yes","1080","legacy","35","35","C:/Users/ERP Testing Room/Desktop/Joanna/morph21/subject-120.csv","xpyriment","Jazzy James","3.1.4","0","/","NA","NA","NA","NA","return","/","759","NA","NA","NA","NA","155001","759","2","legacy","1024","2","48000","-16","AB_m21","120","even","CW_L","VERBAL","1379","285161","282077","283652","156389","NA","NA","NA","NA","283649","282574","NA","281577","NA","281565","283649","1387","285361","NA","NA","282661","1379","1379","283052","281565","1379","282661","285361","morph21_Oliver/Morris","32","22257","36","yes","1280","50"
"250","89.1891891892","89.1891891892","616.135135135","616.135135135","black","no","xpyriment","legacy","legacy","0","201","NA","uniform","72614","1000","0.0137714490319","1","undefined","1","0","36","36","36","0","36","36","36","NA","36","36","0","36","NA","36","36","0","36","NA","36","NA","36","0","0","36","36","0","36","36","37","/","12/10/17 12:33:14","The main experiment item","yes","FIN__AB__M21__7%3A10%3A17.osexp","C:\Users\ERP Testing Room\Desktop\Joanna\morph21","no","mono","no","18","no","white","no","yes","1080","legacy","36","36","C:/Users/ERP Testing Room/Desktop/Joanna/morph21/subject-120.csv","xpyriment","Jazzy James","3.1.4","0","/","NA","NA","NA","NA","return","/","540","NA","NA","NA","NA","155001","540","2","legacy","1024","2","48000","-16","AB_m21","120","even","CW_S","PLANNER","1379","288152","286561","283652","156389","NA","NA","NA","NA","288144","287058","NA","286061","NA","286057","288144","1387","288402","NA","NA","287152","1379","1379","287544","286057","1379","287152","288402","morph21_Oliver/Morris","33","22797","37","yes","1280","22"
"200","89.4736842105","89.4736842105","613.868421053","613.868421053","black","no","xpyriment","legacy","legacy","0","201","NA","uniform","73939","1000","0.0135246622216","1","undefined","1","0","37","37","37","0","37","37","37","NA","37","37","0","37","NA","37","37","0","37","NA","37","NA","37","0","0","37","37","0","37","37","38","/","12/10/17 12:33:14","The main experiment item","yes","FIN__AB__M21__7%3A10%3A17.osexp","C:\Users\ERP Testing Room\Desktop\Joanna\morph21","no","mono","no","18","no","white","no","yes","1080","legacy","37","37","C:/Users/ERP Testing Room/Desktop/Joanna/morph21/subject-120.csv","xpyriment","Jazzy James","3.1.4","0","/","NA","NA","NA","NA","return","/","530","NA","NA","NA","NA","155001","530","2","legacy","1024","2","48000","-16","AB_m21","120","even","CW_S","BOLDNESS","1379","291169","289569","283652","156389","NA","NA","NA","NA","291166","290066","NA","289069","NA","289061","291166","1387","291369","NA","NA","290178","1379","1379","290569","289061","1379","290177","291369","morph21_Oliver/Morris","34","23327","38","yes","1280","41"
"400","87.1794871795","87.1794871795","613.641025641","613.641025641","black","no","xpyriment","legacy","legacy","0","204","NA","uniform","77691","1000","0.0128715037778","0","undefined","0","0","38","38","38","0","38","38","38","NA","38","38","0","38","NA","38","38","0","38","NA","38","NA","38","0","0","38","38","0","38","38","39","z","12/10/17 12:33:14","The main experiment item","yes","FIN__AB__M21__7%3A10%3A17.osexp","C:\Users\ERP Testing Room\Desktop\Joanna\morph21","no","mono","no","18","no","white","no","yes","1080","legacy","38","38","C:/Users/ERP Testing Room/Desktop/Joanna/morph21/subject-120.csv","xpyriment","Jazzy James","3.1.4","0","/","NA","NA","NA","NA","return","/","605","NA","NA","NA","NA","155001","605","2","legacy","1024","2","48000","-16","AB_m21","120","even","NW_L_COMP","ANGELISH","1379","295629","292536","294120","156389","NA","NA","NA","NA","291166","293033","NA","292036","NA","292025","294115","1387","296029","NA","NA","293119","1379","1379","293519","292025","1379","293119","296029","morph21_Oliver/Morris","34","23932","39","yes","1280","7"
"400","87.5","87.5","613.525","613.525","black","no","xpyriment","legacy","legacy","0","202","NA","uniform","72579","1000","0.0137780900812","1","undefined","1","0","39","39","39","0","39","39","39","NA","39","39","0","39","NA","39","39","0","39","NA","39","NA","39","0","0","39","39","0","39","39","40","/","12/10/17 12:33:14","The main experiment item","yes","FIN__AB__M21__7%3A10%3A17.osexp","C:\Users\ERP Testing Room\Desktop\Joanna\morph21","no","mono","no","18","no","white","no","yes","1080","legacy","39","39","C:/Users/ERP Testing Room/Desktop/Joanna/morph21/subject-120.csv","xpyriment","Jazzy James","3.1.4","0","/","NA","NA","NA","NA","return","/","609","NA","NA","NA","NA","155001","609","2","legacy","1024","2","48000","-16","AB_m21","120","even","CW_L","FAITHFUL","1379","298796","297196","294120","156389","NA","NA","NA","NA","298790","297693","NA","296695","NA","296691","298790","1387","299196","NA","NA","297795","1379","1379","298187","296691","1379","297795","299196","morph21_Oliver/Morris","35","24541","40","yes","1280","20"
"300","87.8048780488","87.8048780488","609.902439024","609.902439024","black","no","xpyriment","legacy","legacy","0","201","NA","uniform","71331","1000","0.0140191501591","1","undefined","1","0","40","40","40","0","40","40","40","NA","40","40","0","40","NA","40","40","0","40","NA","40","NA","40","0","0","40","40","0","40","40","41","/","12/10/17 12:33:14","The main experiment item","yes","FIN__AB__M21__7%3A10%3A17.osexp","C:\Users\ERP Testing Room\Desktop\Joanna\morph21","no","mono","no","18","no","white","no","yes","1080","legacy","40","40","C:/Users/ERP Testing Room/Desktop/Joanna/morph21/subject-120.csv","xpyriment","Jazzy James","3.1.4","0","/","NA","NA","NA","NA","return","/","465","NA","NA","NA","NA","155001","465","2","legacy","1024","2","48000","-16","AB_m21","120","even","CW_S","MAGICAL","1379","301979","300387","294120","156389","NA","NA","NA","NA","301973","300884","NA","299887","NA","299876","301973","1387","302279","NA","NA","300979","1379","1379","301371","299876","1379","300979","302279","morph21_Oliver/Morris","36","25006","41","yes","1280","4"
"300","88.0952380952","88.0952380952","610.333333333","610.333333333","black","no","xpyriment","legacy","legacy","0","208","NA","uniform","69389","1000","0.0144115061465","1","undefined","1","0","41","41","41","0","41","41","41","NA","41","41","0","41","NA","41","41","0","41","NA","41","NA","41","0","0","41","41","0","41","41","42","z","12/10/17 12:33:14","The main experiment item","yes","FIN__AB__M21__7%3A10%3A17.osexp","C:\Users\ERP Testing Room\Desktop\Joanna\morph21","no","mono","no","18","no","white","no","yes","1080","legacy","41","41","C:/Users/ERP Testing Room/Desktop/Joanna/morph21/subject-120.csv","xpyriment","Jazzy James","3.1.4","0","z","NA","NA","NA","NA","return","z","628","NA","NA","NA","NA","155001","628","2","legacy","1024","2","48000","-16","AB_m21","120","even","FILL_NW","SCURE","1379","306604","303496","305096","156389","NA","NA","NA","NA","305090","303993","NA","302996","NA","302985","305090","1387","306904","NA","NA","304096","1379","1379","304487","302985","1379","304096","306904","morph21_Oliver/Morris","37","25634","42","yes","1280","41"
"400","88.3720930233","88.3720930233","610.790697674","610.790697674","black","no","xpyriment","legacy","legacy","0","207","NA","uniform","72226","1000","0.0138454296237","1","undefined","1","0","42","42","42","0","42","42","42","NA","42","42","0","42","NA","42","42","0","42","NA","42","NA","42","0","0","42","42","0","42","42","43","/","12/10/17 12:33:14","The main experiment item","yes","FIN__AB__M21__7%3A10%3A17.osexp","C:\Users\ERP Testing Room\Desktop\Joanna\morph21","no","mono","no","18","no","white","no","yes","1080","legacy","42","42","C:/Users/ERP Testing Room/Desktop/Joanna/morph21/subject-120.csv","xpyriment","Jazzy James","3.1.4","0","/","NA","NA","NA","NA","return","/","630","NA","NA","NA","NA","155001","630","2","legacy","1024","2","48000","-16","AB_m21","120","even","FILL_W","CEASE","1379","309646","308063","305096","156389","NA","NA","NA","NA","309639","308560","NA","307563","NA","307558","309639","1387","310046","NA","NA","308646","1379","1379","309038","307558","1379","308646","310046","morph21_Oliver/Morris","38","26264","43","yes","1280","18"
"350","88.6363636364","88.6363636364","610.727272727","610.727272727","black","no","xpyriment","legacy","legacy","0","205","NA","uniform","74664","1000","0.0133933354763","1","undefined","1","0","43","43","43","0","43","43","43","NA","43","43","0","43","NA","43","43","0","43","NA","43","NA","43","0","0","43","43","0","43","43","44","z","12/10/17 12:33:14","The main experiment item","yes","FIN__AB__M21__7%3A10%3A17.osexp","C:\Users\ERP Testing Room\Desktop\Joanna\morph21","no","mono","no","18","no","white","no","yes","1080","legacy","43","43","C:/Users/ERP Testing Room/Desktop/Joanna/morph21/subject-120.csv","xpyriment","Jazzy James","3.1.4","0","z","NA","NA","NA","NA","return","z","608","NA","NA","NA","NA","155001","608","2","legacy","1024","2","48000","-16","AB_m21","120","even","NW_S_SIMP","BASKODY","1379","312780","311188","305096","156389","NA","NA","NA","NA","312773","311685","NA","310688","NA","310680","312773","1387","313131","NA","NA","311780","1379","1379","312172","310680","1379","311780","313131","morph21_Oliver/Morris","39","26872","44","yes","1280","10"
"400","88.8888888889","88.8888888889","608.777777778","608.777777778","black","no","xpyriment","legacy","legacy","0","208","NA","uniform","69865","1000","0.0143133185429","1","undefined","1","0","44","44","44","0","44","44","44","NA","44","44","0","44","NA","44","44","0","44","NA","44","NA","44","0","0","44","44","0","44","44","45","z","12/10/17 12:33:14","The main experiment item","yes","FIN__AB__M21__7%3A10%3A17.osexp","C:\Users\ERP Testing Room\Desktop\Joanna\morph21","no","mono","no","18","no","white","no","yes","1080","legacy","44","44","C:/Users/ERP Testing Room/Desktop/Joanna/morph21/subject-120.csv","xpyriment","Jazzy James","3.1.4","0","z","NA","NA","NA","NA","return","z","523","NA","NA","NA","NA","155001","523","2","legacy","1024","2","48000","-16","AB_m21","120","even","FILL_NW","ULNS","1379","317406","314297","315897","156389","NA","NA","NA","NA","315889","314794","NA","313797","NA","313789","315889","1387","317806","NA","NA","314897","1379","1379","315289","313789","1379","314897","317806","morph21_Oliver/Morris","40","27395","45","yes","1280","45"
"200","89.1304347826","89.1304347826","608.934782609","608.934782609","black","no","xpyriment","legacy","legacy","0","201","NA","uniform","60906","1000","0.0164187436377","1","undefined","1","0","45","45","45","0","45","45","45","NA","45","45","0","45","NA","45","45","0","45","NA","45","NA","45","0","0","45","45","0","45","45","46","/","12/10/17 12:33:14","The main experiment item","yes","FIN__AB__M21__7%3A10%3A17.osexp","C:\Users\ERP Testing Room\Desktop\Joanna\morph21","no","mono","no","18","no","white","no","yes","1080","legacy","45","45","C:/Users/ERP Testing Room/Desktop/Joanna/morph21/subject-120.csv","xpyriment","Jazzy James","3.1.4","0","/","NA","NA","NA","NA","return","/","616","NA","NA","NA","NA","155001","616","2","legacy","1024","2","48000","-16","AB_m21","120","even","CW_S","AMUSEMENT","1379","320564","318981","315897","156389","NA","NA","NA","NA","320557","319478","NA","318481","NA","318469","320557","1387","320764","NA","NA","319564","1379","1379","319956","318469","1379","319564","320764","morph21_Oliver/Morris","41","28011","46","yes","1280","38"
"350","89.3617021277","89.3617021277","608.106382979","608.106382979","black","no","xpyriment","legacy","legacy","0","201","NA","uniform","71262","1000","0.0140327243131","1","undefined","1","0","46","46","46","0","46","46","46","NA","46","46","0","46","NA","46","46","0","46","NA","46","NA","46","0","0","46","46","0","46","46","47","/","12/10/17 12:33:14","The main experiment item","yes","FIN__AB__M21__7%3A10%3A17.osexp","C:\Users\ERP Testing Room\Desktop\Joanna\morph21","no","mono","no","18","no","white","no","yes","1080","legacy","46","46","C:/Users/ERP Testing Room/Desktop/Joanna/morph21/subject-120.csv","xpyriment","Jazzy James","3.1.4","0","/","NA","NA","NA","NA","return","/","570","NA","NA","NA","NA","155001","570","2","legacy","1024","2","48000","-16","AB_m21","120","even","CW_S","LENDER","1379","323506","321923","315897","156389","NA","NA","NA","NA","323499","322420","NA","321423","NA","321417","323499","1387","323856","NA","NA","322506","1379","1379","322898","321417","1379","322506","323856","morph21_Oliver/Morris","42","28581","47","yes","1280","11"
"200","89.5833333333","89.5833333333","607.6875","607.6875","black","no","xpyriment","legacy","legacy","0","208","NA","uniform","57469","1000","0.017400685587","1","undefined","1","0","47","47","47","0","47","47","47","NA","47","47","0","47","NA","47","47","0","47","NA","47","NA","47","0","0","47","47","0","47","47","48","z","12/10/17 12:33:14","The main experiment item","yes","FIN__AB__M21__7%3A10%3A17.osexp","C:\Users\ERP Testing Room\Desktop\Joanna\morph21","no","mono","no","18","no","white","no","yes","1080","legacy","47","47","C:/Users/ERP Testing Room/Desktop/Joanna/morph21/subject-120.csv","xpyriment","Jazzy James","3.1.4","0","z","NA","NA","NA","NA","return","z","588","NA","NA","NA","NA","155001","588","2","legacy","1024","2","48000","-16","AB_m21","120","even","FILL_NW","HOITS","1379","328131","325006","326623","156389","NA","NA","NA","NA","326620","325503","NA","324506","NA","324503","326620","1387","328331","NA","NA","325631","1379","1379","326023","324503","1379","325631","328331","morph21_Oliver/Morris","43","29169","48","yes","1280","30"
"200","89.7959183673","89.7959183673","605.714285714","605.714285714","black","no","xpyriment","legacy","legacy","0","207","NA","uniform","64926","1000","0.0154021501402","1","undefined","1","0","48","48","48","0","48","48","48","NA","48","48","0","48","NA","48","48","0","48","NA","48","NA","48","0","0","48","48","0","48","48","49","/","12/10/17 12:33:14","The main experiment item","yes","FIN__AB__M21__7%3A10%3A17.osexp","C:\Users\ERP Testing Room\Desktop\Joanna\morph21","no","mono","no","18","no","white","no","yes","1080","legacy","48","48","C:/Users/ERP Testing Room/Desktop/Joanna/morph21/subject-120.csv","xpyriment","Jazzy James","3.1.4","0","/","NA","NA","NA","NA","return","/","511","NA","NA","NA","NA","155001","511","2","legacy","1024","2","48000","-16","AB_m21","120","even","FILL_W","GOLF","1379","331157","329541","326623","156389","NA","NA","NA","NA","331152","330038","NA","329041","NA","329029","331152","1387","331357","NA","NA","330157","1379","1379","330557","329029","1379","330157","331357","morph21_Oliver/Morris","44","29680","49","yes","1280","28"
"400","88","88","606.1","606.1","black","no","xpyriment","legacy","legacy","0","203","NA","uniform","69789","1000","0.0143289057015","0","undefined","0","0","49","49","49","0","49","49","49","NA","49","49","0","49","NA","49","49","0","49","NA","49","NA","49","0","0","49","49","0","49","49","50","z","12/10/17 12:33:14","The main experiment item","yes","FIN__AB__M21__7%3A10%3A17.osexp","C:\Users\ERP Testing Room\Desktop\Joanna\morph21","no","mono","no","18","no","white","no","yes","1080","legacy","49","49","C:/Users/ERP Testing Room/Desktop/Joanna/morph21/subject-120.csv","xpyriment","Jazzy James","3.1.4","0","/","NA","NA","NA","NA","return","/","625","NA","NA","NA","NA","155001","625","2","legacy","1024","2","48000","-16","AB_m21","120","even","NW_S_COMP","ALTARIC","1379","334107","332516","326623","156389","NA","NA","NA","NA","331152","333013","NA","332016","NA","332007","334102","1387","334507","NA","NA","333107","1379","1379","333499","332007","1379","333107","334507","morph21_Oliver/Morris","44","30305","50","yes","1280","7"
"250","88.2352941176","88.2352941176","606.666666667","606.666666667","black","no","xpyriment","legacy","legacy","0","206","NA","uniform","63419","1000","0.0157681451931","1","undefined","1","0","50","50","50","0","50","50","50","NA","50","50","0","50","NA","50","50","0","50","NA","50","NA","50","0","0","50","50","0","50","50","51","z","12/10/17 12:33:14","The main experiment item","yes","FIN__AB__M21__7%3A10%3A17.osexp","C:\Users\ERP Testing Room\Desktop\Joanna\morph21","no","mono","no","18","no","white","no","yes","1080","legacy","50","50","C:/Users/ERP Testing Room/Desktop/Joanna/morph21/subject-120.csv","xpyriment","Jazzy James","3.1.4","0","z","NA","NA","NA","NA","return","z","635","NA","NA","NA","NA","155001","635","2","legacy","1024","2","48000","-16","AB_m21","120","even","NW_L_SIMP","SMOOTHFIL","1379","338758","335641","337249","156389","NA","NA","NA","NA","337242","336138","NA","335141","NA","335136","337242","1387","339008","NA","NA","336249","1379","1379","336641","335136","1379","336249","339008","morph21_Oliver/Morris","45","30940","51","yes","1280","19"
"350","86.5384615385","86.5384615385","614.076923077","614.076923077","black","no","xpyriment","legacy","legacy","0","203","NA","uniform","58571","1000","0.0170732956583","0","undefined","0","0","51","51","51","0","51","51","51","NA","51","51","0","51","NA","51","51","0","51","NA","51","NA","51","0","0","51","51","0","51","51","52","z","12/10/17 12:33:14","The main experiment item","yes","FIN__AB__M21__7%3A10%3A17.osexp","C:\Users\ERP Testing Room\Desktop\Joanna\morph21","no","mono","no","18","no","white","no","yes","1080","legacy","51","51","C:/Users/ERP Testing Room/Desktop/Joanna/morph21/subject-120.csv","xpyriment","Jazzy James","3.1.4","0","None","NA","NA","NA","NA","return","None","992","NA","NA","NA","NA","155001","992","2","legacy","1024","2","48000","-16","AB_m21","120","even","NW_S_COMP","PRINCEMENT","1379","341766","340183","337249","156389","NA","NA","NA","NA","337242","340680","NA","339683","NA","339677","341758","1387","342116","NA","NA","340766","1379","1379","341158","339677","1379","340766","342116","morph21_Oliver/Morris","45","31932","52","yes","1280","17"
"400","86.7924528302","86.7924528302","613.773584906","613.773584906","black","no","xpyriment","legacy","legacy","0","207","NA","uniform","66660","1000","0.01500150015","1","undefined","1","0","52","52","52","0","52","52","52","NA","52","52","0","52","NA","52","52","0","52","NA","52","NA","52","0","0","52","52","0","52","52","53","/","12/10/17 12:33:14","The main experiment item","yes","FIN__AB__M21__7%3A10%3A17.osexp","C:\Users\ERP Testing Room\Desktop\Joanna\morph21","no","mono","no","18","no","white","no","yes","1080","legacy","52","52","C:/Users/ERP Testing Room/Desktop/Joanna/morph21/subject-120.csv","xpyriment","Jazzy James","3.1.4","0","/","NA","NA","NA","NA","return","/","598","NA","NA","NA","NA","155001","598","2","legacy","1024","2","48000","-16","AB_m21","120","even","FILL_W","STEEP","1379","344933","343325","337249","156389","NA","NA","NA","NA","344925","343822","NA","342825","NA","342821","344925","1387","345333","NA","NA","343933","1379","1379","344325","342821","1379","343933","345333","morph21_Oliver/Morris","46","32530","53","yes","1280","16"
"300","87.037037037","87.037037037","612.296296296","612.296296296","black","no","xpyriment","legacy","legacy","0","206","NA","uniform","67909","1000","0.0147255886554","1","undefined","1","0","53","53","53","0","53","53","53","NA","53","53","0","53","NA","53","53","0","53","NA","53","NA","53","0","0","53","53","0","53","53","54","z","12/10/17 12:33:14","The main experiment item","yes","FIN__AB__M21__7%3A10%3A17.osexp","C:\Users\ERP Testing Room\Desktop\Joanna\morph21","no","mono","no","18","no","white","no","yes","1080","legacy","53","53","C:/Users/ERP Testing Room/Desktop/Joanna/morph21/subject-120.csv","xpyriment","Jazzy James","3.1.4","0","z","NA","NA","NA","NA","return","z","534","NA","NA","NA","NA","155001","534","2","legacy","1024","2","48000","-16","AB_m21","120","even","NW_L_SIMP","ELBOWILM","1379","349642","346526","348134","156389","NA","NA","NA","NA","348124","347023","NA","346025","NA","346018","348124","1387","349943","NA","NA","347134","1379","1379","347526","346018","1379","347134","349943","morph21_Oliver/Morris","47","33064","54","yes","1280","10"
"300","87.2727272727","87.2727272727","612.8","612.8","black","no","xpyriment","legacy","legacy","0","201","NA","uniform","76307","1000","0.0131049576055","1","undefined","1","0","54","54","54","0","54","54","54","NA","54","54","0","54","NA","54","54","0","54","NA","54","NA","54","0","0","54","54","0","54","54","55","/","12/10/17 12:33:14","The main experiment item","yes","FIN__AB__M21__7%3A10%3A17.osexp","C:\Users\ERP Testing Room\Desktop\Joanna\morph21","no","mono","no","18","no","white","no","yes","1080","legacy","54","54","C:/Users/ERP Testing Room/Desktop/Joanna/morph21/subject-120.csv","xpyriment","Jazzy James","3.1.4","0","/","NA","NA","NA","NA","return","/","640","NA","NA","NA","NA","155001","640","2","legacy","1024","2","48000","-16","AB_m21","120","even","CW_S","DETECTABLE","1379","352684","351109","348134","156389","NA","NA","NA","NA","352680","351606","NA","350609","NA","350603","352680","1387","352984","NA","NA","351684","1379","1379","352084","350603","1379","351684","352984","morph21_Oliver/Morris","48","33704","55","yes","1280","1"
"350","87.5","87.5","613.839285714","613.839285714","black","no","xpyriment","legacy","legacy","0","206","NA","uniform","75138","1000","0.0133088450584","1","undefined","1","0","55","55","55","0","55","55","55","NA","55","55","0","55","NA","55","55","0","55","NA","55","NA","55","0","0","55","55","0","55","55","56","z","12/10/17 12:33:14","The main experiment item","yes","FIN__AB__M21__7%3A10%3A17.osexp","C:\Users\ERP Testing Room\Desktop\Joanna\morph21","no","mono","no","18","no","white","no","yes","1080","legacy","55","55","C:/Users/ERP Testing Room/Desktop/Joanna/morph21/subject-120.csv","xpyriment","Jazzy James","3.1.4","0","z","NA","NA","NA","NA","return","z","671","NA","NA","NA","NA","155001","671","2","legacy","1024","2","48000","-16","AB_m21","120","even","NW_L_SIMP","PICKENGE","1379","355709","354126","348134","156389","NA","NA","NA","NA","355706","354623","NA","353626","NA","353618","355706","1387","356059","NA","NA","354709","1379","1379","355109","353618","1379","354709","356059","morph21_Oliver/Morris","49","34375","56","yes","1280","5"
"250","87.7192982456","87.7192982456","611.701754386","611.701754386","black","no","xpyriment","legacy","legacy","0","203","NA","uniform","81418","1000","0.0122822962981","1","undefined","1","0","56","56","56","0","56","56","56","NA","56","56","0","56","NA","56","56","0","56","NA","56","NA","56","0","0","56","56","0","56","56","57","z","12/10/17 12:33:14","The main experiment item","yes","FIN__AB__M21__7%3A10%3A17.osexp","C:\Users\ERP Testing Room\Desktop\Joanna\morph21","no","mono","no","18","no","white","no","yes","1080","legacy","56","56","C:/Users/ERP Testing Room/Desktop/Joanna/morph21/subject-120.csv","xpyriment","Jazzy James","3.1.4","0","z","NA","NA","NA","NA","return","z","492","NA","NA","NA","NA","155001","492","2","legacy","1024","2","48000","-16","AB_m21","120","even","NW_S_COMP","TREASONIZE","1379","360285","357193","358776","156389","NA","NA","NA","NA","358768","357690","NA","356693","NA","356681","358768","1387","360535","NA","NA","357776","1379","1379","358168","356681","1379","357776","360535","morph21_Oliver/Morris","50","34867","57","yes","1280","14"
"350","87.9310344828","87.9310344828","610.051724138","610.051724138","black","no","xpyriment","legacy","legacy","0","202","NA","uniform","79713","1000","0.0125450052062","1","undefined","1","0","57","57","57","0","57","57","57","NA","57","57","0","57","NA","57","57","0","57","NA","57","NA","57","0","0","57","57","0","57","57","58","/","12/10/17 12:33:14","The main experiment item","yes","FIN__AB__M21__7%3A10%3A17.osexp","C:\Users\ERP Testing Room\Desktop\Joanna\morph21","no","mono","no","18","no","white","no","yes","1080","legacy","57","57","C:/Users/ERP Testing Room/Desktop/Joanna/morph21/subject-120.csv","xpyriment","Jazzy James","3.1.4","0","/","NA","NA","NA","NA","return","/","516","NA","NA","NA","NA","155001","516","2","legacy","1024","2","48000","-16","AB_m21","120","even","CW_L","FEEDER","1379","363326","361743","358776","156389","NA","NA","NA","NA","363324","362240","NA","361243","NA","361234","363324","1387","363676","NA","NA","362335","1379","1379","362726","361234","1379","362335","363676","morph21_Oliver/Morris","51","35383","58","yes","1280","14"
"400","88.1355932203","88.1355932203","608.644067797","608.644067797","black","no","xpyriment","legacy","legacy","0","208","NA","uniform","74175","1000","0.0134816312774","1","undefined","1","0","58","58","58","0","58","58","58","NA","58","58","0","58","NA","58","58","0","58","NA","58","NA","58","0","0","58","58","0","58","58","59","z","12/10/17 12:33:14","The main experiment item","yes","FIN__AB__M21__7%3A10%3A17.osexp","C:\Users\ERP Testing Room\Desktop\Joanna\morph21","no","mono","no","18","no","white","no","yes","1080","legacy","58","58","C:/Users/ERP Testing Room/Desktop/Joanna/morph21/subject-120.csv","xpyriment","Jazzy James","3.1.4","0","z","NA","NA","NA","NA","return","z","527","NA","NA","NA","NA","155001","527","2","legacy","1024","2","48000","-16","AB_m21","120","even","FILL_NW","GIKE","1379","366469","364877","358776","156389","NA","NA","NA","NA","366462","365375","NA","364377","NA","364372","366462","1387","366869","NA","NA","365469","1379","1379","365861","364372","1379","365469","366869","morph21_Oliver/Morris","52","35910","59","yes","1280","24"
"300","88.3333333333","88.3333333333","607.566666667","607.566666667","black","no","xpyriment","legacy","legacy","0","205","NA","uniform","69282","1000","0.0144337634595","1","undefined","1","0","59","59","59","0","59","59","59","NA","59","59","0","59","NA","59","59","0","59","NA","59","NA","59","0","0","59","59","0","59","59","60","z","12/10/17 12:33:14","The main experiment item","yes","FIN__AB__M21__7%3A10%3A17.osexp","C:\Users\ERP Testing Room\Desktop\Joanna\morph21","no","mono","no","18","no","white","no","yes","1080","legacy","59","59","C:/Users/ERP Testing Room/Desktop/Joanna/morph21/subject-120.csv","xpyriment","Jazzy James","3.1.4","0","z","NA","NA","NA","NA","return","z","544","NA","NA","NA","NA","155001","544","2","legacy","1024","2","48000","-16","AB_m21","120","even","NW_S_SIMP","BOLTOES","1379","371136","368028","369628","156389","NA","NA","NA","NA","369619","368525","NA","367528","NA","367522","369619","1387","371436","NA","NA","368628","1379","1379","369019","367522","1379","368628","371436","morph21_Oliver/Morris","53","36454","60","yes","1280","13"
"400","88.5245901639","88.5245901639","606.524590164","606.524590164","black","no","xpyriment","legacy","legacy","0","206","NA","uniform","76983","1000","0.0129898808828","1","undefined","1","0","60","60","60","0","60","60","60","NA","60","60","0","60","NA","60","60","0","60","NA","60","NA","60","0","0","60","60","0","60","60","61","z","12/10/17 12:33:14","The main experiment item","yes","FIN__AB__M21__7%3A10%3A17.osexp","C:\Users\ERP Testing Room\Desktop\Joanna\morph21","no","mono","no","18","no","white","no","yes","1080","legacy","60","60","C:/Users/ERP Testing Room/Desktop/Joanna/morph21/subject-120.csv","xpyriment","Jazzy James","3.1.4","0","z","NA","NA","NA","NA","return","z","544","NA","NA","NA","NA","155001","544","2","legacy","1024","2","48000","-16","AB_m21","120","even","NW_L_SIMP","CLASSOES","1379","374228","372644","369628","156389","NA","NA","NA","NA","374220","373142","NA","372144","NA","372141","374220","1387","374628","NA","NA","373228","1379","1379","373620","372141","1379","373228","374628","morph21_Oliver/Morris","54","36998","61","yes","1280","18"
"400","88.7096774194","88.7096774194","606.983870968","606.983870968","black","no","xpyriment","legacy","legacy","0","201","NA","uniform","64753","1000","0.0154432999243","1","undefined","1","0","61","61","61","0","61","61","61","NA","61","61","0","61","NA","61","61","0","61","NA","61","NA","61","0","0","61","61","0","61","61","62","/","12/10/17 12:33:14","The main experiment item","yes","FIN__AB__M21__7%3A10%3A17.osexp","C:\Users\ERP Testing Room\Desktop\Joanna\morph21","no","mono","no","18","no","white","no","yes","1080","legacy","61","61","C:/Users/ERP Testing Room/Desktop/Joanna/morph21/subject-120.csv","xpyriment","Jazzy James","3.1.4","0","/","NA","NA","NA","NA","return","/","635","NA","NA","NA","NA","155001","635","2","legacy","1024","2","48000","-16","AB_m21","120","even","CW_S","DIETARY","1379","377353","375770","369628","156389","NA","NA","NA","NA","377345","376267","NA","375270","NA","375266","377345","1387","377753","NA","NA","376353","1379","1379","376745","375266","1379","376353","377753","morph21_Oliver/Morris","55","37633","62","yes","1280","6"
"300","88.8888888889","88.8888888889","610.349206349","610.349206349","black","no","xpyriment","legacy","legacy","0","206","NA","uniform","62282","1000","0.0160560033396","1","undefined","1","0","62","62","62","0","62","62","62","NA","62","62","0","62","NA","62","62","0","62","NA","62","NA","62","0","0","62","62","0","62","62","63","z","12/10/17 12:33:14","The main experiment item","yes","FIN__AB__M21__7%3A10%3A17.osexp","C:\Users\ERP Testing Room\Desktop\Joanna\morph21","no","mono","no","18","no","white","no","yes","1080","legacy","62","62","C:/Users/ERP Testing Room/Desktop/Joanna/morph21/subject-120.csv","xpyriment","Jazzy James","3.1.4","0","z","NA","NA","NA","NA","return","z","819","NA","NA","NA","NA","155001","819","2","legacy","1024","2","48000","-16","AB_m21","120","even","NW_L_SIMP","LONGNELS","1379","382046","378953","380536","156389","NA","NA","NA","NA","380530","379450","NA","378453","NA","378446","380530","1387","382346","NA","NA","379536","1379","1379","379928","378446","1379","379536","382346","morph21_Oliver/Morris","56","38452","63","yes","1280","17"
"300","89.0625","89.0625","615.078125","615.078125","black","no","xpyriment","legacy","legacy","0","206","NA","uniform","63690","1000","0.0157010519705","1","undefined","1","0","63","63","63","0","63","63","63","NA","63","63","0","63","NA","63","63","0","63","NA","63","NA","63","0","0","63","63","0","63","63","64","z","12/10/17 12:33:14","The main experiment item","yes","FIN__AB__M21__7%3A10%3A17.osexp","C:\Users\ERP Testing Room\Desktop\Joanna\morph21","no","mono","no","18","no","white","no","yes","1080","legacy","63","63","C:/Users/ERP Testing Room/Desktop/Joanna/morph21/subject-120.csv","xpyriment","Jazzy James","3.1.4","0","z","NA","NA","NA","NA","return","z","913","NA","NA","NA","NA","155001","913","2","legacy","1024","2","48000","-16","AB_m21","120","even","NW_L_SIMP","PRAYANGE","1379","385171","383579","380536","156389","NA","NA","NA","NA","385163","384076","NA","383079","NA","383070","385163","1387","385471","NA","NA","384171","1379","1379","384563","383070","1379","384171","385471","morph21_Oliver/Morris","57","39365","64","yes","1280","1"
"250","89.2307692308","89.2307692308","613.184615385","613.184615385","black","no","xpyriment","legacy","legacy","0","208","NA","uniform","71125","1000","0.0140597539543","1","undefined","1","0","64","64","64","0","64","64","64","NA","64","64","0","64","NA","64","64","0","64","NA","64","NA","64","0","0","64","64","0","64","64","65","z","12/10/17 12:33:14","The main experiment item","yes","FIN__AB__M21__7%3A10%3A17.osexp","C:\Users\ERP Testing Room\Desktop\Joanna\morph21","no","mono","no","18","no","white","no","yes","1080","legacy","64","64","C:/Users/ERP Testing Room/Desktop/Joanna/morph21/subject-120.csv","xpyriment","Jazzy James","3.1.4","0","z","NA","NA","NA","NA","return","z","492","NA","NA","NA","NA","155001","492","2","legacy","1024","2","48000","-16","AB_m21","120","even","FILL_NW","POLT","1379","388296","386713","380536","156389","NA","NA","NA","NA","388288","387210","NA","386213","NA","386203","388288","1387","388546","NA","NA","387296","1379","1379","387688","386203","1379","387296","388546","morph21_Oliver/Morris","58","39857","65","yes","1280","38"
"350","89.3939393939","89.3939393939","614.045454545","614.045454545","black","no","xpyriment","legacy","legacy","0","202","NA","uniform","69249","1000","0.0144406417421","1","undefined","1","0","65","65","65","0","65","65","65","NA","65","65","0","65","NA","65","65","0","65","NA","65","NA","65","0","0","65","65","0","65","65","66","/","12/10/17 12:33:14","The main experiment item","yes","FIN__AB__M21__7%3A10%3A17.osexp","C:\Users\ERP Testing Room\Desktop\Joanna\morph21","no","mono","no","18","no","white","no","yes","1080","legacy","65","65","C:/Users/ERP Testing Room/Desktop/Joanna/morph21/subject-120.csv","xpyriment","Jazzy James","3.1.4","0","/","NA","NA","NA","NA","return","/","670","NA","NA","NA","NA","155001","670","2","legacy","1024","2","48000","-16","AB_m21","120","even","CW_L","GUARDING","1379","392938","389830","391430","156389","NA","NA","NA","NA","391423","390327","NA","389330","NA","389323","391423","1387","393288","NA","NA","390430","1379","1379","390821","389322","1379","390430","393288","morph21_Oliver/Morris","59","40527","66","yes","1280","26"
"200","89.552238806","89.552238806","617.985074627","617.985074627","black","no","xpyriment","legacy","legacy","0","208","NA","uniform","60867","1000","0.0164292638047","1","undefined","1","0","66","66","66","0","66","66","66","NA","66","66","0","66","NA","66","66","0","66","NA","66","NA","66","0","0","66","66","0","66","66","67","z","12/10/17 12:33:14","The main experiment item","yes","FIN__AB__M21__7%3A10%3A17.osexp","C:\Users\ERP Testing Room\Desktop\Joanna\morph21","no","mono","no","18","no","white","no","yes","1080","legacy","66","66","C:/Users/ERP Testing Room/Desktop/Joanna/morph21/subject-120.csv","xpyriment","Jazzy James","3.1.4","0","z","NA","NA","NA","NA","return","z","878","NA","NA","NA","NA","155001","878","2","legacy","1024","2","48000","-16","AB_m21","120","even","FILL_NW","VUNKS","1379","396038","394455","391430","156389","NA","NA","NA","NA","396028","394952","NA","393955","NA","393951","396028","1387","396238","NA","NA","395038","1379","1379","395430","393951","1379","395038","396238","morph21_Oliver/Morris","60","41405","67","yes","1280","49"
"200","89.7058823529","89.7058823529","616.970588235","616.970588235","black","no","xpyriment","legacy","legacy","0","208","NA","uniform","77448","1000","0.0129118892676","1","undefined","1","0","67","67","67","0","67","67","67","NA","67","67","0","67","NA","67","67","0","67","NA","67","NA","67","0","0","67","67","0","67","67","68","z","12/10/17 12:33:14","The main experiment item","yes","FIN__AB__M21__7%3A10%3A17.osexp","C:\Users\ERP Testing Room\Desktop\Joanna\morph21","no","mono","no","18","no","white","no","yes","1080","legacy","67","67","C:/Users/ERP Testing Room/Desktop/Joanna/morph21/subject-120.csv","xpyriment","Jazzy James","3.1.4","0","z","NA","NA","NA","NA","return","z","549","NA","NA","NA","NA","155001","549","2","legacy","1024","2","48000","-16","AB_m21","120","even","FILL_NW","PORDS","1379","399031","397438","391430","156389","NA","NA","NA","NA","399024","397935","NA","396938","NA","396934","399024","1387","399231","NA","NA","398030","1379","1379","398422","396934","1379","398030","399231","morph21_Oliver/Morris","61","41954","68","yes","1280","39"
"200","89.8550724638","89.8550724638","619.579710145","619.579710145","black","no","xpyriment","legacy","legacy","0","208","NA","uniform","64290","1000","0.0155545185876","1","undefined","1","0","68","68","68","0","68","68","68","NA","68","68","0","68","NA","68","68","0","68","NA","68","NA","68","0","0","68","68","0","68","68","69","z","12/10/17 12:33:14","The main experiment item","yes","FIN__AB__M21__7%3A10%3A17.osexp","C:\Users\ERP Testing Room\Desktop\Joanna\morph21","no","mono","no","18","no","white","no","yes","1080","legacy","68","68","C:/Users/ERP Testing Room/Desktop/Joanna/morph21/subject-120.csv","xpyriment","Jazzy James","3.1.4","0","z","NA","NA","NA","NA","return","z","797","NA","NA","NA","NA","155001","797","2","legacy","1024","2","48000","-16","AB_m21","120","even","FILL_NW","TUEER","1379","403531","400414","402023","156389","NA","NA","NA","NA","402015","400912","NA","399914","NA","399909","402015","1387","403731","NA","NA","401023","1379","1379","401414","399909","1379","401023","403731","morph21_Oliver/Morris","62","42751","69","yes","1280","44"
"200","90","90","622.085714286","622.085714286","black","no","xpyriment","legacy","legacy","0","202","NA","uniform","63915","1000","0.015645779551","1","undefined","1","0","69","69","69","0","69","69","69","NA","69","69","0","69","NA","69","69","0","69","NA","69","NA","69","0","0","69","69","0","69","69","70","/","12/10/17 12:33:14","The main experiment item","yes","FIN__AB__M21__7%3A10%3A17.osexp","C:\Users\ERP Testing Room\Desktop\Joanna\morph21","no","mono","no","18","no","white","no","yes","1080","legacy","69","69","C:/Users/ERP Testing Room/Desktop/Joanna/morph21/subject-120.csv","xpyriment","Jazzy James","3.1.4","0","/","NA","NA","NA","NA","return","/","795","NA","NA","NA","NA","155001","795","2","legacy","1024","2","48000","-16","AB_m21","120","even","CW_L","BOOTLESS","1379","406481","404898","402023","156389","NA","NA","NA","NA","406472","405395","NA","404398","NA","404391","406472","1387","406681","NA","NA","405481","1379","1379","405873","404391","1379","405481","406681","morph21_Oliver/Morris","63","43546","70","yes","1280","32"
"400","90.1408450704","90.1408450704","619.901408451","619.901408451","black","no","xpyriment","legacy","legacy","0","208","NA","uniform","76085","1000","0.0131431951107","1","undefined","1","0","70","70","70","0","70","70","70","NA","70","70","0","70","NA","70","70","0","70","NA","70","NA","70","0","0","70","70","0","70","70","71","z","12/10/17 12:33:14","The main experiment item","yes","FIN__AB__M21__7%3A10%3A17.osexp","C:\Users\ERP Testing Room\Desktop\Joanna\morph21","no","mono","no","18","no","white","no","yes","1080","legacy","70","70","C:/Users/ERP Testing Room/Desktop/Joanna/morph21/subject-120.csv","xpyriment","Jazzy James","3.1.4","0","z","NA","NA","NA","NA","return","z","467","NA","NA","NA","NA","155001","467","2","legacy","1024","2","48000","-16","AB_m21","120","even","FILL_NW","BORMS","1379","409465","407865","402023","156389","NA","NA","NA","NA","409458","408362","NA","407365","NA","407354","409458","1387","409865","NA","NA","408465","1379","1379","408856","407354","1379","408465","409865","morph21_Oliver/Morris","64","44013","71","yes","1280","50"
"350","90.2777777778","90.2777777778","622.375","622.375","black","no","xpyriment","legacy","legacy","0","208","NA","uniform","59448","1000","0.0168214237653","1","undefined","1","0","71","71","71","0","71","71","71","NA","71","71","0","71","NA","71","71","0","71","NA","71","NA","71","0","0","71","71","0","71","71","72","z","12/10/17 12:33:14","The main experiment item","yes","FIN__AB__M21__7%3A10%3A17.osexp","C:\Users\ERP Testing Room\Desktop\Joanna\morph21","no","mono","no","18","no","white","no","yes","1080","legacy","71","71","C:/Users/ERP Testing Room/Desktop/Joanna/morph21/subject-120.csv","xpyriment","Jazzy James","3.1.4","0","z","NA","NA","NA","NA","return","z","798","NA","NA","NA","NA","155001","798","2","legacy","1024","2","48000","-16","AB_m21","120","even","FILL_NW","HEAS","1379","414098","411007","412590","156389","NA","NA","NA","NA","412585","411504","NA","410507","NA","410499","412585","1387","414448","NA","NA","411590","1379","1379","411990","410499","1379","411590","414448","morph21_Oliver/Morris","65","44811","72","yes","1280","26"
"400","90.4109589041","90.4109589041","622.205479452","622.205479452","black","no","xpyriment","legacy","legacy","0","208","NA","uniform","70969","1000","0.0140906593019","1","undefined","1","0","72","72","72","0","72","72","72","NA","72","72","0","72","NA","72","72","0","72","NA","72","NA","72","0","0","72","72","0","72","72","73","z","12/10/17 12:33:14","The main experiment item","yes","FIN__AB__M21__7%3A10%3A17.osexp","C:\Users\ERP Testing Room\Desktop\Joanna\morph21","no","mono","no","18","no","white","no","yes","1080","legacy","72","72","C:/Users/ERP Testing Room/Desktop/Joanna/morph21/subject-120.csv","xpyriment","Jazzy James","3.1.4","0","z","NA","NA","NA","NA","return","z","610","NA","NA","NA","NA","155001","610","2","legacy","1024","2","48000","-16","AB_m21","120","even","FILL_NW","BUTE","1379","417258","415648","412590","156389","NA","NA","NA","NA","417252","416146","NA","415148","NA","415142","417252","1387","417658","NA","NA","416258","1379","1379","416649","415142","1379","416258","417658","morph21_Oliver/Morris","66","45421","73","yes","1280","5"
"250","90.5405405405","90.5405405405","621.581081081","621.581081081","black","no","xpyriment","legacy","legacy","0","207","NA","uniform","74787","1000","0.0133713078476","1","undefined","1","0","73","73","73","0","73","73","73","NA","73","73","0","73","NA","73","73","0","73","NA","73","NA","73","0","0","73","73","0","73","73","74","/","12/10/17 12:33:14","The main experiment item","yes","FIN__AB__M21__7%3A10%3A17.osexp","C:\Users\ERP Testing Room\Desktop\Joanna\morph21","no","mono","no","18","no","white","no","yes","1080","legacy","73","73","C:/Users/ERP Testing Room/Desktop/Joanna/morph21/subject-120.csv","xpyriment","Jazzy James","3.1.4","0","/","NA","NA","NA","NA","return","/","576","NA","NA","NA","NA","155001","576","2","legacy","1024","2","48000","-16","AB_m21","120","even","FILL_W","COOK","1379","420500","418891","412590","156389","NA","NA","NA","NA","420489","419388","NA","418391","NA","418387","420489","1387","420750","NA","NA","419500","1379","1379","419891","418387","1379","419500","420750","morph21_Oliver/Morris","67","45997","74","yes","1280","38"
"350","90.6666666667","90.6666666667","620.773333333","620.773333333","black","no","xpyriment","legacy","legacy","0","202","NA","uniform","75435","1000","0.0132564459468","undefined","undefined","1","0","74","74","74","0","74","74","74","NA","74","74","0","74","NA","74","74","0","74","NA","74","NA","74","0","0","74","74","0","74","74","75","/","12/10/17 12:33:14","The main experiment item","yes","FIN__AB__M21__7%3A10%3A17.osexp","C:\Users\ERP Testing Room\Desktop\Joanna\morph21","no","mono","no","18","no","white","no","yes","1080","legacy","74","74","C:/Users/ERP Testing Room/Desktop/Joanna/morph21/subject-120.csv","xpyriment","Jazzy James","3.1.4","0","space","space","NA","NA","NA","return","/","10030","10030","NA","NA","NA","155001","561","2","legacy","1024","2","48000","-16","AB_m21","120","even","CW_L","PARKING","1379","425000","421908","423491","156389","425358","NA","NA","NA","423482","422405","NA","421408","NA","421404","423482","1387","435390","NA","NA","422491","1379","1379","422883","421404","1379","422491","425350","morph21_Oliver/Morris","68","46558","75","yes","1280","25"
"400","89.4736842105","89.4736842105","625.697368421","625.697368421","black","no","xpyriment","legacy","legacy","0","207","NA","uniform","52723","1000","0.0189670542268","0","undefined","0","0","75","75","75","0","75","75","75","NA","75","75","0","75","NA","75","75","0","75","NA","75","NA","75","0","0","75","75","0","75","75","76","/","12/10/17 12:33:14","The main experiment item","yes","FIN__AB__M21__7%3A10%3A17.osexp","C:\Users\ERP Testing Room\Desktop\Joanna\morph21","no","mono","no","18","no","white","no","yes","1080","legacy","75","75","C:/Users/ERP Testing Room/Desktop/Joanna/morph21/subject-120.csv","xpyriment","Jazzy James","3.1.4","0","None","space","NA","NA","NA","return","None","995","10030","NA","NA","NA","155001","995","2","legacy","1024","2","48000","-16","AB_m21","120","even","FILL_W","CRUNCH","1379","438151","436568","423491","156389","425358","NA","NA","NA","423482","437065","NA","436068","NA","436064","438146","1387","438551","NA","NA","437151","1379","1379","437543","436064","1379","437151","438551","morph21_Oliver/Morris","68","47553","76","yes","1280","20"
"200","89.6103896104","89.6103896104","625.636363636","625.636363636","black","no","xpyriment","legacy","legacy","0","202","NA","uniform","72436","1000","0.0138052901872","1","undefined","1","0","76","76","76","0","76","76","76","NA","76","76","0","76","NA","76","76","0","76","NA","76","NA","76","0","0","76","76","0","76","76","77","/","12/10/17 12:33:14","The main experiment item","yes","FIN__AB__M21__7%3A10%3A17.osexp","C:\Users\ERP Testing Room\Desktop\Joanna\morph21","no","mono","no","18","no","white","no","yes","1080","legacy","76","76","C:/Users/ERP Testing Room/Desktop/Joanna/morph21/subject-120.csv","xpyriment","Jazzy James","3.1.4","0","/","space","NA","NA","NA","return","/","621","10030","NA","NA","NA","155001","621","2","legacy","1024","2","48000","-16","AB_m21","120","even","CW_L","SAILOR","1379","441326","439726","423491","156389","425358","NA","NA","NA","441319","440224","NA","439227","NA","439220","441319","1387","441527","NA","NA","440327","1379","1379","440718","439220","1379","440327","441527","morph21_Oliver/Morris","69","48174","77","yes","1280","43"
"200","89.7435897436","89.7435897436","627.602564103","627.602564103","black","no","xpyriment","legacy","legacy","0","208","NA","uniform","61726","1000","0.0162006285844","1","undefined","1","0","77","77","77","0","77","77","77","NA","77","77","0","77","NA","77","77","0","77","NA","77","NA","77","0","0","77","77","0","77","77","78","z","12/10/17 12:33:14","The main experiment item","yes","FIN__AB__M21__7%3A10%3A17.osexp","C:\Users\ERP Testing Room\Desktop\Joanna\morph21","no","mono","no","18","no","white","no","yes","1080","legacy","77","77","C:/Users/ERP Testing Room/Desktop/Joanna/morph21/subject-120.csv","xpyriment","Jazzy James","3.1.4","0","z","space","NA","NA","NA","return","z","779","10030","NA","NA","NA","155001","779","2","legacy","1024","2","48000","-16","AB_m21","120","even","FILL_NW","HESK","1379","445885","442752","444377","156389","425358","NA","NA","NA","444368","443249","NA","442252","NA","442241","444368","1387","446085","NA","NA","443377","1379","1379","443768","442241","1379","443377","446085","morph21_Oliver/Morris","70","48953","78","yes","1280","29"
"250","89.8734177215","89.8734177215","625.987341772","625.987341772","black","no","xpyriment","legacy","legacy","0","202","NA","uniform","72479","1000","0.0137970998496","1","undefined","1","0","78","78","78","0","78","78","78","NA","78","78","0","78","NA","78","78","0","78","NA","78","NA","78","0","0","78","78","0","78","78","79","/","12/10/17 12:33:14","The main experiment item","yes","FIN__AB__M21__7%3A10%3A17.osexp","C:\Users\ERP Testing Room\Desktop\Joanna\morph21","no","mono","no","18","no","white","no","yes","1080","legacy","78","78","C:/Users/ERP Testing Room/Desktop/Joanna/morph21/subject-120.csv","xpyriment","Jazzy James","3.1.4","0","/","space","NA","NA","NA","return","/","500","10030","NA","NA","NA","155001","500","2","legacy","1024","2","48000","-16","AB_m21","120","even","CW_L","FLEXIBLE","1379","448969","447360","444377","156389","425358","NA","NA","NA","448958","447857","NA","446860","NA","446853","448958","1387","449219","NA","NA","447968","1379","1379","448360","446853","1379","447968","449219","morph21_Oliver/Morris","71","49453","79","yes","1280","22"
"250","90","90","627.475","627.475","black","no","xpyriment","legacy","legacy","0","201","NA","uniform","67515","1000","0.0148115233652","1","undefined","1","0","79","79","79","0","79","79","79","NA","79","79","0","79","NA","79","79","0","79","NA","79","NA","79","0","0","79","79","0","79","79","80","/","12/10/17 12:33:14","The main experiment item","yes","FIN__AB__M21__7%3A10%3A17.osexp","C:\Users\ERP Testing Room\Desktop\Joanna\morph21","no","mono","no","18","no","white","no","yes","1080","legacy","79","79","C:/Users/ERP Testing Room/Desktop/Joanna/morph21/subject-120.csv","xpyriment","Jazzy James","3.1.4","0","/","space","NA","NA","NA","return","/","745","10030","NA","NA","NA","155001","745","2","legacy","1024","2","48000","-16","AB_m21","120","even","CW_S","COSTLY","1379","452028","450427","444377","156389","425358","NA","NA","NA","452019","450924","NA","449927","NA","449923","452019","1387","452278","NA","NA","451027","1379","1379","451420","449923","1379","451027","452278","morph21_Oliver/Morris","72","50198","80","yes","1280","36"
"200","90.1234567901","90.1234567901","628.938271605","628.938271605","black","no","xpyriment","legacy","legacy","0","207","NA","uniform","72894","1000","0.0137185502236","1","undefined","1","0","80","80","80","0","80","80","80","NA","80","80","0","80","NA","80","80","0","80","NA","80","NA","80","0","0","80","80","0","80","80","81","/","12/10/17 12:33:14","The main experiment item","yes","FIN__AB__M21__7%3A10%3A17.osexp","C:\Users\ERP Testing Room\Desktop\Joanna\morph21","no","mono","no","18","no","white","no","yes","1080","legacy","80","80","C:/Users/ERP Testing Room/Desktop/Joanna/morph21/subject-120.csv","xpyriment","Jazzy James","3.1.4","0","/","space","NA","NA","NA","return","/","746","10030","NA","NA","NA","155001","746","2","legacy","1024","2","48000","-16","AB_m21","120","even","FILL_W","FLOAT","1379","456495","453411","454986","156389","425358","NA","NA","NA","454982","453908","NA","452911","NA","452903","454982","1387","456695","NA","NA","453986","1379","1379","454386","452903","1379","453986","456695","morph21_Oliver/Morris","73","50944","81","yes","1280","30"
"350","90.243902439","90.243902439","629.353658537","629.353658537","black","no","xpyriment","legacy","legacy","0","202","NA","uniform","64368","1000","0.0155356698981","1","undefined","1","0","81","81","81","0","81","81","81","NA","81","81","0","81","NA","81","81","0","81","NA","81","NA","81","0","0","81","81","0","81","81","82","/","12/10/17 12:33:14","The main experiment item","yes","FIN__AB__M21__7%3A10%3A17.osexp","C:\Users\ERP Testing Room\Desktop\Joanna\morph21","no","mono","no","18","no","white","no","yes","1080","legacy","81","81","C:/Users/ERP Testing Room/Desktop/Joanna/morph21/subject-120.csv","xpyriment","Jazzy James","3.1.4","0","/","space","NA","NA","NA","return","/","663","10030","NA","NA","NA","155001","663","2","legacy","1024","2","48000","-16","AB_m21","120","even","CW_L","KICKING","1379","459437","457853","454986","156389","425358","NA","NA","NA","459429","458350","NA","457353","NA","457349","459429","1387","459787","NA","NA","458437","1379","1379","458828","457349","1379","458437","459787","morph21_Oliver/Morris","74","51607","82","yes","1280","23"
"250","90.3614457831","90.3614457831","629.084337349","629.084337349","black","no","xpyriment","legacy","legacy","0","208","NA","uniform","77569","1000","0.0128917479921","1","undefined","1","0","82","82","82","0","82","82","82","NA","82","82","0","82","NA","82","82","0","82","NA","82","NA","82","0","0","82","82","0","82","82","83","z","12/10/17 12:33:14","The main experiment item","yes","FIN__AB__M21__7%3A10%3A17.osexp","C:\Users\ERP Testing Room\Desktop\Joanna\morph21","no","mono","no","18","no","white","no","yes","1080","legacy","82","82","C:/Users/ERP Testing Room/Desktop/Joanna/morph21/subject-120.csv","xpyriment","Jazzy James","3.1.4","0","z","space","NA","NA","NA","return","z","607","10030","NA","NA","NA","155001","607","2","legacy","1024","2","48000","-16","AB_m21","120","even","FILL_NW","PHEEKS","1379","462637","461053","454986","156389","425358","NA","NA","NA","462628","461550","NA","460553","NA","460545","462628","1387","462887","NA","NA","461637","1379","1379","462028","460545","1379","461637","462887","morph21_Oliver/Morris","75","52214","83","yes","1280","35"
"300","90.4761904762","90.4761904762","628.630952381","628.630952381","black","no","xpyriment","legacy","legacy","0","207","NA","uniform","74890","1000","0.0133529176125","1","undefined","1","0","83","83","83","0","83","83","83","NA","83","83","0","83","NA","83","83","0","83","NA","83","NA","83","0","0","83","83","0","83","83","84","/","12/10/17 12:33:14","The main experiment item","yes","FIN__AB__M21__7%3A10%3A17.osexp","C:\Users\ERP Testing Room\Desktop\Joanna\morph21","no","mono","no","18","no","white","no","yes","1080","legacy","83","83","C:/Users/ERP Testing Room/Desktop/Joanna/morph21/subject-120.csv","xpyriment","Jazzy James","3.1.4","0","/","space","NA","NA","NA","return","/","591","10030","NA","NA","NA","155001","591","2","legacy","1024","2","48000","-16","AB_m21","120","even","FILL_W","BOX","1379","467162","464037","465654","156389","425358","NA","NA","NA","465643","464534","NA","463537","NA","463527","465643","1387","467462","NA","NA","464653","1379","1379","465045","463527","1379","464653","467462","morph21_Oliver/Morris","76","52805","84","yes","1280","42"
"350","90.5882352941","90.5882352941","628.694117647","628.694117647","black","no","xpyriment","legacy","legacy","0","203","NA","uniform","65690","1000","0.015223017202","1","undefined","1","0","84","84","84","0","84","84","84","NA","84","84","0","84","NA","84","84","0","84","NA","84","NA","84","0","0","84","84","0","84","84","85","z","12/10/17 12:33:14","The main experiment item","yes","FIN__AB__M21__7%3A10%3A17.osexp","C:\Users\ERP Testing Room\Desktop\Joanna\morph21","no","mono","no","18","no","white","no","yes","1080","legacy","84","84","C:/Users/ERP Testing Room/Desktop/Joanna/morph21/subject-120.csv","xpyriment","Jazzy James","3.1.4","0","z","space","NA","NA","NA","return","z","634","10030","NA","NA","NA","155001","634","2","legacy","1024","2","48000","-16","AB_m21","120","even","NW_S_COMP","HUMIDOUS","1379","470346","468763","465654","156389","425358","NA","NA","NA","470338","469260","NA","468262","NA","468258","470338","1387","470696","NA","NA","469346","1379","1379","469738","468258","1379","469346","470696","morph21_Oliver/Morris","77","53439","85","yes","1280","25"
"250","90.6976744186","90.6976744186","629.290697674","629.290697674","black","no","xpyriment","legacy","legacy","0","205","NA","uniform","74693","1000","0.0133881354344","1","undefined","1","0","85","85","85","0","85","85","85","NA","85","85","0","85","NA","85","85","0","85","NA","85","NA","85","0","0","85","85","0","85","85","86","z","12/10/17 12:33:14","The main experiment item","yes","FIN__AB__M21__7%3A10%3A17.osexp","C:\Users\ERP Testing Room\Desktop\Joanna\morph21","no","mono","no","18","no","white","no","yes","1080","legacy","85","85","C:/Users/ERP Testing Room/Desktop/Joanna/morph21/subject-120.csv","xpyriment","Jazzy James","3.1.4","0","z","space","NA","NA","NA","return","z","680","10030","NA","NA","NA","155001","680","2","legacy","1024","2","48000","-16","AB_m21","120","even","NW_S_SIMP","DIGODY","1379","473580","471997","465654","156389","425358","NA","NA","NA","473576","472494","NA","471497","NA","471491","473576","1387","473830","NA","NA","472580","1379","1379","472980","471491","1379","472580","473830","morph21_Oliver/Morris","78","54119","86","yes","1280","11"
"200","90.8045977011","90.8045977011","628.390804598","628.390804598","black","no","xpyriment","legacy","legacy","0","208","NA","uniform","74278","1000","0.0134629365357","1","undefined","1","0","86","86","86","0","86","86","86","NA","86","86","0","86","NA","86","86","0","86","NA","86","NA","86","0","0","86","86","0","86","86","87","z","12/10/17 12:33:14","The main experiment item","yes","FIN__AB__M21__7%3A10%3A17.osexp","C:\Users\ERP Testing Room\Desktop\Joanna\morph21","no","mono","no","18","no","white","no","yes","1080","legacy","86","86","C:/Users/ERP Testing Room/Desktop/Joanna/morph21/subject-120.csv","xpyriment","Jazzy James","3.1.4","0","z","space","NA","NA","NA","return","z","551","10030","NA","NA","NA","155001","551","2","legacy","1024","2","48000","-16","AB_m21","120","even","FILL_NW","SMADE","1379","478105","475013","476597","156389","425358","NA","NA","NA","476589","475510","NA","474513","NA","474505","476589","1387","478305","NA","NA","475597","1379","1379","475988","474505","1379","475597","478305","morph21_Oliver/Morris","79","54670","87","yes","1280","42"
"350","90.9090909091","90.9090909091","627.715909091","627.715909091","black","no","xpyriment","legacy","legacy","0","202","NA","uniform","76582","1000","0.0130578987229","1","undefined","1","0","87","87","87","0","87","87","87","NA","87","87","0","87","NA","87","87","0","87","NA","87","NA","87","0","0","87","87","0","87","87","88","/","12/10/17 12:33:14","The main experiment item","yes","FIN__AB__M21__7%3A10%3A17.osexp","C:\Users\ERP Testing Room\Desktop\Joanna\morph21","no","mono","no","18","no","white","no","yes","1080","legacy","87","87","C:/Users/ERP Testing Room/Desktop/Joanna/morph21/subject-120.csv","xpyriment","Jazzy James","3.1.4","0","/","space","NA","NA","NA","return","/","569","10030","NA","NA","NA","155001","569","2","legacy","1024","2","48000","-16","AB_m21","120","even","CW_L","RENTER","1379","481147","479564","476597","156389","425358","NA","NA","NA","481140","480061","NA","479063","NA","479056","481140","1387","481497","NA","NA","480147","1379","1379","480539","479056","1379","480147","481497","morph21_Oliver/Morris","80","55239","88","yes","1280","9"
"400","91.0112359551","91.0112359551","629.426966292","629.426966292","black","no","xpyriment","legacy","legacy","0","208","NA","uniform","71501","1000","0.0139858183802","1","undefined","1","0","88","88","88","0","88","88","88","NA","88","88","0","88","NA","88","88","0","88","NA","88","NA","88","0","0","88","88","0","88","88","89","z","12/10/17 12:33:14","The main experiment item","yes","FIN__AB__M21__7%3A10%3A17.osexp","C:\Users\ERP Testing Room\Desktop\Joanna\morph21","no","mono","no","18","no","white","no","yes","1080","legacy","88","88","C:/Users/ERP Testing Room/Desktop/Joanna/morph21/subject-120.csv","xpyriment","Jazzy James","3.1.4","0","z","space","NA","NA","NA","return","z","780","10030","NA","NA","NA","155001","780","2","legacy","1024","2","48000","-16","AB_m21","120","even","FILL_NW","HEND","1379","484264","482680","476597","156389","425358","NA","NA","NA","484257","483177","NA","482180","NA","482170","484257","1387","484664","NA","NA","483264","1379","1379","483655","482170","1379","483264","484664","morph21_Oliver/Morris","81","56019","89","yes","1280","28"
"350","91.1111111111","91.1111111111","629.033333333","629.033333333","black","no","xpyriment","legacy","legacy","0","208","NA","uniform","75020","1000","0.0133297787257","1","undefined","1","0","89","89","89","0","89","89","89","NA","89","89","0","89","NA","89","89","0","89","NA","89","NA","89","0","0","89","89","0","89","89","90","z","12/10/17 12:33:14","The main experiment item","yes","FIN__AB__M21__7%3A10%3A17.osexp","C:\Users\ERP Testing Room\Desktop\Joanna\morph21","no","mono","no","18","no","white","no","yes","1080","legacy","89","89","C:/Users/ERP Testing Room/Desktop/Joanna/morph21/subject-120.csv","xpyriment","Jazzy James","3.1.4","0","z","space","NA","NA","NA","return","z","594","10030","NA","NA","NA","155001","594","2","legacy","1024","2","48000","-16","AB_m21","120","even","FILL_NW","DASP","1379","489007","485914","487498","156389","425358","NA","NA","NA","487495","486411","NA","485414","NA","485409","487495","1387","489357","NA","NA","486507","1379","1379","486898","485409","1379","486507","489357","morph21_Oliver/Morris","82","56613","90","yes","1280","13"
"300","91.2087912088","91.2087912088","629.857142857","629.857142857","black","no","xpyriment","legacy","legacy","0","202","NA","uniform","73537","1000","0.0135985966248","1","undefined","1","0","90","90","90","0","90","90","90","NA","90","90","0","90","NA","90","90","0","90","NA","90","NA","90","0","0","90","90","0","90","90","91","/","12/10/17 12:33:14","The main experiment item","yes","FIN__AB__M21__7%3A10%3A17.osexp","C:\Users\ERP Testing Room\Desktop\Joanna\morph21","no","mono","no","18","no","white","no","yes","1080","legacy","90","90","C:/Users/ERP Testing Room/Desktop/Joanna/morph21/subject-120.csv","xpyriment","Jazzy James","3.1.4","0","/","space","NA","NA","NA","return","/","704","10030","NA","NA","NA","155001","704","2","legacy","1024","2","48000","-16","AB_m21","120","even","CW_L","DOUBTFUL","1379","492123","490523","487498","156389","425358","NA","NA","NA","492121","491020","NA","490023","NA","490015","492121","1387","492423","NA","NA","491132","1379","1379","491523","490015","1379","491132","492423","morph21_Oliver/Morris","83","57317","91","yes","1280","21"
