"ITI","_prepare","acc","accuracy","average_response_time","avg_rt","background","bidi","canvas_backend","clock_backend","color_backend","compensation","cond_trig","condtrigtime","coordinates","coroutines_cycles","coroutines_duration","coroutines_mean_cycle_duration","correct","correct_instructions_1","correct_new_keyboard_response_1","count_AB_m21","count_ITI","count_blank_screen","count_blink_screen","count_block1","count_break1","count_break2","count_break3_1","count_canvas","count_close_port","count_cond_trigger","count_correct_trigger","count_def_chain","count_end_screen","count_fixation_1","count_getting_started","count_inc_counter","count_instructions_1","count_logger","count_logscript","count_new_inline_script","count_new_inline_script_2","count_new_keyboard_response_1","count_open_port","count_reset_counter_prep","count_reset_counter_run","count_reset_counter_run_1","count_response_trigger_trial","count_responsescreen","count_sequence","count_target_present","count_word_trigger","counter","cresp","datetime","description","disable_garbage_collection","experiment_file","experiment_path","font_bold","font_family","font_italic","font_size","font_underline","foreground","form_clicks","fullscreen","height","keyboard_backend","live_row","live_row_block1","logfile","mouse_backend","opensesame_codename","opensesame_version","repeat_cycle","response","response_break1","response_break2","response_break3_1","response_end_screen","response_instructions_1","response_new_keyboard_response_1","response_time","response_time_break1","response_time_break2","response_time_break3_1","response_time_end_screen","response_time_instructions_1","response_time_new_keyboard_response_1","round_decimals","sampler_backend","sound_buf_size","sound_channels","sound_freq","sound_sample_size","start","subject_nr","subject_parity","targ_type","target","time_AB_m21","time_ITI","time_blank_screen","time_blink_screen","time_block1","time_break1","time_break2","time_break3_1","time_canvas","time_close_port","time_cond_trigger","time_correct_trigger","time_def_chain","time_end_screen","time_fixation_1","time_getting_started","time_inc_counter","time_instructions_1","time_logger","time_logscript","time_new_inline_script","time_new_inline_script_2","time_new_keyboard_response_1","time_open_port","time_reset_counter_prep","time_reset_counter_run","time_reset_counter_run_1","time_response_trigger_trial","time_responsescreen","time_sequence","time_target_present","time_word_trigger","title","total_correct","total_response_time","total_responses","uniform_coordinates","width","word_trig"
"250","","0","0","1200","1200","black","no","xpyriment","legacy","legacy","0","202","NA","uniform","NA","NA","NA","0","undefined","0","0","0","0","0","0","0","0","0","NA","0","0","NA","NA","0","0","NA","0","0","0","NA","NA","NA","0","0","0","NA","NA","0","0","0","0","0","1","/","Mon Mar  4 15:41:39 2024","Executes Python code","yes","m21-ba-lexicalDecision.osexp","C:\Users\ekealey\Desktop","no","mono","no","18","no","white","no","yes","1080","legacy","0","0","C:/Users/ekealey/Desktop/subject-240.csv","xpyriment","Lentiform Loewenfeld","3.3.11","0","None","NA","NA","NA","NA","space","None","1200","NA","NA","NA","NA","63284","1200","2","legacy","1024","2","48000","-16","AB_m21","240","even","CW_L","DANCER","1736","69494","67127","NA","65185","NA","NA","NA","NA","NA","67627","NA","NA","NA","66626","NA","66592","1900","69744","NA","NA","NA","67668","1737","1888","NA","NA","68868","68891","66592","67627","67648","morph21_Oliver/Morris","0","1200","1","yes","1920","11"
"300","","0","0","1200","1200","black","no","xpyriment","legacy","legacy","0","206","NA","uniform","NA","NA","NA","0","undefined","0","0","1","1","1","0","1","1","1","NA","0","1","NA","NA","0","1","NA","1","0","1","NA","NA","NA","1","0","0","NA","NA","1","1","1","1","1","2","z","Mon Mar  4 15:41:39 2024","Executes Python code","yes","m21-ba-lexicalDecision.osexp","C:\Users\ekealey\Desktop","no","mono","no","18","no","white","no","yes","1080","legacy","1","1","C:/Users/ekealey/Desktop/subject-240.csv","xpyriment","Lentiform Loewenfeld","3.3.11","0","None","NA","NA","NA","NA","space","None","1200","NA","NA","NA","NA","63284","1200","2","legacy","1024","2","48000","-16","AB_m21","240","even","NW_L_SIMP","LONGNESS","1736","73689","71322","NA","65185","NA","NA","NA","NA","NA","71822","NA","NA","NA","70821","NA","70790","1900","73989","NA","NA","NA","71863","1737","1888","NA","NA","73063","73086","70790","71822","71843","morph21_Oliver/Morris","0","2400","2","yes","1920","17"
"400","","33.333333333333336","33.333333333333336","1191","1191","black","no","xpyriment","legacy","legacy","0","202","NA","uniform","NA","NA","NA","1","undefined","1","0","2","2","2","0","2","2","2","NA","0","2","NA","NA","0","2","NA","2","0","2","NA","NA","NA","2","0","0","NA","NA","2","2","2","2","2","3","/","Mon Mar  4 15:41:39 2024","Executes Python code","yes","m21-ba-lexicalDecision.osexp","C:\Users\ekealey\Desktop","no","mono","no","18","no","white","no","yes","1080","legacy","2","2","C:/Users/ekealey/Desktop/subject-240.csv","xpyriment","Lentiform Loewenfeld","3.3.11","0","/","NA","NA","NA","NA","space","/","1173","NA","NA","NA","NA","63284","1173","2","legacy","1024","2","48000","-16","AB_m21","240","even","CW_L","LOCKER","1736","79407","75557","77900","65185","NA","NA","NA","NA","NA","76057","NA","NA","NA","75057","NA","75027","1900","79807","NA","NA","NA","76098","1737","1888","NA","NA","77271","77296","75027","76057","76078","morph21_Oliver/Morris","1","3573","3","yes","1920","8"
"250","","50","50","1134.5","1134.5","black","no","xpyriment","legacy","legacy","0","207","NA","uniform","NA","NA","NA","1","undefined","1","0","3","3","3","0","3","3","3","NA","0","3","NA","NA","0","3","NA","3","0","3","NA","NA","NA","3","0","0","NA","NA","3","3","3","3","3","4","/","Mon Mar  4 15:41:39 2024","Executes Python code","yes","m21-ba-lexicalDecision.osexp","C:\Users\ekealey\Desktop","no","mono","no","18","no","white","no","yes","1080","legacy","3","3","C:/Users/ekealey/Desktop/subject-240.csv","xpyriment","Lentiform Loewenfeld","3.3.11","0","/","NA","NA","NA","NA","space","/","965","NA","NA","NA","NA","63284","965","2","legacy","1024","2","48000","-16","AB_m21","240","even","FILL_W","TASTE","1736","83532","81397","77900","65185","NA","NA","NA","NA","NA","81898","NA","NA","NA","80895","NA","80865","1900","83782","NA","NA","NA","81938","1737","1888","NA","NA","82904","82928","80865","81898","81918","morph21_Oliver/Morris","2","4538","4","yes","1920","34"
"200","","60","60","1083.8","1083.8","black","no","xpyriment","legacy","legacy","0","208","NA","uniform","NA","NA","NA","1","undefined","1","0","4","4","4","0","4","4","4","NA","0","4","NA","NA","0","4","NA","4","0","4","NA","NA","NA","4","0","0","NA","NA","4","4","4","4","4","5","z","Mon Mar  4 15:41:39 2024","Executes Python code","yes","m21-ba-lexicalDecision.osexp","C:\Users\ekealey\Desktop","no","mono","no","18","no","white","no","yes","1080","legacy","4","4","C:/Users/ekealey/Desktop/subject-240.csv","xpyriment","Lentiform Loewenfeld","3.3.11","0","z","NA","NA","NA","NA","space","z","881","NA","NA","NA","NA","63284","881","2","legacy","1024","2","48000","-16","AB_m21","240","even","FILL_NW","GILN","1736","87372","85321","77900","65185","NA","NA","NA","NA","NA","85821","NA","NA","NA","84821","NA","84791","1900","87572","NA","NA","NA","85862","1737","1888","NA","NA","86744","86767","84791","85821","85842","morph21_Oliver/Morris","3","5419","5","yes","1920","25"
"300","","50","50","1103.1666666666667","1103.1666666666667","black","no","xpyriment","legacy","legacy","0","208","NA","uniform","NA","NA","NA","0","undefined","0","0","5","5","5","0","5","5","5","NA","0","5","NA","NA","0","5","NA","5","0","5","NA","NA","NA","5","0","0","NA","NA","5","5","5","5","5","6","z","Mon Mar  4 15:41:39 2024","Executes Python code","yes","m21-ba-lexicalDecision.osexp","C:\Users\ekealey\Desktop","no","mono","no","18","no","white","no","yes","1080","legacy","5","5","C:/Users/ekealey/Desktop/subject-240.csv","xpyriment","Lentiform Loewenfeld","3.3.11","0","None","NA","NA","NA","NA","space","None","1200","NA","NA","NA","NA","63284","1200","2","legacy","1024","2","48000","-16","AB_m21","240","even","FILL_NW","BAFED","1736","92996","89123","91491","65185","NA","NA","NA","NA","NA","89624","NA","NA","NA","88623","NA","88592","1900","93296","NA","NA","NA","89664","1737","1888","NA","NA","90864","90888","88591","89624","89644","morph21_Oliver/Morris","3","6619","6","yes","1920","1"
"300","","42.857142857142854","42.857142857142854","1117","1117","black","no","xpyriment","legacy","legacy","0","206","NA","uniform","NA","NA","NA","0","undefined","0","0","6","6","6","0","6","6","6","NA","0","6","NA","NA","0","6","NA","6","0","6","NA","NA","NA","6","0","0","NA","NA","6","6","6","6","6","7","z","Mon Mar  4 15:41:39 2024","Executes Python code","yes","m21-ba-lexicalDecision.osexp","C:\Users\ekealey\Desktop","no","mono","no","18","no","white","no","yes","1080","legacy","6","6","C:/Users/ekealey/Desktop/subject-240.csv","xpyriment","Lentiform Loewenfeld","3.3.11","0","None","NA","NA","NA","NA","space","None","1200","NA","NA","NA","NA","63284","1200","2","legacy","1024","2","48000","-16","AB_m21","240","even","NW_L_SIMP","ELBOWISM","1736","97238","94867","91491","65185","NA","NA","NA","NA","NA","95369","NA","NA","NA","94366","NA","94334","1900","97538","NA","NA","NA","95409","1737","1888","NA","NA","96609","96634","94334","95369","95389","morph21_Oliver/Morris","3","7819","7","yes","1920","10"
"250","","37.5","37.5","1127.375","1127.375","black","no","xpyriment","legacy","legacy","0","203","NA","uniform","NA","NA","NA","0","undefined","0","0","7","7","7","0","7","7","7","NA","0","7","NA","NA","0","7","NA","7","0","7","NA","NA","NA","7","0","0","NA","NA","7","7","7","7","7","8","z","Mon Mar  4 15:41:39 2024","Executes Python code","yes","m21-ba-lexicalDecision.osexp","C:\Users\ekealey\Desktop","no","mono","no","18","no","white","no","yes","1080","legacy","7","7","C:/Users/ekealey/Desktop/subject-240.csv","xpyriment","Lentiform Loewenfeld","3.3.11","0","None","NA","NA","NA","NA","space","None","1200","NA","NA","NA","NA","63284","1200","2","legacy","1024","2","48000","-16","AB_m21","240","even","NW_S_COMP","BRANCHEL","1736","101459","99089","91491","65185","NA","NA","NA","NA","NA","99589","NA","NA","NA","98588","NA","98554","1900","101709","NA","NA","NA","99630","1737","1888","NA","NA","100830","100855","98554","99589","99610","morph21_Oliver/Morris","3","9019","8","yes","1920","16"
"350","","44.44444444444444","44.44444444444444","1123.4444444444443","1123.4444444444443","black","no","xpyriment","legacy","legacy","0","202","NA","uniform","NA","NA","NA","1","undefined","1","0","8","8","8","0","8","8","8","NA","0","8","NA","NA","0","8","NA","8","0","8","NA","NA","NA","8","0","0","NA","NA","8","8","8","8","8","9","/","Mon Mar  4 15:41:39 2024","Executes Python code","yes","m21-ba-lexicalDecision.osexp","C:\Users\ekealey\Desktop","no","mono","no","18","no","white","no","yes","1080","legacy","8","8","C:/Users/ekealey/Desktop/subject-240.csv","xpyriment","Lentiform Loewenfeld","3.3.11","0","/","NA","NA","NA","NA","space","/","1092","NA","NA","NA","NA","63284","1092","2","legacy","1024","2","48000","-16","AB_m21","240","even","CW_L","FEEDER","1736","107046","103278","105541","65185","NA","NA","NA","NA","NA","103779","NA","NA","NA","102777","NA","102751","1900","107397","NA","NA","NA","103819","1737","1888","NA","NA","104911","104935","102751","103779","103799","morph21_Oliver/Morris","4","10111","9","yes","1920","14"
"350","","40","40","1131.1","1131.1","black","no","xpyriment","legacy","legacy","0","207","NA","uniform","NA","NA","NA","0","undefined","0","0","9","9","9","0","9","9","9","NA","0","9","NA","NA","0","9","NA","9","0","9","NA","NA","NA","9","0","0","NA","NA","9","9","9","9","9","10","/","Mon Mar  4 15:41:39 2024","Executes Python code","yes","m21-ba-lexicalDecision.osexp","C:\Users\ekealey\Desktop","no","mono","no","18","no","white","no","yes","1080","legacy","9","9","C:/Users/ekealey/Desktop/subject-240.csv","xpyriment","Lentiform Loewenfeld","3.3.11","0","None","NA","NA","NA","NA","space","None","1200","NA","NA","NA","NA","63284","1200","2","legacy","1024","2","48000","-16","AB_m21","240","even","FILL_W","GLOOM","1736","111356","108989","105541","65185","NA","NA","NA","NA","NA","109489","NA","NA","NA","108489","NA","108458","1900","111706","NA","NA","NA","109530","1737","1888","NA","NA","110730","110753","108457","109489","109510","morph21_Oliver/Morris","4","11311","10","yes","1920","14"
"400","","36.36363636363637","36.36363636363637","1137.3636363636363","1137.3636363636363","black","no","xpyriment","legacy","legacy","0","208","NA","uniform","NA","NA","NA","0","undefined","0","0","10","10","10","0","10","10","10","NA","0","10","NA","NA","0","10","NA","10","0","10","NA","NA","NA","10","0","0","NA","NA","10","10","10","10","10","11","z","Mon Mar  4 15:41:39 2024","Executes Python code","yes","m21-ba-lexicalDecision.osexp","C:\Users\ekealey\Desktop","no","mono","no","18","no","white","no","yes","1080","legacy","10","10","C:/Users/ekealey/Desktop/subject-240.csv","xpyriment","Lentiform Loewenfeld","3.3.11","0","None","NA","NA","NA","NA","space","None","1200","NA","NA","NA","NA","63284","1200","2","legacy","1024","2","48000","-16","AB_m21","240","even","FILL_NW","ULNS","1736","115639","113269","105541","65185","NA","NA","NA","NA","NA","113770","NA","NA","NA","112768","NA","112744","1900","116040","NA","NA","NA","113811","1737","1888","NA","NA","115011","115035","112743","113770","113791","morph21_Oliver/Morris","4","12511","11","yes","1920","45"
"350","","33.333333333333336","33.333333333333336","1142.5833333333333","1142.5833333333333","black","no","xpyriment","legacy","legacy","0","206","NA","uniform","NA","NA","NA","0","undefined","0","0","11","11","11","0","11","11","11","NA","0","11","NA","NA","0","11","NA","11","0","11","NA","NA","NA","11","0","0","NA","NA","11","11","11","11","11","12","z","Mon Mar  4 15:41:39 2024","Executes Python code","yes","m21-ba-lexicalDecision.osexp","C:\Users\ekealey\Desktop","no","mono","no","18","no","white","no","yes","1080","legacy","11","11","C:/Users/ekealey/Desktop/subject-240.csv","xpyriment","Lentiform Loewenfeld","3.3.11","0","None","NA","NA","NA","NA","space","None","1200","NA","NA","NA","NA","63284","1200","2","legacy","1024","2","48000","-16","AB_m21","240","even","NW_L_SIMP","NUTLY","1736","121483","117608","119978","65185","NA","NA","NA","NA","NA","118110","NA","NA","NA","117106","NA","117080","1900","121833","NA","NA","NA","118150","1737","1888","NA","NA","119350","119374","117080","118110","118130","morph21_Oliver/Morris","4","13711","12","yes","1920","14"
"350","","30.76923076923077","30.76923076923077","1147","1147","black","no","xpyriment","legacy","legacy","0","207","NA","uniform","NA","NA","NA","0","undefined","0","0","12","12","12","0","12","12","12","NA","0","12","NA","NA","0","12","NA","12","0","12","NA","NA","NA","12","0","0","NA","NA","12","12","12","12","12","13","/","Mon Mar  4 15:41:39 2024","Executes Python code","yes","m21-ba-lexicalDecision.osexp","C:\Users\ekealey\Desktop","no","mono","no","18","no","white","no","yes","1080","legacy","12","12","C:/Users/ekealey/Desktop/subject-240.csv","xpyriment","Lentiform Loewenfeld","3.3.11","0","None","NA","NA","NA","NA","space","None","1200","NA","NA","NA","NA","63284","1200","2","legacy","1024","2","48000","-16","AB_m21","240","even","FILL_W","WEIRD","1736","125785","123419","119978","65185","NA","NA","NA","NA","NA","123919","NA","NA","NA","122919","NA","122886","1900","126135","NA","NA","NA","123959","1737","1888","NA","NA","125159","125182","122886","123919","123939","morph21_Oliver/Morris","4","14911","13","yes","1920","2"
"200","","35.714285714285715","35.714285714285715","1142.2142857142858","1142.2142857142858","black","no","xpyriment","legacy","legacy","0","208","NA","uniform","NA","NA","NA","1","undefined","1","0","13","13","13","0","13","13","13","NA","0","13","NA","NA","0","13","NA","13","0","13","NA","NA","NA","13","0","0","NA","NA","13","13","13","13","13","14","z","Mon Mar  4 15:41:39 2024","Executes Python code","yes","m21-ba-lexicalDecision.osexp","C:\Users\ekealey\Desktop","no","mono","no","18","no","white","no","yes","1080","legacy","13","13","C:/Users/ekealey/Desktop/subject-240.csv","xpyriment","Lentiform Loewenfeld","3.3.11","0","z","NA","NA","NA","NA","space","z","1080","NA","NA","NA","NA","63284","1080","2","legacy","1024","2","48000","-16","AB_m21","240","even","FILL_NW","SMADE","1736","129963","127715","119978","65185","NA","NA","NA","NA","NA","128215","NA","NA","NA","127215","NA","127188","1900","130163","NA","NA","NA","128255","1737","1888","NA","NA","129336","129359","127188","128215","128235","morph21_Oliver/Morris","5","15991","14","yes","1920","42"
"200","","33.333333333333336","33.333333333333336","1146.0666666666666","1146.0666666666666","black","no","xpyriment","legacy","legacy","0","202","NA","uniform","NA","NA","NA","0","undefined","0","0","14","14","14","0","14","14","14","NA","0","14","NA","NA","0","14","NA","14","0","14","NA","NA","NA","14","0","0","NA","NA","14","14","14","14","14","15","/","Mon Mar  4 15:41:39 2024","Executes Python code","yes","m21-ba-lexicalDecision.osexp","C:\Users\ekealey\Desktop","no","mono","no","18","no","white","no","yes","1080","legacy","14","14","C:/Users/ekealey/Desktop/subject-240.csv","xpyriment","Lentiform Loewenfeld","3.3.11","0","None","NA","NA","NA","NA","space","None","1200","NA","NA","NA","NA","63284","1200","2","legacy","1024","2","48000","-16","AB_m21","240","even","CW_L","SAILOR","1736","135611","131737","134107","65185","NA","NA","NA","NA","NA","132237","NA","NA","NA","131235","NA","131210","1900","135811","NA","NA","NA","132278","1737","1888","NA","NA","133478","133503","131210","132237","132258","morph21_Oliver/Morris","5","17191","15","yes","1920","43"
"200","","31.25","31.25","1149.4375","1149.4375","black","no","xpyriment","legacy","legacy","0","202","NA","uniform","NA","NA","NA","0","undefined","0","0","15","15","15","0","15","15","15","NA","0","15","NA","NA","0","15","NA","15","0","15","NA","NA","NA","15","0","0","NA","NA","15","15","15","15","15","16","/","Mon Mar  4 15:41:39 2024","Executes Python code","yes","m21-ba-lexicalDecision.osexp","C:\Users\ekealey\Desktop","no","mono","no","18","no","white","no","yes","1080","legacy","15","15","C:/Users/ekealey/Desktop/subject-240.csv","xpyriment","Lentiform Loewenfeld","3.3.11","0","None","NA","NA","NA","NA","space","None","1200","NA","NA","NA","NA","63284","1200","2","legacy","1024","2","48000","-16","AB_m21","240","even","CW_L","COLLECTOR","1736","139756","137388","134107","65185","NA","NA","NA","NA","NA","137888","NA","NA","NA","136888","NA","136859","1900","139956","NA","NA","NA","137928","1737","1888","NA","NA","139128","139152","136859","137888","137908","morph21_Oliver/Morris","5","18391","16","yes","1920","46"
"250","","29.41176470588235","29.41176470588235","1152.4117647058824","1152.4117647058824","black","no","xpyriment","legacy","legacy","0","207","NA","uniform","NA","NA","NA","0","undefined","0","0","16","16","16","0","16","16","16","NA","0","16","NA","NA","0","16","NA","16","0","16","NA","NA","NA","16","0","0","NA","NA","16","16","16","16","16","17","/","Mon Mar  4 15:41:39 2024","Executes Python code","yes","m21-ba-lexicalDecision.osexp","C:\Users\ekealey\Desktop","no","mono","no","18","no","white","no","yes","1080","legacy","16","16","C:/Users/ekealey/Desktop/subject-240.csv","xpyriment","Lentiform Loewenfeld","3.3.11","0","None","NA","NA","NA","NA","space","None","1200","NA","NA","NA","NA","63284","1200","2","legacy","1024","2","48000","-16","AB_m21","240","even","FILL_W","SOUGHT","1736","143882","141514","134107","65185","NA","NA","NA","NA","NA","142014","NA","NA","NA","141013","NA","140986","1900","144132","NA","NA","NA","142055","1737","1888","NA","NA","143255","143279","140986","142014","142035","morph21_Oliver/Morris","5","19591","17","yes","1920","40"
"300","","33.333333333333336","33.333333333333336","1149.4444444444443","1149.4444444444443","black","no","xpyriment","legacy","legacy","0","204","NA","uniform","NA","NA","NA","1","undefined","1","0","17","17","17","0","17","17","17","NA","0","17","NA","NA","0","17","NA","17","0","17","NA","NA","NA","17","0","0","NA","NA","17","17","17","17","17","18","z","Mon Mar  4 15:41:39 2024","Executes Python code","yes","m21-ba-lexicalDecision.osexp","C:\Users\ekealey\Desktop","no","mono","no","18","no","white","no","yes","1080","legacy","17","17","C:/Users/ekealey/Desktop/subject-240.csv","xpyriment","Lentiform Loewenfeld","3.3.11","0","z","NA","NA","NA","NA","space","z","1099","NA","NA","NA","NA","63284","1099","2","legacy","1024","2","48000","-16","AB_m21","240","even","NW_L_COMP","BINDIG","1736","149477","145702","147972","65185","NA","NA","NA","NA","NA","146204","NA","NA","NA","145200","NA","145175","1900","149777","NA","NA","NA","146244","1737","1888","NA","NA","147343","147367","145175","146204","146224","morph21_Oliver/Morris","6","20690","18","yes","1920","22"
"350","","31.57894736842105","31.57894736842105","1152.1052631578948","1152.1052631578948","black","no","xpyriment","legacy","legacy","0","202","NA","uniform","NA","NA","NA","0","undefined","0","0","18","18","18","0","18","18","18","NA","0","18","NA","NA","0","18","NA","18","0","18","NA","NA","NA","18","0","0","NA","NA","18","18","18","18","18","19","/","Mon Mar  4 15:41:39 2024","Executes Python code","yes","m21-ba-lexicalDecision.osexp","C:\Users\ekealey\Desktop","no","mono","no","18","no","white","no","yes","1080","legacy","18","18","C:/Users/ekealey/Desktop/subject-240.csv","xpyriment","Lentiform Loewenfeld","3.3.11","0","None","NA","NA","NA","NA","space","None","1200","NA","NA","NA","NA","63284","1200","2","legacy","1024","2","48000","-16","AB_m21","240","even","CW_L","BARKER","1736","153739","151370","147972","65185","NA","NA","NA","NA","NA","151871","NA","NA","NA","150870","NA","150844","1900","154090","NA","NA","NA","151912","1737","1888","NA","NA","153112","153135","150844","151871","151892","morph21_Oliver/Morris","6","21890","19","yes","1920","2"
"300","","35","35","1154.1","1154.1","black","no","xpyriment","legacy","legacy","0","201","NA","uniform","NA","NA","NA","1","undefined","1","0","19","19","19","0","19","19","19","NA","0","19","NA","NA","0","19","NA","19","0","19","NA","NA","NA","19","0","0","NA","NA","19","19","19","19","19","20","/","Mon Mar  4 15:41:39 2024","Executes Python code","yes","m21-ba-lexicalDecision.osexp","C:\Users\ekealey\Desktop","no","mono","no","18","no","white","no","yes","1080","legacy","19","19","C:/Users/ekealey/Desktop/subject-240.csv","xpyriment","Lentiform Loewenfeld","3.3.11","0","/","NA","NA","NA","NA","space","/","1192","NA","NA","NA","NA","63284","1192","2","legacy","1024","2","48000","-16","AB_m21","240","even","CW_S","INSISTENT","1736","158028","155667","147972","65185","NA","NA","NA","NA","NA","156167","NA","NA","NA","155166","NA","155141","1900","158328","NA","NA","NA","156207","1737","1888","NA","NA","157400","157423","155141","156167","156187","morph21_Oliver/Morris","7","23082","20","yes","1920","9"
"250","","38.095238095238095","38.095238095238095","1147.2380952380952","1147.2380952380952","black","no","xpyriment","legacy","legacy","0","202","NA","uniform","NA","NA","NA","1","undefined","1","0","20","20","20","0","20","20","20","NA","0","20","NA","NA","0","20","NA","20","0","20","NA","NA","NA","20","0","0","NA","NA","20","20","20","20","20","21","/","Mon Mar  4 15:41:39 2024","Executes Python code","yes","m21-ba-lexicalDecision.osexp","C:\Users\ekealey\Desktop","no","mono","no","18","no","white","no","yes","1080","legacy","20","20","C:/Users/ekealey/Desktop/subject-240.csv","xpyriment","Lentiform Loewenfeld","3.3.11","0","/","NA","NA","NA","NA","space","/","1010","NA","NA","NA","NA","63284","1010","2","legacy","1024","2","48000","-16","AB_m21","240","even","CW_L","DREAMER","1736","163565","159880","162060","65185","NA","NA","NA","NA","NA","160380","NA","NA","NA","159380","NA","159353","1900","163815","NA","NA","NA","160421","1737","1888","NA","NA","161432","161456","159353","160380","160401","morph21_Oliver/Morris","8","24092","21","yes","1920","12"
"200","","36.36363636363637","36.36363636363637","1149.6363636363637","1149.6363636363637","black","no","xpyriment","legacy","legacy","0","201","NA","uniform","NA","NA","NA","0","undefined","0","0","21","21","21","0","21","21","21","NA","0","21","NA","NA","0","21","NA","21","0","21","NA","NA","NA","21","0","0","NA","NA","21","21","21","21","21","22","/","Mon Mar  4 15:41:39 2024","Executes Python code","yes","m21-ba-lexicalDecision.osexp","C:\Users\ekealey\Desktop","no","mono","no","18","no","white","no","yes","1080","legacy","21","21","C:/Users/ekealey/Desktop/subject-240.csv","xpyriment","Lentiform Loewenfeld","3.3.11","0","None","NA","NA","NA","NA","space","None","1200","NA","NA","NA","NA","63284","1200","2","legacy","1024","2","48000","-16","AB_m21","240","even","CW_S","ANGELIC","1736","167746","165377","162060","65185","NA","NA","NA","NA","NA","165878","NA","NA","NA","164876","NA","164849","1900","167946","NA","NA","NA","165919","1737","1888","NA","NA","167119","167142","164849","165878","165899","morph21_Oliver/Morris","8","25292","22","yes","1920","25"
"300","","34.78260869565217","34.78260869565217","1151.8260869565217","1151.8260869565217","black","no","xpyriment","legacy","legacy","0","204","NA","uniform","NA","NA","NA","0","undefined","0","0","22","22","22","0","22","22","22","NA","0","22","NA","NA","0","22","NA","22","0","22","NA","NA","NA","22","0","0","NA","NA","22","22","22","22","22","23","z","Mon Mar  4 15:41:39 2024","Executes Python code","yes","m21-ba-lexicalDecision.osexp","C:\Users\ekealey\Desktop","no","mono","no","18","no","white","no","yes","1080","legacy","22","22","C:/Users/ekealey/Desktop/subject-240.csv","xpyriment","Lentiform Loewenfeld","3.3.11","0","None","NA","NA","NA","NA","space","None","1200","NA","NA","NA","NA","63284","1200","2","legacy","1024","2","48000","-16","AB_m21","240","even","NW_L_COMP","ILLILT","1736","171862","169494","162060","65185","NA","NA","NA","NA","NA","169994","NA","NA","NA","168994","NA","168966","1900","172162","NA","NA","NA","170035","1737","1888","NA","NA","171235","171258","168966","169994","170015","morph21_Oliver/Morris","8","26492","23","yes","1920","9"
"400","","33.333333333333336","33.333333333333336","1153.8333333333333","1153.8333333333333","black","no","xpyriment","legacy","legacy","0","204","NA","uniform","NA","NA","NA","0","undefined","0","0","23","23","23","0","23","23","23","NA","0","23","NA","NA","0","23","NA","23","0","23","NA","NA","NA","23","0","0","NA","NA","23","23","23","23","23","24","z","Mon Mar  4 15:41:39 2024","Executes Python code","yes","m21-ba-lexicalDecision.osexp","C:\Users\ekealey\Desktop","no","mono","no","18","no","white","no","yes","1080","legacy","23","23","C:/Users/ekealey/Desktop/subject-240.csv","xpyriment","Lentiform Loewenfeld","3.3.11","0","None","NA","NA","NA","NA","space","None","1200","NA","NA","NA","NA","63284","1200","2","legacy","1024","2","48000","-16","AB_m21","240","even","NW_L_COMP","RIPENGE","1736","177611","173734","176105","65185","NA","NA","NA","NA","NA","174236","NA","NA","NA","173233","NA","173208","1900","178011","NA","NA","NA","174276","1737","1888","NA","NA","175476","175500","173208","174235","174256","morph21_Oliver/Morris","8","27692","24","yes","1920","4"
"200","","36","36","1154.72","1154.72","black","no","xpyriment","legacy","legacy","0","203","NA","uniform","NA","NA","NA","1","undefined","1","0","24","24","24","0","24","24","24","NA","0","24","NA","NA","0","24","NA","24","0","24","NA","NA","NA","24","0","0","NA","NA","24","24","24","24","24","25","z","Mon Mar  4 15:41:39 2024","Executes Python code","yes","m21-ba-lexicalDecision.osexp","C:\Users\ekealey\Desktop","no","mono","no","18","no","white","no","yes","1080","legacy","24","24","C:/Users/ekealey/Desktop/subject-240.csv","xpyriment","Lentiform Loewenfeld","3.3.11","0","z","NA","NA","NA","NA","space","z","1176","NA","NA","NA","NA","63284","1176","2","legacy","1024","2","48000","-16","AB_m21","240","even","NW_S_COMP","ELMILT","1736","181941","179594","176105","65185","NA","NA","NA","NA","NA","180095","NA","NA","NA","179094","NA","179063","1900","182141","NA","NA","NA","180135","1737","1888","NA","NA","181311","181336","179063","180095","180115","morph21_Oliver/Morris","9","28868","25","yes","1920","10"
"400","","34.61538461538461","34.61538461538461","1156.4615384615386","1156.4615384615386","black","no","xpyriment","legacy","legacy","0","202","NA","uniform","NA","NA","NA","0","undefined","0","0","25","25","25","0","25","25","25","NA","0","25","NA","NA","0","25","NA","25","0","25","NA","NA","NA","25","0","0","NA","NA","25","25","25","25","25","26","/","Mon Mar  4 15:41:39 2024","Executes Python code","yes","m21-ba-lexicalDecision.osexp","C:\Users\ekealey\Desktop","no","mono","no","18","no","white","no","yes","1080","legacy","25","25","C:/Users/ekealey/Desktop/subject-240.csv","xpyriment","Lentiform Loewenfeld","3.3.11","0","None","NA","NA","NA","NA","space","None","1200","NA","NA","NA","NA","63284","1200","2","legacy","1024","2","48000","-16","AB_m21","240","even","CW_L","CONDUCTOR","1736","186076","183705","176105","65185","NA","NA","NA","NA","NA","184206","NA","NA","NA","183203","NA","183178","1900","186476","NA","NA","NA","184247","1737","1888","NA","NA","185447","185472","183177","184206","184227","morph21_Oliver/Morris","9","30068","26","yes","1920","44"
"350","","37.03703703703704","37.03703703703704","1153.5555555555557","1153.5555555555557","black","no","xpyriment","legacy","legacy","0","201","NA","uniform","NA","NA","NA","1","undefined","1","0","26","26","26","0","26","26","26","NA","0","26","NA","NA","0","26","NA","26","0","26","NA","NA","NA","26","0","0","NA","NA","26","26","26","26","26","27","/","Mon Mar  4 15:41:39 2024","Executes Python code","yes","m21-ba-lexicalDecision.osexp","C:\Users\ekealey\Desktop","no","mono","no","18","no","white","no","yes","1080","legacy","26","26","C:/Users/ekealey/Desktop/subject-240.csv","xpyriment","Lentiform Loewenfeld","3.3.11","0","/","NA","NA","NA","NA","space","/","1078","NA","NA","NA","NA","63284","1078","2","legacy","1024","2","48000","-16","AB_m21","240","even","CW_S","BOSSY","1736","191787","188034","190283","65185","NA","NA","NA","NA","NA","188536","NA","NA","NA","187532","NA","187507","1900","192137","NA","NA","NA","188576","1737","1888","NA","NA","189655","189680","187507","188535","188556","morph21_Oliver/Morris","10","31146","27","yes","1920","49"
"350","","35.714285714285715","35.714285714285715","1155.2142857142858","1155.2142857142858","black","no","xpyriment","legacy","legacy","0","203","NA","uniform","NA","NA","NA","0","undefined","0","0","27","27","27","0","27","27","27","NA","0","27","NA","NA","0","27","NA","27","0","27","NA","NA","NA","27","0","0","NA","NA","27","27","27","27","27","28","z","Mon Mar  4 15:41:39 2024","Executes Python code","yes","m21-ba-lexicalDecision.osexp","C:\Users\ekealey\Desktop","no","mono","no","18","no","white","no","yes","1080","legacy","27","27","C:/Users/ekealey/Desktop/subject-240.csv","xpyriment","Lentiform Loewenfeld","3.3.11","0","None","NA","NA","NA","NA","space","None","1200","NA","NA","NA","NA","63284","1200","2","legacy","1024","2","48000","-16","AB_m21","240","even","NW_S_COMP","HUMIDOES","1736","196081","193714","190283","65185","NA","NA","NA","NA","NA","194215","NA","NA","NA","193213","NA","193186","1900","196431","NA","NA","NA","194255","1737","1888","NA","NA","195455","195478","193186","194215","194235","morph21_Oliver/Morris","10","32346","28","yes","1920","25"
"300","","34.48275862068966","34.48275862068966","1156.7586206896551","1156.7586206896551","black","no","xpyriment","legacy","legacy","0","206","NA","uniform","NA","NA","NA","0","undefined","0","0","28","28","28","0","28","28","28","NA","0","28","NA","NA","0","28","NA","28","0","28","NA","NA","NA","28","0","0","NA","NA","28","28","28","28","28","29","z","Mon Mar  4 15:41:39 2024","Executes Python code","yes","m21-ba-lexicalDecision.osexp","C:\Users\ekealey\Desktop","no","mono","no","18","no","white","no","yes","1080","legacy","28","28","C:/Users/ekealey/Desktop/subject-240.csv","xpyriment","Lentiform Loewenfeld","3.3.11","0","None","NA","NA","NA","NA","space","None","1200","NA","NA","NA","NA","63284","1200","2","legacy","1024","2","48000","-16","AB_m21","240","even","NW_L_SIMP","EARIST","1736","200370","197999","190283","65185","NA","NA","NA","NA","NA","198500","NA","NA","NA","197497","NA","197472","1900","200671","NA","NA","NA","198541","1737","1888","NA","NA","199741","199766","197472","198500","198521","morph21_Oliver/Morris","10","33546","29","yes","1920","12"
"400","","33.333333333333336","33.333333333333336","1158.2333333333333","1158.2333333333333","black","no","xpyriment","legacy","legacy","0","204","NA","uniform","NA","NA","NA","0","undefined","0","0","29","29","29","0","29","29","29","NA","0","29","NA","NA","0","29","NA","29","0","29","NA","NA","NA","29","0","0","NA","NA","29","29","29","29","29","30","z","Mon Mar  4 15:41:39 2024","Executes Python code","yes","m21-ba-lexicalDecision.osexp","C:\Users\ekealey\Desktop","no","mono","no","18","no","white","no","yes","1080","legacy","29","29","C:/Users/ekealey/Desktop/subject-240.csv","xpyriment","Lentiform Loewenfeld","3.3.11","0","None","NA","NA","NA","NA","space","None","1201","NA","NA","NA","NA","63284","1201","2","legacy","1024","2","48000","-16","AB_m21","240","even","NW_L_COMP","ANGELITH","1736","206117","202241","204612","65185","NA","NA","NA","NA","NA","202742","NA","NA","NA","201740","NA","201712","1900","206517","NA","NA","NA","202782","1737","1888","NA","NA","203983","204008","201712","202742","202762","morph21_Oliver/Morris","10","34747","30","yes","1920","7"
"400","","35.483870967741936","35.483870967741936","1149.8709677419354","1149.8709677419354","black","no","xpyriment","legacy","legacy","0","201","NA","uniform","NA","NA","NA","1","undefined","1","0","30","30","30","0","30","30","30","NA","0","30","NA","NA","0","30","NA","30","0","30","NA","NA","NA","30","0","0","NA","NA","30","30","30","30","30","31","/","Mon Mar  4 15:41:39 2024","Executes Python code","yes","m21-ba-lexicalDecision.osexp","C:\Users\ekealey\Desktop","no","mono","no","18","no","white","no","yes","1080","legacy","30","30","C:/Users/ekealey/Desktop/subject-240.csv","xpyriment","Lentiform Loewenfeld","3.3.11","0","/","NA","NA","NA","NA","space","/","899","NA","NA","NA","NA","63284","899","2","legacy","1024","2","48000","-16","AB_m21","240","even","CW_S","EFFORTLESS","1736","210154","208087","204612","65185","NA","NA","NA","NA","NA","208587","NA","NA","NA","207587","NA","207556","1900","210554","NA","NA","NA","208627","1737","1888","NA","NA","209527","209551","207556","208587","208607","morph21_Oliver/Morris","11","35646","31","yes","1920","30"
"400","","37.5","37.5","1146.375","1146.375","black","no","xpyriment","legacy","legacy","0","208","NA","uniform","NA","NA","NA","1","undefined","1","0","31","31","31","0","31","31","31","NA","0","31","NA","NA","0","31","NA","31","0","31","NA","NA","NA","31","0","0","NA","NA","31","31","31","31","31","32","z","Mon Mar  4 15:41:39 2024","Executes Python code","yes","m21-ba-lexicalDecision.osexp","C:\Users\ekealey\Desktop","no","mono","no","18","no","white","no","yes","1080","legacy","31","31","C:/Users/ekealey/Desktop/subject-240.csv","xpyriment","Lentiform Loewenfeld","3.3.11","0","z","NA","NA","NA","NA","space","z","1038","NA","NA","NA","NA","63284","1038","2","legacy","1024","2","48000","-16","AB_m21","240","even","FILL_NW","DROES","1736","214320","212115","204612","65185","NA","NA","NA","NA","NA","212616","NA","NA","NA","211614","NA","211586","1900","214721","NA","NA","NA","212656","1737","1888","NA","NA","213695","213718","211586","212616","212636","morph21_Oliver/Morris","12","36684","32","yes","1920","17"
"250","","39.39393939393939","39.39393939393939","1143.6363636363637","1143.6363636363637","black","no","xpyriment","legacy","legacy","0","207","NA","uniform","NA","NA","NA","1","undefined","1","0","32","32","32","0","32","32","32","NA","0","32","NA","NA","0","32","NA","32","0","32","NA","NA","NA","32","0","0","NA","NA","32","32","32","32","32","33","/","Mon Mar  4 15:41:39 2024","Executes Python code","yes","m21-ba-lexicalDecision.osexp","C:\Users\ekealey\Desktop","no","mono","no","18","no","white","no","yes","1080","legacy","32","32","C:/Users/ekealey/Desktop/subject-240.csv","xpyriment","Lentiform Loewenfeld","3.3.11","0","/","NA","NA","NA","NA","space","/","1056","NA","NA","NA","NA","63284","1056","2","legacy","1024","2","48000","-16","AB_m21","240","even","FILL_W","FIERCE","1736","220059","216330","218554","65185","NA","NA","NA","NA","NA","216830","NA","NA","NA","215828","NA","215801","1900","220309","NA","NA","NA","216870","1737","1888","NA","NA","217927","217950","215801","216830","216850","morph21_Oliver/Morris","13","37740","33","yes","1920","24"
"300","","41.1764705882353","41.1764705882353","1133.0588235294117","1133.0588235294117","black","no","xpyriment","legacy","legacy","0","208","NA","uniform","NA","NA","NA","1","undefined","1","0","33","33","33","0","33","33","33","NA","0","33","NA","NA","0","33","NA","33","0","33","NA","NA","NA","33","0","0","NA","NA","33","33","33","33","33","34","z","Mon Mar  4 15:41:39 2024","Executes Python code","yes","m21-ba-lexicalDecision.osexp","C:\Users\ekealey\Desktop","no","mono","no","18","no","white","no","yes","1080","legacy","33","33","C:/Users/ekealey/Desktop/subject-240.csv","xpyriment","Lentiform Loewenfeld","3.3.11","0","z","NA","NA","NA","NA","space","z","784","NA","NA","NA","NA","63284","784","2","legacy","1024","2","48000","-16","AB_m21","240","even","FILL_NW","VOOFS","1736","223844","221889","218554","65185","NA","NA","NA","NA","NA","222389","NA","NA","NA","221389","NA","221359","1900","224144","NA","NA","NA","222431","1737","1888","NA","NA","223215","223241","221359","222389","222410","morph21_Oliver/Morris","14","38524","34","yes","1920","48"
"350","","42.857142857142854","42.857142857142854","1130.2","1130.2","black","no","xpyriment","legacy","legacy","0","201","NA","uniform","NA","NA","NA","1","undefined","1","0","34","34","34","0","34","34","34","NA","0","34","NA","NA","0","34","NA","34","0","34","NA","NA","NA","34","0","0","NA","NA","34","34","34","34","34","35","/","Mon Mar  4 15:41:39 2024","Executes Python code","yes","m21-ba-lexicalDecision.osexp","C:\Users\ekealey\Desktop","no","mono","no","18","no","white","no","yes","1080","legacy","34","34","C:/Users/ekealey/Desktop/subject-240.csv","xpyriment","Lentiform Loewenfeld","3.3.11","0","/","NA","NA","NA","NA","space","/","1033","NA","NA","NA","NA","63284","1033","2","legacy","1024","2","48000","-16","AB_m21","240","even","CW_S","CHILLY","1736","227915","225711","218554","65185","NA","NA","NA","NA","NA","226212","NA","NA","NA","225210","NA","225184","1900","228265","NA","NA","NA","226253","1737","1888","NA","NA","227287","227312","225184","226212","226233","morph21_Oliver/Morris","15","39557","35","yes","1920","48"
"300","","41.666666666666664","41.666666666666664","1132.138888888889","1132.138888888889","black","no","xpyriment","legacy","legacy","0","204","NA","uniform","NA","NA","NA","0","undefined","0","0","35","35","35","0","35","35","35","NA","0","35","NA","NA","0","35","NA","35","0","35","NA","NA","NA","35","0","0","NA","NA","35","35","35","35","35","36","z","Mon Mar  4 15:41:39 2024","Executes Python code","yes","m21-ba-lexicalDecision.osexp","C:\Users\ekealey\Desktop","no","mono","no","18","no","white","no","yes","1080","legacy","35","35","C:/Users/ekealey/Desktop/subject-240.csv","xpyriment","Lentiform Loewenfeld","3.3.11","0","None","NA","NA","NA","NA","space","None","1200","NA","NA","NA","NA","63284","1200","2","legacy","1024","2","48000","-16","AB_m21","240","even","NW_L_COMP","ADDMANT","1736","233684","229807","232179","65185","NA","NA","NA","NA","NA","230308","NA","NA","NA","229306","NA","229280","1900","233984","NA","NA","NA","230349","1737","1888","NA","NA","231549","231576","229280","230308","230329","morph21_Oliver/Morris","15","40757","36","yes","1920","13"
"300","","43.24324324324324","43.24324324324324","1127.972972972973","1127.972972972973","black","no","xpyriment","legacy","legacy","0","202","NA","uniform","NA","NA","NA","1","undefined","1","0","36","36","36","0","36","36","36","NA","0","36","NA","NA","0","36","NA","36","0","36","NA","NA","NA","36","0","0","NA","NA","36","36","36","36","36","37","/","Mon Mar  4 15:41:39 2024","Executes Python code","yes","m21-ba-lexicalDecision.osexp","C:\Users\ekealey\Desktop","no","mono","no","18","no","white","no","yes","1080","legacy","36","36","C:/Users/ekealey/Desktop/subject-240.csv","xpyriment","Lentiform Loewenfeld","3.3.11","0","/","NA","NA","NA","NA","space","/","978","NA","NA","NA","NA","63284","978","2","legacy","1024","2","48000","-16","AB_m21","240","even","CW_L","MADNESS","1736","237709","235560","232179","65185","NA","NA","NA","NA","NA","236060","NA","NA","NA","235060","NA","235028","1900","238009","NA","NA","NA","236100","1737","1888","NA","NA","237079","237105","235028","236060","236080","morph21_Oliver/Morris","16","41735","37","yes","1920","41"
"300","","42.10526315789474","42.10526315789474","1129.8684210526317","1129.8684210526317","black","no","xpyriment","legacy","legacy","0","202","NA","uniform","NA","NA","NA","0","undefined","0","0","37","37","37","0","37","37","37","NA","0","37","NA","NA","0","37","NA","37","0","37","NA","NA","NA","37","0","0","NA","NA","37","37","37","37","37","38","/","Mon Mar  4 15:41:39 2024","Executes Python code","yes","m21-ba-lexicalDecision.osexp","C:\Users\ekealey\Desktop","no","mono","no","18","no","white","no","yes","1080","legacy","37","37","C:/Users/ekealey/Desktop/subject-240.csv","xpyriment","Lentiform Loewenfeld","3.3.11","0","None","NA","NA","NA","NA","space","None","1200","NA","NA","NA","NA","63284","1200","2","legacy","1024","2","48000","-16","AB_m21","240","even","CW_L","DAMPISH","1736","241923","239555","232179","65185","NA","NA","NA","NA","NA","240055","NA","NA","NA","239055","NA","239025","1900","242224","NA","NA","NA","240096","1737","1888","NA","NA","241296","241319","239025","240055","240076","morph21_Oliver/Morris","16","42935","38","yes","1920","28"
"400","","43.58974358974359","43.58974358974359","1127.1538461538462","1127.1538461538462","black","no","xpyriment","legacy","legacy","0","208","NA","uniform","NA","NA","NA","1","undefined","1","0","38","38","38","0","38","38","38","NA","0","38","NA","NA","0","38","NA","38","0","38","NA","NA","NA","38","0","0","NA","NA","38","38","38","38","38","39","z","Mon Mar  4 15:41:39 2024","Executes Python code","yes","m21-ba-lexicalDecision.osexp","C:\Users\ekealey\Desktop","no","mono","no","18","no","white","no","yes","1080","legacy","38","38","C:/Users/ekealey/Desktop/subject-240.csv","xpyriment","Lentiform Loewenfeld","3.3.11","0","z","NA","NA","NA","NA","space","z","1024","NA","NA","NA","NA","63284","1024","2","legacy","1024","2","48000","-16","AB_m21","240","even","FILL_NW","BORMS","1736","247476","243777","245969","65185","NA","NA","NA","NA","NA","244277","NA","NA","NA","243275","NA","243246","1900","247876","NA","NA","NA","244318","1737","1888","NA","NA","245343","245366","243246","244277","244298","morph21_Oliver/Morris","17","43959","39","yes","1920","50"
"200","","45","45","1117.925","1117.925","black","no","xpyriment","legacy","legacy","0","208","NA","uniform","NA","NA","NA","1","undefined","1","0","39","39","39","0","39","39","39","NA","0","39","NA","NA","0","39","NA","39","0","39","NA","NA","NA","39","0","0","NA","NA","39","39","39","39","39","40","z","Mon Mar  4 15:41:39 2024","Executes Python code","yes","m21-ba-lexicalDecision.osexp","C:\Users\ekealey\Desktop","no","mono","no","18","no","white","no","yes","1080","legacy","39","39","C:/Users/ekealey/Desktop/subject-240.csv","xpyriment","Lentiform Loewenfeld","3.3.11","0","z","NA","NA","NA","NA","space","z","758","NA","NA","NA","NA","63284","758","2","legacy","1024","2","48000","-16","AB_m21","240","even","FILL_NW","TUEER","1736","251379","249452","245969","65185","NA","NA","NA","NA","NA","249952","NA","NA","NA","248952","NA","248924","1900","251579","NA","NA","NA","249993","1737","1888","NA","NA","250751","250776","248924","249952","249973","morph21_Oliver/Morris","18","44717","40","yes","1920","44"
"350","","46.34146341463415","46.34146341463415","1114.6097560975609","1114.6097560975609","black","no","xpyriment","legacy","legacy","0","202","NA","uniform","NA","NA","NA","1","undefined","1","0","40","40","40","0","40","40","40","NA","0","40","NA","NA","0","40","NA","40","0","40","NA","NA","NA","40","0","0","NA","NA","40","40","40","40","40","41","/","Mon Mar  4 15:41:39 2024","Executes Python code","yes","m21-ba-lexicalDecision.osexp","C:\Users\ekealey\Desktop","no","mono","no","18","no","white","no","yes","1080","legacy","40","40","C:/Users/ekealey/Desktop/subject-240.csv","xpyriment","Lentiform Loewenfeld","3.3.11","0","/","NA","NA","NA","NA","space","/","982","NA","NA","NA","NA","63284","982","2","legacy","1024","2","48000","-16","AB_m21","240","even","CW_L","PARKING","1736","255291","253138","245969","65185","NA","NA","NA","NA","NA","253640","NA","NA","NA","252636","NA","252610","1900","255641","NA","NA","NA","253681","1737","1888","NA","NA","254664","254687","252610","253640","253661","morph21_Oliver/Morris","19","45699","41","yes","1920","25"
"350","","47.61904761904762","47.61904761904762","1111.095238095238","1111.095238095238","black","no","xpyriment","legacy","legacy","0","202","NA","uniform","NA","NA","NA","1","undefined","1","0","41","41","41","0","41","41","41","NA","0","41","NA","NA","0","41","NA","41","0","41","NA","NA","NA","41","0","0","NA","NA","41","41","41","41","41","42","/","Mon Mar  4 15:41:39 2024","Executes Python code","yes","m21-ba-lexicalDecision.osexp","C:\Users\ekealey\Desktop","no","mono","no","18","no","white","no","yes","1080","legacy","41","41","C:/Users/ekealey/Desktop/subject-240.csv","xpyriment","Lentiform Loewenfeld","3.3.11","0","/","NA","NA","NA","NA","space","/","967","NA","NA","NA","NA","63284","967","2","legacy","1024","2","48000","-16","AB_m21","240","even","CW_L","RENTER","1736","260848","257202","259341","65185","NA","NA","NA","NA","NA","257703","NA","NA","NA","256699","NA","256674","1900","261198","NA","NA","NA","257743","1737","1888","NA","NA","258711","258735","256674","257703","257723","morph21_Oliver/Morris","20","46666","42","yes","1920","9"
"200","","48.83720930232558","48.83720930232558","1109.3953488372092","1109.3953488372092","black","no","xpyriment","legacy","legacy","0","208","NA","uniform","NA","NA","NA","1","undefined","1","0","42","42","42","0","42","42","42","NA","0","42","NA","NA","0","42","NA","42","0","42","NA","NA","NA","42","0","0","NA","NA","42","42","42","42","42","43","z","Mon Mar  4 15:41:39 2024","Executes Python code","yes","m21-ba-lexicalDecision.osexp","C:\Users\ekealey\Desktop","no","mono","no","18","no","white","no","yes","1080","legacy","42","42","C:/Users/ekealey/Desktop/subject-240.csv","xpyriment","Lentiform Loewenfeld","3.3.11","0","z","NA","NA","NA","NA","space","z","1038","NA","NA","NA","NA","63284","1038","2","legacy","1024","2","48000","-16","AB_m21","240","even","FILL_NW","CINDS","1736","264987","262780","259341","65185","NA","NA","NA","NA","NA","263280","NA","NA","NA","262278","NA","262241","1900","265187","NA","NA","NA","263321","1737","1888","NA","NA","264359","264383","262241","263280","263301","morph21_Oliver/Morris","21","47704","43","yes","1920","6"
"350","","50","50","1108.340909090909","1108.340909090909","black","no","xpyriment","legacy","legacy","0","201","NA","uniform","NA","NA","NA","1","undefined","1","0","43","43","43","0","43","43","43","NA","0","43","NA","NA","0","43","NA","43","0","43","NA","NA","NA","43","0","0","NA","NA","43","43","43","43","43","44","/","Mon Mar  4 15:41:39 2024","Executes Python code","yes","m21-ba-lexicalDecision.osexp","C:\Users\ekealey\Desktop","no","mono","no","18","no","white","no","yes","1080","legacy","43","43","C:/Users/ekealey/Desktop/subject-240.csv","xpyriment","Lentiform Loewenfeld","3.3.11","0","/","NA","NA","NA","NA","space","/","1063","NA","NA","NA","NA","63284","1063","2","legacy","1024","2","48000","-16","AB_m21","240","even","CW_S","RICHNESS","1736","268972","266738","259341","65185","NA","NA","NA","NA","NA","267240","NA","NA","NA","266236","NA","266208","1900","269322","NA","NA","NA","267280","1737","1888","NA","NA","268343","268368","266208","267240","267260","morph21_Oliver/Morris","22","48767","44","yes","1920","45"
"250","","48.888888888888886","48.888888888888886","1110.3777777777777","1110.3777777777777","black","no","xpyriment","legacy","legacy","0","206","NA","uniform","NA","NA","NA","0","undefined","0","0","44","44","44","0","44","44","44","NA","0","44","NA","NA","0","44","NA","44","0","44","NA","NA","NA","44","0","0","NA","NA","44","44","44","44","44","45","z","Mon Mar  4 15:41:39 2024","Executes Python code","yes","m21-ba-lexicalDecision.osexp","C:\Users\ekealey\Desktop","no","mono","no","18","no","white","no","yes","1080","legacy","44","44","C:/Users/ekealey/Desktop/subject-240.csv","xpyriment","Lentiform Loewenfeld","3.3.11","0","None","NA","NA","NA","NA","space","None","1200","NA","NA","NA","NA","63284","1200","2","legacy","1024","2","48000","-16","AB_m21","240","even","NW_L_SIMP","SHOOTMENT","1736","274747","270872","273242","65185","NA","NA","NA","NA","NA","271373","NA","NA","NA","270371","NA","270345","1900","274997","NA","NA","NA","271414","1737","1888","NA","NA","272614","272639","270345","271373","271393","morph21_Oliver/Morris","22","49967","45","yes","1920","16"
"300","","50","50","1103.2173913043478","1103.2173913043478","black","no","xpyriment","legacy","legacy","0","201","NA","uniform","NA","NA","NA","1","undefined","1","0","45","45","45","0","45","45","45","NA","0","45","NA","NA","0","45","NA","45","0","45","NA","NA","NA","45","0","0","NA","NA","45","45","45","45","45","46","/","Mon Mar  4 15:41:39 2024","Executes Python code","yes","m21-ba-lexicalDecision.osexp","C:\Users\ekealey\Desktop","no","mono","no","18","no","white","no","yes","1080","legacy","45","45","C:/Users/ekealey/Desktop/subject-240.csv","xpyriment","Lentiform Loewenfeld","3.3.11","0","/","NA","NA","NA","NA","space","/","781","NA","NA","NA","NA","63284","781","2","legacy","1024","2","48000","-16","AB_m21","240","even","CW_S","BUYER","1736","278531","276581","273242","65185","NA","NA","NA","NA","NA","277081","NA","NA","NA","276081","NA","276053","1900","278831","NA","NA","NA","277122","1737","1888","NA","NA","277903","277927","276053","277081","277102","morph21_Oliver/Morris","23","50748","46","yes","1920","21"
"200","","51.06382978723404","51.06382978723404","1101.5531914893618","1101.5531914893618","black","no","xpyriment","legacy","legacy","0","207","NA","uniform","NA","NA","NA","1","undefined","1","0","46","46","46","0","46","46","46","NA","0","46","NA","NA","0","46","NA","46","0","46","NA","NA","NA","46","0","0","NA","NA","46","46","46","46","46","47","/","Mon Mar  4 15:41:39 2024","Executes Python code","yes","m21-ba-lexicalDecision.osexp","C:\Users\ekealey\Desktop","no","mono","no","18","no","white","no","yes","1080","legacy","46","46","C:/Users/ekealey/Desktop/subject-240.csv","xpyriment","Lentiform Loewenfeld","3.3.11","0","/","NA","NA","NA","NA","space","/","1025","NA","NA","NA","NA","63284","1025","2","legacy","1024","2","48000","-16","AB_m21","240","even","FILL_W","STALK","1736","282603","280407","273242","65185","NA","NA","NA","NA","NA","280908","NA","NA","NA","279905","NA","279879","1900","282804","NA","NA","NA","280949","1737","1888","NA","NA","281975","281999","279879","280908","280929","morph21_Oliver/Morris","24","51773","47","yes","1920","27"
"300","","50","50","1103.6041666666667","1103.6041666666667","black","no","xpyriment","legacy","legacy","0","208","NA","uniform","NA","NA","NA","0","undefined","0","0","47","47","47","0","47","47","47","NA","0","47","NA","NA","0","47","NA","47","0","47","NA","NA","NA","47","0","0","NA","NA","47","47","47","47","47","48","z","Mon Mar  4 15:41:39 2024","Executes Python code","yes","m21-ba-lexicalDecision.osexp","C:\Users\ekealey\Desktop","no","mono","no","18","no","white","no","yes","1080","legacy","47","47","C:/Users/ekealey/Desktop/subject-240.csv","xpyriment","Lentiform Loewenfeld","3.3.11","0","None","NA","NA","NA","NA","space","None","1200","NA","NA","NA","NA","63284","1200","2","legacy","1024","2","48000","-16","AB_m21","240","even","FILL_NW","SCURE","1736","288229","284356","286724","65185","NA","NA","NA","NA","NA","284856","NA","NA","NA","283856","NA","283826","1900","288529","NA","NA","NA","284897","1737","1888","NA","NA","286097","286121","283825","284856","284877","morph21_Oliver/Morris","24","52973","48","yes","1920","41"
"300","","51.02040816326531","51.02040816326531","1097.5714285714287","1097.5714285714287","black","no","xpyriment","legacy","legacy","0","208","NA","uniform","NA","NA","NA","1","undefined","1","0","48","48","48","0","48","48","48","NA","0","48","NA","NA","0","48","NA","48","0","48","NA","NA","NA","48","0","0","NA","NA","48","48","48","48","48","49","z","Mon Mar  4 15:41:39 2024","Executes Python code","yes","m21-ba-lexicalDecision.osexp","C:\Users\ekealey\Desktop","no","mono","no","18","no","white","no","yes","1080","legacy","48","48","C:/Users/ekealey/Desktop/subject-240.csv","xpyriment","Lentiform Loewenfeld","3.3.11","0","z","NA","NA","NA","NA","space","z","808","NA","NA","NA","NA","63284","808","2","legacy","1024","2","48000","-16","AB_m21","240","even","FILL_NW","VOGS","1736","292067","290089","286724","65185","NA","NA","NA","NA","NA","290589","NA","NA","NA","289588","NA","289553","1900","292367","NA","NA","NA","290630","1737","1888","NA","NA","291439","291462","289553","290589","290610","morph21_Oliver/Morris","25","53781","49","yes","1920","47"
"300","","50","50","1099.62","1099.62","black","no","xpyriment","legacy","legacy","0","202","NA","uniform","NA","NA","NA","0","undefined","0","0","49","49","49","0","49","49","49","NA","0","49","NA","NA","0","49","NA","49","0","49","NA","NA","NA","49","0","0","NA","NA","49","49","49","49","49","50","/","Mon Mar  4 15:41:39 2024","Executes Python code","yes","m21-ba-lexicalDecision.osexp","C:\Users\ekealey\Desktop","no","mono","no","18","no","white","no","yes","1080","legacy","49","49","C:/Users/ekealey/Desktop/subject-240.csv","xpyriment","Lentiform Loewenfeld","3.3.11","0","None","NA","NA","NA","NA","space","None","1200","NA","NA","NA","NA","63284","1200","2","legacy","1024","2","48000","-16","AB_m21","240","even","CW_L","KNOCKER","1736","296299","293929","286724","65185","NA","NA","NA","NA","NA","294430","NA","NA","NA","293429","NA","293406","1900","296599","NA","NA","NA","294471","1737","1888","NA","NA","295671","295695","293406","294430","294451","morph21_Oliver/Morris","25","54981","50","yes","1920","4"
"200","","50.98039215686274","50.98039215686274","1100.7450980392157","1100.7450980392157","black","no","xpyriment","legacy","legacy","0","205","NA","uniform","NA","NA","NA","1","undefined","1","0","50","50","50","0","50","50","50","NA","0","50","NA","NA","0","50","NA","50","0","50","NA","NA","NA","50","0","0","NA","NA","50","50","50","50","50","51","z","Mon Mar  4 15:41:39 2024","Executes Python code","yes","m21-ba-lexicalDecision.osexp","C:\Users\ekealey\Desktop","no","mono","no","18","no","white","no","yes","1080","legacy","50","50","C:/Users/ekealey/Desktop/subject-240.csv","xpyriment","Lentiform Loewenfeld","3.3.11","0","z","NA","NA","NA","NA","space","z","1157","NA","NA","NA","NA","63284","1157","2","legacy","1024","2","48000","-16","AB_m21","240","even","NW_S_SIMP","GUMFUL","1736","301995","298164","300490","65185","NA","NA","NA","NA","NA","298664","NA","NA","NA","297664","NA","297634","1900","302196","NA","NA","NA","298705","1737","1888","NA","NA","299863","299887","297634","298664","298685","morph21_Oliver/Morris","26","56138","51","yes","1920","2"
"350","","51.92307692307692","51.92307692307692","1097.25","1097.25","black","no","xpyriment","legacy","legacy","0","208","NA","uniform","NA","NA","NA","1","undefined","1","0","51","51","51","0","51","51","51","NA","0","51","NA","NA","0","51","NA","51","0","51","NA","NA","NA","51","0","0","NA","NA","51","51","51","51","51","52","z","Mon Mar  4 15:41:39 2024","Executes Python code","yes","m21-ba-lexicalDecision.osexp","C:\Users\ekealey\Desktop","no","mono","no","18","no","white","no","yes","1080","legacy","51","51","C:/Users/ekealey/Desktop/subject-240.csv","xpyriment","Lentiform Loewenfeld","3.3.11","0","z","NA","NA","NA","NA","space","z","919","NA","NA","NA","NA","63284","919","2","legacy","1024","2","48000","-16","AB_m21","240","even","FILL_NW","DELP","1736","305858","303768","300490","65185","NA","NA","NA","NA","NA","304270","NA","NA","NA","303266","NA","303233","1900","306208","NA","NA","NA","304311","1737","1888","NA","NA","305231","305255","303233","304270","304290","morph21_Oliver/Morris","27","57057","52","yes","1920","14"
"350","","52.83018867924528","52.83018867924528","1098.132075471698","1098.132075471698","black","no","xpyriment","legacy","legacy","0","204","NA","uniform","NA","NA","NA","1","undefined","1","0","52","52","52","0","52","52","52","NA","0","52","NA","NA","0","52","NA","52","0","52","NA","NA","NA","52","0","0","NA","NA","52","52","52","52","52","53","z","Mon Mar  4 15:41:39 2024","Executes Python code","yes","m21-ba-lexicalDecision.osexp","C:\Users\ekealey\Desktop","no","mono","no","18","no","white","no","yes","1080","legacy","52","52","C:/Users/ekealey/Desktop/subject-240.csv","xpyriment","Lentiform Loewenfeld","3.3.11","0","z","NA","NA","NA","NA","space","z","1144","NA","NA","NA","NA","63284","1144","2","legacy","1024","2","48000","-16","AB_m21","240","even","NW_L_COMP","INKILM","1736","310081","307768","300490","65185","NA","NA","NA","NA","NA","308269","NA","NA","NA","307267","NA","307241","1900","310432","NA","NA","NA","308310","1737","1888","NA","NA","309455","309478","307241","308269","308290","morph21_Oliver/Morris","28","58201","53","yes","1920","8"
"350","","53.7037037037037","53.7037037037037","1091.2222222222222","1091.2222222222222","black","no","xpyriment","legacy","legacy","0","201","NA","uniform","NA","NA","NA","1","undefined","1","0","53","53","53","0","53","53","53","NA","0","53","NA","NA","0","53","NA","53","0","53","NA","NA","NA","53","0","0","NA","NA","53","53","53","53","53","54","/","Mon Mar  4 15:41:39 2024","Executes Python code","yes","m21-ba-lexicalDecision.osexp","C:\Users\ekealey\Desktop","no","mono","no","18","no","white","no","yes","1080","legacy","53","53","C:/Users/ekealey/Desktop/subject-240.csv","xpyriment","Lentiform Loewenfeld","3.3.11","0","/","NA","NA","NA","NA","space","/","725","NA","NA","NA","NA","63284","725","2","legacy","1024","2","48000","-16","AB_m21","240","even","CW_S","TOASTER","1736","315411","312010","313908","65185","NA","NA","NA","NA","NA","312513","NA","NA","NA","311510","NA","311483","1900","315761","NA","NA","NA","312553","1737","1888","NA","NA","313279","313304","311483","312513","312533","morph21_Oliver/Morris","29","58926","54","yes","1920","10"
"400","","54.54545454545455","54.54545454545455","1089.090909090909","1089.090909090909","black","no","xpyriment","legacy","legacy","0","201","NA","uniform","NA","NA","NA","1","undefined","1","0","54","54","54","0","54","54","54","NA","0","54","NA","NA","0","54","NA","54","0","54","NA","NA","NA","54","0","0","NA","NA","54","54","54","54","54","55","/","Mon Mar  4 15:41:39 2024","Executes Python code","yes","m21-ba-lexicalDecision.osexp","C:\Users\ekealey\Desktop","no","mono","no","18","no","white","no","yes","1080","legacy","54","54","C:/Users/ekealey/Desktop/subject-240.csv","xpyriment","Lentiform Loewenfeld","3.3.11","0","/","NA","NA","NA","NA","space","/","974","NA","NA","NA","NA","63284","974","2","legacy","1024","2","48000","-16","AB_m21","240","even","CW_S","DESIGN","1736","319458","317314","313908","65185","NA","NA","NA","NA","NA","317816","NA","NA","NA","316814","NA","316780","1900","319858","NA","NA","NA","317856","1737","1888","NA","NA","318831","318855","316780","317816","317836","morph21_Oliver/Morris","30","59900","55","yes","1920","19"
"200","","53.57142857142857","53.57142857142857","1089.2857142857142","1089.2857142857142","black","no","xpyriment","legacy","legacy","0","206","NA","uniform","NA","NA","NA","0","undefined","0","0","55","55","55","0","55","55","55","NA","0","55","NA","NA","0","55","NA","55","0","55","NA","NA","NA","55","0","0","NA","NA","55","55","55","55","55","56","z","Mon Mar  4 15:41:39 2024","Executes Python code","yes","m21-ba-lexicalDecision.osexp","C:\Users\ekealey\Desktop","no","mono","no","18","no","white","no","yes","1080","legacy","55","55","C:/Users/ekealey/Desktop/subject-240.csv","xpyriment","Lentiform Loewenfeld","3.3.11","0","/","NA","NA","NA","NA","space","/","1100","NA","NA","NA","NA","63284","1100","2","legacy","1024","2","48000","-16","AB_m21","240","even","NW_L_SIMP","TOWERLY","1736","323700","321429","313908","65185","NA","NA","NA","NA","NA","321929","NA","NA","NA","320928","NA","320904","1900","323900","NA","NA","NA","321970","1737","1888","NA","NA","323071","323096","320904","321929","321950","morph21_Oliver/Morris","30","61000","56","yes","1920","15"
"350","","54.3859649122807","54.3859649122807","1083.719298245614","1083.719298245614","black","no","xpyriment","legacy","legacy","0","208","NA","uniform","NA","NA","NA","1","undefined","1","0","56","56","56","0","56","56","56","NA","0","56","NA","NA","0","56","NA","56","0","56","NA","NA","NA","56","0","0","NA","NA","56","56","56","56","56","57","z","Mon Mar  4 15:41:39 2024","Executes Python code","yes","m21-ba-lexicalDecision.osexp","C:\Users\ekealey\Desktop","no","mono","no","18","no","white","no","yes","1080","legacy","56","56","C:/Users/ekealey/Desktop/subject-240.csv","xpyriment","Lentiform Loewenfeld","3.3.11","0","z","NA","NA","NA","NA","space","z","772","NA","NA","NA","NA","63284","772","2","legacy","1024","2","48000","-16","AB_m21","240","even","FILL_NW","HEAS","1736","328900","325452","327395","65185","NA","NA","NA","NA","NA","325953","NA","NA","NA","324952","NA","324924","1900","329250","NA","NA","NA","325994","1737","1888","NA","NA","326767","326791","324924","325953","325974","morph21_Oliver/Morris","31","61772","57","yes","1920","26"
"350","","55.172413793103445","55.172413793103445","1080.6724137931035","1080.6724137931035","black","no","xpyriment","legacy","legacy","0","202","NA","uniform","NA","NA","NA","1","undefined","1","0","57","57","57","0","57","57","57","NA","0","57","NA","NA","0","57","NA","57","0","57","NA","NA","NA","57","0","0","NA","NA","57","57","57","57","57","58","/","Mon Mar  4 15:41:39 2024","Executes Python code","yes","m21-ba-lexicalDecision.osexp","C:\Users\ekealey\Desktop","no","mono","no","18","no","white","no","yes","1080","legacy","57","57","C:/Users/ekealey/Desktop/subject-240.csv","xpyriment","Lentiform Loewenfeld","3.3.11","0","/","NA","NA","NA","NA","space","/","907","NA","NA","NA","NA","63284","907","2","legacy","1024","2","48000","-16","AB_m21","240","even","CW_L","PUNCHER","1736","332890","330813","327395","65185","NA","NA","NA","NA","NA","331315","NA","NA","NA","330313","NA","330283","1900","333240","NA","NA","NA","331355","1737","1888","NA","NA","332263","332286","330283","331314","331335","morph21_Oliver/Morris","32","62679","58","yes","1920","1"
"300","","54.23728813559322","54.23728813559322","1082.6949152542372","1082.6949152542372","black","no","xpyriment","legacy","legacy","0","205","NA","uniform","NA","NA","NA","0","undefined","0","0","58","58","58","0","58","58","58","NA","0","58","NA","NA","0","58","NA","58","0","58","NA","NA","NA","58","0","0","NA","NA","58","58","58","58","58","59","z","Mon Mar  4 15:41:39 2024","Executes Python code","yes","m21-ba-lexicalDecision.osexp","C:\Users\ekealey\Desktop","no","mono","no","18","no","white","no","yes","1080","legacy","58","58","C:/Users/ekealey/Desktop/subject-240.csv","xpyriment","Lentiform Loewenfeld","3.3.11","0","None","NA","NA","NA","NA","space","None","1200","NA","NA","NA","NA","63284","1200","2","legacy","1024","2","48000","-16","AB_m21","240","even","NW_S_SIMP","BOLTOUS","1736","337163","334796","327395","65185","NA","NA","NA","NA","NA","335296","NA","NA","NA","334296","NA","334266","1900","337464","NA","NA","NA","335337","1737","1888","NA","NA","336537","336560","334266","335296","335317","morph21_Oliver/Morris","32","63879","59","yes","1920","13"
"200","","55","55","1083.0166666666667","1083.0166666666667","black","no","xpyriment","legacy","legacy","0","202","NA","uniform","NA","NA","NA","1","undefined","1","0","59","59","59","0","59","59","59","NA","0","59","NA","NA","0","59","NA","59","0","59","NA","NA","NA","59","0","0","NA","NA","59","59","59","59","59","60","/","Mon Mar  4 15:41:39 2024","Executes Python code","yes","m21-ba-lexicalDecision.osexp","C:\Users\ekealey\Desktop","no","mono","no","18","no","white","no","yes","1080","legacy","59","59","C:/Users/ekealey/Desktop/subject-240.csv","xpyriment","Lentiform Loewenfeld","3.3.11","0","/","NA","NA","NA","NA","space","/","1102","NA","NA","NA","NA","63284","1102","2","legacy","1024","2","48000","-16","AB_m21","240","even","CW_L","BOOTLESS","1736","342806","339028","341300","65185","NA","NA","NA","NA","NA","339528","NA","NA","NA","338527","NA","338499","1900","343006","NA","NA","NA","339568","1737","1888","NA","NA","340671","340695","338499","339528","339548","morph21_Oliver/Morris","33","64981","60","yes","1920","32"
"200","","55.73770491803279","55.73770491803279","1077.983606557377","1077.983606557377","black","no","xpyriment","legacy","legacy","0","202","NA","uniform","NA","NA","NA","1","undefined","1","0","60","60","60","0","60","60","60","NA","0","60","NA","NA","0","60","NA","60","0","60","NA","NA","NA","60","0","0","NA","NA","60","60","60","60","60","61","/","Mon Mar  4 15:41:39 2024","Executes Python code","yes","m21-ba-lexicalDecision.osexp","C:\Users\ekealey\Desktop","no","mono","no","18","no","white","no","yes","1080","legacy","60","60","C:/Users/ekealey/Desktop/subject-240.csv","xpyriment","Lentiform Loewenfeld","3.3.11","0","/","NA","NA","NA","NA","space","/","776","NA","NA","NA","NA","63284","776","2","legacy","1024","2","48000","-16","AB_m21","240","even","CW_L","SHAMEFUL","1736","346547","344600","341300","65185","NA","NA","NA","NA","NA","345102","NA","NA","NA","344099","NA","344067","1900","346747","NA","NA","NA","345142","1737","1888","NA","NA","345918","345944","344067","345101","345122","morph21_Oliver/Morris","34","65757","61","yes","1920","19"
"350","","56.45161290322581","56.45161290322581","1076.5806451612902","1076.5806451612902","black","no","xpyriment","legacy","legacy","0","201","NA","uniform","NA","NA","NA","1","undefined","1","0","61","61","61","0","61","61","61","NA","0","61","NA","NA","0","61","NA","61","0","61","NA","NA","NA","61","0","0","NA","NA","61","61","61","61","61","62","/","Mon Mar  4 15:41:39 2024","Executes Python code","yes","m21-ba-lexicalDecision.osexp","C:\Users\ekealey\Desktop","no","mono","no","18","no","white","no","yes","1080","legacy","61","61","C:/Users/ekealey/Desktop/subject-240.csv","xpyriment","Lentiform Loewenfeld","3.3.11","0","/","NA","NA","NA","NA","space","/","991","NA","NA","NA","NA","63284","991","2","legacy","1024","2","48000","-16","AB_m21","240","even","CW_S","TEACHER","1736","350457","348299","341300","65185","NA","NA","NA","NA","NA","348799","NA","NA","NA","347798","NA","347773","1900","350808","NA","NA","NA","348839","1737","1888","NA","NA","349831","349854","347773","348799","348819","morph21_Oliver/Morris","35","66748","62","yes","1920","23"
"250","","55.55555555555556","55.55555555555556","1078.5396825396826","1078.5396825396826","black","no","xpyriment","legacy","legacy","0","201","NA","uniform","NA","NA","NA","0","undefined","0","0","62","62","62","0","62","62","62","NA","0","62","NA","NA","0","62","NA","62","0","62","NA","NA","NA","62","0","0","NA","NA","62","62","62","62","62","63","/","Mon Mar  4 15:41:39 2024","Executes Python code","yes","m21-ba-lexicalDecision.osexp","C:\Users\ekealey\Desktop","no","mono","no","18","no","white","no","yes","1080","legacy","62","62","C:/Users/ekealey/Desktop/subject-240.csv","xpyriment","Lentiform Loewenfeld","3.3.11","0","None","NA","NA","NA","NA","space","None","1200","NA","NA","NA","NA","63284","1200","2","legacy","1024","2","48000","-16","AB_m21","240","even","CW_S","GRIMLY","1736","356272","352397","354765","65185","NA","NA","NA","NA","NA","352898","NA","NA","NA","351897","NA","351872","1900","356522","NA","NA","NA","352938","1737","1888","NA","NA","354138","354161","351872","352898","352918","morph21_Oliver/Morris","35","67948","63","yes","1920","31"
"200","","56.25","56.25","1073.09375","1073.09375","black","no","xpyriment","legacy","legacy","0","201","NA","uniform","NA","NA","NA","1","undefined","1","0","63","63","63","0","63","63","63","NA","0","63","NA","NA","0","63","NA","63","0","63","NA","NA","NA","63","0","0","NA","NA","63","63","63","63","63","64","/","Mon Mar  4 15:41:39 2024","Executes Python code","yes","m21-ba-lexicalDecision.osexp","C:\Users\ekealey\Desktop","no","mono","no","18","no","white","no","yes","1080","legacy","63","63","C:/Users/ekealey/Desktop/subject-240.csv","xpyriment","Lentiform Loewenfeld","3.3.11","0","/","NA","NA","NA","NA","space","/","730","NA","NA","NA","NA","63284","730","2","legacy","1024","2","48000","-16","AB_m21","240","even","CW_S","AMUSEMENT","1736","360003","358103","354765","65185","NA","NA","NA","NA","NA","358604","NA","NA","NA","357602","NA","357577","1900","360204","NA","NA","NA","358644","1737","1888","NA","NA","359375","359399","357577","358604","358624","morph21_Oliver/Morris","36","68678","64","yes","1920","38"
"400","","56.92307692307692","56.92307692307692","1071.076923076923","1071.076923076923","black","no","xpyriment","legacy","legacy","0","202","NA","uniform","NA","NA","NA","1","undefined","1","0","64","64","64","0","64","64","64","NA","0","64","NA","NA","0","64","NA","64","0","64","NA","NA","NA","64","0","0","NA","NA","64","64","64","64","64","65","/","Mon Mar  4 15:41:39 2024","Executes Python code","yes","m21-ba-lexicalDecision.osexp","C:\Users\ekealey\Desktop","no","mono","no","18","no","white","no","yes","1080","legacy","64","64","C:/Users/ekealey/Desktop/subject-240.csv","xpyriment","Lentiform Loewenfeld","3.3.11","0","/","NA","NA","NA","NA","space","/","942","NA","NA","NA","NA","63284","942","2","legacy","1024","2","48000","-16","AB_m21","240","even","CW_L","SHAPELY","1736","363883","361770","354765","65185","NA","NA","NA","NA","NA","362271","NA","NA","NA","361267","NA","361243","1900","364283","NA","NA","NA","362312","1737","1888","NA","NA","363255","363280","361243","362271","362292","morph21_Oliver/Morris","37","69620","65","yes","1920","35"
"250","","57.57575757575758","57.57575757575758","1066.7424242424242","1066.7424242424242","black","no","xpyriment","legacy","legacy","0","201","NA","uniform","NA","NA","NA","1","undefined","1","0","65","65","65","0","65","65","65","NA","0","65","NA","NA","0","65","NA","65","0","65","NA","NA","NA","65","0","0","NA","NA","65","65","65","65","65","66","/","Mon Mar  4 15:41:39 2024","Executes Python code","yes","m21-ba-lexicalDecision.osexp","C:\Users\ekealey\Desktop","no","mono","no","18","no","white","no","yes","1080","legacy","65","65","C:/Users/ekealey/Desktop/subject-240.csv","xpyriment","Lentiform Loewenfeld","3.3.11","0","/","NA","NA","NA","NA","space","/","785","NA","NA","NA","NA","63284","785","2","legacy","1024","2","48000","-16","AB_m21","240","even","CW_S","SEEKER","1736","369288","365832","367785","65185","NA","NA","NA","NA","NA","366333","NA","NA","NA","365331","NA","365301","1900","369538","NA","NA","NA","366373","1737","1888","NA","NA","367159","367182","365301","366332","366353","morph21_Oliver/Morris","38","70405","66","yes","1920","16"
"400","","58.208955223880594","58.208955223880594","1064.5373134328358","1064.5373134328358","black","no","xpyriment","legacy","legacy","0","201","NA","uniform","NA","NA","NA","1","undefined","1","0","66","66","66","0","66","66","66","NA","0","66","NA","NA","0","66","NA","66","0","66","NA","NA","NA","66","0","0","NA","NA","66","66","66","66","66","67","/","Mon Mar  4 15:41:39 2024","Executes Python code","yes","m21-ba-lexicalDecision.osexp","C:\Users\ekealey\Desktop","no","mono","no","18","no","white","no","yes","1080","legacy","66","66","C:/Users/ekealey/Desktop/subject-240.csv","xpyriment","Lentiform Loewenfeld","3.3.11","0","/","NA","NA","NA","NA","space","/","919","NA","NA","NA","NA","63284","919","2","legacy","1024","2","48000","-16","AB_m21","240","even","CW_S","WIDOWED","1736","373179","371090","367785","65185","NA","NA","NA","NA","NA","371590","NA","NA","NA","370589","NA","370558","1900","373579","NA","NA","NA","371631","1737","1888","NA","NA","372550","372575","370558","371590","371611","morph21_Oliver/Morris","39","71324","67","yes","1920","7"
"250","","58.8235294117647","58.8235294117647","1063.7794117647059","1063.7794117647059","black","no","xpyriment","legacy","legacy","0","207","NA","uniform","NA","NA","NA","1","undefined","1","0","67","67","67","0","67","67","67","NA","0","67","NA","NA","0","67","NA","67","0","67","NA","NA","NA","67","0","0","NA","NA","67","67","67","67","67","68","/","Mon Mar  4 15:41:39 2024","Executes Python code","yes","m21-ba-lexicalDecision.osexp","C:\Users\ekealey\Desktop","no","mono","no","18","no","white","no","yes","1080","legacy","67","67","C:/Users/ekealey/Desktop/subject-240.csv","xpyriment","Lentiform Loewenfeld","3.3.11","0","/","NA","NA","NA","NA","space","/","1013","NA","NA","NA","NA","63284","1013","2","legacy","1024","2","48000","-16","AB_m21","240","even","FILL_W","TREAT","1736","377309","375124","367785","65185","NA","NA","NA","NA","NA","375624","NA","NA","NA","374622","NA","374590","1900","377559","NA","NA","NA","375665","1737","1888","NA","NA","376679","376705","374590","375624","375645","morph21_Oliver/Morris","40","72337","68","yes","1920","48"
"300","","57.971014492753625","57.971014492753625","1065.7536231884058","1065.7536231884058","black","no","xpyriment","legacy","legacy","0","202","NA","uniform","NA","NA","NA","0","undefined","0","0","68","68","68","0","68","68","68","NA","0","68","NA","NA","0","68","NA","68","0","68","NA","NA","NA","68","0","0","NA","NA","68","68","68","68","68","69","/","Mon Mar  4 15:41:39 2024","Executes Python code","yes","m21-ba-lexicalDecision.osexp","C:\Users\ekealey\Desktop","no","mono","no","18","no","white","no","yes","1080","legacy","68","68","C:/Users/ekealey/Desktop/subject-240.csv","xpyriment","Lentiform Loewenfeld","3.3.11","0","None","NA","NA","NA","NA","space","None","1200","NA","NA","NA","NA","63284","1200","2","legacy","1024","2","48000","-16","AB_m21","240","even","CW_L","WEEDY","1736","382977","379102","381471","65185","NA","NA","NA","NA","NA","379603","NA","NA","NA","378601","NA","378573","1900","383278","NA","NA","NA","379643","1737","1888","NA","NA","380843","380866","378573","379603","379623","morph21_Oliver/Morris","40","73537","69","yes","1920","48"
"250","","58.57142857142857","58.57142857142857","1063.6","1063.6","black","no","xpyriment","legacy","legacy","0","204","NA","uniform","NA","NA","NA","1","undefined","1","0","69","69","69","0","69","69","69","NA","0","69","NA","NA","0","69","NA","69","0","69","NA","NA","NA","69","0","0","NA","NA","69","69","69","69","69","70","z","Mon Mar  4 15:41:39 2024","Executes Python code","yes","m21-ba-lexicalDecision.osexp","C:\Users\ekealey\Desktop","no","mono","no","18","no","white","no","yes","1080","legacy","69","69","C:/Users/ekealey/Desktop/subject-240.csv","xpyriment","Lentiform Loewenfeld","3.3.11","0","z","NA","NA","NA","NA","space","z","915","NA","NA","NA","NA","63284","915","2","legacy","1024","2","48000","-16","AB_m21","240","even","NW_L_COMP","FREENELS","1736","386947","384862","381471","65185","NA","NA","NA","NA","NA","385362","NA","NA","NA","384362","NA","384333","1900","387197","NA","NA","NA","385403","1737","1888","NA","NA","386319","386343","384333","385362","385383","morph21_Oliver/Morris","41","74452","70","yes","1920","15"
"200","","57.74647887323944","57.74647887323944","1065.5211267605634","1065.5211267605634","black","no","xpyriment","legacy","legacy","0","203","NA","uniform","NA","NA","NA","0","undefined","0","0","70","70","70","0","70","70","70","NA","0","70","NA","NA","0","70","NA","70","0","70","NA","NA","NA","70","0","0","NA","NA","70","70","70","70","70","71","z","Mon Mar  4 15:41:39 2024","Executes Python code","yes","m21-ba-lexicalDecision.osexp","C:\Users\ekealey\Desktop","no","mono","no","18","no","white","no","yes","1080","legacy","70","70","C:/Users/ekealey/Desktop/subject-240.csv","xpyriment","Lentiform Loewenfeld","3.3.11","0","None","NA","NA","NA","NA","space","None","1200","NA","NA","NA","NA","63284","1200","2","legacy","1024","2","48000","-16","AB_m21","240","even","NW_S_COMP","PILLIME","1736","391120","388752","381471","65185","NA","NA","NA","NA","NA","389253","NA","NA","NA","388251","NA","388222","1900","391320","NA","NA","NA","389293","1737","1888","NA","NA","390493","390517","388222","389253","389273","morph21_Oliver/Morris","41","75652","71","yes","1920","13"
"300","","58.333333333333336","58.333333333333336","1061.9583333333333","1061.9583333333333","black","no","xpyriment","legacy","legacy","0","201","NA","uniform","NA","NA","NA","1","undefined","1","0","71","71","71","0","71","71","71","NA","0","71","NA","NA","0","71","NA","71","0","71","NA","NA","NA","71","0","0","NA","NA","71","71","71","71","71","72","/","Mon Mar  4 15:41:39 2024","Executes Python code","yes","m21-ba-lexicalDecision.osexp","C:\Users\ekealey\Desktop","no","mono","no","18","no","white","no","yes","1080","legacy","71","71","C:/Users/ekealey/Desktop/subject-240.csv","xpyriment","Lentiform Loewenfeld","3.3.11","0","/","NA","NA","NA","NA","space","/","809","NA","NA","NA","NA","63284","809","2","legacy","1024","2","48000","-16","AB_m21","240","even","CW_S","ATTACKER","1736","396373","392888","394867","65185","NA","NA","NA","NA","NA","393388","NA","NA","NA","392388","NA","392359","1900","396673","NA","NA","NA","393429","1737","1888","NA","NA","394239","394262","392359","393388","393409","morph21_Oliver/Morris","42","76461","72","yes","1920","20"
"200","","58.9041095890411","58.9041095890411","1057.6575342465753","1057.6575342465753","black","no","xpyriment","legacy","legacy","0","207","NA","uniform","NA","NA","NA","1","undefined","1","0","72","72","72","0","72","72","72","NA","0","72","NA","NA","0","72","NA","72","0","72","NA","NA","NA","72","0","0","NA","NA","72","72","72","72","72","73","/","Mon Mar  4 15:41:39 2024","Executes Python code","yes","m21-ba-lexicalDecision.osexp","C:\Users\ekealey\Desktop","no","mono","no","18","no","white","no","yes","1080","legacy","72","72","C:/Users/ekealey/Desktop/subject-240.csv","xpyriment","Lentiform Loewenfeld","3.3.11","0","/","NA","NA","NA","NA","space","/","748","NA","NA","NA","NA","63284","748","2","legacy","1024","2","48000","-16","AB_m21","240","even","FILL_W","TEST","1736","400201","398285","394867","65185","NA","NA","NA","NA","NA","398786","NA","NA","NA","397784","NA","397756","1900","400402","NA","NA","NA","398826","1737","1888","NA","NA","399575","399598","397756","398785","398806","morph21_Oliver/Morris","43","77209","73","yes","1920","47"
"400","","58.108108108108105","58.108108108108105","1059.581081081081","1059.581081081081","black","no","xpyriment","legacy","legacy","0","206","NA","uniform","NA","NA","NA","0","undefined","0","0","73","73","73","0","73","73","73","NA","0","73","NA","NA","0","73","NA","73","0","73","NA","NA","NA","73","0","0","NA","NA","73","73","73","73","73","74","z","Mon Mar  4 15:41:39 2024","Executes Python code","yes","m21-ba-lexicalDecision.osexp","C:\Users\ekealey\Desktop","no","mono","no","18","no","white","no","yes","1080","legacy","73","73","C:/Users/ekealey/Desktop/subject-240.csv","xpyriment","Lentiform Loewenfeld","3.3.11","0","None","NA","NA","NA","NA","space","None","1200","NA","NA","NA","NA","63284","1200","2","legacy","1024","2","48000","-16","AB_m21","240","even","NW_L_SIMP","CLASSOUS","1736","404330","401962","394867","65185","NA","NA","NA","NA","NA","402462","NA","NA","NA","401461","NA","401432","1900","404730","NA","NA","NA","402503","1737","1888","NA","NA","403703","403727","401432","402462","402483","morph21_Oliver/Morris","43","78409","74","yes","1920","18"
"300","","58.666666666666664","58.666666666666664","1059.16","1059.16","black","no","xpyriment","legacy","legacy","0","203","NA","uniform","NA","NA","NA","undefined","undefined","1","0","74","74","74","0","74","74","74","NA","0","74","NA","NA","0","74","NA","74","0","74","NA","NA","NA","74","0","0","NA","NA","74","74","74","74","74","75","z","Mon Mar  4 15:41:39 2024","Executes Python code","yes","m21-ba-lexicalDecision.osexp","C:\Users\ekealey\Desktop","no","mono","no","18","no","white","no","yes","1080","legacy","74","74","C:/Users/ekealey/Desktop/subject-240.csv","xpyriment","Lentiform Loewenfeld","3.3.11","0","space","space","NA","NA","NA","space","z","22908","22908","NA","NA","NA","63284","1028","2","legacy","1024","2","48000","-16","AB_m21","240","even","NW_S_COMP","CURTIDY","1736","410026","406324","408522","65185","410330","NA","NA","NA","NA","406824","NA","NA","NA","405824","NA","405796","1900","433239","NA","NA","NA","406865","1737","1888","NA","NA","407894","407919","405796","406824","406845","morph21_Oliver/Morris","44","79437","75","yes","1920","11"
"400","","59.21052631578947","59.21052631578947","1060.9473684210527","1060.9473684210527","black","no","xpyriment","legacy","legacy","0","202","NA","uniform","NA","NA","NA","1","undefined","1","0","75","75","75","0","75","75","75","NA","0","75","NA","NA","0","75","NA","75","0","75","NA","NA","NA","75","0","0","NA","NA","75","75","75","75","75","76","/","Mon Mar  4 15:41:39 2024","Executes Python code","yes","m21-ba-lexicalDecision.osexp","C:\Users\ekealey\Desktop","no","mono","no","18","no","white","no","yes","1080","legacy","75","75","C:/Users/ekealey/Desktop/subject-240.csv","xpyriment","Lentiform Loewenfeld","3.3.11","0","/","space","NA","NA","NA","space","/","1195","22908","NA","NA","NA","63284","1195","2","legacy","1024","2","48000","-16","AB_m21","240","even","CW_L","CLEANER","1736","437196","434829","408522","65185","410330","NA","NA","NA","NA","435329","NA","NA","NA","434328","NA","434295","1900","437596","NA","NA","NA","435370","1737","1888","NA","NA","436566","436591","434294","435329","435350","morph21_Oliver/Morris","45","80632","76","yes","1920","15"
"200","","59.74025974025974","59.74025974025974","1057.7012987012988","1057.7012987012988","black","no","xpyriment","legacy","legacy","0","208","NA","uniform","NA","NA","NA","1","undefined","1","0","76","76","76","0","76","76","76","NA","0","76","NA","NA","0","76","NA","76","0","76","NA","NA","NA","76","0","0","NA","NA","76","76","76","76","76","77","z","Mon Mar  4 15:41:39 2024","Executes Python code","yes","m21-ba-lexicalDecision.osexp","C:\Users\ekealey\Desktop","no","mono","no","18","no","white","no","yes","1080","legacy","76","76","C:/Users/ekealey/Desktop/subject-240.csv","xpyriment","Lentiform Loewenfeld","3.3.11","0","z","space","NA","NA","NA","space","z","811","22908","NA","NA","NA","63284","811","2","legacy","1024","2","48000","-16","AB_m21","240","even","FILL_NW","BROUPS","1736","441153","439171","408522","65185","410330","NA","NA","NA","NA","439672","NA","NA","NA","438668","NA","438645","1900","441353","NA","NA","NA","439714","1737","1888","NA","NA","440526","440550","438644","439672","439693","morph21_Oliver/Morris","46","81443","77","yes","1920","4"
"200","","58.97435897435897","58.97435897435897","1059.525641025641","1059.525641025641","black","no","xpyriment","legacy","legacy","0","207","NA","uniform","NA","NA","NA","0","undefined","0","0","77","77","77","0","77","77","77","NA","0","77","NA","NA","0","77","NA","77","0","77","NA","NA","NA","77","0","0","NA","NA","77","77","77","77","77","78","/","Mon Mar  4 15:41:39 2024","Executes Python code","yes","m21-ba-lexicalDecision.osexp","C:\Users\ekealey\Desktop","no","mono","no","18","no","white","no","yes","1080","legacy","77","77","C:/Users/ekealey/Desktop/subject-240.csv","xpyriment","Lentiform Loewenfeld","3.3.11","0","None","space","NA","NA","NA","space","None","1200","22908","NA","NA","NA","63284","1200","2","legacy","1024","2","48000","-16","AB_m21","240","even","FILL_W","BRASS","1736","446815","442938","445310","65185","410330","NA","NA","NA","NA","443440","NA","NA","NA","442437","NA","442413","1900","447015","NA","NA","NA","443480","1737","1888","NA","NA","444680","444706","442413","443440","443460","morph21_Oliver/Morris","46","82643","78","yes","1920","10"
"400","","59.49367088607595","59.49367088607595","1054.506329113924","1054.506329113924","black","no","xpyriment","legacy","legacy","0","207","NA","uniform","NA","NA","NA","1","undefined","1","0","78","78","78","0","78","78","78","NA","0","78","NA","NA","0","78","NA","78","0","78","NA","NA","NA","78","0","0","NA","NA","78","78","78","78","78","79","/","Mon Mar  4 15:41:39 2024","Executes Python code","yes","m21-ba-lexicalDecision.osexp","C:\Users\ekealey\Desktop","no","mono","no","18","no","white","no","yes","1080","legacy","78","78","C:/Users/ekealey/Desktop/subject-240.csv","xpyriment","Lentiform Loewenfeld","3.3.11","0","/","space","NA","NA","NA","space","/","663","22908","NA","NA","NA","63284","663","2","legacy","1024","2","48000","-16","AB_m21","240","even","FILL_W","QUIT","1736","450435","448601","445310","65185","410330","NA","NA","NA","NA","449102","NA","NA","NA","448100","NA","448075","1900","450835","NA","NA","NA","449143","1737","1888","NA","NA","449807","449830","448075","449102","449123","morph21_Oliver/Morris","47","83306","79","yes","1920","21"
"350","","60","60","1052.3625","1052.3625","black","no","xpyriment","legacy","legacy","0","208","NA","uniform","NA","NA","NA","1","undefined","1","0","79","79","79","0","79","79","79","NA","0","79","NA","NA","0","79","NA","79","0","79","NA","NA","NA","79","0","0","NA","NA","79","79","79","79","79","80","z","Mon Mar  4 15:41:39 2024","Executes Python code","yes","m21-ba-lexicalDecision.osexp","C:\Users\ekealey\Desktop","no","mono","no","18","no","white","no","yes","1080","legacy","79","79","C:/Users/ekealey/Desktop/subject-240.csv","xpyriment","Lentiform Loewenfeld","3.3.11","0","z","space","NA","NA","NA","space","z","883","22908","NA","NA","NA","63284","883","2","legacy","1024","2","48000","-16","AB_m21","240","even","FILL_NW","JADS","1736","454443","452389","445310","65185","410330","NA","NA","NA","NA","452889","NA","NA","NA","451889","NA","451859","1900","454793","NA","NA","NA","452930","1737","1888","NA","NA","453814","453838","451859","452889","452910","morph21_Oliver/Morris","48","84189","80","yes","1920","31"
"300","","60.49382716049383","60.49382716049383","1047.9135802469136","1047.9135802469136","black","no","xpyriment","legacy","legacy","0","202","NA","uniform","NA","NA","NA","1","undefined","1","0","80","80","80","0","80","80","80","NA","0","80","NA","NA","0","80","NA","80","0","80","NA","NA","NA","80","0","0","NA","NA","80","80","80","80","80","81","/","Mon Mar  4 15:41:39 2024","Executes Python code","yes","m21-ba-lexicalDecision.osexp","C:\Users\ekealey\Desktop","no","mono","no","18","no","white","no","yes","1080","legacy","80","80","C:/Users/ekealey/Desktop/subject-240.csv","xpyriment","Lentiform Loewenfeld","3.3.11","0","/","space","NA","NA","NA","space","/","692","22908","NA","NA","NA","63284","692","2","legacy","1024","2","48000","-16","AB_m21","240","even","CW_L","PROFESSOR","1736","459714","456348","458211","65185","410330","NA","NA","NA","NA","456849","NA","NA","NA","455847","NA","455820","1900","460014","NA","NA","NA","456890","1737","1888","NA","NA","457583","457608","455820","456849","456870","morph21_Oliver/Morris","49","84881","81","yes","1920","47"
"400","","60.97560975609756","60.97560975609756","1045.6829268292684","1045.6829268292684","black","no","xpyriment","legacy","legacy","0","202","NA","uniform","NA","NA","NA","1","undefined","1","0","81","81","81","0","81","81","81","NA","0","81","NA","NA","0","81","NA","81","0","81","NA","NA","NA","81","0","0","NA","NA","81","81","81","81","81","82","/","Mon Mar  4 15:41:39 2024","Executes Python code","yes","m21-ba-lexicalDecision.osexp","C:\Users\ekealey\Desktop","no","mono","no","18","no","white","no","yes","1080","legacy","81","81","C:/Users/ekealey/Desktop/subject-240.csv","xpyriment","Lentiform Loewenfeld","3.3.11","0","/","space","NA","NA","NA","space","/","865","22908","NA","NA","NA","63284","865","2","legacy","1024","2","48000","-16","AB_m21","240","even","CW_L","DRYNESS","1736","463610","461574","458211","65185","410330","NA","NA","NA","NA","462075","NA","NA","NA","461072","NA","461041","1900","464010","NA","NA","NA","462116","1737","1888","NA","NA","462982","463006","461041","462075","462096","morph21_Oliver/Morris","50","85746","82","yes","1920","42"
"400","","61.44578313253012","61.44578313253012","1044.4698795180723","1044.4698795180723","black","no","xpyriment","legacy","legacy","0","206","NA","uniform","NA","NA","NA","1","undefined","1","0","82","82","82","0","82","82","82","NA","0","82","NA","NA","0","82","NA","82","0","82","NA","NA","NA","82","0","0","NA","NA","82","82","82","82","82","83","z","Mon Mar  4 15:41:39 2024","Executes Python code","yes","m21-ba-lexicalDecision.osexp","C:\Users\ekealey\Desktop","no","mono","no","18","no","white","no","yes","1080","legacy","82","82","C:/Users/ekealey/Desktop/subject-240.csv","xpyriment","Lentiform Loewenfeld","3.3.11","0","z","space","NA","NA","NA","space","z","945","22908","NA","NA","NA","63284","945","2","legacy","1024","2","48000","-16","AB_m21","240","even","NW_L_SIMP","VALIDER","1736","467690","465575","458211","65185","410330","NA","NA","NA","NA","466075","NA","NA","NA","465073","NA","465046","1900","468090","NA","NA","NA","466117","1737","1888","NA","NA","467063","467087","465046","466075","466096","morph21_Oliver/Morris","51","86691","83","yes","1920","23"
"300","","60.714285714285715","60.714285714285715","1046.3214285714287","1046.3214285714287","black","no","xpyriment","legacy","legacy","0","205","NA","uniform","NA","NA","NA","0","undefined","0","0","83","83","83","0","83","83","83","NA","0","83","NA","NA","0","83","NA","83","0","83","NA","NA","NA","83","0","0","NA","NA","83","83","83","83","83","84","z","Mon Mar  4 15:41:39 2024","Executes Python code","yes","m21-ba-lexicalDecision.osexp","C:\Users\ekealey\Desktop","no","mono","no","18","no","white","no","yes","1080","legacy","83","83","C:/Users/ekealey/Desktop/subject-240.csv","xpyriment","Lentiform Loewenfeld","3.3.11","0","None","space","NA","NA","NA","space","None","1200","22908","NA","NA","NA","63284","1200","2","legacy","1024","2","48000","-16","AB_m21","240","even","NW_S_SIMP","YIELDIST","1736","473520","469645","472015","65185","410330","NA","NA","NA","NA","470146","NA","NA","NA","469144","NA","469118","1900","473820","NA","NA","NA","470186","1737","1888","NA","NA","471386","471412","469118","470146","470166","morph21_Oliver/Morris","51","87891","84","yes","1920","20"
"300","","61.1764705882353","61.1764705882353","1044.7176470588236","1044.7176470588236","black","no","xpyriment","legacy","legacy","0","203","NA","uniform","NA","NA","NA","1","undefined","1","0","84","84","84","0","84","84","84","NA","0","84","NA","NA","0","84","NA","84","0","84","NA","NA","NA","84","0","0","NA","NA","84","84","84","84","84","85","z","Mon Mar  4 15:41:39 2024","Executes Python code","yes","m21-ba-lexicalDecision.osexp","C:\Users\ekealey\Desktop","no","mono","no","18","no","white","no","yes","1080","legacy","84","84","C:/Users/ekealey/Desktop/subject-240.csv","xpyriment","Lentiform Loewenfeld","3.3.11","0","z","space","NA","NA","NA","space","z","910","22908","NA","NA","NA","63284","910","2","legacy","1024","2","48000","-16","AB_m21","240","even","NW_S_COMP","FIGEL","1736","477481","475401","472015","65185","410330","NA","NA","NA","NA","475903","NA","NA","NA","474900","NA","474870","1900","477781","NA","NA","NA","475943","1737","1888","NA","NA","476854","476877","474870","475902","475923","morph21_Oliver/Morris","52","88801","85","yes","1920","4"
"250","","61.627906976744185","61.627906976744185","1043.5116279069769","1043.5116279069769","black","no","xpyriment","legacy","legacy","0","202","NA","uniform","NA","NA","NA","1","undefined","1","0","85","85","85","0","85","85","85","NA","0","85","NA","NA","0","85","NA","85","0","85","NA","NA","NA","85","0","0","NA","NA","85","85","85","85","85","86","/","Mon Mar  4 15:41:39 2024","Executes Python code","yes","m21-ba-lexicalDecision.osexp","C:\Users\ekealey\Desktop","no","mono","no","18","no","white","no","yes","1080","legacy","85","85","C:/Users/ekealey/Desktop/subject-240.csv","xpyriment","Lentiform Loewenfeld","3.3.11","0","/","space","NA","NA","NA","space","/","941","22908","NA","NA","NA","63284","941","2","legacy","1024","2","48000","-16","AB_m21","240","even","CW_L","LAUGHING","1736","481466","479356","472015","65185","410330","NA","NA","NA","NA","479856","NA","NA","NA","478856","NA","478825","1900","481716","NA","NA","NA","479896","1737","1888","NA","NA","480838","480861","478825","479856","479876","morph21_Oliver/Morris","53","89742","86","yes","1920","27"
"250","","62.06896551724138","62.06896551724138","1041.5862068965516","1041.5862068965516","black","no","xpyriment","legacy","legacy","0","208","NA","uniform","NA","NA","NA","1","undefined","1","0","86","86","86","0","86","86","86","NA","0","86","NA","NA","0","86","NA","86","0","86","NA","NA","NA","86","0","0","NA","NA","86","86","86","86","86","87","z","Mon Mar  4 15:41:39 2024","Executes Python code","yes","m21-ba-lexicalDecision.osexp","C:\Users\ekealey\Desktop","no","mono","no","18","no","white","no","yes","1080","legacy","86","86","C:/Users/ekealey/Desktop/subject-240.csv","xpyriment","Lentiform Loewenfeld","3.3.11","0","z","space","NA","NA","NA","space","z","876","22908","NA","NA","NA","63284","876","2","legacy","1024","2","48000","-16","AB_m21","240","even","FILL_NW","POLT","1736","486826","483276","485321","65185","410330","NA","NA","NA","NA","483777","NA","NA","NA","482774","NA","482747","1900","487076","NA","NA","NA","483817","1737","1888","NA","NA","484694","484717","482747","483777","483797","morph21_Oliver/Morris","54","90618","87","yes","1920","38"
"350","","62.5","62.5","1039.1363636363637","1039.1363636363637","black","no","xpyriment","legacy","legacy","0","208","NA","uniform","NA","NA","NA","1","undefined","1","0","87","87","87","0","87","87","87","NA","0","87","NA","NA","0","87","NA","87","0","87","NA","NA","NA","87","0","0","NA","NA","87","87","87","87","87","88","z","Mon Mar  4 15:41:39 2024","Executes Python code","yes","m21-ba-lexicalDecision.osexp","C:\Users\ekealey\Desktop","no","mono","no","18","no","white","no","yes","1080","legacy","87","87","C:/Users/ekealey/Desktop/subject-240.csv","xpyriment","Lentiform Loewenfeld","3.3.11","0","z","space","NA","NA","NA","space","z","826","22908","NA","NA","NA","63284","826","2","legacy","1024","2","48000","-16","AB_m21","240","even","FILL_NW","DASP","1736","490656","488662","485321","65185","410330","NA","NA","NA","NA","489162","NA","NA","NA","488162","NA","488133","1900","491007","NA","NA","NA","489203","1737","1888","NA","NA","490030","490053","488133","489162","489183","morph21_Oliver/Morris","55","91444","88","yes","1920","13"
"250","","62.92134831460674","62.92134831460674","1036.2696629213483","1036.2696629213483","black","no","xpyriment","legacy","legacy","0","207","NA","uniform","NA","NA","NA","1","undefined","1","0","88","88","88","0","88","88","88","NA","0","88","NA","NA","0","88","NA","88","0","88","NA","NA","NA","88","0","0","NA","NA","88","88","88","88","88","89","/","Mon Mar  4 15:41:39 2024","Executes Python code","yes","m21-ba-lexicalDecision.osexp","C:\Users\ekealey\Desktop","no","mono","no","18","no","white","no","yes","1080","legacy","88","88","C:/Users/ekealey/Desktop/subject-240.csv","xpyriment","Lentiform Loewenfeld","3.3.11","0","/","space","NA","NA","NA","space","/","784","22908","NA","NA","NA","63284","784","2","legacy","1024","2","48000","-16","AB_m21","240","even","FILL_W","PREACH","1736","494521","492566","485321","65185","410330","NA","NA","NA","NA","493068","NA","NA","NA","492066","NA","492041","1900","494771","NA","NA","NA","493109","1737","1888","NA","NA","493894","493918","492041","493068","493089","morph21_Oliver/Morris","56","92228","89","yes","1920","7"
"300","","62.22222222222222","62.22222222222222","1038.088888888889","1038.088888888889","black","no","xpyriment","legacy","legacy","0","205","NA","uniform","NA","NA","NA","0","undefined","0","0","89","89","89","0","89","89","89","NA","0","89","NA","NA","0","89","NA","89","0","89","NA","NA","NA","89","0","0","NA","NA","89","89","89","89","89","90","z","Mon Mar  4 15:41:39 2024","Executes Python code","yes","m21-ba-lexicalDecision.osexp","C:\Users\ekealey\Desktop","no","mono","no","18","no","white","no","yes","1080","legacy","89","89","C:/Users/ekealey/Desktop/subject-240.csv","xpyriment","Lentiform Loewenfeld","3.3.11","0","None","space","NA","NA","NA","space","None","1200","22908","NA","NA","NA","63284","1200","2","legacy","1024","2","48000","-16","AB_m21","240","even","NW_S_SIMP","SOCKETER","1736","500194","496321","498689","65185","410330","NA","NA","NA","NA","496822","NA","NA","NA","495821","NA","495790","1900","500494","NA","NA","NA","496862","1737","1888","NA","NA","498062","498086","495790","496822","496842","morph21_Oliver/Morris","56","93428","90","yes","1920","1"
"300","","62.637362637362635","62.637362637362635","1036.2637362637363","1036.2637362637363","black","no","xpyriment","legacy","legacy","0","208","NA","uniform","NA","NA","NA","1","undefined","1","0","90","90","90","0","90","90","90","NA","0","90","NA","NA","0","90","NA","90","0","90","NA","NA","NA","90","0","0","NA","NA","90","90","90","90","90","91","z","Mon Mar  4 15:41:39 2024","Executes Python code","yes","m21-ba-lexicalDecision.osexp","C:\Users\ekealey\Desktop","no","mono","no","18","no","white","no","yes","1080","legacy","90","90","C:/Users/ekealey/Desktop/subject-240.csv","xpyriment","Lentiform Loewenfeld","3.3.11","0","z","space","NA","NA","NA","space","z","872","22908","NA","NA","NA","63284","872","2","legacy","1024","2","48000","-16","AB_m21","240","even","FILL_NW","DASK","1736","504120","502080","498689","65185","410330","NA","NA","NA","NA","502581","NA","NA","NA","501579","NA","501548","1900","504420","NA","NA","NA","502621","1737","1888","NA","NA","503494","503517","501548","502581","502601","morph21_Oliver/Morris","57","94300","91","yes","1920","12"
