"ITI","_prepare","acc","accuracy","average_response_time","avg_rt","background","bidi","canvas_backend","clock_backend","color_backend","compensation","cond_trig","condtrigtime","coordinates","coroutines_cycles","coroutines_duration","coroutines_mean_cycle_duration","correct","correct_instructions_1","correct_new_keyboard_response_1","count_AB_m21","count_ITI","count_blank_screen","count_blink_screen","count_block1","count_break1","count_break2","count_break3_1","count_canvas","count_close_port","count_cond_trigger","count_correct_trigger","count_def_chain","count_end_screen","count_fixation_1","count_getting_started","count_inc_counter","count_instructions_1","count_logger","count_logscript","count_new_inline_script","count_new_inline_script_2","count_new_keyboard_response_1","count_open_port","count_reset_counter_prep","count_reset_counter_run","count_reset_counter_run_1","count_response_trigger_trial","count_responsescreen","count_sequence","count_target_present","count_word_trigger","counter","cresp","datetime","description","disable_garbage_collection","experiment_file","experiment_path","font_bold","font_family","font_italic","font_size","font_underline","foreground","form_clicks","fullscreen","height","keyboard_backend","live_row","live_row_block1","logfile","mouse_backend","opensesame_codename","opensesame_version","repeat_cycle","response","response_break1","response_break2","response_break3_1","response_end_screen","response_instructions_1","response_new_keyboard_response_1","response_time","response_time_break1","response_time_break2","response_time_break3_1","response_time_end_screen","response_time_instructions_1","response_time_new_keyboard_response_1","round_decimals","sampler_backend","sound_buf_size","sound_channels","sound_freq","sound_sample_size","start","subject_nr","subject_parity","targ_type","target","time_AB_m21","time_ITI","time_blank_screen","time_blink_screen","time_block1","time_break1","time_break2","time_break3_1","time_canvas","time_close_port","time_cond_trigger","time_correct_trigger","time_def_chain","time_end_screen","time_fixation_1","time_getting_started","time_inc_counter","time_instructions_1","time_logger","time_logscript","time_new_inline_script","time_new_inline_script_2","time_new_keyboard_response_1","time_open_port","time_reset_counter_prep","time_reset_counter_run","time_reset_counter_run_1","time_response_trigger_trial","time_responsescreen","time_sequence","time_target_present","time_word_trigger","title","total_correct","total_response_time","total_responses","uniform_coordinates","width","word_trig"
"200","","0","0","1200","1200","black","no","xpyriment","legacy","legacy","0","204","NA","uniform","NA","NA","NA","0","undefined","0","0","0","0","0","0","0","0","0","NA","0","0","NA","NA","0","0","NA","0","0","0","NA","NA","NA","0","0","0","NA","NA","0","0","0","0","0","1","z","Tue Jun 20 18:26:04 2023","Executes Python code","yes","m21-ba-lexicalDecision.osexp","C:\Users\emoore8\Desktop\m21_vsl-main","no","mono","no","18","no","white","no","yes","1080","legacy","0","0","C:/Users/emoore8/Desktop/m21_vsl-main/subject-208.csv","xpyriment","Lentiform Loewenfeld","3.3.11","0","None","NA","NA","NA","NA","space","None","1200","NA","NA","NA","NA","174710","1200","2","legacy","1024","2","48000","-16","AB_m21","208","even","NW_L_COMP","PITCHODY","1709","180714","178347","NA","176577","NA","NA","NA","NA","NA","178847","NA","NA","NA","177847","NA","177816","1866","180914","NA","NA","NA","178888","1709","1853","NA","NA","180088","180111","177815","178847","178868","morph21_Oliver/Morris","0","1200","1","yes","1920","25"
"350","","50","50","1156.5","1156.5","black","no","xpyriment","legacy","legacy","0","202","NA","uniform","NA","NA","NA","1","undefined","1","0","1","1","1","0","1","1","1","NA","0","1","NA","NA","0","1","NA","1","0","1","NA","NA","NA","1","0","0","NA","NA","1","1","1","1","1","2","/","Tue Jun 20 18:26:04 2023","Executes Python code","yes","m21-ba-lexicalDecision.osexp","C:\Users\emoore8\Desktop\m21_vsl-main","no","mono","no","18","no","white","no","yes","1080","legacy","1","1","C:/Users/emoore8/Desktop/m21_vsl-main/subject-208.csv","xpyriment","Lentiform Loewenfeld","3.3.11","0","/","NA","NA","NA","NA","space","/","1113","NA","NA","NA","NA","174710","1113","2","legacy","1024","2","48000","-16","AB_m21","208","even","CW_L","EDITOR","1709","184756","182475","NA","176577","NA","NA","NA","NA","NA","182975","NA","NA","NA","181975","NA","181948","1866","185106","NA","NA","NA","183015","1709","1853","NA","NA","184128","184152","181948","182975","182995","morph21_Oliver/Morris","1","2313","2","yes","1920","45"
"250","","33.333333333333336","33.333333333333336","901.6666666666666","901.6666666666666","black","no","xpyriment","legacy","legacy","0","204","NA","uniform","NA","NA","NA","0","undefined","0","0","2","2","2","0","2","2","2","NA","0","2","NA","NA","0","2","NA","2","0","2","NA","NA","NA","2","0","0","NA","NA","2","2","2","2","2","3","z","Tue Jun 20 18:26:04 2023","Executes Python code","yes","m21-ba-lexicalDecision.osexp","C:\Users\emoore8\Desktop\m21_vsl-main","no","mono","no","18","no","white","no","yes","1080","legacy","2","2","C:/Users/emoore8/Desktop/m21_vsl-main/subject-208.csv","xpyriment","Lentiform Loewenfeld","3.3.11","0","/","NA","NA","NA","NA","space","/","392","NA","NA","NA","NA","174710","392","2","legacy","1024","2","48000","-16","AB_m21","208","even","NW_L_COMP","TRIPADY","1709","189701","186633","188198","176577","NA","NA","NA","NA","NA","187134","NA","NA","NA","186132","NA","186106","1866","189951","NA","NA","NA","187175","1709","1853","NA","NA","187568","187593","186106","187134","187155","morph21_Oliver/Morris","1","2705","3","yes","1920","2"
"350","","50","50","892.75","892.75","black","no","xpyriment","legacy","legacy","0","207","NA","uniform","NA","NA","NA","1","undefined","1","0","3","3","3","0","3","3","3","NA","0","3","NA","NA","0","3","NA","3","0","3","NA","NA","NA","3","0","0","NA","NA","3","3","3","3","3","4","/","Tue Jun 20 18:26:04 2023","Executes Python code","yes","m21-ba-lexicalDecision.osexp","C:\Users\emoore8\Desktop\m21_vsl-main","no","mono","no","18","no","white","no","yes","1080","legacy","3","3","C:/Users/emoore8/Desktop/m21_vsl-main/subject-208.csv","xpyriment","Lentiform Loewenfeld","3.3.11","0","/","NA","NA","NA","NA","space","/","866","NA","NA","NA","NA","174710","866","2","legacy","1024","2","48000","-16","AB_m21","208","even","FILL_W","LIFT","1709","193507","191473","188198","176577","NA","NA","NA","NA","NA","191973","NA","NA","NA","190973","NA","190946","1866","193857","NA","NA","NA","192014","1709","1853","NA","NA","192880","192904","190946","191973","191994","morph21_Oliver/Morris","2","3571","4","yes","1920","39"
"400","","40","40","779","779","black","no","xpyriment","legacy","legacy","0","204","NA","uniform","NA","NA","NA","0","undefined","0","0","4","4","4","0","4","4","4","NA","0","4","NA","NA","0","4","NA","4","0","4","NA","NA","NA","4","0","0","NA","NA","4","4","4","4","4","5","z","Tue Jun 20 18:26:04 2023","Executes Python code","yes","m21-ba-lexicalDecision.osexp","C:\Users\emoore8\Desktop\m21_vsl-main","no","mono","no","18","no","white","no","yes","1080","legacy","4","4","C:/Users/emoore8/Desktop/m21_vsl-main/subject-208.csv","xpyriment","Lentiform Loewenfeld","3.3.11","0","/","NA","NA","NA","NA","space","/","324","NA","NA","NA","NA","174710","324","2","legacy","1024","2","48000","-16","AB_m21","208","even","NW_L_COMP","COLDIDY","1709","196851","195356","188198","176577","NA","NA","NA","NA","NA","195859","NA","NA","NA","194855","NA","194830","1866","197251","NA","NA","NA","195899","1709","1853","NA","NA","196224","196247","194830","195858","195879","morph21_Oliver/Morris","2","3895","5","yes","1920","10"
"400","","50","50","730.5","730.5","black","no","xpyriment","legacy","legacy","0","202","NA","uniform","NA","NA","NA","1","undefined","1","0","5","5","5","0","5","5","5","NA","0","5","NA","NA","0","5","NA","5","0","5","NA","NA","NA","5","0","0","NA","NA","5","5","5","5","5","6","/","Tue Jun 20 18:26:04 2023","Executes Python code","yes","m21-ba-lexicalDecision.osexp","C:\Users\emoore8\Desktop\m21_vsl-main","no","mono","no","18","no","white","no","yes","1080","legacy","5","5","C:/Users/emoore8/Desktop/m21_vsl-main/subject-208.csv","xpyriment","Lentiform Loewenfeld","3.3.11","0","/","NA","NA","NA","NA","space","/","488","NA","NA","NA","NA","174710","488","2","legacy","1024","2","48000","-16","AB_m21","208","even","CW_L","QUIETLY","1709","201938","198779","200436","176577","NA","NA","NA","NA","NA","199279","NA","NA","NA","198279","NA","198251","1866","202339","NA","NA","NA","199319","1709","1853","NA","NA","199808","199832","198251","199279","199299","morph21_Oliver/Morris","3","4383","6","yes","1920","36"
"200","","57.142857142857146","57.142857142857146","749.8571428571429","749.8571428571429","black","no","xpyriment","legacy","legacy","0","207","NA","uniform","NA","NA","NA","1","undefined","1","0","6","6","6","0","6","6","6","NA","0","6","NA","NA","0","6","NA","6","0","6","NA","NA","NA","6","0","0","NA","NA","6","6","6","6","6","7","/","Tue Jun 20 18:26:04 2023","Executes Python code","yes","m21-ba-lexicalDecision.osexp","C:\Users\emoore8\Desktop\m21_vsl-main","no","mono","no","18","no","white","no","yes","1080","legacy","6","6","C:/Users/emoore8/Desktop/m21_vsl-main/subject-208.csv","xpyriment","Lentiform Loewenfeld","3.3.11","0","/","NA","NA","NA","NA","space","/","866","NA","NA","NA","NA","174710","866","2","legacy","1024","2","48000","-16","AB_m21","208","even","FILL_W","WRECK","1709","205883","203849","200436","176577","NA","NA","NA","NA","NA","204349","NA","NA","NA","203349","NA","203321","1866","206083","NA","NA","NA","204389","1709","1853","NA","NA","205256","205279","203321","204349","204369","morph21_Oliver/Morris","4","5249","7","yes","1920","13"
"400","","50","50","806.125","806.125","black","no","xpyriment","legacy","legacy","0","201","NA","uniform","NA","NA","NA","0","undefined","0","0","7","7","7","0","7","7","7","NA","0","7","NA","NA","0","7","NA","7","0","7","NA","NA","NA","7","0","0","NA","NA","7","7","7","7","7","8","/","Tue Jun 20 18:26:04 2023","Executes Python code","yes","m21-ba-lexicalDecision.osexp","C:\Users\emoore8\Desktop\m21_vsl-main","no","mono","no","18","no","white","no","yes","1080","legacy","7","7","C:/Users/emoore8/Desktop/m21_vsl-main/subject-208.csv","xpyriment","Lentiform Loewenfeld","3.3.11","0","None","NA","NA","NA","NA","space","None","1200","NA","NA","NA","NA","174710","1200","2","legacy","1024","2","48000","-16","AB_m21","208","even","CW_S","RAIDER","1709","210468","208099","200436","176577","NA","NA","NA","NA","NA","208601","NA","NA","NA","207597","NA","207570","1866","210868","NA","NA","NA","208642","1709","1853","NA","NA","209842","209865","207570","208601","208622","morph21_Oliver/Morris","4","6449","8","yes","1920","12"
"250","","55.55555555555556","55.55555555555556","791.4444444444445","791.4444444444445","black","no","xpyriment","legacy","legacy","0","201","NA","uniform","NA","NA","NA","1","undefined","1","0","8","8","8","0","8","8","8","NA","0","8","NA","NA","0","8","NA","8","0","8","NA","NA","NA","8","0","0","NA","NA","8","8","8","8","8","9","/","Tue Jun 20 18:26:04 2023","Executes Python code","yes","m21-ba-lexicalDecision.osexp","C:\Users\emoore8\Desktop\m21_vsl-main","no","mono","no","18","no","white","no","yes","1080","legacy","8","8","C:/Users/emoore8/Desktop/m21_vsl-main/subject-208.csv","xpyriment","Lentiform Loewenfeld","3.3.11","0","/","NA","NA","NA","NA","space","/","674","NA","NA","NA","NA","174710","674","2","legacy","1024","2","48000","-16","AB_m21","208","even","CW_S","HARMLESS","1709","215974","212623","214471","176577","NA","NA","NA","NA","NA","213125","NA","NA","NA","212120","NA","212091","1866","216224","NA","NA","NA","213166","1709","1853","NA","NA","213840","213867","212091","213125","213146","morph21_Oliver/Morris","5","7123","9","yes","1920","29"
"250","","60","60","780.4","780.4","black","no","xpyriment","legacy","legacy","0","208","NA","uniform","NA","NA","NA","1","undefined","1","0","9","9","9","0","9","9","9","NA","0","9","NA","NA","0","9","NA","9","0","9","NA","NA","NA","9","0","0","NA","NA","9","9","9","9","9","10","z","Tue Jun 20 18:26:04 2023","Executes Python code","yes","m21-ba-lexicalDecision.osexp","C:\Users\emoore8\Desktop\m21_vsl-main","no","mono","no","18","no","white","no","yes","1080","legacy","9","9","C:/Users/emoore8/Desktop/m21_vsl-main/subject-208.csv","xpyriment","Lentiform Loewenfeld","3.3.11","0","z","NA","NA","NA","NA","space","z","681","NA","NA","NA","NA","174710","681","2","legacy","1024","2","48000","-16","AB_m21","208","even","FILL_NW","LOLDS","1709","219894","218041","214471","176577","NA","NA","NA","NA","NA","218542","NA","NA","NA","217540","NA","217510","1866","220144","NA","NA","NA","218583","1709","1853","NA","NA","219264","219289","217510","218542","218563","morph21_Oliver/Morris","6","7804","10","yes","1920","34"
"250","","63.63636363636363","63.63636363636363","759.3636363636364","759.3636363636364","black","no","xpyriment","legacy","legacy","0","204","NA","uniform","NA","NA","NA","1","undefined","1","0","10","10","10","0","10","10","10","NA","0","10","NA","NA","0","10","NA","10","0","10","NA","NA","NA","10","0","0","NA","NA","10","10","10","10","10","11","z","Tue Jun 20 18:26:04 2023","Executes Python code","yes","m21-ba-lexicalDecision.osexp","C:\Users\emoore8\Desktop\m21_vsl-main","no","mono","no","18","no","white","no","yes","1080","legacy","10","10","C:/Users/emoore8/Desktop/m21_vsl-main/subject-208.csv","xpyriment","Lentiform Loewenfeld","3.3.11","0","z","NA","NA","NA","NA","space","z","549","NA","NA","NA","NA","174710","549","2","legacy","1024","2","48000","-16","AB_m21","208","even","NW_L_COMP","FREENELS","1709","223652","221934","214471","176577","NA","NA","NA","NA","NA","222435","NA","NA","NA","221433","NA","221405","1866","223902","NA","NA","NA","222475","1709","1853","NA","NA","223024","223048","221405","222434","222455","morph21_Oliver/Morris","7","8353","11","yes","1920","15"
"300","","66.66666666666667","66.66666666666667","764.3333333333334","764.3333333333334","black","no","xpyriment","legacy","legacy","0","205","NA","uniform","NA","NA","NA","1","undefined","1","0","11","11","11","0","11","11","11","NA","0","11","NA","NA","0","11","NA","11","0","11","NA","NA","NA","11","0","0","NA","NA","11","11","11","11","11","12","z","Tue Jun 20 18:26:04 2023","Executes Python code","yes","m21-ba-lexicalDecision.osexp","C:\Users\emoore8\Desktop\m21_vsl-main","no","mono","no","18","no","white","no","yes","1080","legacy","11","11","C:/Users/emoore8/Desktop/m21_vsl-main/subject-208.csv","xpyriment","Lentiform Loewenfeld","3.3.11","0","z","NA","NA","NA","NA","space","z","819","NA","NA","NA","NA","174710","819","2","legacy","1024","2","48000","-16","AB_m21","208","even","NW_S_SIMP","YIELDIST","1709","229102","225608","227597","176577","NA","NA","NA","NA","NA","226108","NA","NA","NA","225108","NA","225077","1866","229402","NA","NA","NA","226149","1709","1853","NA","NA","226968","226993","225077","226108","226129","morph21_Oliver/Morris","8","9172","12","yes","1920","20"
"200","","61.53846153846154","61.53846153846154","776.3846153846154","776.3846153846154","black","no","xpyriment","legacy","legacy","0","203","NA","uniform","NA","NA","NA","0","undefined","0","0","12","12","12","0","12","12","12","NA","0","12","NA","NA","0","12","NA","12","0","12","NA","NA","NA","12","0","0","NA","NA","12","12","12","12","12","13","z","Tue Jun 20 18:26:04 2023","Executes Python code","yes","m21-ba-lexicalDecision.osexp","C:\Users\emoore8\Desktop\m21_vsl-main","no","mono","no","18","no","white","no","yes","1080","legacy","12","12","C:/Users/emoore8/Desktop/m21_vsl-main/subject-208.csv","xpyriment","Lentiform Loewenfeld","3.3.11","0","/","NA","NA","NA","NA","space","/","921","NA","NA","NA","NA","174710","921","2","legacy","1024","2","48000","-16","AB_m21","208","even","NW_S_COMP","MELTANGE","1709","233050","230960","227597","176577","NA","NA","NA","NA","NA","231462","NA","NA","NA","230459","NA","230432","1866","233250","NA","NA","NA","231502","1709","1853","NA","NA","232424","232447","230432","231462","231482","morph21_Oliver/Morris","8","10093","13","yes","1920","1"
"250","","64.28571428571429","64.28571428571429","776.3571428571429","776.3571428571429","black","no","xpyriment","legacy","legacy","0","207","NA","uniform","NA","NA","NA","1","undefined","1","0","13","13","13","0","13","13","13","NA","0","13","NA","NA","0","13","NA","13","0","13","NA","NA","NA","13","0","0","NA","NA","13","13","13","13","13","14","/","Tue Jun 20 18:26:04 2023","Executes Python code","yes","m21-ba-lexicalDecision.osexp","C:\Users\emoore8\Desktop\m21_vsl-main","no","mono","no","18","no","white","no","yes","1080","legacy","13","13","C:/Users/emoore8/Desktop/m21_vsl-main/subject-208.csv","xpyriment","Lentiform Loewenfeld","3.3.11","0","/","NA","NA","NA","NA","space","/","776","NA","NA","NA","NA","174710","776","2","legacy","1024","2","48000","-16","AB_m21","208","even","FILL_W","SMOKE","1709","236746","234803","227597","176577","NA","NA","NA","NA","NA","235303","NA","NA","NA","234301","NA","234274","1866","236996","NA","NA","NA","235344","1709","1853","NA","NA","236120","236143","234274","235303","235324","morph21_Oliver/Morris","9","10869","14","yes","1920","50"
"400","","66.66666666666667","66.66666666666667","766.8","766.8","black","no","xpyriment","legacy","legacy","0","205","NA","uniform","NA","NA","NA","1","undefined","1","0","14","14","14","0","14","14","14","NA","0","14","NA","NA","0","14","NA","14","0","14","NA","NA","NA","14","0","0","NA","NA","14","14","14","14","14","15","z","Tue Jun 20 18:26:04 2023","Executes Python code","yes","m21-ba-lexicalDecision.osexp","C:\Users\emoore8\Desktop\m21_vsl-main","no","mono","no","18","no","white","no","yes","1080","legacy","14","14","C:/Users/emoore8/Desktop/m21_vsl-main/subject-208.csv","xpyriment","Lentiform Loewenfeld","3.3.11","0","z","NA","NA","NA","NA","space","z","633","NA","NA","NA","NA","174710","633","2","legacy","1024","2","48000","-16","AB_m21","208","even","NW_S_SIMP","RAMPIZE","1709","241817","238513","240315","176577","NA","NA","NA","NA","NA","239013","NA","NA","NA","238013","NA","237984","1866","242217","NA","NA","NA","239054","1709","1853","NA","NA","239688","239712","237984","239013","239034","morph21_Oliver/Morris","10","11502","15","yes","1920","6"
"200","","68.75","68.75","762.1875","762.1875","black","no","xpyriment","legacy","legacy","0","207","NA","uniform","NA","NA","NA","1","undefined","1","0","15","15","15","0","15","15","15","NA","0","15","NA","NA","0","15","NA","15","0","15","NA","NA","NA","15","0","0","NA","NA","15","15","15","15","15","16","/","Tue Jun 20 18:26:04 2023","Executes Python code","yes","m21-ba-lexicalDecision.osexp","C:\Users\emoore8\Desktop\m21_vsl-main","no","mono","no","18","no","white","no","yes","1080","legacy","15","15","C:/Users/emoore8/Desktop/m21_vsl-main/subject-208.csv","xpyriment","Lentiform Loewenfeld","3.3.11","0","/","NA","NA","NA","NA","space","/","693","NA","NA","NA","NA","174710","693","2","legacy","1024","2","48000","-16","AB_m21","208","even","FILL_W","STALK","1709","245595","243733","240315","176577","NA","NA","NA","NA","NA","244234","NA","NA","NA","243233","NA","243207","1866","245795","NA","NA","NA","244274","1709","1853","NA","NA","244968","244992","243207","244234","244254","morph21_Oliver/Morris","11","12195","16","yes","1920","27"
"400","","70.58823529411765","70.58823529411765","756.8235294117648","756.8235294117648","black","no","xpyriment","legacy","legacy","0","202","NA","uniform","NA","NA","NA","1","undefined","1","0","16","16","16","0","16","16","16","NA","0","16","NA","NA","0","16","NA","16","0","16","NA","NA","NA","16","0","0","NA","NA","16","16","16","16","16","17","/","Tue Jun 20 18:26:04 2023","Executes Python code","yes","m21-ba-lexicalDecision.osexp","C:\Users\emoore8\Desktop\m21_vsl-main","no","mono","no","18","no","white","no","yes","1080","legacy","16","16","C:/Users/emoore8/Desktop/m21_vsl-main/subject-208.csv","xpyriment","Lentiform Loewenfeld","3.3.11","0","/","NA","NA","NA","NA","space","/","671","NA","NA","NA","NA","174710","671","2","legacy","1024","2","48000","-16","AB_m21","208","even","CW_L","COOLING","1709","249156","247317","240315","176577","NA","NA","NA","NA","NA","247817","NA","NA","NA","246816","NA","246793","1866","249556","NA","NA","NA","247857","1709","1853","NA","NA","248528","248552","246793","247817","247837","morph21_Oliver/Morris","12","12866","17","yes","1920","24"
"250","","66.66666666666667","66.66666666666667","762.1111111111111","762.1111111111111","black","no","xpyriment","legacy","legacy","0","201","NA","uniform","NA","NA","NA","0","undefined","0","0","17","17","17","0","17","17","17","NA","0","17","NA","NA","0","17","NA","17","0","17","NA","NA","NA","17","0","0","NA","NA","17","17","17","17","17","18","/","Tue Jun 20 18:26:04 2023","Executes Python code","yes","m21-ba-lexicalDecision.osexp","C:\Users\emoore8\Desktop\m21_vsl-main","no","mono","no","18","no","white","no","yes","1080","legacy","17","17","C:/Users/emoore8/Desktop/m21_vsl-main/subject-208.csv","xpyriment","Lentiform Loewenfeld","3.3.11","0","z","NA","NA","NA","NA","space","z","852","NA","NA","NA","NA","174710","852","2","legacy","1024","2","48000","-16","AB_m21","208","even","CW_S","GRIMLY","1709","254606","251079","253101","176577","NA","NA","NA","NA","NA","251580","NA","NA","NA","250578","NA","250549","1866","254856","NA","NA","NA","251620","1709","1853","NA","NA","252472","252497","250549","251580","251600","morph21_Oliver/Morris","12","13718","18","yes","1920","31"
"250","","68.42105263157895","68.42105263157895","774.2631578947369","774.2631578947369","black","no","xpyriment","legacy","legacy","0","201","NA","uniform","NA","NA","NA","1","undefined","1","0","18","18","18","0","18","18","18","NA","0","18","NA","NA","0","18","NA","18","0","18","NA","NA","NA","18","0","0","NA","NA","18","18","18","18","18","19","/","Tue Jun 20 18:26:04 2023","Executes Python code","yes","m21-ba-lexicalDecision.osexp","C:\Users\emoore8\Desktop\m21_vsl-main","no","mono","no","18","no","white","no","yes","1080","legacy","18","18","C:/Users/emoore8/Desktop/m21_vsl-main/subject-208.csv","xpyriment","Lentiform Loewenfeld","3.3.11","0","/","NA","NA","NA","NA","space","/","993","NA","NA","NA","NA","174710","993","2","legacy","1024","2","48000","-16","AB_m21","208","even","CW_S","TUTORING","1709","258538","256378","253101","176577","NA","NA","NA","NA","NA","256878","NA","NA","NA","255878","NA","255850","1866","258788","NA","NA","NA","256919","1709","1853","NA","NA","257912","257936","255850","256878","256899","morph21_Oliver/Morris","13","14711","19","yes","1920","27"
"350","","70","70","762.55","762.55","black","no","xpyriment","legacy","legacy","0","201","NA","uniform","NA","NA","NA","1","undefined","1","0","19","19","19","0","19","19","19","NA","0","19","NA","NA","0","19","NA","19","0","19","NA","NA","NA","19","0","0","NA","NA","19","19","19","19","19","20","/","Tue Jun 20 18:26:04 2023","Executes Python code","yes","m21-ba-lexicalDecision.osexp","C:\Users\emoore8\Desktop\m21_vsl-main","no","mono","no","18","no","white","no","yes","1080","legacy","19","19","C:/Users/emoore8/Desktop/m21_vsl-main/subject-208.csv","xpyriment","Lentiform Loewenfeld","3.3.11","0","/","NA","NA","NA","NA","space","/","540","NA","NA","NA","NA","174710","540","2","legacy","1024","2","48000","-16","AB_m21","208","even","CW_S","CHILLY","1709","261996","260286","253101","176577","NA","NA","NA","NA","NA","260786","NA","NA","NA","259786","NA","259763","1866","262346","NA","NA","NA","260827","1709","1853","NA","NA","261368","261393","259763","260786","260807","morph21_Oliver/Morris","14","15251","20","yes","1920","48"
"200","","71.42857142857143","71.42857142857143","758.5714285714286","758.5714285714286","black","no","xpyriment","legacy","legacy","0","208","NA","uniform","NA","NA","NA","1","undefined","1","0","20","20","20","0","20","20","20","NA","0","20","NA","NA","0","20","NA","20","0","20","NA","NA","NA","20","0","0","NA","NA","20","20","20","20","20","21","z","Tue Jun 20 18:26:04 2023","Executes Python code","yes","m21-ba-lexicalDecision.osexp","C:\Users\emoore8\Desktop\m21_vsl-main","no","mono","no","18","no","white","no","yes","1080","legacy","20","20","C:/Users/emoore8/Desktop/m21_vsl-main/subject-208.csv","xpyriment","Lentiform Loewenfeld","3.3.11","0","z","NA","NA","NA","NA","space","z","679","NA","NA","NA","NA","174710","679","2","legacy","1024","2","48000","-16","AB_m21","208","even","FILL_NW","BLAYS","1709","267201","263851","265698","176577","NA","NA","NA","NA","NA","264351","NA","NA","NA","263350","NA","263326","1866","267401","NA","NA","NA","264392","1709","1853","NA","NA","265072","265095","263326","264351","264372","morph21_Oliver/Morris","15","15930","21","yes","1920","8"
"300","","72.72727272727273","72.72727272727273","764.5454545454545","764.5454545454545","black","no","xpyriment","legacy","legacy","0","205","NA","uniform","NA","NA","NA","1","undefined","1","0","21","21","21","0","21","21","21","NA","0","21","NA","NA","0","21","NA","21","0","21","NA","NA","NA","21","0","0","NA","NA","21","21","21","21","21","22","z","Tue Jun 20 18:26:04 2023","Executes Python code","yes","m21-ba-lexicalDecision.osexp","C:\Users\emoore8\Desktop\m21_vsl-main","no","mono","no","18","no","white","no","yes","1080","legacy","21","21","C:/Users/emoore8/Desktop/m21_vsl-main/subject-208.csv","xpyriment","Lentiform Loewenfeld","3.3.11","0","z","NA","NA","NA","NA","space","z","890","NA","NA","NA","NA","174710","890","2","legacy","1024","2","48000","-16","AB_m21","208","even","NW_S_SIMP","TILTARY","1709","270966","268905","265698","176577","NA","NA","NA","NA","NA","269405","NA","NA","NA","268405","NA","268378","1866","271266","NA","NA","NA","269446","1709","1853","NA","NA","270337","270361","268378","269405","269426","morph21_Oliver/Morris","16","16820","22","yes","1920","17"
"300","","73.91304347826087","73.91304347826087","758.6086956521739","758.6086956521739","black","no","xpyriment","legacy","legacy","0","205","NA","uniform","NA","NA","NA","1","undefined","1","0","22","22","22","0","22","22","22","NA","0","22","NA","NA","0","22","NA","22","0","22","NA","NA","NA","22","0","0","NA","NA","22","22","22","22","22","23","z","Tue Jun 20 18:26:04 2023","Executes Python code","yes","m21-ba-lexicalDecision.osexp","C:\Users\emoore8\Desktop\m21_vsl-main","no","mono","no","18","no","white","no","yes","1080","legacy","22","22","C:/Users/emoore8/Desktop/m21_vsl-main/subject-208.csv","xpyriment","Lentiform Loewenfeld","3.3.11","0","z","NA","NA","NA","NA","space","z","628","NA","NA","NA","NA","174710","628","2","legacy","1024","2","48000","-16","AB_m21","208","even","NW_S_SIMP","SOCKETER","1709","274556","272758","265698","176577","NA","NA","NA","NA","NA","273259","NA","NA","NA","272257","NA","272234","1866","274857","NA","NA","NA","273300","1709","1853","NA","NA","273928","273953","272234","273259","273280","morph21_Oliver/Morris","17","17448","23","yes","1920","1"
"250","","75","75","754.5833333333334","754.5833333333334","black","no","xpyriment","legacy","legacy","0","201","NA","uniform","NA","NA","NA","1","undefined","1","0","23","23","23","0","23","23","23","NA","0","23","NA","NA","0","23","NA","23","0","23","NA","NA","NA","23","0","0","NA","NA","23","23","23","23","23","24","/","Tue Jun 20 18:26:04 2023","Executes Python code","yes","m21-ba-lexicalDecision.osexp","C:\Users\emoore8\Desktop\m21_vsl-main","no","mono","no","18","no","white","no","yes","1080","legacy","23","23","C:/Users/emoore8/Desktop/m21_vsl-main/subject-208.csv","xpyriment","Lentiform Loewenfeld","3.3.11","0","/","NA","NA","NA","NA","space","/","662","NA","NA","NA","NA","174710","662","2","legacy","1024","2","48000","-16","AB_m21","208","even","CW_S","AWARENESS","1709","279693","276356","278189","176577","NA","NA","NA","NA","NA","276857","NA","NA","NA","275854","NA","275832","1866","279943","NA","NA","NA","276898","1709","1853","NA","NA","277561","277585","275832","276857","276878","morph21_Oliver/Morris","18","18110","24","yes","1920","44"
"300","","76","76","750.72","750.72","black","no","xpyriment","legacy","legacy","0","202","NA","uniform","NA","NA","NA","1","undefined","1","0","24","24","24","0","24","24","24","NA","0","24","NA","NA","0","24","NA","24","0","24","NA","NA","NA","24","0","0","NA","NA","24","24","24","24","24","25","/","Tue Jun 20 18:26:04 2023","Executes Python code","yes","m21-ba-lexicalDecision.osexp","C:\Users\emoore8\Desktop\m21_vsl-main","no","mono","no","18","no","white","no","yes","1080","legacy","24","24","C:/Users/emoore8/Desktop/m21_vsl-main/subject-208.csv","xpyriment","Lentiform Loewenfeld","3.3.11","0","/","NA","NA","NA","NA","space","/","658","NA","NA","NA","NA","174710","658","2","legacy","1024","2","48000","-16","AB_m21","208","even","CW_L","HEATER","1709","283274","281449","278189","176577","NA","NA","NA","NA","NA","281949","NA","NA","NA","280949","NA","280922","1866","283574","NA","NA","NA","281989","1709","1853","NA","NA","282648","282671","280922","281949","281969","morph21_Oliver/Morris","19","18768","25","yes","1920","16"
"350","","76.92307692307692","76.92307692307692","746.0769230769231","746.0769230769231","black","no","xpyriment","legacy","legacy","0","202","NA","uniform","NA","NA","NA","1","undefined","1","0","25","25","25","0","25","25","25","NA","0","25","NA","NA","0","25","NA","25","0","25","NA","NA","NA","25","0","0","NA","NA","25","25","25","25","25","26","/","Tue Jun 20 18:26:04 2023","Executes Python code","yes","m21-ba-lexicalDecision.osexp","C:\Users\emoore8\Desktop\m21_vsl-main","no","mono","no","18","no","white","no","yes","1080","legacy","25","25","C:/Users/emoore8/Desktop/m21_vsl-main/subject-208.csv","xpyriment","Lentiform Loewenfeld","3.3.11","0","/","NA","NA","NA","NA","space","/","630","NA","NA","NA","NA","174710","630","2","legacy","1024","2","48000","-16","AB_m21","208","even","CW_L","KICKING","1709","286867","285068","278189","176577","NA","NA","NA","NA","NA","285568","NA","NA","NA","284568","NA","284542","1866","287217","NA","NA","NA","285609","1709","1853","NA","NA","286240","286264","284542","285568","285589","morph21_Oliver/Morris","20","19398","26","yes","1920","23"
"350","","77.77777777777777","77.77777777777777","760.9629629629629","760.9629629629629","black","no","xpyriment","legacy","legacy","0","206","NA","uniform","NA","NA","NA","1","undefined","1","0","26","26","26","0","26","26","26","NA","0","26","NA","NA","0","26","NA","26","0","26","NA","NA","NA","26","0","0","NA","NA","26","26","26","26","26","27","z","Tue Jun 20 18:26:04 2023","Executes Python code","yes","m21-ba-lexicalDecision.osexp","C:\Users\emoore8\Desktop\m21_vsl-main","no","mono","no","18","no","white","no","yes","1080","legacy","26","26","C:/Users/emoore8/Desktop/m21_vsl-main/subject-208.csv","xpyriment","Lentiform Loewenfeld","3.3.11","0","z","NA","NA","NA","NA","space","z","1148","NA","NA","NA","NA","174710","1148","2","legacy","1024","2","48000","-16","AB_m21","208","even","NW_L_SIMP","WIGISH","1709","292542","288718","291036","176577","NA","NA","NA","NA","NA","289218","NA","NA","NA","288217","NA","288194","1866","292892","NA","NA","NA","289259","1709","1853","NA","NA","290408","290433","288194","289218","289239","morph21_Oliver/Morris","21","20546","27","yes","1920","9"
"200","","78.57142857142857","78.57142857142857","764.5","764.5","black","no","xpyriment","legacy","legacy","0","201","NA","uniform","NA","NA","NA","1","undefined","1","0","27","27","27","0","27","27","27","NA","0","27","NA","NA","0","27","NA","27","0","27","NA","NA","NA","27","0","0","NA","NA","27","27","27","27","27","28","/","Tue Jun 20 18:26:04 2023","Executes Python code","yes","m21-ba-lexicalDecision.osexp","C:\Users\emoore8\Desktop\m21_vsl-main","no","mono","no","18","no","white","no","yes","1080","legacy","27","27","C:/Users/emoore8/Desktop/m21_vsl-main/subject-208.csv","xpyriment","Lentiform Loewenfeld","3.3.11","0","/","NA","NA","NA","NA","space","/","860","NA","NA","NA","NA","174710","860","2","legacy","1024","2","48000","-16","AB_m21","208","even","CW_S","THRUSTER","1709","296435","294406","291036","176577","NA","NA","NA","NA","NA","294906","NA","NA","NA","293905","NA","293878","1866","296635","NA","NA","NA","294947","1709","1853","NA","NA","295808","295831","293878","294906","294927","morph21_Oliver/Morris","22","21406","28","yes","1920","24"
"400","","79.3103448275862","79.3103448275862","766.9655172413793","766.9655172413793","black","no","xpyriment","legacy","legacy","0","207","NA","uniform","NA","NA","NA","1","undefined","1","0","28","28","28","0","28","28","28","NA","0","28","NA","NA","0","28","NA","28","0","28","NA","NA","NA","28","0","0","NA","NA","28","28","28","28","28","29","/","Tue Jun 20 18:26:04 2023","Executes Python code","yes","m21-ba-lexicalDecision.osexp","C:\Users\emoore8\Desktop\m21_vsl-main","no","mono","no","18","no","white","no","yes","1080","legacy","28","28","C:/Users/emoore8/Desktop/m21_vsl-main/subject-208.csv","xpyriment","Lentiform Loewenfeld","3.3.11","0","/","NA","NA","NA","NA","space","/","836","NA","NA","NA","NA","174710","836","2","legacy","1024","2","48000","-16","AB_m21","208","even","FILL_W","CEASE","1709","300147","298144","291036","176577","NA","NA","NA","NA","NA","298644","NA","NA","NA","297644","NA","297617","1866","300547","NA","NA","NA","298684","1709","1853","NA","NA","299521","299544","297617","298644","298664","morph21_Oliver/Morris","23","22242","29","yes","1920","18"
"300","","80","80","767.8","767.8","black","no","xpyriment","legacy","legacy","0","207","NA","uniform","NA","NA","NA","1","undefined","1","0","29","29","29","0","29","29","29","NA","0","29","NA","NA","0","29","NA","29","0","29","NA","NA","NA","29","0","0","NA","NA","29","29","29","29","29","30","/","Tue Jun 20 18:26:04 2023","Executes Python code","yes","m21-ba-lexicalDecision.osexp","C:\Users\emoore8\Desktop\m21_vsl-main","no","mono","no","18","no","white","no","yes","1080","legacy","29","29","C:/Users/emoore8/Desktop/m21_vsl-main/subject-208.csv","xpyriment","Lentiform Loewenfeld","3.3.11","0","/","NA","NA","NA","NA","space","/","792","NA","NA","NA","NA","174710","792","2","legacy","1024","2","48000","-16","AB_m21","208","even","FILL_W","BAKE","1709","305533","302067","304029","176577","NA","NA","NA","NA","NA","302567","NA","NA","NA","301567","NA","301541","1866","305833","NA","NA","NA","302608","1709","1853","NA","NA","303401","303426","301541","302567","302588","morph21_Oliver/Morris","24","23034","30","yes","1920","29"
"200","","80.64516129032258","80.64516129032258","760.6451612903226","760.6451612903226","black","no","xpyriment","legacy","legacy","0","207","NA","uniform","NA","NA","NA","1","undefined","1","0","30","30","30","0","30","30","30","NA","0","30","NA","NA","0","30","NA","30","0","30","NA","NA","NA","30","0","0","NA","NA","30","30","30","30","30","31","/","Tue Jun 20 18:26:04 2023","Executes Python code","yes","m21-ba-lexicalDecision.osexp","C:\Users\emoore8\Desktop\m21_vsl-main","no","mono","no","18","no","white","no","yes","1080","legacy","30","30","C:/Users/emoore8/Desktop/m21_vsl-main/subject-208.csv","xpyriment","Lentiform Loewenfeld","3.3.11","0","/","NA","NA","NA","NA","space","/","546","NA","NA","NA","NA","174710","546","2","legacy","1024","2","48000","-16","AB_m21","208","even","FILL_W","FLOAT","1709","309042","307326","304029","176577","NA","NA","NA","NA","NA","307828","NA","NA","NA","306824","NA","306799","1866","309243","NA","NA","NA","307869","1709","1853","NA","NA","308416","308439","306799","307828","307849","morph21_Oliver/Morris","25","23580","31","yes","1920","30"
"200","","81.25","81.25","751.28125","751.28125","black","no","xpyriment","legacy","legacy","0","207","NA","uniform","NA","NA","NA","1","undefined","1","0","31","31","31","0","31","31","31","NA","0","31","NA","NA","0","31","NA","31","0","31","NA","NA","NA","31","0","0","NA","NA","31","31","31","31","31","32","/","Tue Jun 20 18:26:04 2023","Executes Python code","yes","m21-ba-lexicalDecision.osexp","C:\Users\emoore8\Desktop\m21_vsl-main","no","mono","no","18","no","white","no","yes","1080","legacy","31","31","C:/Users/emoore8/Desktop/m21_vsl-main/subject-208.csv","xpyriment","Lentiform Loewenfeld","3.3.11","0","/","NA","NA","NA","NA","space","/","461","NA","NA","NA","NA","174710","461","2","legacy","1024","2","48000","-16","AB_m21","208","even","FILL_W","GOLF","1709","312378","310749","304029","176577","NA","NA","NA","NA","NA","311250","NA","NA","NA","310248","NA","310219","1866","312578","NA","NA","NA","311290","1709","1853","NA","NA","311752","311776","310219","311250","311270","morph21_Oliver/Morris","26","24041","32","yes","1920","28"
"200","","81.81818181818181","81.81818181818181","746","746","black","no","xpyriment","legacy","legacy","0","203","NA","uniform","NA","NA","NA","1","undefined","1","0","32","32","32","0","32","32","32","NA","0","32","NA","NA","0","32","NA","32","0","32","NA","NA","NA","32","0","0","NA","NA","32","32","32","32","32","33","z","Tue Jun 20 18:26:04 2023","Executes Python code","yes","m21-ba-lexicalDecision.osexp","C:\Users\emoore8\Desktop\m21_vsl-main","no","mono","no","18","no","white","no","yes","1080","legacy","32","32","C:/Users/emoore8/Desktop/m21_vsl-main/subject-208.csv","xpyriment","Lentiform Loewenfeld","3.3.11","0","z","NA","NA","NA","NA","space","z","577","NA","NA","NA","NA","174710","577","2","legacy","1024","2","48000","-16","AB_m21","208","even","NW_S_COMP","PILLIME","1709","317332","314082","315828","176577","NA","NA","NA","NA","NA","314582","NA","NA","NA","313582","NA","313556","1866","317532","NA","NA","NA","314622","1709","1853","NA","NA","315200","315224","313556","314582","314602","morph21_Oliver/Morris","27","24618","33","yes","1920","13"
"350","","82.3529411764706","82.3529411764706","743.5","743.5","black","no","xpyriment","legacy","legacy","0","201","NA","uniform","NA","NA","NA","1","undefined","1","0","33","33","33","0","33","33","33","NA","0","33","NA","NA","0","33","NA","33","0","33","NA","NA","NA","33","0","0","NA","NA","33","33","33","33","33","34","/","Tue Jun 20 18:26:04 2023","Executes Python code","yes","m21-ba-lexicalDecision.osexp","C:\Users\emoore8\Desktop\m21_vsl-main","no","mono","no","18","no","white","no","yes","1080","legacy","33","33","C:/Users/emoore8/Desktop/m21_vsl-main/subject-208.csv","xpyriment","Lentiform Loewenfeld","3.3.11","0","/","NA","NA","NA","NA","space","/","661","NA","NA","NA","NA","174710","661","2","legacy","1024","2","48000","-16","AB_m21","208","even","CW_S","BEARDED","1709","320863","319028","315828","176577","NA","NA","NA","NA","NA","319530","NA","NA","NA","318526","NA","318502","1866","321213","NA","NA","NA","319571","1709","1853","NA","NA","320233","320258","318502","319530","319551","morph21_Oliver/Morris","28","25279","34","yes","1920","8"
"400","","80","80","735.3714285714286","735.3714285714286","black","no","xpyriment","legacy","legacy","0","208","NA","uniform","NA","NA","NA","0","undefined","0","0","34","34","34","0","34","34","34","NA","0","34","NA","NA","0","34","NA","34","0","34","NA","NA","NA","34","0","0","NA","NA","34","34","34","34","34","35","z","Tue Jun 20 18:26:04 2023","Executes Python code","yes","m21-ba-lexicalDecision.osexp","C:\Users\emoore8\Desktop\m21_vsl-main","no","mono","no","18","no","white","no","yes","1080","legacy","34","34","C:/Users/emoore8/Desktop/m21_vsl-main/subject-208.csv","xpyriment","Lentiform Loewenfeld","3.3.11","0","/","NA","NA","NA","NA","space","/","459","NA","NA","NA","NA","174710","459","2","legacy","1024","2","48000","-16","AB_m21","208","even","FILL_NW","BUTE","1709","324339","322712","315828","176577","NA","NA","NA","NA","NA","323212","NA","NA","NA","322211","NA","322188","1866","324739","NA","NA","NA","323253","1709","1853","NA","NA","323712","323736","322188","323212","323233","morph21_Oliver/Morris","28","25738","35","yes","1920","5"
"200","","80.55555555555556","80.55555555555556","735.3333333333334","735.3333333333334","black","no","xpyriment","legacy","legacy","0","208","NA","uniform","NA","NA","NA","1","undefined","1","0","35","35","35","0","35","35","35","NA","0","35","NA","NA","0","35","NA","35","0","35","NA","NA","NA","35","0","0","NA","NA","35","35","35","35","35","36","z","Tue Jun 20 18:26:04 2023","Executes Python code","yes","m21-ba-lexicalDecision.osexp","C:\Users\emoore8\Desktop\m21_vsl-main","no","mono","no","18","no","white","no","yes","1080","legacy","35","35","C:/Users/emoore8/Desktop/m21_vsl-main/subject-208.csv","xpyriment","Lentiform Loewenfeld","3.3.11","0","z","NA","NA","NA","NA","space","z","734","NA","NA","NA","NA","174710","734","2","legacy","1024","2","48000","-16","AB_m21","208","even","FILL_NW","GAIRS","1709","329642","326236","328139","176577","NA","NA","NA","NA","NA","326737","NA","NA","NA","325735","NA","325710","1866","329842","NA","NA","NA","326777","1709","1853","NA","NA","327512","327535","325709","326737","326757","morph21_Oliver/Morris","29","26472","36","yes","1920","23"
"350","","81.08108108108108","81.08108108108108","734.4324324324324","734.4324324324324","black","no","xpyriment","legacy","legacy","0","202","NA","uniform","NA","NA","NA","1","undefined","1","0","36","36","36","0","36","36","36","NA","0","36","NA","NA","0","36","NA","36","0","36","NA","NA","NA","36","0","0","NA","NA","36","36","36","36","36","37","/","Tue Jun 20 18:26:04 2023","Executes Python code","yes","m21-ba-lexicalDecision.osexp","C:\Users\emoore8\Desktop\m21_vsl-main","no","mono","no","18","no","white","no","yes","1080","legacy","36","36","C:/Users/emoore8/Desktop/m21_vsl-main/subject-208.csv","xpyriment","Lentiform Loewenfeld","3.3.11","0","/","NA","NA","NA","NA","space","/","702","NA","NA","NA","NA","174710","702","2","legacy","1024","2","48000","-16","AB_m21","208","even","CW_L","BOMBER","1709","333211","331340","328139","176577","NA","NA","NA","NA","NA","331840","NA","NA","NA","330839","NA","330812","1866","333561","NA","NA","NA","331881","1709","1853","NA","NA","332584","332608","330812","331840","331861","morph21_Oliver/Morris","30","27174","37","yes","1920","7"
"250","","81.57894736842105","81.57894736842105","732.578947368421","732.578947368421","black","no","xpyriment","legacy","legacy","0","202","NA","uniform","NA","NA","NA","1","undefined","1","0","37","37","37","0","37","37","37","NA","0","37","NA","NA","0","37","NA","37","0","37","NA","NA","NA","37","0","0","NA","NA","37","37","37","37","37","38","/","Tue Jun 20 18:26:04 2023","Executes Python code","yes","m21-ba-lexicalDecision.osexp","C:\Users\emoore8\Desktop\m21_vsl-main","no","mono","no","18","no","white","no","yes","1080","legacy","37","37","C:/Users/emoore8/Desktop/m21_vsl-main/subject-208.csv","xpyriment","Lentiform Loewenfeld","3.3.11","0","/","NA","NA","NA","NA","space","/","664","NA","NA","NA","NA","174710","664","2","legacy","1024","2","48000","-16","AB_m21","208","even","CW_L","EXCITEMENT","1709","336916","335083","328139","176577","NA","NA","NA","NA","NA","335583","NA","NA","NA","334581","NA","334551","1866","337166","NA","NA","NA","335623","1709","1853","NA","NA","336288","336312","334551","335583","335603","morph21_Oliver/Morris","31","27838","38","yes","1920","38"
"350","","82.05128205128206","82.05128205128206","727.3846153846154","727.3846153846154","black","no","xpyriment","legacy","legacy","0","208","NA","uniform","NA","NA","NA","1","undefined","1","0","38","38","38","0","38","38","38","NA","0","38","NA","NA","0","38","NA","38","0","38","NA","NA","NA","38","0","0","NA","NA","38","38","38","38","38","39","z","Tue Jun 20 18:26:04 2023","Executes Python code","yes","m21-ba-lexicalDecision.osexp","C:\Users\emoore8\Desktop\m21_vsl-main","no","mono","no","18","no","white","no","yes","1080","legacy","38","38","C:/Users/emoore8/Desktop/m21_vsl-main/subject-208.csv","xpyriment","Lentiform Loewenfeld","3.3.11","0","z","NA","NA","NA","NA","space","z","530","NA","NA","NA","NA","174710","530","2","legacy","1024","2","48000","-16","AB_m21","208","even","FILL_NW","DASP","1709","341874","338673","340371","176577","NA","NA","NA","NA","NA","339174","NA","NA","NA","338172","NA","338146","1866","342224","NA","NA","NA","339214","1709","1853","NA","NA","339744","339768","338146","339174","339194","morph21_Oliver/Morris","32","28368","39","yes","1920","13"
"350","","80","80","726.2","726.2","black","no","xpyriment","legacy","legacy","0","202","NA","uniform","NA","NA","NA","0","undefined","0","0","39","39","39","0","39","39","39","NA","0","39","NA","NA","0","39","NA","39","0","39","NA","NA","NA","39","0","0","NA","NA","39","39","39","39","39","40","/","Tue Jun 20 18:26:04 2023","Executes Python code","yes","m21-ba-lexicalDecision.osexp","C:\Users\emoore8\Desktop\m21_vsl-main","no","mono","no","18","no","white","no","yes","1080","legacy","39","39","C:/Users/emoore8/Desktop/m21_vsl-main/subject-208.csv","xpyriment","Lentiform Loewenfeld","3.3.11","0","z","NA","NA","NA","NA","space","z","680","NA","NA","NA","NA","174710","680","2","legacy","1024","2","48000","-16","AB_m21","208","even","CW_L","GUILELESS","1709","345586","343737","340371","176577","NA","NA","NA","NA","NA","344238","NA","NA","NA","343236","NA","343212","1866","345936","NA","NA","NA","344279","1709","1853","NA","NA","344960","344983","343212","344238","344259","morph21_Oliver/Morris","32","29048","40","yes","1920","31"
"350","","80.48780487804878","80.48780487804878","726.9756097560976","726.9756097560976","black","no","xpyriment","legacy","legacy","0","202","NA","uniform","NA","NA","NA","1","undefined","1","0","40","40","40","0","40","40","40","NA","0","40","NA","NA","0","40","NA","40","0","40","NA","NA","NA","40","0","0","NA","NA","40","40","40","40","40","41","/","Tue Jun 20 18:26:04 2023","Executes Python code","yes","m21-ba-lexicalDecision.osexp","C:\Users\emoore8\Desktop\m21_vsl-main","no","mono","no","18","no","white","no","yes","1080","legacy","40","40","C:/Users/emoore8/Desktop/m21_vsl-main/subject-208.csv","xpyriment","Lentiform Loewenfeld","3.3.11","0","/","NA","NA","NA","NA","space","/","758","NA","NA","NA","NA","174710","758","2","legacy","1024","2","48000","-16","AB_m21","208","even","CW_L","RENTER","1709","349365","347438","340371","176577","NA","NA","NA","NA","NA","347938","NA","NA","NA","346938","NA","346912","1866","349715","NA","NA","NA","347978","1709","1853","NA","NA","348736","348762","346912","347938","347958","morph21_Oliver/Morris","33","29806","41","yes","1920","9"
"300","","80.95238095238095","80.95238095238095","723.6904761904761","723.6904761904761","black","no","xpyriment","legacy","legacy","0","202","NA","uniform","NA","NA","NA","1","undefined","1","0","41","41","41","0","41","41","41","NA","0","41","NA","NA","0","41","NA","41","0","41","NA","NA","NA","41","0","0","NA","NA","41","41","41","41","41","42","/","Tue Jun 20 18:26:04 2023","Executes Python code","yes","m21-ba-lexicalDecision.osexp","C:\Users\emoore8\Desktop\m21_vsl-main","no","mono","no","18","no","white","no","yes","1080","legacy","41","41","C:/Users/emoore8/Desktop/m21_vsl-main/subject-208.csv","xpyriment","Lentiform Loewenfeld","3.3.11","0","/","NA","NA","NA","NA","space","/","589","NA","NA","NA","NA","174710","589","2","legacy","1024","2","48000","-16","AB_m21","208","even","CW_L","PROFESSOR","1709","354475","351215","352972","176577","NA","NA","NA","NA","NA","351715","NA","NA","NA","350714","NA","350686","1866","354775","NA","NA","NA","351755","1709","1853","NA","NA","352344","352368","350686","351715","351735","morph21_Oliver/Morris","34","30395","42","yes","1920","47"
"250","","81.3953488372093","81.3953488372093","720.7906976744187","720.7906976744187","black","no","xpyriment","legacy","legacy","0","201","NA","uniform","NA","NA","NA","1","undefined","1","0","42","42","42","0","42","42","42","NA","0","42","NA","NA","0","42","NA","42","0","42","NA","NA","NA","42","0","0","NA","NA","42","42","42","42","42","43","/","Tue Jun 20 18:26:04 2023","Executes Python code","yes","m21-ba-lexicalDecision.osexp","C:\Users\emoore8\Desktop\m21_vsl-main","no","mono","no","18","no","white","no","yes","1080","legacy","42","42","C:/Users/emoore8/Desktop/m21_vsl-main/subject-208.csv","xpyriment","Lentiform Loewenfeld","3.3.11","0","/","NA","NA","NA","NA","space","/","599","NA","NA","NA","NA","174710","599","2","legacy","1024","2","48000","-16","AB_m21","208","even","CW_S","COSTLY","1709","358039","356267","352972","176577","NA","NA","NA","NA","NA","356768","NA","NA","NA","355765","NA","355739","1866","358289","NA","NA","NA","356809","1709","1853","NA","NA","357408","357435","355739","356768","356789","morph21_Oliver/Morris","35","30994","43","yes","1920","36"
"400","","81.81818181818181","81.81818181818181","716.8181818181819","716.8181818181819","black","no","xpyriment","legacy","legacy","0","207","NA","uniform","NA","NA","NA","1","undefined","1","0","43","43","43","0","43","43","43","NA","0","43","NA","NA","0","43","NA","43","0","43","NA","NA","NA","43","0","0","NA","NA","43","43","43","43","43","44","/","Tue Jun 20 18:26:04 2023","Executes Python code","yes","m21-ba-lexicalDecision.osexp","C:\Users\emoore8\Desktop\m21_vsl-main","no","mono","no","18","no","white","no","yes","1080","legacy","43","43","C:/Users/emoore8/Desktop/m21_vsl-main/subject-208.csv","xpyriment","Lentiform Loewenfeld","3.3.11","0","/","NA","NA","NA","NA","space","/","546","NA","NA","NA","NA","174710","546","2","legacy","1024","2","48000","-16","AB_m21","208","even","FILL_W","QUIT","1709","361501","359785","352972","176577","NA","NA","NA","NA","NA","360285","NA","NA","NA","359285","NA","359256","1866","361901","NA","NA","NA","360326","1709","1853","NA","NA","360873","360898","359256","360285","360306","morph21_Oliver/Morris","36","31540","44","yes","1920","21"
"300","","82.22222222222223","82.22222222222223","714.1111111111111","714.1111111111111","black","no","xpyriment","legacy","legacy","0","206","NA","uniform","NA","NA","NA","1","undefined","1","0","44","44","44","0","44","44","44","NA","0","44","NA","NA","0","44","NA","44","0","44","NA","NA","NA","44","0","0","NA","NA","44","44","44","44","44","45","z","Tue Jun 20 18:26:04 2023","Executes Python code","yes","m21-ba-lexicalDecision.osexp","C:\Users\emoore8\Desktop\m21_vsl-main","no","mono","no","18","no","white","no","yes","1080","legacy","44","44","C:/Users/emoore8/Desktop/m21_vsl-main/subject-208.csv","xpyriment","Lentiform Loewenfeld","3.3.11","0","z","NA","NA","NA","NA","space","z","595","NA","NA","NA","NA","174710","595","2","legacy","1024","2","48000","-16","AB_m21","208","even","NW_L_SIMP","BEGENCE","1709","366674","363408","365171","176577","NA","NA","NA","NA","NA","363908","NA","NA","NA","362908","NA","362881","1866","366975","NA","NA","NA","363949","1709","1853","NA","NA","364544","364568","362881","363908","363929","morph21_Oliver/Morris","37","32135","45","yes","1920","4"
"400","","82.6086956521739","82.6086956521739","717.8478260869565","717.8478260869565","black","no","xpyriment","legacy","legacy","0","201","NA","uniform","NA","NA","NA","1","undefined","1","0","45","45","45","0","45","45","45","NA","0","45","NA","NA","0","45","NA","45","0","45","NA","NA","NA","45","0","0","NA","NA","45","45","45","45","45","46","/","Tue Jun 20 18:26:04 2023","Executes Python code","yes","m21-ba-lexicalDecision.osexp","C:\Users\emoore8\Desktop\m21_vsl-main","no","mono","no","18","no","white","no","yes","1080","legacy","45","45","C:/Users/emoore8/Desktop/m21_vsl-main/subject-208.csv","xpyriment","Lentiform Loewenfeld","3.3.11","0","/","NA","NA","NA","NA","space","/","886","NA","NA","NA","NA","174710","886","2","legacy","1024","2","48000","-16","AB_m21","208","even","CW_S","ALLOWANCE","1709","370532","368475","365171","176577","NA","NA","NA","NA","NA","368976","NA","NA","NA","367975","NA","367949","1866","370932","NA","NA","NA","369018","1709","1853","NA","NA","369904","369929","367949","368976","368997","morph21_Oliver/Morris","38","33021","46","yes","1920","5"
"300","","82.97872340425532","82.97872340425532","720.5531914893617","720.5531914893617","black","no","xpyriment","legacy","legacy","0","206","NA","uniform","NA","NA","NA","1","undefined","1","0","46","46","46","0","46","46","46","NA","0","46","NA","NA","0","46","NA","46","0","46","NA","NA","NA","46","0","0","NA","NA","46","46","46","46","46","47","z","Tue Jun 20 18:26:04 2023","Executes Python code","yes","m21-ba-lexicalDecision.osexp","C:\Users\emoore8\Desktop\m21_vsl-main","no","mono","no","18","no","white","no","yes","1080","legacy","46","46","C:/Users/emoore8/Desktop/m21_vsl-main/subject-208.csv","xpyriment","Lentiform Loewenfeld","3.3.11","0","z","NA","NA","NA","NA","space","z","845","NA","NA","NA","NA","174710","845","2","legacy","1024","2","48000","-16","AB_m21","208","even","NW_L_SIMP","ELBOWISM","1709","374484","372469","365171","176577","NA","NA","NA","NA","NA","372969","NA","NA","NA","371969","NA","371942","1866","374784","NA","NA","NA","373010","1709","1853","NA","NA","373856","373880","371942","372969","372990","morph21_Oliver/Morris","39","33866","47","yes","1920","10"
"350","","83.33333333333333","83.33333333333333","721.2916666666666","721.2916666666666","black","no","xpyriment","legacy","legacy","0","201","NA","uniform","NA","NA","NA","1","undefined","1","0","47","47","47","0","47","47","47","NA","0","47","NA","NA","0","47","NA","47","0","47","NA","NA","NA","47","0","0","NA","NA","47","47","47","47","47","48","/","Tue Jun 20 18:26:04 2023","Executes Python code","yes","m21-ba-lexicalDecision.osexp","C:\Users\emoore8\Desktop\m21_vsl-main","no","mono","no","18","no","white","no","yes","1080","legacy","47","47","C:/Users/emoore8/Desktop/m21_vsl-main/subject-208.csv","xpyriment","Lentiform Loewenfeld","3.3.11","0","/","NA","NA","NA","NA","space","/","756","NA","NA","NA","NA","174710","756","2","legacy","1024","2","48000","-16","AB_m21","208","even","CW_S","RICHNESS","1709","379714","376286","378211","176577","NA","NA","NA","NA","NA","376787","NA","NA","NA","375786","NA","375758","1866","380064","NA","NA","NA","376828","1709","1853","NA","NA","377584","377608","375758","376787","376808","morph21_Oliver/Morris","40","34622","48","yes","1920","45"
"200","","83.6734693877551","83.6734693877551","718.2448979591836","718.2448979591836","black","no","xpyriment","legacy","legacy","0","208","NA","uniform","NA","NA","NA","1","undefined","1","0","48","48","48","0","48","48","48","NA","0","48","NA","NA","0","48","NA","48","0","48","NA","NA","NA","48","0","0","NA","NA","48","48","48","48","48","49","z","Tue Jun 20 18:26:04 2023","Executes Python code","yes","m21-ba-lexicalDecision.osexp","C:\Users\emoore8\Desktop\m21_vsl-main","no","mono","no","18","no","white","no","yes","1080","legacy","48","48","C:/Users/emoore8/Desktop/m21_vsl-main/subject-208.csv","xpyriment","Lentiform Loewenfeld","3.3.11","0","z","NA","NA","NA","NA","space","z","572","NA","NA","NA","NA","174710","572","2","legacy","1024","2","48000","-16","AB_m21","208","even","FILL_NW","HESK","1709","383333","381590","378211","176577","NA","NA","NA","NA","NA","382091","NA","NA","NA","381088","NA","381065","1866","383533","NA","NA","NA","382132","1709","1853","NA","NA","382704","382729","381064","382091","382112","morph21_Oliver/Morris","41","35194","49","yes","1920","29"
"400","","84","84","713.5","713.5","black","no","xpyriment","legacy","legacy","0","201","NA","uniform","NA","NA","NA","1","undefined","1","0","49","49","49","0","49","49","49","NA","0","49","NA","NA","0","49","NA","49","0","49","NA","NA","NA","49","0","0","NA","NA","49","49","49","49","49","50","/","Tue Jun 20 18:26:04 2023","Executes Python code","yes","m21-ba-lexicalDecision.osexp","C:\Users\emoore8\Desktop\m21_vsl-main","no","mono","no","18","no","white","no","yes","1080","legacy","49","49","C:/Users/emoore8/Desktop/m21_vsl-main/subject-208.csv","xpyriment","Lentiform Loewenfeld","3.3.11","0","/","NA","NA","NA","NA","space","/","481","NA","NA","NA","NA","174710","481","2","legacy","1024","2","48000","-16","AB_m21","208","even","CW_S","DESIGN","1709","386707","385056","378211","176577","NA","NA","NA","NA","NA","385558","NA","NA","NA","384555","NA","384522","1866","387107","NA","NA","NA","385598","1709","1853","NA","NA","386080","386103","384522","385558","385578","morph21_Oliver/Morris","42","35675","50","yes","1920","19"
"350","","84.31372549019608","84.31372549019608","710.0392156862745","710.0392156862745","black","no","xpyriment","legacy","legacy","0","202","NA","uniform","NA","NA","NA","1","undefined","1","0","50","50","50","0","50","50","50","NA","0","50","NA","NA","0","50","NA","50","0","50","NA","NA","NA","50","0","0","NA","NA","50","50","50","50","50","51","/","Tue Jun 20 18:26:04 2023","Executes Python code","yes","m21-ba-lexicalDecision.osexp","C:\Users\emoore8\Desktop\m21_vsl-main","no","mono","no","18","no","white","no","yes","1080","legacy","50","50","C:/Users/emoore8/Desktop/m21_vsl-main/subject-208.csv","xpyriment","Lentiform Loewenfeld","3.3.11","0","/","NA","NA","NA","NA","space","/","537","NA","NA","NA","NA","174710","537","2","legacy","1024","2","48000","-16","AB_m21","208","even","CW_L","JUMPING","1709","391844","388634","390340","176577","NA","NA","NA","NA","NA","389135","NA","NA","NA","388134","NA","388107","1866","392194","NA","NA","NA","389175","1709","1853","NA","NA","389713","389737","388107","389135","389155","morph21_Oliver/Morris","43","36212","51","yes","1920","30"
"200","","84.61538461538461","84.61538461538461","713.2115384615385","713.2115384615385","black","no","xpyriment","legacy","legacy","0","208","NA","uniform","NA","NA","NA","1","undefined","1","0","51","51","51","0","51","51","51","NA","0","51","NA","NA","0","51","NA","51","0","51","NA","NA","NA","51","0","0","NA","NA","51","51","51","51","51","52","z","Tue Jun 20 18:26:04 2023","Executes Python code","yes","m21-ba-lexicalDecision.osexp","C:\Users\emoore8\Desktop\m21_vsl-main","no","mono","no","18","no","white","no","yes","1080","legacy","51","51","C:/Users/emoore8/Desktop/m21_vsl-main/subject-208.csv","xpyriment","Lentiform Loewenfeld","3.3.11","0","z","NA","NA","NA","NA","space","z","875","NA","NA","NA","NA","174710","875","2","legacy","1024","2","48000","-16","AB_m21","208","even","FILL_NW","PUCTS","1709","395738","393694","390340","176577","NA","NA","NA","NA","NA","394195","NA","NA","NA","393192","NA","393169","1866","395939","NA","NA","NA","394236","1709","1853","NA","NA","395112","395135","393169","394195","394216","morph21_Oliver/Morris","44","37087","52","yes","1920","40"
"350","","84.90566037735849","84.90566037735849","711.4150943396227","711.4150943396227","black","no","xpyriment","legacy","legacy","0","202","NA","uniform","NA","NA","NA","1","undefined","1","0","52","52","52","0","52","52","52","NA","0","52","NA","NA","0","52","NA","52","0","52","NA","NA","NA","52","0","0","NA","NA","52","52","52","52","52","53","/","Tue Jun 20 18:26:04 2023","Executes Python code","yes","m21-ba-lexicalDecision.osexp","C:\Users\emoore8\Desktop\m21_vsl-main","no","mono","no","18","no","white","no","yes","1080","legacy","52","52","C:/Users/emoore8/Desktop/m21_vsl-main/subject-208.csv","xpyriment","Lentiform Loewenfeld","3.3.11","0","/","NA","NA","NA","NA","space","/","618","NA","NA","NA","NA","174710","618","2","legacy","1024","2","48000","-16","AB_m21","208","even","CW_L","PUNCHER","1709","399230","397440","390340","176577","NA","NA","NA","NA","NA","397940","NA","NA","NA","396940","NA","396913","1866","399580","NA","NA","NA","397981","1709","1853","NA","NA","398600","398625","396913","397940","397961","morph21_Oliver/Morris","45","37705","53","yes","1920","1"
"250","","85.18518518518519","85.18518518518519","709.7777777777778","709.7777777777778","black","no","xpyriment","legacy","legacy","0","207","NA","uniform","NA","NA","NA","1","undefined","1","0","53","53","53","0","53","53","53","NA","0","53","NA","NA","0","53","NA","53","0","53","NA","NA","NA","53","0","0","NA","NA","53","53","53","53","53","54","/","Tue Jun 20 18:26:04 2023","Executes Python code","yes","m21-ba-lexicalDecision.osexp","C:\Users\emoore8\Desktop\m21_vsl-main","no","mono","no","18","no","white","no","yes","1080","legacy","53","53","C:/Users/emoore8/Desktop/m21_vsl-main/subject-208.csv","xpyriment","Lentiform Loewenfeld","3.3.11","0","/","NA","NA","NA","NA","space","/","623","NA","NA","NA","NA","174710","623","2","legacy","1024","2","48000","-16","AB_m21","208","even","FILL_W","STARVE","1709","404370","401075","402867","176577","NA","NA","NA","NA","NA","401575","NA","NA","NA","400575","NA","400547","1866","404620","NA","NA","NA","401616","1709","1853","NA","NA","402240","402263","400547","401575","401596","morph21_Oliver/Morris","46","38328","54","yes","1920","15"
"250","","85.45454545454545","85.45454545454545","708.1636363636363","708.1636363636363","black","no","xpyriment","legacy","legacy","0","208","NA","uniform","NA","NA","NA","1","undefined","1","0","54","54","54","0","54","54","54","NA","0","54","NA","NA","0","54","NA","54","0","54","NA","NA","NA","54","0","0","NA","NA","54","54","54","54","54","55","z","Tue Jun 20 18:26:04 2023","Executes Python code","yes","m21-ba-lexicalDecision.osexp","C:\Users\emoore8\Desktop\m21_vsl-main","no","mono","no","18","no","white","no","yes","1080","legacy","54","54","C:/Users/emoore8/Desktop/m21_vsl-main/subject-208.csv","xpyriment","Lentiform Loewenfeld","3.3.11","0","z","NA","NA","NA","NA","space","z","621","NA","NA","NA","NA","174710","621","2","legacy","1024","2","48000","-16","AB_m21","208","even","FILL_NW","PLAODS","1709","407907","406118","402867","176577","NA","NA","NA","NA","NA","406618","NA","NA","NA","405618","NA","405592","1866","408157","NA","NA","NA","406659","1709","1853","NA","NA","407280","407304","405592","406618","406639","morph21_Oliver/Morris","47","38949","55","yes","1920","37"
"300","","85.71428571428571","85.71428571428571","710.3928571428571","710.3928571428571","black","no","xpyriment","legacy","legacy","0","208","NA","uniform","NA","NA","NA","1","undefined","1","0","55","55","55","0","55","55","55","NA","0","55","NA","NA","0","55","NA","55","0","55","NA","NA","NA","55","0","0","NA","NA","55","55","55","55","55","56","z","Tue Jun 20 18:26:04 2023","Executes Python code","yes","m21-ba-lexicalDecision.osexp","C:\Users\emoore8\Desktop\m21_vsl-main","no","mono","no","18","no","white","no","yes","1080","legacy","55","55","C:/Users/emoore8/Desktop/m21_vsl-main/subject-208.csv","xpyriment","Lentiform Loewenfeld","3.3.11","0","z","NA","NA","NA","NA","space","z","833","NA","NA","NA","NA","174710","833","2","legacy","1024","2","48000","-16","AB_m21","208","even","FILL_NW","SCURE","1709","411684","409681","402867","176577","NA","NA","NA","NA","NA","410181","NA","NA","NA","409181","NA","409157","1866","411984","NA","NA","NA","410222","1709","1853","NA","NA","411056","411080","409157","410181","410202","morph21_Oliver/Morris","48","39782","56","yes","1920","41"
"400","","84.21052631578948","84.21052631578948","708.3859649122807","708.3859649122807","black","no","xpyriment","legacy","legacy","0","208","NA","uniform","NA","NA","NA","0","undefined","0","0","56","56","56","0","56","56","56","NA","0","56","NA","NA","0","56","NA","56","0","56","NA","NA","NA","56","0","0","NA","NA","56","56","56","56","56","57","z","Tue Jun 20 18:26:04 2023","Executes Python code","yes","m21-ba-lexicalDecision.osexp","C:\Users\emoore8\Desktop\m21_vsl-main","no","mono","no","18","no","white","no","yes","1080","legacy","56","56","C:/Users/emoore8/Desktop/m21_vsl-main/subject-208.csv","xpyriment","Lentiform Loewenfeld","3.3.11","0","/","NA","NA","NA","NA","space","/","596","NA","NA","NA","NA","174710","596","2","legacy","1024","2","48000","-16","AB_m21","208","even","FILL_NW","DROES","1709","416755","413487","415251","176577","NA","NA","NA","NA","NA","413987","NA","NA","NA","412987","NA","412963","1866","417155","NA","NA","NA","414028","1709","1853","NA","NA","414625","414648","412963","413987","414008","morph21_Oliver/Morris","48","40378","57","yes","1920","17"
"300","","84.48275862068965","84.48275862068965","708.2758620689655","708.2758620689655","black","no","xpyriment","legacy","legacy","0","204","NA","uniform","NA","NA","NA","1","undefined","1","0","57","57","57","0","57","57","57","NA","0","57","NA","NA","0","57","NA","57","0","57","NA","NA","NA","57","0","0","NA","NA","57","57","57","57","57","58","z","Tue Jun 20 18:26:04 2023","Executes Python code","yes","m21-ba-lexicalDecision.osexp","C:\Users\emoore8\Desktop\m21_vsl-main","no","mono","no","18","no","white","no","yes","1080","legacy","57","57","C:/Users/emoore8/Desktop/m21_vsl-main/subject-208.csv","xpyriment","Lentiform Loewenfeld","3.3.11","0","z","NA","NA","NA","NA","space","z","702","NA","NA","NA","NA","174710","702","2","legacy","1024","2","48000","-16","AB_m21","208","even","NW_L_COMP","SHEETEL","1709","420538","418668","415251","176577","NA","NA","NA","NA","NA","419168","NA","NA","NA","418168","NA","418141","1866","420838","NA","NA","NA","419209","1709","1853","NA","NA","419912","419935","418141","419168","419189","morph21_Oliver/Morris","49","41080","58","yes","1920","5"
"250","","84.7457627118644","84.7457627118644","708.1525423728814","708.1525423728814","black","no","xpyriment","legacy","legacy","0","201","NA","uniform","NA","NA","NA","1","undefined","1","0","58","58","58","0","58","58","58","NA","0","58","NA","NA","0","58","NA","58","0","58","NA","NA","NA","58","0","0","NA","NA","58","58","58","58","58","59","/","Tue Jun 20 18:26:04 2023","Executes Python code","yes","m21-ba-lexicalDecision.osexp","C:\Users\emoore8\Desktop\m21_vsl-main","no","mono","no","18","no","white","no","yes","1080","legacy","58","58","C:/Users/emoore8/Desktop/m21_vsl-main/subject-208.csv","xpyriment","Lentiform Loewenfeld","3.3.11","0","/","NA","NA","NA","NA","space","/","701","NA","NA","NA","NA","174710","701","2","legacy","1024","2","48000","-16","AB_m21","208","even","CW_S","HUGELY","1709","424229","422356","415251","176577","NA","NA","NA","NA","NA","422858","NA","NA","NA","421855","NA","421832","1866","424479","NA","NA","NA","422898","1709","1853","NA","NA","423600","423624","421832","422858","422878","morph21_Oliver/Morris","50","41781","59","yes","1920","35"
"400","","85","85","708.3166666666667","708.3166666666667","black","no","xpyriment","legacy","legacy","0","201","NA","uniform","NA","NA","NA","1","undefined","1","0","59","59","59","0","59","59","59","NA","0","59","NA","NA","0","59","NA","59","0","59","NA","NA","NA","59","0","0","NA","NA","59","59","59","59","59","60","/","Tue Jun 20 18:26:04 2023","Executes Python code","yes","m21-ba-lexicalDecision.osexp","C:\Users\emoore8\Desktop\m21_vsl-main","no","mono","no","18","no","white","no","yes","1080","legacy","59","59","C:/Users/emoore8/Desktop/m21_vsl-main/subject-208.csv","xpyriment","Lentiform Loewenfeld","3.3.11","0","/","NA","NA","NA","NA","space","/","718","NA","NA","NA","NA","174710","718","2","legacy","1024","2","48000","-16","AB_m21","208","even","CW_S","EFFORTLESS","1709","429365","425973","427861","176577","NA","NA","NA","NA","NA","426474","NA","NA","NA","425472","NA","425445","1866","429765","NA","NA","NA","426514","1709","1853","NA","NA","427233","427256","425445","426474","426494","morph21_Oliver/Morris","51","42499","60","yes","1920","30"
"300","","85.24590163934427","85.24590163934427","706.7049180327868","706.7049180327868","black","no","xpyriment","legacy","legacy","0","204","NA","uniform","NA","NA","NA","1","undefined","1","0","60","60","60","0","60","60","60","NA","0","60","NA","NA","0","60","NA","60","0","60","NA","NA","NA","60","0","0","NA","NA","60","60","60","60","60","61","z","Tue Jun 20 18:26:04 2023","Executes Python code","yes","m21-ba-lexicalDecision.osexp","C:\Users\emoore8\Desktop\m21_vsl-main","no","mono","no","18","no","white","no","yes","1080","legacy","60","60","C:/Users/emoore8/Desktop/m21_vsl-main/subject-208.csv","xpyriment","Lentiform Loewenfeld","3.3.11","0","z","NA","NA","NA","NA","space","z","610","NA","NA","NA","NA","174710","610","2","legacy","1024","2","48000","-16","AB_m21","208","even","NW_L_COMP","EMPLOYNELS","1709","433043","431263","427861","176577","NA","NA","NA","NA","NA","431764","NA","NA","NA","430762","NA","430739","1866","433344","NA","NA","NA","431805","1709","1853","NA","NA","432416","432440","430739","431764","431785","morph21_Oliver/Morris","52","43109","61","yes","1920","21"
"250","","85.48387096774194","85.48387096774194","703.2741935483871","703.2741935483871","black","no","xpyriment","legacy","legacy","0","202","NA","uniform","NA","NA","NA","1","undefined","1","0","61","61","61","0","61","61","61","NA","0","61","NA","NA","0","61","NA","61","0","61","NA","NA","NA","61","0","0","NA","NA","61","61","61","61","61","62","/","Tue Jun 20 18:26:04 2023","Executes Python code","yes","m21-ba-lexicalDecision.osexp","C:\Users\emoore8\Desktop\m21_vsl-main","no","mono","no","18","no","white","no","yes","1080","legacy","61","61","C:/Users/emoore8/Desktop/m21_vsl-main/subject-208.csv","xpyriment","Lentiform Loewenfeld","3.3.11","0","/","NA","NA","NA","NA","space","/","494","NA","NA","NA","NA","174710","494","2","legacy","1024","2","48000","-16","AB_m21","208","even","CW_L","DEAFNESS","1709","436516","434853","427861","176577","NA","NA","NA","NA","NA","435353","NA","NA","NA","434353","NA","434329","1866","436767","NA","NA","NA","435394","1709","1853","NA","NA","435889","435912","434329","435353","435374","morph21_Oliver/Morris","53","43603","62","yes","1920","39"
"200","","85.71428571428571","85.71428571428571","699.7777777777778","699.7777777777778","black","no","xpyriment","legacy","legacy","0","207","NA","uniform","NA","NA","NA","1","undefined","1","0","62","62","62","0","62","62","62","NA","0","62","NA","NA","0","62","NA","62","0","62","NA","NA","NA","62","0","0","NA","NA","62","62","62","62","62","63","/","Tue Jun 20 18:26:04 2023","Executes Python code","yes","m21-ba-lexicalDecision.osexp","C:\Users\emoore8\Desktop\m21_vsl-main","no","mono","no","18","no","white","no","yes","1080","legacy","62","62","C:/Users/emoore8/Desktop/m21_vsl-main/subject-208.csv","xpyriment","Lentiform Loewenfeld","3.3.11","0","/","NA","NA","NA","NA","space","/","483","NA","NA","NA","NA","174710","483","2","legacy","1024","2","48000","-16","AB_m21","208","even","FILL_W","TAX","1709","441428","438271","439924","176577","NA","NA","NA","NA","NA","438771","NA","NA","NA","437770","NA","437741","1866","441629","NA","NA","NA","438812","1709","1853","NA","NA","439296","439320","437740","438771","438792","morph21_Oliver/Morris","54","44086","63","yes","1920","45"
"350","","85.9375","85.9375","698.4375","698.4375","black","no","xpyriment","legacy","legacy","0","208","NA","uniform","NA","NA","NA","1","undefined","1","0","63","63","63","0","63","63","63","NA","0","63","NA","NA","0","63","NA","63","0","63","NA","NA","NA","63","0","0","NA","NA","63","63","63","63","63","64","z","Tue Jun 20 18:26:04 2023","Executes Python code","yes","m21-ba-lexicalDecision.osexp","C:\Users\emoore8\Desktop\m21_vsl-main","no","mono","no","18","no","white","no","yes","1080","legacy","63","63","C:/Users/emoore8/Desktop/m21_vsl-main/subject-208.csv","xpyriment","Lentiform Loewenfeld","3.3.11","0","z","NA","NA","NA","NA","space","z","614","NA","NA","NA","NA","174710","614","2","legacy","1024","2","48000","-16","AB_m21","208","even","FILL_NW","HEAS","1709","444915","443132","439924","176577","NA","NA","NA","NA","NA","443633","NA","NA","NA","442632","NA","442606","1866","445265","NA","NA","NA","443674","1709","1853","NA","NA","444289","444312","442606","443633","443653","morph21_Oliver/Morris","55","44700","64","yes","1920","26"
"300","","84.61538461538461","84.61538461538461","696.0153846153846","696.0153846153846","black","no","xpyriment","legacy","legacy","0","206","NA","uniform","NA","NA","NA","0","undefined","0","0","64","64","64","0","64","64","64","NA","0","64","NA","NA","0","64","NA","64","0","64","NA","NA","NA","64","0","0","NA","NA","64","64","64","64","64","65","z","Tue Jun 20 18:26:04 2023","Executes Python code","yes","m21-ba-lexicalDecision.osexp","C:\Users\emoore8\Desktop\m21_vsl-main","no","mono","no","18","no","white","no","yes","1080","legacy","64","64","C:/Users/emoore8/Desktop/m21_vsl-main/subject-208.csv","xpyriment","Lentiform Loewenfeld","3.3.11","0","/","NA","NA","NA","NA","space","/","541","NA","NA","NA","NA","174710","541","2","legacy","1024","2","48000","-16","AB_m21","208","even","NW_L_SIMP","LONGNESS","1709","448502","446788","439924","176577","NA","NA","NA","NA","NA","447290","NA","NA","NA","446287","NA","446258","1866","448802","NA","NA","NA","447331","1709","1853","NA","NA","447872","447897","446257","447290","447311","morph21_Oliver/Morris","55","45241","65","yes","1920","17"
"250","","84.84848484848484","84.84848484848484","698.6060606060606","698.6060606060606","black","no","xpyriment","legacy","legacy","0","202","NA","uniform","NA","NA","NA","1","undefined","1","0","65","65","65","0","65","65","65","NA","0","65","NA","NA","0","65","NA","65","0","65","NA","NA","NA","65","0","0","NA","NA","65","65","65","65","65","66","/","Tue Jun 20 18:26:04 2023","Executes Python code","yes","m21-ba-lexicalDecision.osexp","C:\Users\emoore8\Desktop\m21_vsl-main","no","mono","no","18","no","white","no","yes","1080","legacy","65","65","C:/Users/emoore8/Desktop/m21_vsl-main/subject-208.csv","xpyriment","Lentiform Loewenfeld","3.3.11","0","/","NA","NA","NA","NA","space","/","867","NA","NA","NA","NA","174710","867","2","legacy","1024","2","48000","-16","AB_m21","208","even","CW_L","FLEXIBLE","1709","453843","450303","452338","176577","NA","NA","NA","NA","NA","450803","NA","NA","NA","449803","NA","449777","1866","454093","NA","NA","NA","450844","1709","1853","NA","NA","451712","451735","449777","450803","450824","morph21_Oliver/Morris","56","46108","66","yes","1920","22"
"200","","85.07462686567165","85.07462686567165","701.1044776119403","701.1044776119403","black","no","xpyriment","legacy","legacy","0","207","NA","uniform","NA","NA","NA","1","undefined","1","0","66","66","66","0","66","66","66","NA","0","66","NA","NA","0","66","NA","66","0","66","NA","NA","NA","66","0","0","NA","NA","66","66","66","66","66","67","/","Tue Jun 20 18:26:04 2023","Executes Python code","yes","m21-ba-lexicalDecision.osexp","C:\Users\emoore8\Desktop\m21_vsl-main","no","mono","no","18","no","white","no","yes","1080","legacy","66","66","C:/Users/emoore8/Desktop/m21_vsl-main/subject-208.csv","xpyriment","Lentiform Loewenfeld","3.3.11","0","/","NA","NA","NA","NA","space","/","866","NA","NA","NA","NA","174710","866","2","legacy","1024","2","48000","-16","AB_m21","208","even","FILL_W","TEST","1709","457643","455609","452338","176577","NA","NA","NA","NA","NA","456109","NA","NA","NA","455108","NA","455081","1866","457843","NA","NA","NA","456150","1709","1853","NA","NA","457016","457040","455081","456109","456130","morph21_Oliver/Morris","57","46974","67","yes","1920","47"
"400","","85.29411764705883","85.29411764705883","697.25","697.25","black","no","xpyriment","legacy","legacy","0","208","NA","uniform","NA","NA","NA","1","undefined","1","0","67","67","67","0","67","67","67","NA","0","67","NA","NA","0","67","NA","67","0","67","NA","NA","NA","67","0","0","NA","NA","67","67","67","67","67","68","z","Tue Jun 20 18:26:04 2023","Executes Python code","yes","m21-ba-lexicalDecision.osexp","C:\Users\emoore8\Desktop\m21_vsl-main","no","mono","no","18","no","white","no","yes","1080","legacy","67","67","C:/Users/emoore8/Desktop/m21_vsl-main/subject-208.csv","xpyriment","Lentiform Loewenfeld","3.3.11","0","z","NA","NA","NA","NA","space","z","439","NA","NA","NA","NA","174710","439","2","legacy","1024","2","48000","-16","AB_m21","208","even","FILL_NW","ULNS","1709","460948","459340","452338","176577","NA","NA","NA","NA","NA","459840","NA","NA","NA","458840","NA","458813","1866","461348","NA","NA","NA","459881","1709","1853","NA","NA","460321","460345","458813","459840","459861","morph21_Oliver/Morris","58","47413","68","yes","1920","45"
"400","","84.05797101449275","84.05797101449275","694.6666666666666","694.6666666666666","black","no","xpyriment","legacy","legacy","0","208","NA","uniform","NA","NA","NA","0","undefined","0","0","68","68","68","0","68","68","68","NA","0","68","NA","NA","0","68","NA","68","0","68","NA","NA","NA","68","0","0","NA","NA","68","68","68","68","68","69","z","Tue Jun 20 18:26:04 2023","Executes Python code","yes","m21-ba-lexicalDecision.osexp","C:\Users\emoore8\Desktop\m21_vsl-main","no","mono","no","18","no","white","no","yes","1080","legacy","68","68","C:/Users/emoore8/Desktop/m21_vsl-main/subject-208.csv","xpyriment","Lentiform Loewenfeld","3.3.11","0","/","NA","NA","NA","NA","space","/","519","NA","NA","NA","NA","174710","519","2","legacy","1024","2","48000","-16","AB_m21","208","even","FILL_NW","VELT","1709","466070","462876","464566","176577","NA","NA","NA","NA","NA","463376","NA","NA","NA","462375","NA","462347","1866","466470","NA","NA","NA","463417","1709","1853","NA","NA","463936","463962","462347","463376","463397","morph21_Oliver/Morris","58","47932","69","yes","1920","46"
"300","","82.85714285714286","82.85714285714286","691.9428571428572","691.9428571428572","black","no","xpyriment","legacy","legacy","0","205","NA","uniform","NA","NA","NA","0","undefined","0","0","69","69","69","0","69","69","69","NA","0","69","NA","NA","0","69","NA","69","0","69","NA","NA","NA","69","0","0","NA","NA","69","69","69","69","69","70","z","Tue Jun 20 18:26:04 2023","Executes Python code","yes","m21-ba-lexicalDecision.osexp","C:\Users\emoore8\Desktop\m21_vsl-main","no","mono","no","18","no","white","no","yes","1080","legacy","69","69","C:/Users/emoore8/Desktop/m21_vsl-main/subject-208.csv","xpyriment","Lentiform Loewenfeld","3.3.11","0","/","NA","NA","NA","NA","space","/","504","NA","NA","NA","NA","174710","504","2","legacy","1024","2","48000","-16","AB_m21","208","even","NW_S_SIMP","NEXTNESS","1709","469643","467972","464566","176577","NA","NA","NA","NA","NA","468472","NA","NA","NA","467471","NA","467445","1866","469943","NA","NA","NA","468512","1709","1853","NA","NA","469016","469040","467445","468472","468492","morph21_Oliver/Morris","58","48436","70","yes","1920","9"
"350","","83.09859154929578","83.09859154929578","691.0281690140845","691.0281690140845","black","no","xpyriment","legacy","legacy","0","206","NA","uniform","NA","NA","NA","1","undefined","1","0","70","70","70","0","70","70","70","NA","0","70","NA","NA","0","70","NA","70","0","70","NA","NA","NA","70","0","0","NA","NA","70","70","70","70","70","71","z","Tue Jun 20 18:26:04 2023","Executes Python code","yes","m21-ba-lexicalDecision.osexp","C:\Users\emoore8\Desktop\m21_vsl-main","no","mono","no","18","no","white","no","yes","1080","legacy","70","70","C:/Users/emoore8/Desktop/m21_vsl-main/subject-208.csv","xpyriment","Lentiform Loewenfeld","3.3.11","0","z","NA","NA","NA","NA","space","z","627","NA","NA","NA","NA","174710","627","2","legacy","1024","2","48000","-16","AB_m21","208","even","NW_L_SIMP","HABITIC","1709","473235","471440","464566","176577","NA","NA","NA","NA","NA","471940","NA","NA","NA","470940","NA","470914","1866","473585","NA","NA","NA","471981","1709","1853","NA","NA","472608","472632","470914","471940","471961","morph21_Oliver/Morris","59","49063","71","yes","1920","7"
"250","","83.33333333333333","83.33333333333333","692.625","692.625","black","no","xpyriment","legacy","legacy","0","208","NA","uniform","NA","NA","NA","1","undefined","1","0","71","71","71","0","71","71","71","NA","0","71","NA","NA","0","71","NA","71","0","71","NA","NA","NA","71","0","0","NA","NA","71","71","71","71","71","72","z","Tue Jun 20 18:26:04 2023","Executes Python code","yes","m21-ba-lexicalDecision.osexp","C:\Users\emoore8\Desktop\m21_vsl-main","no","mono","no","18","no","white","no","yes","1080","legacy","71","71","C:/Users/emoore8/Desktop/m21_vsl-main/subject-208.csv","xpyriment","Lentiform Loewenfeld","3.3.11","0","z","NA","NA","NA","NA","space","z","806","NA","NA","NA","NA","174710","806","2","legacy","1024","2","48000","-16","AB_m21","208","even","FILL_NW","DOWED","1709","478605","475124","477100","176577","NA","NA","NA","NA","NA","475625","NA","NA","NA","474623","NA","474598","1866","478856","NA","NA","NA","475666","1709","1853","NA","NA","476472","476496","474598","475625","475646","morph21_Oliver/Morris","60","49869","72","yes","1920","16"
"300","","83.56164383561644","83.56164383561644","690.4383561643835","690.4383561643835","black","no","xpyriment","legacy","legacy","0","202","NA","uniform","NA","NA","NA","1","undefined","1","0","72","72","72","0","72","72","72","NA","0","72","NA","NA","0","72","NA","72","0","72","NA","NA","NA","72","0","0","NA","NA","72","72","72","72","72","73","/","Tue Jun 20 18:26:04 2023","Executes Python code","yes","m21-ba-lexicalDecision.osexp","C:\Users\emoore8\Desktop\m21_vsl-main","no","mono","no","18","no","white","no","yes","1080","legacy","72","72","C:/Users/emoore8/Desktop/m21_vsl-main/subject-208.csv","xpyriment","Lentiform Loewenfeld","3.3.11","0","/","NA","NA","NA","NA","space","/","533","NA","NA","NA","NA","174710","533","2","legacy","1024","2","48000","-16","AB_m21","208","even","CW_L","WEEDY","1709","482060","480356","477100","176577","NA","NA","NA","NA","NA","480857","NA","NA","NA","479855","NA","479831","1866","482360","NA","NA","NA","480899","1709","1853","NA","NA","481433","481456","479831","480857","480878","morph21_Oliver/Morris","61","50402","73","yes","1920","48"
"200","","83.78378378378379","83.78378378378379","689.581081081081","689.581081081081","black","no","xpyriment","legacy","legacy","0","202","NA","uniform","NA","NA","NA","1","undefined","1","0","73","73","73","0","73","73","73","NA","0","73","NA","NA","0","73","NA","73","0","73","NA","NA","NA","73","0","0","NA","NA","73","73","73","73","73","74","/","Tue Jun 20 18:26:04 2023","Executes Python code","yes","m21-ba-lexicalDecision.osexp","C:\Users\emoore8\Desktop\m21_vsl-main","no","mono","no","18","no","white","no","yes","1080","legacy","73","73","C:/Users/emoore8/Desktop/m21_vsl-main/subject-208.csv","xpyriment","Lentiform Loewenfeld","3.3.11","0","/","NA","NA","NA","NA","space","/","627","NA","NA","NA","NA","174710","627","2","legacy","1024","2","48000","-16","AB_m21","208","even","CW_L","COLLECTOR","1709","485661","483863","477100","176577","NA","NA","NA","NA","NA","484364","NA","NA","NA","483360","NA","483336","1866","485861","NA","NA","NA","484405","1709","1853","NA","NA","485032","485056","483336","484364","484385","morph21_Oliver/Morris","62","51029","74","yes","1920","46"
"300","","84","84","690.48","690.48","black","no","xpyriment","legacy","legacy","0","204","NA","uniform","NA","NA","NA","undefined","undefined","1","0","74","74","74","0","74","74","74","NA","0","74","NA","NA","0","74","NA","74","0","74","NA","NA","NA","74","0","0","NA","NA","74","74","74","74","74","75","z","Tue Jun 20 18:26:04 2023","Executes Python code","yes","m21-ba-lexicalDecision.osexp","C:\Users\emoore8\Desktop\m21_vsl-main","no","mono","no","18","no","white","no","yes","1080","legacy","74","74","C:/Users/emoore8/Desktop/m21_vsl-main/subject-208.csv","xpyriment","Lentiform Loewenfeld","3.3.11","0","space","space","NA","NA","NA","space","z","22941","22941","NA","NA","NA","174710","757","2","legacy","1024","2","48000","-16","AB_m21","208","even","NW_L_COMP","IME","1709","490803","487374","489300","176577","491107","NA","NA","NA","NA","487874","NA","NA","NA","486874","NA","486847","1866","514048","NA","NA","NA","487914","1709","1853","NA","NA","488672","488696","486847","487874","487894","morph21_Oliver/Morris","63","51786","75","yes","1920","20"
"350","","84.21052631578948","84.21052631578948","694.3552631578947","694.3552631578947","black","no","xpyriment","legacy","legacy","0","206","NA","uniform","NA","NA","NA","1","undefined","1","0","75","75","75","0","75","75","75","NA","0","75","NA","NA","0","75","NA","75","0","75","NA","NA","NA","75","0","0","NA","NA","75","75","75","75","75","76","z","Tue Jun 20 18:26:04 2023","Executes Python code","yes","m21-ba-lexicalDecision.osexp","C:\Users\emoore8\Desktop\m21_vsl-main","no","mono","no","18","no","white","no","yes","1080","legacy","75","75","C:/Users/emoore8/Desktop/m21_vsl-main/subject-208.csv","xpyriment","Lentiform Loewenfeld","3.3.11","0","z","space","NA","NA","NA","space","z","985","22941","NA","NA","NA","174710","985","2","legacy","1024","2","48000","-16","AB_m21","208","even","NW_L_SIMP","CRITICANCE","1709","517702","515545","489300","176577","491107","NA","NA","NA","NA","516045","NA","NA","NA","515045","NA","515018","1866","518052","NA","NA","NA","516086","1709","1853","NA","NA","517072","517098","515017","516045","516066","morph21_Oliver/Morris","64","52771","76","yes","1920","22"
"250","","84.41558441558442","84.41558441558442","692.7662337662338","692.7662337662338","black","no","xpyriment","legacy","legacy","0","207","NA","uniform","NA","NA","NA","1","undefined","1","0","76","76","76","0","76","76","76","NA","0","76","NA","NA","0","76","NA","76","0","76","NA","NA","NA","76","0","0","NA","NA","76","76","76","76","76","77","/","Tue Jun 20 18:26:04 2023","Executes Python code","yes","m21-ba-lexicalDecision.osexp","C:\Users\emoore8\Desktop\m21_vsl-main","no","mono","no","18","no","white","no","yes","1080","legacy","76","76","C:/Users/emoore8/Desktop/m21_vsl-main/subject-208.csv","xpyriment","Lentiform Loewenfeld","3.3.11","0","/","space","NA","NA","NA","space","/","572","22941","NA","NA","NA","174710","572","2","legacy","1024","2","48000","-16","AB_m21","208","even","FILL_W","SOFT","1709","521285","519544","489300","176577","491107","NA","NA","NA","NA","520044","NA","NA","NA","519044","NA","519018","1866","521535","NA","NA","NA","520084","1709","1853","NA","NA","520657","520681","519018","520044","520064","morph21_Oliver/Morris","65","53343","77","yes","1920","43"
"300","","84.61538461538461","84.61538461538461","697.525641025641","697.525641025641","black","no","xpyriment","legacy","legacy","0","205","NA","uniform","NA","NA","NA","1","undefined","1","0","77","77","77","0","77","77","77","NA","0","77","NA","NA","0","77","NA","77","0","77","NA","NA","NA","77","0","0","NA","NA","77","77","77","77","77","78","z","Tue Jun 20 18:26:04 2023","Executes Python code","yes","m21-ba-lexicalDecision.osexp","C:\Users\emoore8\Desktop\m21_vsl-main","no","mono","no","18","no","white","no","yes","1080","legacy","77","77","C:/Users/emoore8/Desktop/m21_vsl-main/subject-208.csv","xpyriment","Lentiform Loewenfeld","3.3.11","0","z","space","NA","NA","NA","space","z","1064","22941","NA","NA","NA","174710","1064","2","legacy","1024","2","48000","-16","AB_m21","208","even","NW_S_SIMP","FEVERIZE","1709","526788","523050","525283","176577","491107","NA","NA","NA","NA","523550","NA","NA","NA","522550","NA","522525","1866","527088","NA","NA","NA","523591","1709","1853","NA","NA","524656","524680","522525","523550","523571","morph21_Oliver/Morris","66","54407","78","yes","1920","24"
"400","","84.81012658227849","84.81012658227849","695.2784810126582","695.2784810126582","black","no","xpyriment","legacy","legacy","0","208","NA","uniform","NA","NA","NA","1","undefined","1","0","78","78","78","0","78","78","78","NA","0","78","NA","NA","0","78","NA","78","0","78","NA","NA","NA","78","0","0","NA","NA","78","78","78","78","78","79","z","Tue Jun 20 18:26:04 2023","Executes Python code","yes","m21-ba-lexicalDecision.osexp","C:\Users\emoore8\Desktop\m21_vsl-main","no","mono","no","18","no","white","no","yes","1080","legacy","78","78","C:/Users/emoore8/Desktop/m21_vsl-main/subject-208.csv","xpyriment","Lentiform Loewenfeld","3.3.11","0","z","space","NA","NA","NA","space","z","520","22941","NA","NA","NA","174710","520","2","legacy","1024","2","48000","-16","AB_m21","208","even","FILL_NW","BALFS","1709","530327","528636","525283","176577","491107","NA","NA","NA","NA","529136","NA","NA","NA","528136","NA","528109","1866","530727","NA","NA","NA","529176","1709","1853","NA","NA","529696","529722","528109","529136","529156","morph21_Oliver/Morris","67","54927","79","yes","1920","2"
"200","","85","85","694.275","694.275","black","no","xpyriment","legacy","legacy","0","201","NA","uniform","NA","NA","NA","1","undefined","1","0","79","79","79","0","79","79","79","NA","0","79","NA","NA","0","79","NA","79","0","79","NA","NA","NA","79","0","0","NA","NA","79","79","79","79","79","80","/","Tue Jun 20 18:26:04 2023","Executes Python code","yes","m21-ba-lexicalDecision.osexp","C:\Users\emoore8\Desktop\m21_vsl-main","no","mono","no","18","no","white","no","yes","1080","legacy","79","79","C:/Users/emoore8/Desktop/m21_vsl-main/subject-208.csv","xpyriment","Lentiform Loewenfeld","3.3.11","0","/","space","NA","NA","NA","space","/","615","22941","NA","NA","NA","174710","615","2","legacy","1024","2","48000","-16","AB_m21","208","even","CW_S","LISTENER","1709","534019","532234","525283","176577","491107","NA","NA","NA","NA","532735","NA","NA","NA","531734","NA","531709","1866","534219","NA","NA","NA","532776","1709","1853","NA","NA","533393","533416","531709","532735","532756","morph21_Oliver/Morris","68","55542","80","yes","1920","18"
"400","","85.18518518518519","85.18518518518519","694.6543209876543","694.6543209876543","black","no","xpyriment","legacy","legacy","0","207","NA","uniform","NA","NA","NA","1","undefined","1","0","80","80","80","0","80","80","80","NA","0","80","NA","NA","0","80","NA","80","0","80","NA","NA","NA","80","0","0","NA","NA","80","80","80","80","80","81","/","Tue Jun 20 18:26:04 2023","Executes Python code","yes","m21-ba-lexicalDecision.osexp","C:\Users\emoore8\Desktop\m21_vsl-main","no","mono","no","18","no","white","no","yes","1080","legacy","80","80","C:/Users/emoore8/Desktop/m21_vsl-main/subject-208.csv","xpyriment","Lentiform Loewenfeld","3.3.11","0","/","space","NA","NA","NA","space","/","725","22941","NA","NA","NA","174710","725","2","legacy","1024","2","48000","-16","AB_m21","208","even","FILL_W","DRUNK","1709","539155","535757","537651","176577","491107","NA","NA","NA","NA","536259","NA","NA","NA","535255","NA","535232","1866","539555","NA","NA","NA","536299","1709","1853","NA","NA","537025","537048","535232","536259","536279","morph21_Oliver/Morris","69","56267","81","yes","1920","19"
"250","","85.36585365853658","85.36585365853658","691.439024390244","691.439024390244","black","no","xpyriment","legacy","legacy","0","207","NA","uniform","NA","NA","NA","1","undefined","1","0","81","81","81","0","81","81","81","NA","0","81","NA","NA","0","81","NA","81","0","81","NA","NA","NA","81","0","0","NA","NA","81","81","81","81","81","82","/","Tue Jun 20 18:26:04 2023","Executes Python code","yes","m21-ba-lexicalDecision.osexp","C:\Users\emoore8\Desktop\m21_vsl-main","no","mono","no","18","no","white","no","yes","1080","legacy","81","81","C:/Users/emoore8/Desktop/m21_vsl-main/subject-208.csv","xpyriment","Lentiform Loewenfeld","3.3.11","0","/","space","NA","NA","NA","space","/","431","22941","NA","NA","NA","174710","431","2","legacy","1024","2","48000","-16","AB_m21","208","even","FILL_W","PREACH","1709","542652","541052","537651","176577","491107","NA","NA","NA","NA","541552","NA","NA","NA","540552","NA","540528","1866","542903","NA","NA","NA","541593","1709","1853","NA","NA","542025","542049","540528","541552","541573","morph21_Oliver/Morris","70","56698","82","yes","1920","7"
"250","","85.5421686746988","85.5421686746988","689.9156626506024","689.9156626506024","black","no","xpyriment","legacy","legacy","0","207","NA","uniform","NA","NA","NA","1","undefined","1","0","82","82","82","0","82","82","82","NA","0","82","NA","NA","0","82","NA","82","0","82","NA","NA","NA","82","0","0","NA","NA","82","82","82","82","82","83","/","Tue Jun 20 18:26:04 2023","Executes Python code","yes","m21-ba-lexicalDecision.osexp","C:\Users\emoore8\Desktop\m21_vsl-main","no","mono","no","18","no","white","no","yes","1080","legacy","82","82","C:/Users/emoore8/Desktop/m21_vsl-main/subject-208.csv","xpyriment","Lentiform Loewenfeld","3.3.11","0","/","space","NA","NA","NA","space","/","565","22941","NA","NA","NA","174710","565","2","legacy","1024","2","48000","-16","AB_m21","208","even","FILL_W","SUIT","1709","546147","544415","537651","176577","491107","NA","NA","NA","NA","544915","NA","NA","NA","543914","NA","543891","1866","546397","NA","NA","NA","544955","1709","1853","NA","NA","545521","545544","543891","544915","544935","morph21_Oliver/Morris","71","57263","83","yes","1920","49"
"400","","84.52380952380952","84.52380952380952","687.9285714285714","687.9285714285714","black","no","xpyriment","legacy","legacy","0","207","NA","uniform","NA","NA","NA","0","undefined","0","0","83","83","83","0","83","83","83","NA","0","83","NA","NA","0","83","NA","83","0","83","NA","NA","NA","83","0","0","NA","NA","83","83","83","83","83","84","/","Tue Jun 20 18:26:04 2023","Executes Python code","yes","m21-ba-lexicalDecision.osexp","C:\Users\emoore8\Desktop\m21_vsl-main","no","mono","no","18","no","white","no","yes","1080","legacy","83","83","C:/Users/emoore8/Desktop/m21_vsl-main/subject-208.csv","xpyriment","Lentiform Loewenfeld","3.3.11","0","z","space","NA","NA","NA","space","z","523","22941","NA","NA","NA","174710","523","2","legacy","1024","2","48000","-16","AB_m21","208","even","FILL_W","STEEP","1709","551101","547903","549597","176577","491107","NA","NA","NA","NA","548403","NA","NA","NA","547402","NA","547376","1866","551501","NA","NA","NA","548444","1709","1853","NA","NA","548968","548993","547376","548403","548424","morph21_Oliver/Morris","71","57786","84","yes","1920","16"
"250","","83.52941176470588","83.52941176470588","687.435294117647","687.435294117647","black","no","xpyriment","legacy","legacy","0","203","NA","uniform","NA","NA","NA","0","undefined","0","0","84","84","84","0","84","84","84","NA","0","84","NA","NA","0","84","NA","84","0","84","NA","NA","NA","84","0","0","NA","NA","84","84","84","84","84","85","z","Tue Jun 20 18:26:04 2023","Executes Python code","yes","m21-ba-lexicalDecision.osexp","C:\Users\emoore8\Desktop\m21_vsl-main","no","mono","no","18","no","white","no","yes","1080","legacy","84","84","C:/Users/emoore8/Desktop/m21_vsl-main/subject-208.csv","xpyriment","Lentiform Loewenfeld","3.3.11","0","/","space","NA","NA","NA","space","/","646","22941","NA","NA","NA","174710","646","2","legacy","1024","2","48000","-16","AB_m21","208","even","NW_S_COMP","BEEREL","1709","554819","553004","549597","176577","491107","NA","NA","NA","NA","553506","NA","NA","NA","552504","NA","552477","1866","555069","NA","NA","NA","553546","1709","1853","NA","NA","554192","554216","552477","553506","553526","morph21_Oliver/Morris","71","58432","85","yes","1920","5"
"400","","83.72093023255815","83.72093023255815","687.5","687.5","black","no","xpyriment","legacy","legacy","0","205","NA","uniform","NA","NA","NA","1","undefined","1","0","85","85","85","0","85","85","85","NA","0","85","NA","NA","0","85","NA","85","0","85","NA","NA","NA","85","0","0","NA","NA","85","85","85","85","85","86","z","Tue Jun 20 18:26:04 2023","Executes Python code","yes","m21-ba-lexicalDecision.osexp","C:\Users\emoore8\Desktop\m21_vsl-main","no","mono","no","18","no","white","no","yes","1080","legacy","85","85","C:/Users/emoore8/Desktop/m21_vsl-main/subject-208.csv","xpyriment","Lentiform Loewenfeld","3.3.11","0","z","space","NA","NA","NA","space","z","693","22941","NA","NA","NA","174710","693","2","legacy","1024","2","48000","-16","AB_m21","208","even","NW_S_SIMP","URNIST","1709","558435","556575","549597","176577","491107","NA","NA","NA","NA","557075","NA","NA","NA","556075","NA","556048","1866","558835","NA","NA","NA","557115","1709","1853","NA","NA","557808","557832","556048","557075","557095","morph21_Oliver/Morris","72","59125","86","yes","1920","5"
"400","","82.75862068965517","82.75862068965517","689.7816091954023","689.7816091954023","black","no","xpyriment","legacy","legacy","0","207","NA","uniform","NA","NA","NA","0","undefined","0","0","86","86","86","0","86","86","86","NA","0","86","NA","NA","0","86","NA","86","0","86","NA","NA","NA","86","0","0","NA","NA","86","86","86","86","86","87","/","Tue Jun 20 18:26:04 2023","Executes Python code","yes","m21-ba-lexicalDecision.osexp","C:\Users\emoore8\Desktop\m21_vsl-main","no","mono","no","18","no","white","no","yes","1080","legacy","86","86","C:/Users/emoore8/Desktop/m21_vsl-main/subject-208.csv","xpyriment","Lentiform Loewenfeld","3.3.11","0","z","space","NA","NA","NA","space","z","886","22941","NA","NA","NA","174710","886","2","legacy","1024","2","48000","-16","AB_m21","208","even","FILL_W","CHIP","1709","563902","560342","562398","176577","491107","NA","NA","NA","NA","560842","NA","NA","NA","559842","NA","559816","1866","564302","NA","NA","NA","560882","1709","1853","NA","NA","561768","561794","559816","560842","560862","morph21_Oliver/Morris","72","60011","87","yes","1920","11"
"400","","82.95454545454545","82.95454545454545","690.9886363636364","690.9886363636364","black","no","xpyriment","legacy","legacy","0","208","NA","uniform","NA","NA","NA","1","undefined","1","0","87","87","87","0","87","87","87","NA","0","87","NA","NA","0","87","NA","87","0","87","NA","NA","NA","87","0","0","NA","NA","87","87","87","87","87","88","z","Tue Jun 20 18:26:04 2023","Executes Python code","yes","m21-ba-lexicalDecision.osexp","C:\Users\emoore8\Desktop\m21_vsl-main","no","mono","no","18","no","white","no","yes","1080","legacy","87","87","C:/Users/emoore8/Desktop/m21_vsl-main/subject-208.csv","xpyriment","Lentiform Loewenfeld","3.3.11","0","z","space","NA","NA","NA","space","z","796","22941","NA","NA","NA","174710","796","2","legacy","1024","2","48000","-16","AB_m21","208","even","FILL_NW","HEND","1709","567797","565831","562398","176577","491107","NA","NA","NA","NA","566331","NA","NA","NA","565329","NA","565304","1866","568197","NA","NA","NA","566371","1709","1853","NA","NA","567168","567193","565304","566331","566351","morph21_Oliver/Morris","73","60807","88","yes","1920","28"
"200","","83.14606741573034","83.14606741573034","688.9887640449438","688.9887640449438","black","no","xpyriment","legacy","legacy","0","201","NA","uniform","NA","NA","NA","1","undefined","1","0","88","88","88","0","88","88","88","NA","0","88","NA","NA","0","88","NA","88","0","88","NA","NA","NA","88","0","0","NA","NA","88","88","88","88","88","89","/","Tue Jun 20 18:26:04 2023","Executes Python code","yes","m21-ba-lexicalDecision.osexp","C:\Users\emoore8\Desktop\m21_vsl-main","no","mono","no","18","no","white","no","yes","1080","legacy","88","88","C:/Users/emoore8/Desktop/m21_vsl-main/subject-208.csv","xpyriment","Lentiform Loewenfeld","3.3.11","0","/","space","NA","NA","NA","space","/","513","22941","NA","NA","NA","174710","513","2","legacy","1024","2","48000","-16","AB_m21","208","even","CW_S","LOCALLY","1709","571387","569707","562398","176577","491107","NA","NA","NA","NA","570207","NA","NA","NA","569207","NA","569180","1866","571587","NA","NA","NA","570247","1709","1853","NA","NA","570761","570784","569180","570207","570227","morph21_Oliver/Morris","74","61320","89","yes","1920","37"
