"ITI","_prepare","acc","accuracy","average_response_time","avg_rt","background","bidi","canvas_backend","clock_backend","color_backend","compensation","cond_trig","condtrigtime","coordinates","coroutines_cycles","coroutines_duration","coroutines_mean_cycle_duration","correct","correct_instructions_1","correct_new_keyboard_response_1","count_AB_m21","count_ITI","count_blank_screen","count_blink_screen","count_block1","count_break1","count_break2","count_break3_1","count_canvas","count_close_port","count_cond_trigger","count_correct_trigger","count_def_chain","count_end_screen","count_fixation_1","count_getting_started","count_inc_counter","count_instructions_1","count_logger","count_logscript","count_new_inline_script","count_new_inline_script_2","count_new_keyboard_response_1","count_open_port","count_reset_counter_prep","count_reset_counter_run","count_reset_counter_run_1","count_response_trigger_trial","count_responsescreen","count_sequence","count_target_present","count_word_trigger","counter","cresp","datetime","description","disable_garbage_collection","experiment_file","experiment_path","font_bold","font_family","font_italic","font_size","font_underline","foreground","form_clicks","fullscreen","height","keyboard_backend","live_row","live_row_block1","logfile","mouse_backend","opensesame_codename","opensesame_version","repeat_cycle","response","response_break1","response_break2","response_break3_1","response_end_screen","response_instructions_1","response_new_keyboard_response_1","response_time","response_time_break1","response_time_break2","response_time_break3_1","response_time_end_screen","response_time_instructions_1","response_time_new_keyboard_response_1","round_decimals","sampler_backend","sound_buf_size","sound_channels","sound_freq","sound_sample_size","start","subject_nr","subject_parity","targ_type","target","time_AB_m21","time_ITI","time_blank_screen","time_blink_screen","time_block1","time_break1","time_break2","time_break3_1","time_canvas","time_close_port","time_cond_trigger","time_correct_trigger","time_def_chain","time_end_screen","time_fixation_1","time_getting_started","time_inc_counter","time_instructions_1","time_logger","time_logscript","time_new_inline_script","time_new_inline_script_2","time_new_keyboard_response_1","time_open_port","time_reset_counter_prep","time_reset_counter_run","time_reset_counter_run_1","time_response_trigger_trial","time_responsescreen","time_sequence","time_target_present","time_word_trigger","title","total_correct","total_response_time","total_responses","uniform_coordinates","width","word_trig"
"250","","100","100","1105","1105","black","no","xpyriment","legacy","legacy","0","201","NA","uniform","NA","NA","NA","1","undefined","1","0","0","0","0","0","0","0","0","NA","0","0","NA","NA","0","0","NA","0","0","0","NA","NA","NA","0","0","0","NA","NA","0","0","0","0","0","1","/","Wed Jul  5 17:34:01 2023","Executes Python code","yes","m21-ba-lexicalDecision.osexp","C:\Users\emoore8\Desktop\m21_vsl-main","no","mono","no","18","no","white","no","yes","1080","legacy","0","0","C:/Users/emoore8/Desktop/m21_vsl-main/subject-214.csv","xpyriment","Lentiform Loewenfeld","3.3.11","0","/","NA","NA","NA","NA","space","/","1105","NA","NA","NA","NA","36576","1105","2","legacy","1024","2","48000","-16","AB_m21","214","even","CW_S","SEEKER","1769","42814","40537","NA","38515","NA","NA","NA","NA","NA","41039","NA","NA","NA","40036","NA","39982","1937","43064","NA","NA","NA","41080","1770","1920","NA","NA","42186","42210","39980","41038","41060","morph21_Oliver/Morris","1","1105","1","yes","1920","16"
"300","","100","100","999.5","999.5","black","no","xpyriment","legacy","legacy","0","208","NA","uniform","NA","NA","NA","1","undefined","1","0","1","1","1","0","1","1","1","NA","0","1","NA","NA","0","1","NA","1","0","1","NA","NA","NA","1","0","0","NA","NA","1","1","1","1","1","2","z","Wed Jul  5 17:34:01 2023","Executes Python code","yes","m21-ba-lexicalDecision.osexp","C:\Users\emoore8\Desktop\m21_vsl-main","no","mono","no","18","no","white","no","yes","1080","legacy","1","1","C:/Users/emoore8/Desktop/m21_vsl-main/subject-214.csv","xpyriment","Lentiform Loewenfeld","3.3.11","0","z","NA","NA","NA","NA","space","z","894","NA","NA","NA","NA","36576","894","2","legacy","1024","2","48000","-16","AB_m21","214","even","FILL_NW","VOOFS","1769","46773","44710","NA","38515","NA","NA","NA","NA","NA","45210","NA","NA","NA","44209","NA","44184","1937","47073","NA","NA","NA","45251","1770","1920","NA","NA","46145","46170","44184","45210","45231","morph21_Oliver/Morris","2","1999","2","yes","1920","48"
"350","","66.66666666666667","66.66666666666667","1066.3333333333333","1066.3333333333333","black","no","xpyriment","legacy","legacy","0","206","NA","uniform","NA","NA","NA","0","undefined","0","0","2","2","2","0","2","2","2","NA","0","2","NA","NA","0","2","NA","2","0","2","NA","NA","NA","2","0","0","NA","NA","2","2","2","2","2","3","z","Wed Jul  5 17:34:01 2023","Executes Python code","yes","m21-ba-lexicalDecision.osexp","C:\Users\emoore8\Desktop\m21_vsl-main","no","mono","no","18","no","white","no","yes","1080","legacy","2","2","C:/Users/emoore8/Desktop/m21_vsl-main/subject-214.csv","xpyriment","Lentiform Loewenfeld","3.3.11","0","None","NA","NA","NA","NA","space","None","1200","NA","NA","NA","NA","36576","1200","2","legacy","1024","2","48000","-16","AB_m21","214","even","NW_L_SIMP","NUTLY","1769","52479","48606","50974","38515","NA","NA","NA","NA","NA","49106","NA","NA","NA","48105","NA","48078","1937","52829","NA","NA","NA","49147","1770","1920","NA","NA","50347","50370","48078","49106","49127","morph21_Oliver/Morris","2","3199","3","yes","1920","14"
"400","","75","75","981.5","981.5","black","no","xpyriment","legacy","legacy","0","201","NA","uniform","NA","NA","NA","1","undefined","1","0","3","3","3","0","3","3","3","NA","0","3","NA","NA","0","3","NA","3","0","3","NA","NA","NA","3","0","0","NA","NA","3","3","3","3","3","4","/","Wed Jul  5 17:34:01 2023","Executes Python code","yes","m21-ba-lexicalDecision.osexp","C:\Users\emoore8\Desktop\m21_vsl-main","no","mono","no","18","no","white","no","yes","1080","legacy","3","3","C:/Users/emoore8/Desktop/m21_vsl-main/subject-214.csv","xpyriment","Lentiform Loewenfeld","3.3.11","0","/","NA","NA","NA","NA","space","/","727","NA","NA","NA","NA","36576","727","2","legacy","1024","2","48000","-16","AB_m21","214","even","CW_S","DIETARY","1769","56262","54365","50974","38515","NA","NA","NA","NA","NA","54866","NA","NA","NA","53865","NA","53836","1937","56663","NA","NA","NA","54906","1770","1920","NA","NA","55633","55658","53836","54866","54886","morph21_Oliver/Morris","3","3926","4","yes","1920","6"
"400","","60","60","1025.2","1025.2","black","no","xpyriment","legacy","legacy","0","203","NA","uniform","NA","NA","NA","0","undefined","0","0","4","4","4","0","4","4","4","NA","0","4","NA","NA","0","4","NA","4","0","4","NA","NA","NA","4","0","0","NA","NA","4","4","4","4","4","5","z","Wed Jul  5 17:34:01 2023","Executes Python code","yes","m21-ba-lexicalDecision.osexp","C:\Users\emoore8\Desktop\m21_vsl-main","no","mono","no","18","no","white","no","yes","1080","legacy","4","4","C:/Users/emoore8/Desktop/m21_vsl-main/subject-214.csv","xpyriment","Lentiform Loewenfeld","3.3.11","0","None","NA","NA","NA","NA","space","None","1200","NA","NA","NA","NA","36576","1200","2","legacy","1024","2","48000","-16","AB_m21","214","even","NW_S_COMP","ARIDILM","1769","60547","58180","50974","38515","NA","NA","NA","NA","NA","58681","NA","NA","NA","57679","NA","57652","1937","60947","NA","NA","NA","58721","1770","1920","NA","NA","59921","59944","57652","58681","58701","morph21_Oliver/Morris","3","5126","5","yes","1920","9"
"250","","50","50","1054.3333333333333","1054.3333333333333","black","no","xpyriment","legacy","legacy","0","208","NA","uniform","NA","NA","NA","0","undefined","0","0","5","5","5","0","5","5","5","NA","0","5","NA","NA","0","5","NA","5","0","5","NA","NA","NA","5","0","0","NA","NA","5","5","5","5","5","6","z","Wed Jul  5 17:34:01 2023","Executes Python code","yes","m21-ba-lexicalDecision.osexp","C:\Users\emoore8\Desktop\m21_vsl-main","no","mono","no","18","no","white","no","yes","1080","legacy","5","5","C:/Users/emoore8/Desktop/m21_vsl-main/subject-214.csv","xpyriment","Lentiform Loewenfeld","3.3.11","0","None","NA","NA","NA","NA","space","None","1200","NA","NA","NA","NA","36576","1200","2","legacy","1024","2","48000","-16","AB_m21","214","even","FILL_NW","DOWED","1769","66360","62484","64856","38515","NA","NA","NA","NA","NA","62985","NA","NA","NA","61982","NA","61959","1937","66610","NA","NA","NA","63026","1770","1920","NA","NA","64226","64250","61959","62985","63006","morph21_Oliver/Morris","3","6326","6","yes","1920","16"
"400","","57.142857142857146","57.142857142857146","1041.2857142857142","1041.2857142857142","black","no","xpyriment","legacy","legacy","0","207","NA","uniform","NA","NA","NA","1","undefined","1","0","6","6","6","0","6","6","6","NA","0","6","NA","NA","0","6","NA","6","0","6","NA","NA","NA","6","0","0","NA","NA","6","6","6","6","6","7","/","Wed Jul  5 17:34:01 2023","Executes Python code","yes","m21-ba-lexicalDecision.osexp","C:\Users\emoore8\Desktop\m21_vsl-main","no","mono","no","18","no","white","no","yes","1080","legacy","6","6","C:/Users/emoore8/Desktop/m21_vsl-main/subject-214.csv","xpyriment","Lentiform Loewenfeld","3.3.11","0","/","NA","NA","NA","NA","space","/","963","NA","NA","NA","NA","36576","963","2","legacy","1024","2","48000","-16","AB_m21","214","even","FILL_W","LITHE","1769","70260","68130","64856","38515","NA","NA","NA","NA","NA","68630","NA","NA","NA","67629","NA","67603","1937","70660","NA","NA","NA","68670","1770","1920","NA","NA","69634","69658","67603","68630","68650","morph21_Oliver/Morris","4","7289","7","yes","1920","23"
"300","","62.5","62.5","1024.75","1024.75","black","no","xpyriment","legacy","legacy","0","205","NA","uniform","NA","NA","NA","1","undefined","1","0","7","7","7","0","7","7","7","NA","0","7","NA","NA","0","7","NA","7","0","7","NA","NA","NA","7","0","0","NA","NA","7","7","7","7","7","8","z","Wed Jul  5 17:34:01 2023","Executes Python code","yes","m21-ba-lexicalDecision.osexp","C:\Users\emoore8\Desktop\m21_vsl-main","no","mono","no","18","no","white","no","yes","1080","legacy","7","7","C:/Users/emoore8/Desktop/m21_vsl-main/subject-214.csv","xpyriment","Lentiform Loewenfeld","3.3.11","0","z","NA","NA","NA","NA","space","z","909","NA","NA","NA","NA","36576","909","2","legacy","1024","2","48000","-16","AB_m21","214","even","NW_S_SIMP","BOLTOUS","1769","74246","72165","64856","38515","NA","NA","NA","NA","NA","72666","NA","NA","NA","71664","NA","71638","1937","74546","NA","NA","NA","72708","1770","1920","NA","NA","73618","73643","71638","72666","72687","morph21_Oliver/Morris","5","8198","8","yes","1920","13"
"200","","66.66666666666667","66.66666666666667","1002.2222222222222","1002.2222222222222","black","no","xpyriment","legacy","legacy","0","208","NA","uniform","NA","NA","NA","1","undefined","1","0","8","8","8","0","8","8","8","NA","0","8","NA","NA","0","8","NA","8","0","8","NA","NA","NA","8","0","0","NA","NA","8","8","8","8","8","9","z","Wed Jul  5 17:34:01 2023","Executes Python code","yes","m21-ba-lexicalDecision.osexp","C:\Users\emoore8\Desktop\m21_vsl-main","no","mono","no","18","no","white","no","yes","1080","legacy","8","8","C:/Users/emoore8/Desktop/m21_vsl-main/subject-214.csv","xpyriment","Lentiform Loewenfeld","3.3.11","0","z","NA","NA","NA","NA","space","z","822","NA","NA","NA","NA","36576","822","2","legacy","1024","2","48000","-16","AB_m21","214","even","FILL_NW","FROT","1769","79581","76084","78077","38515","NA","NA","NA","NA","NA","76587","NA","NA","NA","75584","NA","75559","1937","79781","NA","NA","NA","76627","1770","1920","NA","NA","77450","77474","75559","76587","76607","morph21_Oliver/Morris","6","9020","9","yes","1920","22"
"400","","60","60","1022","1022","black","no","xpyriment","legacy","legacy","0","205","NA","uniform","NA","NA","NA","0","undefined","0","0","9","9","9","0","9","9","9","NA","0","9","NA","NA","0","9","NA","9","0","9","NA","NA","NA","9","0","0","NA","NA","9","9","9","9","9","10","z","Wed Jul  5 17:34:01 2023","Executes Python code","yes","m21-ba-lexicalDecision.osexp","C:\Users\emoore8\Desktop\m21_vsl-main","no","mono","no","18","no","white","no","yes","1080","legacy","9","9","C:/Users/emoore8/Desktop/m21_vsl-main/subject-214.csv","xpyriment","Lentiform Loewenfeld","3.3.11","0","None","NA","NA","NA","NA","space","None","1200","NA","NA","NA","NA","36576","1200","2","legacy","1024","2","48000","-16","AB_m21","214","even","NW_S_SIMP","MEDICALARY","1769","83664","81297","78077","38515","NA","NA","NA","NA","NA","81798","NA","NA","NA","80797","NA","80770","1937","84064","NA","NA","NA","81838","1770","1920","NA","NA","83038","83061","80770","81798","81818","morph21_Oliver/Morris","6","10220","10","yes","1920","18"
"250","","63.63636363636363","63.63636363636363","1008.4545454545455","1008.4545454545455","black","no","xpyriment","legacy","legacy","0","201","NA","uniform","NA","NA","NA","1","undefined","1","0","10","10","10","0","10","10","10","NA","0","10","NA","NA","0","10","NA","10","0","10","NA","NA","NA","10","0","0","NA","NA","10","10","10","10","10","11","/","Wed Jul  5 17:34:01 2023","Executes Python code","yes","m21-ba-lexicalDecision.osexp","C:\Users\emoore8\Desktop\m21_vsl-main","no","mono","no","18","no","white","no","yes","1080","legacy","10","10","C:/Users/emoore8/Desktop/m21_vsl-main/subject-214.csv","xpyriment","Lentiform Loewenfeld","3.3.11","0","/","NA","NA","NA","NA","space","/","873","NA","NA","NA","NA","36576","873","2","legacy","1024","2","48000","-16","AB_m21","214","even","CW_S","HUGELY","1769","87613","85570","78077","38515","NA","NA","NA","NA","NA","86071","NA","NA","NA","85070","NA","85041","1937","87863","NA","NA","NA","86112","1770","1920","NA","NA","86985","87009","85041","86071","86092","morph21_Oliver/Morris","7","11093","11","yes","1920","35"
"200","","66.66666666666667","66.66666666666667","996.0833333333334","996.0833333333334","black","no","xpyriment","legacy","legacy","0","203","NA","uniform","NA","NA","NA","1","undefined","1","0","11","11","11","0","11","11","11","NA","0","11","NA","NA","0","11","NA","11","0","11","NA","NA","NA","11","0","0","NA","NA","11","11","11","11","11","12","z","Wed Jul  5 17:34:01 2023","Executes Python code","yes","m21-ba-lexicalDecision.osexp","C:\Users\emoore8\Desktop\m21_vsl-main","no","mono","no","18","no","white","no","yes","1080","legacy","11","11","C:/Users/emoore8/Desktop/m21_vsl-main/subject-214.csv","xpyriment","Lentiform Loewenfeld","3.3.11","0","z","NA","NA","NA","NA","space","z","860","NA","NA","NA","NA","36576","860","2","legacy","1024","2","48000","-16","AB_m21","214","even","NW_S_COMP","DUMBIDY","1769","92904","89368","91398","38515","NA","NA","NA","NA","NA","89868","NA","NA","NA","88868","NA","88841","1937","93104","NA","NA","NA","89909","1770","1920","NA","NA","90769","90794","88841","89868","89888","morph21_Oliver/Morris","8","11953","12","yes","1920","12"
"350","","69.23076923076923","69.23076923076923","994.9230769230769","994.9230769230769","black","no","xpyriment","legacy","legacy","0","201","NA","uniform","NA","NA","NA","1","undefined","1","0","12","12","12","0","12","12","12","NA","0","12","NA","NA","0","12","NA","12","0","12","NA","NA","NA","12","0","0","NA","NA","12","12","12","12","12","13","/","Wed Jul  5 17:34:01 2023","Executes Python code","yes","m21-ba-lexicalDecision.osexp","C:\Users\emoore8\Desktop\m21_vsl-main","no","mono","no","18","no","white","no","yes","1080","legacy","12","12","C:/Users/emoore8/Desktop/m21_vsl-main/subject-214.csv","xpyriment","Lentiform Loewenfeld","3.3.11","0","/","NA","NA","NA","NA","space","/","981","NA","NA","NA","NA","36576","981","2","legacy","1024","2","48000","-16","AB_m21","214","even","CW_S","STRANGENESS","1769","96772","94622","91398","38515","NA","NA","NA","NA","NA","95124","NA","NA","NA","94120","NA","94096","1937","97122","NA","NA","NA","95164","1770","1920","NA","NA","96145","96169","94096","95123","95144","morph21_Oliver/Morris","9","12934","13","yes","1920","46"
"400","","71.42857142857143","71.42857142857143","995.5714285714286","995.5714285714286","black","no","xpyriment","legacy","legacy","0","208","NA","uniform","NA","NA","NA","1","undefined","1","0","13","13","13","0","13","13","13","NA","0","13","NA","NA","0","13","NA","13","0","13","NA","NA","NA","13","0","0","NA","NA","13","13","13","13","13","14","z","Wed Jul  5 17:34:01 2023","Executes Python code","yes","m21-ba-lexicalDecision.osexp","C:\Users\emoore8\Desktop\m21_vsl-main","no","mono","no","18","no","white","no","yes","1080","legacy","13","13","C:/Users/emoore8/Desktop/m21_vsl-main/subject-214.csv","xpyriment","Lentiform Loewenfeld","3.3.11","0","z","NA","NA","NA","NA","space","z","1004","NA","NA","NA","NA","36576","1004","2","legacy","1024","2","48000","-16","AB_m21","214","even","FILL_NW","SOISE","1769","100798","98625","91398","38515","NA","NA","NA","NA","NA","99126","NA","NA","NA","98125","NA","98100","1937","101198","NA","NA","NA","99166","1770","1920","NA","NA","100170","100195","98100","99125","99146","morph21_Oliver/Morris","10","13938","14","yes","1920","43"
"200","","66.66666666666667","66.66666666666667","1009.2","1009.2","black","no","xpyriment","legacy","legacy","0","203","NA","uniform","NA","NA","NA","0","undefined","0","0","14","14","14","0","14","14","14","NA","0","14","NA","NA","0","14","NA","14","0","14","NA","NA","NA","14","0","0","NA","NA","14","14","14","14","14","15","z","Wed Jul  5 17:34:01 2023","Executes Python code","yes","m21-ba-lexicalDecision.osexp","C:\Users\emoore8\Desktop\m21_vsl-main","no","mono","no","18","no","white","no","yes","1080","legacy","14","14","C:/Users/emoore8/Desktop/m21_vsl-main/subject-214.csv","xpyriment","Lentiform Loewenfeld","3.3.11","0","None","NA","NA","NA","NA","space","None","1200","NA","NA","NA","NA","36576","1200","2","legacy","1024","2","48000","-16","AB_m21","214","even","NW_S_COMP","YANKODY","1769","106583","102709","105076","38515","NA","NA","NA","NA","NA","103209","NA","NA","NA","102209","NA","102186","1937","106783","NA","NA","NA","103250","1770","1920","NA","NA","104450","104473","102186","103209","103230","morph21_Oliver/Morris","10","15138","15","yes","1920","23"
"250","","68.75","68.75","986.375","986.375","black","no","xpyriment","legacy","legacy","0","207","NA","uniform","NA","NA","NA","1","undefined","1","0","15","15","15","0","15","15","15","NA","0","15","NA","NA","0","15","NA","15","0","15","NA","NA","NA","15","0","0","NA","NA","15","15","15","15","15","16","/","Wed Jul  5 17:34:01 2023","Executes Python code","yes","m21-ba-lexicalDecision.osexp","C:\Users\emoore8\Desktop\m21_vsl-main","no","mono","no","18","no","white","no","yes","1080","legacy","15","15","C:/Users/emoore8/Desktop/m21_vsl-main/subject-214.csv","xpyriment","Lentiform Loewenfeld","3.3.11","0","/","NA","NA","NA","NA","space","/","644","NA","NA","NA","NA","36576","644","2","legacy","1024","2","48000","-16","AB_m21","214","even","FILL_W","TREAT","1769","110116","108304","105076","38515","NA","NA","NA","NA","NA","108805","NA","NA","NA","107804","NA","107775","1937","110366","NA","NA","NA","108845","1770","1920","NA","NA","109490","109513","107775","108805","108825","morph21_Oliver/Morris","11","15782","16","yes","1920","48"
"250","","70.58823529411765","70.58823529411765","971.0588235294117","971.0588235294117","black","no","xpyriment","legacy","legacy","0","201","NA","uniform","NA","NA","NA","1","undefined","1","0","16","16","16","0","16","16","16","NA","0","16","NA","NA","0","16","NA","16","0","16","NA","NA","NA","16","0","0","NA","NA","16","16","16","16","16","17","/","Wed Jul  5 17:34:01 2023","Executes Python code","yes","m21-ba-lexicalDecision.osexp","C:\Users\emoore8\Desktop\m21_vsl-main","no","mono","no","18","no","white","no","yes","1080","legacy","16","16","C:/Users/emoore8/Desktop/m21_vsl-main/subject-214.csv","xpyriment","Lentiform Loewenfeld","3.3.11","0","/","NA","NA","NA","NA","space","/","726","NA","NA","NA","NA","36576","726","2","legacy","1024","2","48000","-16","AB_m21","214","even","CW_S","MOSSY","1769","113772","111879","105076","38515","NA","NA","NA","NA","NA","112379","NA","NA","NA","111379","NA","111349","1937","114022","NA","NA","NA","112419","1770","1920","NA","NA","113146","113169","111349","112379","112399","morph21_Oliver/Morris","12","16508","17","yes","1920","47"
"400","","72.22222222222223","72.22222222222223","953.3333333333334","953.3333333333334","black","no","xpyriment","legacy","legacy","0","202","NA","uniform","NA","NA","NA","1","undefined","1","0","17","17","17","0","17","17","17","NA","0","17","NA","NA","0","17","NA","17","0","17","NA","NA","NA","17","0","0","NA","NA","17","17","17","17","17","18","/","Wed Jul  5 17:34:01 2023","Executes Python code","yes","m21-ba-lexicalDecision.osexp","C:\Users\emoore8\Desktop\m21_vsl-main","no","mono","no","18","no","white","no","yes","1080","legacy","17","17","C:/Users/emoore8/Desktop/m21_vsl-main/subject-214.csv","xpyriment","Lentiform Loewenfeld","3.3.11","0","/","NA","NA","NA","NA","space","/","652","NA","NA","NA","NA","36576","652","2","legacy","1024","2","48000","-16","AB_m21","214","even","CW_L","QUIETLY","1769","118876","115551","117372","38515","NA","NA","NA","NA","NA","116053","NA","NA","NA","115050","NA","115024","1937","119276","NA","NA","NA","116093","1770","1920","NA","NA","116746","116770","115024","116053","116073","morph21_Oliver/Morris","13","17160","18","yes","1920","36"
"350","","73.6842105263158","73.6842105263158","935.7368421052631","935.7368421052631","black","no","xpyriment","legacy","legacy","0","207","NA","uniform","NA","NA","NA","1","undefined","1","0","18","18","18","0","18","18","18","NA","0","18","NA","NA","0","18","NA","18","0","18","NA","NA","NA","18","0","0","NA","NA","18","18","18","18","18","19","/","Wed Jul  5 17:34:01 2023","Executes Python code","yes","m21-ba-lexicalDecision.osexp","C:\Users\emoore8\Desktop\m21_vsl-main","no","mono","no","18","no","white","no","yes","1080","legacy","18","18","C:/Users/emoore8/Desktop/m21_vsl-main/subject-214.csv","xpyriment","Lentiform Loewenfeld","3.3.11","0","/","NA","NA","NA","NA","space","/","619","NA","NA","NA","NA","36576","619","2","legacy","1024","2","48000","-16","AB_m21","214","even","FILL_W","LEAK","1769","122590","120801","117372","38515","NA","NA","NA","NA","NA","121301","NA","NA","NA","120301","NA","120273","1937","122940","NA","NA","NA","121342","1770","1920","NA","NA","121962","121987","120273","121301","121322","morph21_Oliver/Morris","14","17779","19","yes","1920","9"
"250","","75","75","915.1","915.1","black","no","xpyriment","legacy","legacy","0","201","NA","uniform","NA","NA","NA","1","undefined","1","0","19","19","19","0","19","19","19","NA","0","19","NA","NA","0","19","NA","19","0","19","NA","NA","NA","19","0","0","NA","NA","19","19","19","19","19","20","/","Wed Jul  5 17:34:01 2023","Executes Python code","yes","m21-ba-lexicalDecision.osexp","C:\Users\emoore8\Desktop\m21_vsl-main","no","mono","no","18","no","white","no","yes","1080","legacy","19","19","C:/Users/emoore8/Desktop/m21_vsl-main/subject-214.csv","xpyriment","Lentiform Loewenfeld","3.3.11","0","/","NA","NA","NA","NA","space","/","523","NA","NA","NA","NA","36576","523","2","legacy","1024","2","48000","-16","AB_m21","214","even","CW_S","AWARENESS","1769","126140","124448","117372","38515","NA","NA","NA","NA","NA","124949","NA","NA","NA","123947","NA","123923","1937","126390","NA","NA","NA","124990","1770","1920","NA","NA","125514","125537","123923","124949","124970","morph21_Oliver/Morris","15","18302","20","yes","1920","44"
"300","","76.19047619047619","76.19047619047619","897.8571428571429","897.8571428571429","black","no","xpyriment","legacy","legacy","0","207","NA","uniform","NA","NA","NA","1","undefined","1","0","20","20","20","0","20","20","20","NA","0","20","NA","NA","0","20","NA","20","0","20","NA","NA","NA","20","0","0","NA","NA","20","20","20","20","20","21","/","Wed Jul  5 17:34:01 2023","Executes Python code","yes","m21-ba-lexicalDecision.osexp","C:\Users\emoore8\Desktop\m21_vsl-main","no","mono","no","18","no","white","no","yes","1080","legacy","20","20","C:/Users/emoore8/Desktop/m21_vsl-main/subject-214.csv","xpyriment","Lentiform Loewenfeld","3.3.11","0","/","NA","NA","NA","NA","space","/","553","NA","NA","NA","NA","36576","553","2","legacy","1024","2","48000","-16","AB_m21","214","even","FILL_W","BAKE","1769","131108","127884","129605","38515","NA","NA","NA","NA","NA","128384","NA","NA","NA","127383","NA","127360","1937","131408","NA","NA","NA","128425","1770","1920","NA","NA","128978","129002","127360","128384","128405","morph21_Oliver/Morris","16","18855","21","yes","1920","29"
"400","","72.72727272727273","72.72727272727273","911.5909090909091","911.5909090909091","black","no","xpyriment","legacy","legacy","0","205","NA","uniform","NA","NA","NA","0","undefined","0","0","21","21","21","0","21","21","21","NA","0","21","NA","NA","0","21","NA","21","0","21","NA","NA","NA","21","0","0","NA","NA","21","21","21","21","21","22","z","Wed Jul  5 17:34:01 2023","Executes Python code","yes","m21-ba-lexicalDecision.osexp","C:\Users\emoore8\Desktop\m21_vsl-main","no","mono","no","18","no","white","no","yes","1080","legacy","21","21","C:/Users/emoore8/Desktop/m21_vsl-main/subject-214.csv","xpyriment","Lentiform Loewenfeld","3.3.11","0","None","NA","NA","NA","NA","space","None","1200","NA","NA","NA","NA","36576","1200","2","legacy","1024","2","48000","-16","AB_m21","214","even","NW_S_SIMP","ADVERTISELY","1769","135302","132936","129605","38515","NA","NA","NA","NA","NA","133436","NA","NA","NA","132436","NA","132408","1937","135702","NA","NA","NA","133476","1770","1920","NA","NA","134676","134699","132408","133435","133456","morph21_Oliver/Morris","16","20055","22","yes","1920","25"
"250","","73.91304347826087","73.91304347826087","896.8260869565217","896.8260869565217","black","no","xpyriment","legacy","legacy","0","207","NA","uniform","NA","NA","NA","1","undefined","1","0","22","22","22","0","22","22","22","NA","0","22","NA","NA","0","22","NA","22","0","22","NA","NA","NA","22","0","0","NA","NA","22","22","22","22","22","23","/","Wed Jul  5 17:34:01 2023","Executes Python code","yes","m21-ba-lexicalDecision.osexp","C:\Users\emoore8\Desktop\m21_vsl-main","no","mono","no","18","no","white","no","yes","1080","legacy","22","22","C:/Users/emoore8/Desktop/m21_vsl-main/subject-214.csv","xpyriment","Lentiform Loewenfeld","3.3.11","0","/","NA","NA","NA","NA","space","/","572","NA","NA","NA","NA","36576","572","2","legacy","1024","2","48000","-16","AB_m21","214","even","FILL_W","SOUGHT","1769","138940","137200","129605","38515","NA","NA","NA","NA","NA","137700","NA","NA","NA","136699","NA","136672","1937","139190","NA","NA","NA","137741","1770","1920","NA","NA","138314","138337","136672","137700","137721","morph21_Oliver/Morris","17","20627","23","yes","1920","40"
"300","","75","75","892.875","892.875","black","no","xpyriment","legacy","legacy","0","204","NA","uniform","NA","NA","NA","1","undefined","1","0","23","23","23","0","23","23","23","NA","0","23","NA","NA","0","23","NA","23","0","23","NA","NA","NA","23","0","0","NA","NA","23","23","23","23","23","24","z","Wed Jul  5 17:34:01 2023","Executes Python code","yes","m21-ba-lexicalDecision.osexp","C:\Users\emoore8\Desktop\m21_vsl-main","no","mono","no","18","no","white","no","yes","1080","legacy","23","23","C:/Users/emoore8/Desktop/m21_vsl-main/subject-214.csv","xpyriment","Lentiform Loewenfeld","3.3.11","0","z","NA","NA","NA","NA","space","z","802","NA","NA","NA","NA","36576","802","2","legacy","1024","2","48000","-16","AB_m21","214","even","NW_L_COMP","FELLOWOES","1769","144185","140705","142679","38515","NA","NA","NA","NA","NA","141205","NA","NA","NA","140204","NA","140176","1937","144485","NA","NA","NA","141247","1770","1920","NA","NA","142049","142075","140176","141205","141227","morph21_Oliver/Morris","18","21429","24","yes","1920","17"
"200","","76","76","890.96","890.96","black","no","xpyriment","legacy","legacy","0","203","NA","uniform","NA","NA","NA","1","undefined","1","0","24","24","24","0","24","24","24","NA","0","24","NA","NA","0","24","NA","24","0","24","NA","NA","NA","24","0","0","NA","NA","24","24","24","24","24","25","z","Wed Jul  5 17:34:01 2023","Executes Python code","yes","m21-ba-lexicalDecision.osexp","C:\Users\emoore8\Desktop\m21_vsl-main","no","mono","no","18","no","white","no","yes","1080","legacy","24","24","C:/Users/emoore8/Desktop/m21_vsl-main/subject-214.csv","xpyriment","Lentiform Loewenfeld","3.3.11","0","z","NA","NA","NA","NA","space","z","845","NA","NA","NA","NA","36576","845","2","legacy","1024","2","48000","-16","AB_m21","214","even","NW_S_COMP","ADOPTISH","1769","148030","146015","142679","38515","NA","NA","NA","NA","NA","146515","NA","NA","NA","145513","NA","145488","1937","148230","NA","NA","NA","146556","1770","1920","NA","NA","147401","147427","145488","146515","146536","morph21_Oliver/Morris","19","22274","25","yes","1920","19"
"400","","76.92307692307692","76.92307692307692","878.6923076923077","878.6923076923077","black","no","xpyriment","legacy","legacy","0","201","NA","uniform","NA","NA","NA","1","undefined","1","0","25","25","25","0","25","25","25","NA","0","25","NA","NA","0","25","NA","25","0","25","NA","NA","NA","25","0","0","NA","NA","25","25","25","25","25","26","/","Wed Jul  5 17:34:01 2023","Executes Python code","yes","m21-ba-lexicalDecision.osexp","C:\Users\emoore8\Desktop\m21_vsl-main","no","mono","no","18","no","white","no","yes","1080","legacy","25","25","C:/Users/emoore8/Desktop/m21_vsl-main/subject-214.csv","xpyriment","Lentiform Loewenfeld","3.3.11","0","/","NA","NA","NA","NA","space","/","572","NA","NA","NA","NA","36576","572","2","legacy","1024","2","48000","-16","AB_m21","214","even","CW_S","DESIGN","1769","151494","149752","142679","38515","NA","NA","NA","NA","NA","150252","NA","NA","NA","149251","NA","149227","1937","151895","NA","NA","NA","150293","1770","1920","NA","NA","150866","150890","149227","150252","150273","morph21_Oliver/Morris","20","22846","26","yes","1920","19"
"300","","77.77777777777777","77.77777777777777","872.9629629629629","872.9629629629629","black","no","xpyriment","legacy","legacy","0","205","NA","uniform","NA","NA","NA","1","undefined","1","0","26","26","26","0","26","26","26","NA","0","26","NA","NA","0","26","NA","26","0","26","NA","NA","NA","26","0","0","NA","NA","26","26","26","26","26","27","z","Wed Jul  5 17:34:01 2023","Executes Python code","yes","m21-ba-lexicalDecision.osexp","C:\Users\emoore8\Desktop\m21_vsl-main","no","mono","no","18","no","white","no","yes","1080","legacy","26","26","C:/Users/emoore8/Desktop/m21_vsl-main/subject-214.csv","xpyriment","Lentiform Loewenfeld","3.3.11","0","z","NA","NA","NA","NA","space","z","724","NA","NA","NA","NA","36576","724","2","legacy","1024","2","48000","-16","AB_m21","214","even","NW_S_SIMP","WINKITY","1769","156811","153415","155309","38515","NA","NA","NA","NA","NA","153916","NA","NA","NA","152914","NA","152890","1937","157111","NA","NA","NA","153957","1770","1920","NA","NA","154682","154706","152890","153916","153937","morph21_Oliver/Morris","21","23570","27","yes","1920","21"
"400","","78.57142857142857","78.57142857142857","863.6071428571429","863.6071428571429","black","no","xpyriment","legacy","legacy","0","207","NA","uniform","NA","NA","NA","1","undefined","1","0","27","27","27","0","27","27","27","NA","0","27","NA","NA","0","27","NA","27","0","27","NA","NA","NA","27","0","0","NA","NA","27","27","27","27","27","28","/","Wed Jul  5 17:34:01 2023","Executes Python code","yes","m21-ba-lexicalDecision.osexp","C:\Users\emoore8\Desktop\m21_vsl-main","no","mono","no","18","no","white","no","yes","1080","legacy","27","27","C:/Users/emoore8/Desktop/m21_vsl-main/subject-214.csv","xpyriment","Lentiform Loewenfeld","3.3.11","0","/","NA","NA","NA","NA","space","/","611","NA","NA","NA","NA","36576","611","2","legacy","1024","2","48000","-16","AB_m21","214","even","FILL_W","CRUNCH","1769","160406","158626","155309","38515","NA","NA","NA","NA","NA","159126","NA","NA","NA","158125","NA","158100","1937","160806","NA","NA","NA","159166","1770","1920","NA","NA","159778","159802","158100","159126","159146","morph21_Oliver/Morris","22","24181","28","yes","1920","20"
"250","","79.3103448275862","79.3103448275862","869.6206896551724","869.6206896551724","black","no","xpyriment","legacy","legacy","0","205","NA","uniform","NA","NA","NA","1","undefined","1","0","28","28","28","0","28","28","28","NA","0","28","NA","NA","0","28","NA","28","0","28","NA","NA","NA","28","0","0","NA","NA","28","28","28","28","28","29","z","Wed Jul  5 17:34:01 2023","Executes Python code","yes","m21-ba-lexicalDecision.osexp","C:\Users\emoore8\Desktop\m21_vsl-main","no","mono","no","18","no","white","no","yes","1080","legacy","28","28","C:/Users/emoore8/Desktop/m21_vsl-main/subject-214.csv","xpyriment","Lentiform Loewenfeld","3.3.11","0","z","NA","NA","NA","NA","space","z","1038","NA","NA","NA","NA","36576","1038","2","legacy","1024","2","48000","-16","AB_m21","214","even","NW_S_SIMP","ZOOMFUL","1769","164508","162303","155309","38515","NA","NA","NA","NA","NA","162803","NA","NA","NA","161803","NA","161777","1937","164758","NA","NA","NA","162843","1770","1920","NA","NA","163882","163905","161777","162803","162823","morph21_Oliver/Morris","23","25219","29","yes","1920","19"
"350","","80","80","867.9333333333333","867.9333333333333","black","no","xpyriment","legacy","legacy","0","202","NA","uniform","NA","NA","NA","1","undefined","1","0","29","29","29","0","29","29","29","NA","0","29","NA","NA","0","29","NA","29","0","29","NA","NA","NA","29","0","0","NA","NA","29","29","29","29","29","30","/","Wed Jul  5 17:34:01 2023","Executes Python code","yes","m21-ba-lexicalDecision.osexp","C:\Users\emoore8\Desktop\m21_vsl-main","no","mono","no","18","no","white","no","yes","1080","legacy","29","29","C:/Users/emoore8/Desktop/m21_vsl-main/subject-214.csv","xpyriment","Lentiform Loewenfeld","3.3.11","0","/","NA","NA","NA","NA","space","/","819","NA","NA","NA","NA","36576","819","2","legacy","1024","2","48000","-16","AB_m21","214","even","CW_L","GUARDING","1769","169773","166281","168268","38515","NA","NA","NA","NA","NA","166781","NA","NA","NA","165780","NA","165754","1937","170123","NA","NA","NA","166822","1770","1920","NA","NA","167641","167665","165754","166781","166802","morph21_Oliver/Morris","24","26038","30","yes","1920","26"
"400","","80.64516129032258","80.64516129032258","863.3870967741935","863.3870967741935","black","no","xpyriment","legacy","legacy","0","204","NA","uniform","NA","NA","NA","1","undefined","1","0","30","30","30","0","30","30","30","NA","0","30","NA","NA","0","30","NA","30","0","30","NA","NA","NA","30","0","0","NA","NA","30","30","30","30","30","31","z","Wed Jul  5 17:34:01 2023","Executes Python code","yes","m21-ba-lexicalDecision.osexp","C:\Users\emoore8\Desktop\m21_vsl-main","no","mono","no","18","no","white","no","yes","1080","legacy","30","30","C:/Users/emoore8/Desktop/m21_vsl-main/subject-214.csv","xpyriment","Lentiform Loewenfeld","3.3.11","0","z","NA","NA","NA","NA","space","z","727","NA","NA","NA","NA","36576","727","2","legacy","1024","2","48000","-16","AB_m21","214","even","NW_L_COMP","COLDIDY","1769","173551","171653","168268","38515","NA","NA","NA","NA","NA","172155","NA","NA","NA","171151","NA","171126","1937","173951","NA","NA","NA","172195","1770","1920","NA","NA","172922","172947","171125","172155","172175","morph21_Oliver/Morris","25","26765","31","yes","1920","10"
"200","","81.25","81.25","856.125","856.125","black","no","xpyriment","legacy","legacy","0","208","NA","uniform","NA","NA","NA","1","undefined","1","0","31","31","31","0","31","31","31","NA","0","31","NA","NA","0","31","NA","31","0","31","NA","NA","NA","31","0","0","NA","NA","31","31","31","31","31","32","z","Wed Jul  5 17:34:01 2023","Executes Python code","yes","m21-ba-lexicalDecision.osexp","C:\Users\emoore8\Desktop\m21_vsl-main","no","mono","no","18","no","white","no","yes","1080","legacy","31","31","C:/Users/emoore8/Desktop/m21_vsl-main/subject-214.csv","xpyriment","Lentiform Loewenfeld","3.3.11","0","z","NA","NA","NA","NA","space","z","631","NA","NA","NA","NA","36576","631","2","legacy","1024","2","48000","-16","AB_m21","214","even","FILL_NW","BLAYS","1769","177261","175460","168268","38515","NA","NA","NA","NA","NA","175961","NA","NA","NA","174960","NA","174934","1937","177461","NA","NA","NA","176002","1770","1920","NA","NA","176634","176658","174934","175961","175982","morph21_Oliver/Morris","26","27396","32","yes","1920","8"
"200","","81.81818181818181","81.81818181818181","844","844","black","no","xpyriment","legacy","legacy","0","202","NA","uniform","NA","NA","NA","1","undefined","1","0","32","32","32","0","32","32","32","NA","0","32","NA","NA","0","32","NA","32","0","32","NA","NA","NA","32","0","0","NA","NA","32","32","32","32","32","33","/","Wed Jul  5 17:34:01 2023","Executes Python code","yes","m21-ba-lexicalDecision.osexp","C:\Users\emoore8\Desktop\m21_vsl-main","no","mono","no","18","no","white","no","yes","1080","legacy","32","32","C:/Users/emoore8/Desktop/m21_vsl-main/subject-214.csv","xpyriment","Lentiform Loewenfeld","3.3.11","0","/","NA","NA","NA","NA","space","/","456","NA","NA","NA","NA","36576","456","2","legacy","1024","2","48000","-16","AB_m21","214","even","CW_L","SHAMEFUL","1769","182116","178987","180613","38515","NA","NA","NA","NA","NA","179488","NA","NA","NA","178486","NA","178461","1937","182316","NA","NA","NA","179529","1770","1920","NA","NA","179986","180009","178461","179488","179509","morph21_Oliver/Morris","27","27852","33","yes","1920","19"
"400","","82.3529411764706","82.3529411764706","837.6764705882352","837.6764705882352","black","no","xpyriment","legacy","legacy","0","208","NA","uniform","NA","NA","NA","1","undefined","1","0","33","33","33","0","33","33","33","NA","0","33","NA","NA","0","33","NA","33","0","33","NA","NA","NA","33","0","0","NA","NA","33","33","33","33","33","34","z","Wed Jul  5 17:34:01 2023","Executes Python code","yes","m21-ba-lexicalDecision.osexp","C:\Users\emoore8\Desktop\m21_vsl-main","no","mono","no","18","no","white","no","yes","1080","legacy","33","33","C:/Users/emoore8/Desktop/m21_vsl-main/subject-214.csv","xpyriment","Lentiform Loewenfeld","3.3.11","0","z","NA","NA","NA","NA","space","z","629","NA","NA","NA","NA","36576","629","2","legacy","1024","2","48000","-16","AB_m21","214","even","FILL_NW","BORMS","1769","185629","183831","180613","38515","NA","NA","NA","NA","NA","184331","NA","NA","NA","183331","NA","183305","1937","186030","NA","NA","NA","184372","1770","1920","NA","NA","185002","185026","183305","184331","184351","morph21_Oliver/Morris","28","28481","34","yes","1920","50"
"250","","82.85714285714286","82.85714285714286","837.1428571428571","837.1428571428571","black","no","xpyriment","legacy","legacy","0","202","NA","uniform","NA","NA","NA","1","undefined","1","0","34","34","34","0","34","34","34","NA","0","34","NA","NA","0","34","NA","34","0","34","NA","NA","NA","34","0","0","NA","NA","34","34","34","34","34","35","/","Wed Jul  5 17:34:01 2023","Executes Python code","yes","m21-ba-lexicalDecision.osexp","C:\Users\emoore8\Desktop\m21_vsl-main","no","mono","no","18","no","white","no","yes","1080","legacy","34","34","C:/Users/emoore8/Desktop/m21_vsl-main/subject-214.csv","xpyriment","Lentiform Loewenfeld","3.3.11","0","/","NA","NA","NA","NA","space","/","819","NA","NA","NA","NA","36576","819","2","legacy","1024","2","48000","-16","AB_m21","214","even","CW_L","PUSHER","1769","189526","187537","180613","38515","NA","NA","NA","NA","NA","188037","NA","NA","NA","187037","NA","187010","1937","189776","NA","NA","NA","188078","1770","1920","NA","NA","188897","188923","187010","188037","188057","morph21_Oliver/Morris","29","29300","35","yes","1920","13"
"400","","83.33333333333333","83.33333333333333","834.25","834.25","black","no","xpyriment","legacy","legacy","0","201","NA","uniform","NA","NA","NA","1","undefined","1","0","35","35","35","0","35","35","35","NA","0","35","NA","NA","0","35","NA","35","0","35","NA","NA","NA","35","0","0","NA","NA","35","35","35","35","35","36","/","Wed Jul  5 17:34:01 2023","Executes Python code","yes","m21-ba-lexicalDecision.osexp","C:\Users\emoore8\Desktop\m21_vsl-main","no","mono","no","18","no","white","no","yes","1080","legacy","35","35","C:/Users/emoore8/Desktop/m21_vsl-main/subject-214.csv","xpyriment","Lentiform Loewenfeld","3.3.11","0","/","NA","NA","NA","NA","space","/","733","NA","NA","NA","NA","36576","733","2","legacy","1024","2","48000","-16","AB_m21","214","even","CW_S","AVOIDABLE","1769","194700","191295","193196","38515","NA","NA","NA","NA","NA","191795","NA","NA","NA","190794","NA","190768","1937","195100","NA","NA","NA","191836","1770","1920","NA","NA","192570","192593","190768","191795","191815","morph21_Oliver/Morris","30","30033","36","yes","1920","2"
"400","","83.78378378378379","83.78378378378379","837.7567567567568","837.7567567567568","black","no","xpyriment","legacy","legacy","0","208","NA","uniform","NA","NA","NA","1","undefined","1","0","36","36","36","0","36","36","36","NA","0","36","NA","NA","0","36","NA","36","0","36","NA","NA","NA","36","0","0","NA","NA","36","36","36","36","36","37","z","Wed Jul  5 17:34:01 2023","Executes Python code","yes","m21-ba-lexicalDecision.osexp","C:\Users\emoore8\Desktop\m21_vsl-main","no","mono","no","18","no","white","no","yes","1080","legacy","36","36","C:/Users/emoore8/Desktop/m21_vsl-main/subject-214.csv","xpyriment","Lentiform Loewenfeld","3.3.11","0","z","NA","NA","NA","NA","space","z","964","NA","NA","NA","NA","36576","964","2","legacy","1024","2","48000","-16","AB_m21","214","even","FILL_NW","GIKE","1769","198733","196599","193196","38515","NA","NA","NA","NA","NA","197100","NA","NA","NA","196099","NA","196072","1937","199133","NA","NA","NA","197141","1770","1920","NA","NA","198106","198130","196071","197100","197121","morph21_Oliver/Morris","31","30997","37","yes","1920","24"
"400","","81.57894736842105","81.57894736842105","847.2894736842105","847.2894736842105","black","no","xpyriment","legacy","legacy","0","204","NA","uniform","NA","NA","NA","0","undefined","0","0","37","37","37","0","37","37","37","NA","0","37","NA","NA","0","37","NA","37","0","37","NA","NA","NA","37","0","0","NA","NA","37","37","37","37","37","38","z","Wed Jul  5 17:34:01 2023","Executes Python code","yes","m21-ba-lexicalDecision.osexp","C:\Users\emoore8\Desktop\m21_vsl-main","no","mono","no","18","no","white","no","yes","1080","legacy","37","37","C:/Users/emoore8/Desktop/m21_vsl-main/subject-214.csv","xpyriment","Lentiform Loewenfeld","3.3.11","0","None","NA","NA","NA","NA","space","None","1200","NA","NA","NA","NA","36576","1200","2","legacy","1024","2","48000","-16","AB_m21","214","even","NW_L_COMP","FLITENGE","1769","203012","200645","193196","38515","NA","NA","NA","NA","NA","201145","NA","NA","NA","200144","NA","200114","1937","203412","NA","NA","NA","201186","1770","1920","NA","NA","202386","202409","200114","201145","201166","morph21_Oliver/Morris","31","32197","38","yes","1920","3"
"350","","82.05128205128206","82.05128205128206","843","843","black","no","xpyriment","legacy","legacy","0","207","NA","uniform","NA","NA","NA","1","undefined","1","0","38","38","38","0","38","38","38","NA","0","38","NA","NA","0","38","NA","38","0","38","NA","NA","NA","38","0","0","NA","NA","38","38","38","38","38","39","/","Wed Jul  5 17:34:01 2023","Executes Python code","yes","m21-ba-lexicalDecision.osexp","C:\Users\emoore8\Desktop\m21_vsl-main","no","mono","no","18","no","white","no","yes","1080","legacy","38","38","C:/Users/emoore8/Desktop/m21_vsl-main/subject-214.csv","xpyriment","Lentiform Loewenfeld","3.3.11","0","/","NA","NA","NA","NA","space","/","680","NA","NA","NA","NA","36576","680","2","legacy","1024","2","48000","-16","AB_m21","214","even","FILL_W","LIFT","1769","208269","204916","206766","38515","NA","NA","NA","NA","NA","205417","NA","NA","NA","204414","NA","204391","1937","208619","NA","NA","NA","205458","1770","1920","NA","NA","206138","206162","204391","205417","205438","morph21_Oliver/Morris","32","32877","39","yes","1920","39"
"200","","82.5","82.5","840.275","840.275","black","no","xpyriment","legacy","legacy","0","207","NA","uniform","NA","NA","NA","1","undefined","1","0","39","39","39","0","39","39","39","NA","0","39","NA","NA","0","39","NA","39","0","39","NA","NA","NA","39","0","0","NA","NA","39","39","39","39","39","40","/","Wed Jul  5 17:34:01 2023","Executes Python code","yes","m21-ba-lexicalDecision.osexp","C:\Users\emoore8\Desktop\m21_vsl-main","no","mono","no","18","no","white","no","yes","1080","legacy","39","39","C:/Users/emoore8/Desktop/m21_vsl-main/subject-214.csv","xpyriment","Lentiform Loewenfeld","3.3.11","0","/","NA","NA","NA","NA","space","/","734","NA","NA","NA","NA","36576","734","2","legacy","1024","2","48000","-16","AB_m21","214","even","FILL_W","TAX","1769","212044","210141","206766","38515","NA","NA","NA","NA","NA","210642","NA","NA","NA","209641","NA","209611","1937","212245","NA","NA","NA","210683","1770","1920","NA","NA","211417","211441","209611","210642","210663","morph21_Oliver/Morris","33","33611","40","yes","1920","45"
"350","","80.48780487804878","80.48780487804878","849.0487804878048","849.0487804878048","black","no","xpyriment","legacy","legacy","0","206","NA","uniform","NA","NA","NA","0","undefined","0","0","40","40","40","0","40","40","40","NA","0","40","NA","NA","0","40","NA","40","0","40","NA","NA","NA","40","0","0","NA","NA","40","40","40","40","40","41","z","Wed Jul  5 17:34:01 2023","Executes Python code","yes","m21-ba-lexicalDecision.osexp","C:\Users\emoore8\Desktop\m21_vsl-main","no","mono","no","18","no","white","no","yes","1080","legacy","40","40","C:/Users/emoore8/Desktop/m21_vsl-main/subject-214.csv","xpyriment","Lentiform Loewenfeld","3.3.11","0","None","NA","NA","NA","NA","space","None","1200","NA","NA","NA","NA","36576","1200","2","legacy","1024","2","48000","-16","AB_m21","214","even","NW_L_SIMP","WITCHISH","1769","216134","213766","206766","38515","NA","NA","NA","NA","NA","214266","NA","NA","NA","213266","NA","213239","1937","216484","NA","NA","NA","214307","1770","1920","NA","NA","215507","215531","213239","214266","214287","morph21_Oliver/Morris","33","34811","41","yes","1920","11"
"250","","80.95238095238095","80.95238095238095","842.3809523809524","842.3809523809524","black","no","xpyriment","legacy","legacy","0","207","NA","uniform","NA","NA","NA","1","undefined","1","0","41","41","41","0","41","41","41","NA","0","41","NA","NA","0","41","NA","41","0","41","NA","NA","NA","41","0","0","NA","NA","41","41","41","41","41","42","/","Wed Jul  5 17:34:01 2023","Executes Python code","yes","m21-ba-lexicalDecision.osexp","C:\Users\emoore8\Desktop\m21_vsl-main","no","mono","no","18","no","white","no","yes","1080","legacy","41","41","C:/Users/emoore8/Desktop/m21_vsl-main/subject-214.csv","xpyriment","Lentiform Loewenfeld","3.3.11","0","/","NA","NA","NA","NA","space","/","569","NA","NA","NA","NA","36576","569","2","legacy","1024","2","48000","-16","AB_m21","214","even","FILL_W","FIERCE","1769","221231","217986","219728","38515","NA","NA","NA","NA","NA","218488","NA","NA","NA","217484","NA","217461","1937","221481","NA","NA","NA","218528","1770","1920","NA","NA","219098","219125","217461","218488","218508","morph21_Oliver/Morris","34","35380","42","yes","1920","24"
"250","","81.3953488372093","81.3953488372093","840.5581395348837","840.5581395348837","black","no","xpyriment","legacy","legacy","0","203","NA","uniform","NA","NA","NA","1","undefined","1","0","42","42","42","0","42","42","42","NA","0","42","NA","NA","0","42","NA","42","0","42","NA","NA","NA","42","0","0","NA","NA","42","42","42","42","42","43","z","Wed Jul  5 17:34:01 2023","Executes Python code","yes","m21-ba-lexicalDecision.osexp","C:\Users\emoore8\Desktop\m21_vsl-main","no","mono","no","18","no","white","no","yes","1080","legacy","42","42","C:/Users/emoore8/Desktop/m21_vsl-main/subject-214.csv","xpyriment","Lentiform Loewenfeld","3.3.11","0","z","NA","NA","NA","NA","space","z","764","NA","NA","NA","NA","36576","764","2","legacy","1024","2","48000","-16","AB_m21","214","even","NW_S_COMP","BRANCHEL","1769","224950","223014","219728","38515","NA","NA","NA","NA","NA","223516","NA","NA","NA","222514","NA","222488","1937","225200","NA","NA","NA","223557","1770","1920","NA","NA","224322","224345","222488","223516","223537","morph21_Oliver/Morris","35","36144","43","yes","1920","16"
"250","","81.81818181818181","81.81818181818181","836.4090909090909","836.4090909090909","black","no","xpyriment","legacy","legacy","0","207","NA","uniform","NA","NA","NA","1","undefined","1","0","43","43","43","0","43","43","43","NA","0","43","NA","NA","0","43","NA","43","0","43","NA","NA","NA","43","0","0","NA","NA","43","43","43","43","43","44","/","Wed Jul  5 17:34:01 2023","Executes Python code","yes","m21-ba-lexicalDecision.osexp","C:\Users\emoore8\Desktop\m21_vsl-main","no","mono","no","18","no","white","no","yes","1080","legacy","43","43","C:/Users/emoore8/Desktop/m21_vsl-main/subject-214.csv","xpyriment","Lentiform Loewenfeld","3.3.11","0","/","NA","NA","NA","NA","space","/","658","NA","NA","NA","NA","36576","658","2","legacy","1024","2","48000","-16","AB_m21","214","even","FILL_W","SOFT","1769","228541","226713","219728","38515","NA","NA","NA","NA","NA","227214","NA","NA","NA","226212","NA","226187","1937","228791","NA","NA","NA","227255","1770","1920","NA","NA","227914","227938","226187","227214","227235","morph21_Oliver/Morris","36","36802","44","yes","1920","43"
"200","","82.22222222222223","82.22222222222223","832.6888888888889","832.6888888888889","black","no","xpyriment","legacy","legacy","0","207","NA","uniform","NA","NA","NA","1","undefined","1","0","44","44","44","0","44","44","44","NA","0","44","NA","NA","0","44","NA","44","0","44","NA","NA","NA","44","0","0","NA","NA","44","44","44","44","44","45","/","Wed Jul  5 17:34:01 2023","Executes Python code","yes","m21-ba-lexicalDecision.osexp","C:\Users\emoore8\Desktop\m21_vsl-main","no","mono","no","18","no","white","no","yes","1080","legacy","44","44","C:/Users/emoore8/Desktop/m21_vsl-main/subject-214.csv","xpyriment","Lentiform Loewenfeld","3.3.11","0","/","NA","NA","NA","NA","space","/","669","NA","NA","NA","NA","36576","669","2","legacy","1024","2","48000","-16","AB_m21","214","even","FILL_W","WRECK","1769","233638","230295","232134","38515","NA","NA","NA","NA","NA","230797","NA","NA","NA","229794","NA","229768","1937","233838","NA","NA","NA","230837","1770","1920","NA","NA","231506","231531","229768","230797","230817","morph21_Oliver/Morris","37","37471","45","yes","1920","13"
"250","","82.6086956521739","82.6086956521739","828.6304347826087","828.6304347826087","black","no","xpyriment","legacy","legacy","0","202","NA","uniform","NA","NA","NA","1","undefined","1","0","45","45","45","0","45","45","45","NA","0","45","NA","NA","0","45","NA","45","0","45","NA","NA","NA","45","0","0","NA","NA","45","45","45","45","45","46","/","Wed Jul  5 17:34:01 2023","Executes Python code","yes","m21-ba-lexicalDecision.osexp","C:\Users\emoore8\Desktop\m21_vsl-main","no","mono","no","18","no","white","no","yes","1080","legacy","45","45","C:/Users/emoore8/Desktop/m21_vsl-main/subject-214.csv","xpyriment","Lentiform Loewenfeld","3.3.11","0","/","NA","NA","NA","NA","space","/","646","NA","NA","NA","NA","36576","646","2","legacy","1024","2","48000","-16","AB_m21","214","even","CW_L","DANCER","1769","237182","235367","232134","38515","NA","NA","NA","NA","NA","235868","NA","NA","NA","234866","NA","234840","1937","237432","NA","NA","NA","235908","1770","1920","NA","NA","236554","236578","234840","235868","235888","morph21_Oliver/Morris","38","38117","46","yes","1920","11"
"400","","82.97872340425532","82.97872340425532","822.9574468085107","822.9574468085107","black","no","xpyriment","legacy","legacy","0","206","NA","uniform","NA","NA","NA","1","undefined","1","0","46","46","46","0","46","46","46","NA","0","46","NA","NA","0","46","NA","46","0","46","NA","NA","NA","46","0","0","NA","NA","46","46","46","46","46","47","z","Wed Jul  5 17:34:01 2023","Executes Python code","yes","m21-ba-lexicalDecision.osexp","C:\Users\emoore8\Desktop\m21_vsl-main","no","mono","no","18","no","white","no","yes","1080","legacy","46","46","C:/Users/emoore8/Desktop/m21_vsl-main/subject-214.csv","xpyriment","Lentiform Loewenfeld","3.3.11","0","z","NA","NA","NA","NA","space","z","562","NA","NA","NA","NA","36576","562","2","legacy","1024","2","48000","-16","AB_m21","214","even","NW_L_SIMP","BOGARY","1769","240662","238931","232134","38515","NA","NA","NA","NA","NA","239432","NA","NA","NA","238431","NA","238405","1937","241062","NA","NA","NA","239472","1770","1920","NA","NA","240034","240058","238405","239432","239452","morph21_Oliver/Morris","39","38679","47","yes","1920","2"
"400","","83.33333333333333","83.33333333333333","816.8333333333334","816.8333333333334","black","no","xpyriment","legacy","legacy","0","201","NA","uniform","NA","NA","NA","1","undefined","1","0","47","47","47","0","47","47","47","NA","0","47","NA","NA","0","47","NA","47","0","47","NA","NA","NA","47","0","0","NA","NA","47","47","47","47","47","48","/","Wed Jul  5 17:34:01 2023","Executes Python code","yes","m21-ba-lexicalDecision.osexp","C:\Users\emoore8\Desktop\m21_vsl-main","no","mono","no","18","no","white","no","yes","1080","legacy","47","47","C:/Users/emoore8/Desktop/m21_vsl-main/subject-214.csv","xpyriment","Lentiform Loewenfeld","3.3.11","0","/","NA","NA","NA","NA","space","/","529","NA","NA","NA","NA","36576","529","2","legacy","1024","2","48000","-16","AB_m21","214","even","CW_S","EFFORTLESS","1769","245764","242563","244261","38515","NA","NA","NA","NA","NA","243064","NA","NA","NA","242062","NA","242036","1937","246164","NA","NA","NA","243104","1770","1920","NA","NA","243634","243658","242036","243064","243084","morph21_Oliver/Morris","40","39208","48","yes","1920","30"
"300","","83.6734693877551","83.6734693877551","811.6734693877551","811.6734693877551","black","no","xpyriment","legacy","legacy","0","207","NA","uniform","NA","NA","NA","1","undefined","1","0","48","48","48","0","48","48","48","NA","0","48","NA","NA","0","48","NA","48","0","48","NA","NA","NA","48","0","0","NA","NA","48","48","48","48","48","49","/","Wed Jul  5 17:34:01 2023","Executes Python code","yes","m21-ba-lexicalDecision.osexp","C:\Users\emoore8\Desktop\m21_vsl-main","no","mono","no","18","no","white","no","yes","1080","legacy","48","48","C:/Users/emoore8/Desktop/m21_vsl-main/subject-214.csv","xpyriment","Lentiform Loewenfeld","3.3.11","0","/","NA","NA","NA","NA","space","/","564","NA","NA","NA","NA","36576","564","2","legacy","1024","2","48000","-16","AB_m21","214","even","FILL_W","BALD","1769","249398","247666","244261","38515","NA","NA","NA","NA","NA","248166","NA","NA","NA","247165","NA","247138","1937","249698","NA","NA","NA","248206","1770","1920","NA","NA","248770","248795","247138","248166","248186","morph21_Oliver/Morris","41","39772","49","yes","1920","3"
"400","","84","84","804.28","804.28","black","no","xpyriment","legacy","legacy","0","207","NA","uniform","NA","NA","NA","1","undefined","1","0","49","49","49","0","49","49","49","NA","0","49","NA","NA","0","49","NA","49","0","49","NA","NA","NA","49","0","0","NA","NA","49","49","49","49","49","50","/","Wed Jul  5 17:34:01 2023","Executes Python code","yes","m21-ba-lexicalDecision.osexp","C:\Users\emoore8\Desktop\m21_vsl-main","no","mono","no","18","no","white","no","yes","1080","legacy","49","49","C:/Users/emoore8/Desktop/m21_vsl-main/subject-214.csv","xpyriment","Lentiform Loewenfeld","3.3.11","0","/","NA","NA","NA","NA","space","/","442","NA","NA","NA","NA","36576","442","2","legacy","1024","2","48000","-16","AB_m21","214","even","FILL_W","STEEP","1769","252812","251202","244261","38515","NA","NA","NA","NA","NA","251702","NA","NA","NA","250702","NA","250673","1937","253212","NA","NA","NA","251743","1770","1920","NA","NA","252186","252209","250673","251702","251723","morph21_Oliver/Morris","42","40214","50","yes","1920","16"
"250","","84.31372549019608","84.31372549019608","801.6470588235294","801.6470588235294","black","no","xpyriment","legacy","legacy","0","201","NA","uniform","NA","NA","NA","1","undefined","1","0","50","50","50","0","50","50","50","NA","0","50","NA","NA","0","50","NA","50","0","50","NA","NA","NA","50","0","0","NA","NA","50","50","50","50","50","51","/","Wed Jul  5 17:34:01 2023","Executes Python code","yes","m21-ba-lexicalDecision.osexp","C:\Users\emoore8\Desktop\m21_vsl-main","no","mono","no","18","no","white","no","yes","1080","legacy","50","50","C:/Users/emoore8/Desktop/m21_vsl-main/subject-214.csv","xpyriment","Lentiform Loewenfeld","3.3.11","0","/","NA","NA","NA","NA","space","/","670","NA","NA","NA","NA","36576","670","2","legacy","1024","2","48000","-16","AB_m21","214","even","CW_S","HARMLESS","1769","258065","254718","256562","38515","NA","NA","NA","NA","NA","255220","NA","NA","NA","254217","NA","254193","1937","258315","NA","NA","NA","255260","1770","1920","NA","NA","255930","255957","254193","255220","255240","morph21_Oliver/Morris","43","40884","51","yes","1920","29"
"350","","84.61538461538461","84.61538461538461","803.1923076923077","803.1923076923077","black","no","xpyriment","legacy","legacy","0","208","NA","uniform","NA","NA","NA","1","undefined","1","0","51","51","51","0","51","51","51","NA","0","51","NA","NA","0","51","NA","51","0","51","NA","NA","NA","51","0","0","NA","NA","51","51","51","51","51","52","z","Wed Jul  5 17:34:01 2023","Executes Python code","yes","m21-ba-lexicalDecision.osexp","C:\Users\emoore8\Desktop\m21_vsl-main","no","mono","no","18","no","white","no","yes","1080","legacy","51","51","C:/Users/emoore8/Desktop/m21_vsl-main/subject-214.csv","xpyriment","Lentiform Loewenfeld","3.3.11","0","z","NA","NA","NA","NA","space","z","882","NA","NA","NA","NA","36576","882","2","legacy","1024","2","48000","-16","AB_m21","214","even","FILL_NW","BLANTH","1769","261870","259817","256562","38515","NA","NA","NA","NA","NA","260319","NA","NA","NA","259315","NA","259292","1937","262220","NA","NA","NA","260360","1770","1920","NA","NA","261242","261267","259292","260319","260340","morph21_Oliver/Morris","44","41766","52","yes","1920","3"
"400","","83.01886792452831","83.01886792452831","810.6792452830189","810.6792452830189","black","no","xpyriment","legacy","legacy","0","208","NA","uniform","NA","NA","NA","0","undefined","0","0","52","52","52","0","52","52","52","NA","0","52","NA","NA","0","52","NA","52","0","52","NA","NA","NA","52","0","0","NA","NA","52","52","52","52","52","53","z","Wed Jul  5 17:34:01 2023","Executes Python code","yes","m21-ba-lexicalDecision.osexp","C:\Users\emoore8\Desktop\m21_vsl-main","no","mono","no","18","no","white","no","yes","1080","legacy","52","52","C:/Users/emoore8/Desktop/m21_vsl-main/subject-214.csv","xpyriment","Lentiform Loewenfeld","3.3.11","0","None","NA","NA","NA","NA","space","None","1200","NA","NA","NA","NA","36576","1200","2","legacy","1024","2","48000","-16","AB_m21","214","even","FILL_NW","BUTE","1769","266105","263737","256562","38515","NA","NA","NA","NA","NA","264238","NA","NA","NA","263236","NA","263209","1937","266506","NA","NA","NA","264278","1770","1920","NA","NA","265478","265502","263209","264237","264258","morph21_Oliver/Morris","44","42966","53","yes","1920","5"
"350","","83.33333333333333","83.33333333333333","812.5370370370371","812.5370370370371","black","no","xpyriment","legacy","legacy","0","208","NA","uniform","NA","NA","NA","1","undefined","1","0","53","53","53","0","53","53","53","NA","0","53","NA","NA","0","53","NA","53","0","53","NA","NA","NA","53","0","0","NA","NA","53","53","53","53","53","54","z","Wed Jul  5 17:34:01 2023","Executes Python code","yes","m21-ba-lexicalDecision.osexp","C:\Users\emoore8\Desktop\m21_vsl-main","no","mono","no","18","no","white","no","yes","1080","legacy","53","53","C:/Users/emoore8/Desktop/m21_vsl-main/subject-214.csv","xpyriment","Lentiform Loewenfeld","3.3.11","0","z","NA","NA","NA","NA","space","z","911","NA","NA","NA","NA","36576","911","2","legacy","1024","2","48000","-16","AB_m21","214","even","FILL_NW","DOADS","1769","271582","267997","270078","38515","NA","NA","NA","NA","NA","268498","NA","NA","NA","267497","NA","267472","1937","271932","NA","NA","NA","268538","1770","1920","NA","NA","269450","269474","267472","268498","268518","morph21_Oliver/Morris","45","43877","54","yes","1920","15"
"300","","83.63636363636364","83.63636363636364","809.8545454545455","809.8545454545455","black","no","xpyriment","legacy","legacy","0","201","NA","uniform","NA","NA","NA","1","undefined","1","0","54","54","54","0","54","54","54","NA","0","54","NA","NA","0","54","NA","54","0","54","NA","NA","NA","54","0","0","NA","NA","54","54","54","54","54","55","/","Wed Jul  5 17:34:01 2023","Executes Python code","yes","m21-ba-lexicalDecision.osexp","C:\Users\emoore8\Desktop\m21_vsl-main","no","mono","no","18","no","white","no","yes","1080","legacy","54","54","C:/Users/emoore8/Desktop/m21_vsl-main/subject-214.csv","xpyriment","Lentiform Loewenfeld","3.3.11","0","/","NA","NA","NA","NA","space","/","665","NA","NA","NA","NA","36576","665","2","legacy","1024","2","48000","-16","AB_m21","214","even","CW_S","GUILTY","1769","275277","273445","270078","38515","NA","NA","NA","NA","NA","273945","NA","NA","NA","272945","NA","272917","1937","275577","NA","NA","NA","273985","1770","1920","NA","NA","274651","274674","272917","273945","273965","morph21_Oliver/Morris","46","44542","55","yes","1920","34"
"300","","83.92857142857143","83.92857142857143","810.375","810.375","black","no","xpyriment","legacy","legacy","0","205","NA","uniform","NA","NA","NA","1","undefined","1","0","55","55","55","0","55","55","55","NA","0","55","NA","NA","0","55","NA","55","0","55","NA","NA","NA","55","0","0","NA","NA","55","55","55","55","55","56","z","Wed Jul  5 17:34:01 2023","Executes Python code","yes","m21-ba-lexicalDecision.osexp","C:\Users\emoore8\Desktop\m21_vsl-main","no","mono","no","18","no","white","no","yes","1080","legacy","55","55","C:/Users/emoore8/Desktop/m21_vsl-main/subject-214.csv","xpyriment","Lentiform Loewenfeld","3.3.11","0","z","NA","NA","NA","NA","space","z","839","NA","NA","NA","NA","36576","839","2","legacy","1024","2","48000","-16","AB_m21","214","even","NW_S_SIMP","FEVERIZE","1769","279087","277078","270078","38515","NA","NA","NA","NA","NA","277578","NA","NA","NA","276578","NA","276553","1937","279387","NA","NA","NA","277619","1770","1920","NA","NA","278458","278483","276553","277578","277599","morph21_Oliver/Morris","47","45381","56","yes","1920","24"
"350","","84.21052631578948","84.21052631578948","806.5263157894736","806.5263157894736","black","no","xpyriment","legacy","legacy","0","202","NA","uniform","NA","NA","NA","1","undefined","1","0","56","56","56","0","56","56","56","NA","0","56","NA","NA","0","56","NA","56","0","56","NA","NA","NA","56","0","0","NA","NA","56","56","56","56","56","57","/","Wed Jul  5 17:34:01 2023","Executes Python code","yes","m21-ba-lexicalDecision.osexp","C:\Users\emoore8\Desktop\m21_vsl-main","no","mono","no","18","no","white","no","yes","1080","legacy","56","56","C:/Users/emoore8/Desktop/m21_vsl-main/subject-214.csv","xpyriment","Lentiform Loewenfeld","3.3.11","0","/","NA","NA","NA","NA","space","/","591","NA","NA","NA","NA","36576","591","2","legacy","1024","2","48000","-16","AB_m21","214","even","CW_L","PAINTER","1769","284156","280894","282653","38515","NA","NA","NA","NA","NA","281394","NA","NA","NA","280392","NA","280366","1937","284506","NA","NA","NA","281434","1770","1920","NA","NA","282026","282049","280366","281394","281414","morph21_Oliver/Morris","48","45972","57","yes","1920","18"
"350","","82.75862068965517","82.75862068965517","813.3103448275862","813.3103448275862","black","no","xpyriment","legacy","legacy","0","202","NA","uniform","NA","NA","NA","0","undefined","0","0","57","57","57","0","57","57","57","NA","0","57","NA","NA","0","57","NA","57","0","57","NA","NA","NA","57","0","0","NA","NA","57","57","57","57","57","58","/","Wed Jul  5 17:34:01 2023","Executes Python code","yes","m21-ba-lexicalDecision.osexp","C:\Users\emoore8\Desktop\m21_vsl-main","no","mono","no","18","no","white","no","yes","1080","legacy","57","57","C:/Users/emoore8/Desktop/m21_vsl-main/subject-214.csv","xpyriment","Lentiform Loewenfeld","3.3.11","0","None","NA","NA","NA","NA","space","None","1200","NA","NA","NA","NA","36576","1200","2","legacy","1024","2","48000","-16","AB_m21","214","even","CW_L","GUILELESS","1769","289597","287227","282653","38515","NA","NA","NA","NA","NA","287728","NA","NA","NA","286726","NA","286700","1937","289947","NA","NA","NA","287769","1770","1920","NA","NA","288969","288993","286699","287728","287749","morph21_Oliver/Morris","48","47172","58","yes","1920","31"
"350","","83.05084745762711","83.05084745762711","812.4915254237288","812.4915254237288","black","no","xpyriment","legacy","legacy","0","204","NA","uniform","NA","NA","NA","1","undefined","1","0","58","58","58","0","58","58","58","NA","0","58","NA","NA","0","58","NA","58","0","58","NA","NA","NA","58","0","0","NA","NA","58","58","58","58","58","59","z","Wed Jul  5 17:34:01 2023","Executes Python code","yes","m21-ba-lexicalDecision.osexp","C:\Users\emoore8\Desktop\m21_vsl-main","no","mono","no","18","no","white","no","yes","1080","legacy","58","58","C:/Users/emoore8/Desktop/m21_vsl-main/subject-214.csv","xpyriment","Lentiform Loewenfeld","3.3.11","0","z","NA","NA","NA","NA","space","z","765","NA","NA","NA","NA","36576","765","2","legacy","1024","2","48000","-16","AB_m21","214","even","NW_L_COMP","AGREELA","1769","293501","291567","282653","38515","NA","NA","NA","NA","NA","292068","NA","NA","NA","291066","NA","291040","1937","293851","NA","NA","NA","292108","1770","1920","NA","NA","292874","292898","291040","292067","292088","morph21_Oliver/Morris","49","47937","59","yes","1920","24"
"200","","83.33333333333333","83.33333333333333","809.7333333333333","809.7333333333333","black","no","xpyriment","legacy","legacy","0","202","NA","uniform","NA","NA","NA","1","undefined","1","0","59","59","59","0","59","59","59","NA","0","59","NA","NA","0","59","NA","59","0","59","NA","NA","NA","59","0","0","NA","NA","59","59","59","59","59","60","/","Wed Jul  5 17:34:01 2023","Executes Python code","yes","m21-ba-lexicalDecision.osexp","C:\Users\emoore8\Desktop\m21_vsl-main","no","mono","no","18","no","white","no","yes","1080","legacy","59","59","C:/Users/emoore8/Desktop/m21_vsl-main/subject-214.csv","xpyriment","Lentiform Loewenfeld","3.3.11","0","/","NA","NA","NA","NA","space","/","647","NA","NA","NA","NA","36576","647","2","legacy","1024","2","48000","-16","AB_m21","214","even","CW_L","VERBAL","1769","298730","295413","297228","38515","NA","NA","NA","NA","NA","295914","NA","NA","NA","294912","NA","294883","1937","298930","NA","NA","NA","295954","1770","1920","NA","NA","296602","296625","294883","295914","295934","morph21_Oliver/Morris","50","48584","60","yes","1920","50"
"250","","83.60655737704919","83.60655737704919","813.2459016393443","813.2459016393443","black","no","xpyriment","legacy","legacy","0","207","NA","uniform","NA","NA","NA","1","undefined","1","0","60","60","60","0","60","60","60","NA","0","60","NA","NA","0","60","NA","60","0","60","NA","NA","NA","60","0","0","NA","NA","60","60","60","60","60","61","/","Wed Jul  5 17:34:01 2023","Executes Python code","yes","m21-ba-lexicalDecision.osexp","C:\Users\emoore8\Desktop\m21_vsl-main","no","mono","no","18","no","white","no","yes","1080","legacy","60","60","C:/Users/emoore8/Desktop/m21_vsl-main/subject-214.csv","xpyriment","Lentiform Loewenfeld","3.3.11","0","/","NA","NA","NA","NA","space","/","1024","NA","NA","NA","NA","36576","1024","2","legacy","1024","2","48000","-16","AB_m21","214","even","FILL_W","COOK","1769","302637","300444","297228","38515","NA","NA","NA","NA","NA","300944","NA","NA","NA","299944","NA","299917","1937","302888","NA","NA","NA","300985","1770","1920","NA","NA","302010","302034","299917","300944","300965","morph21_Oliver/Morris","51","49608","61","yes","1920","38"
"200","","83.87096774193549","83.87096774193549","808.3387096774194","808.3387096774194","black","no","xpyriment","legacy","legacy","0","202","NA","uniform","NA","NA","NA","1","undefined","1","0","61","61","61","0","61","61","61","NA","0","61","NA","NA","0","61","NA","61","0","61","NA","NA","NA","61","0","0","NA","NA","61","61","61","61","61","62","/","Wed Jul  5 17:34:01 2023","Executes Python code","yes","m21-ba-lexicalDecision.osexp","C:\Users\emoore8\Desktop\m21_vsl-main","no","mono","no","18","no","white","no","yes","1080","legacy","61","61","C:/Users/emoore8/Desktop/m21_vsl-main/subject-214.csv","xpyriment","Lentiform Loewenfeld","3.3.11","0","/","NA","NA","NA","NA","space","/","509","NA","NA","NA","NA","36576","509","2","legacy","1024","2","48000","-16","AB_m21","214","even","CW_L","COLLECTOR","1769","306095","304415","297228","38515","NA","NA","NA","NA","NA","304915","NA","NA","NA","303914","NA","303889","1937","306295","NA","NA","NA","304956","1770","1920","NA","NA","305466","305491","303889","304915","304936","morph21_Oliver/Morris","52","50117","62","yes","1920","46"
"300","","84.12698412698413","84.12698412698413","803.1111111111111","803.1111111111111","black","no","xpyriment","legacy","legacy","0","201","NA","uniform","NA","NA","NA","1","undefined","1","0","62","62","62","0","62","62","62","NA","0","62","NA","NA","0","62","NA","62","0","62","NA","NA","NA","62","0","0","NA","NA","62","62","62","62","62","63","/","Wed Jul  5 17:34:01 2023","Executes Python code","yes","m21-ba-lexicalDecision.osexp","C:\Users\emoore8\Desktop\m21_vsl-main","no","mono","no","18","no","white","no","yes","1080","legacy","62","62","C:/Users/emoore8/Desktop/m21_vsl-main/subject-214.csv","xpyriment","Lentiform Loewenfeld","3.3.11","0","/","NA","NA","NA","NA","space","/","479","NA","NA","NA","NA","36576","479","2","legacy","1024","2","48000","-16","AB_m21","214","even","CW_S","INSISTENT","1769","310960","307806","309456","38515","NA","NA","NA","NA","NA","308306","NA","NA","NA","307306","NA","307280","1937","311261","NA","NA","NA","308346","1770","1920","NA","NA","308826","308851","307280","308306","308326","morph21_Oliver/Morris","53","50596","63","yes","1920","9"
"300","","84.375","84.375","799.828125","799.828125","black","no","xpyriment","legacy","legacy","0","204","NA","uniform","NA","NA","NA","1","undefined","1","0","63","63","63","0","63","63","63","NA","0","63","NA","NA","0","63","NA","63","0","63","NA","NA","NA","63","0","0","NA","NA","63","63","63","63","63","64","z","Wed Jul  5 17:34:01 2023","Executes Python code","yes","m21-ba-lexicalDecision.osexp","C:\Users\emoore8\Desktop\m21_vsl-main","no","mono","no","18","no","white","no","yes","1080","legacy","63","63","C:/Users/emoore8/Desktop/m21_vsl-main/subject-214.csv","xpyriment","Lentiform Loewenfeld","3.3.11","0","z","NA","NA","NA","NA","space","z","593","NA","NA","NA","NA","36576","593","2","legacy","1024","2","48000","-16","AB_m21","214","even","NW_L_COMP","IME","1769","314542","312779","309456","38515","NA","NA","NA","NA","NA","313280","NA","NA","NA","312279","NA","312255","1937","314842","NA","NA","NA","313320","1770","1920","NA","NA","313914","313938","312255","313279","313300","morph21_Oliver/Morris","54","51189","64","yes","1920","20"
"250","","84.61538461538461","84.61538461538461","796.1846153846154","796.1846153846154","black","no","xpyriment","legacy","legacy","0","208","NA","uniform","NA","NA","NA","1","undefined","1","0","64","64","64","0","64","64","64","NA","0","64","NA","NA","0","64","NA","64","0","64","NA","NA","NA","64","0","0","NA","NA","64","64","64","64","64","65","z","Wed Jul  5 17:34:01 2023","Executes Python code","yes","m21-ba-lexicalDecision.osexp","C:\Users\emoore8\Desktop\m21_vsl-main","no","mono","no","18","no","white","no","yes","1080","legacy","64","64","C:/Users/emoore8/Desktop/m21_vsl-main/subject-214.csv","xpyriment","Lentiform Loewenfeld","3.3.11","0","z","NA","NA","NA","NA","space","z","563","NA","NA","NA","NA","36576","563","2","legacy","1024","2","48000","-16","AB_m21","214","even","FILL_NW","POLT","1769","318076","316345","309456","38515","NA","NA","NA","NA","NA","316845","NA","NA","NA","315844","NA","315821","1937","318326","NA","NA","NA","316886","1770","1920","NA","NA","317450","317473","315821","316845","316866","morph21_Oliver/Morris","55","51752","65","yes","1920","38"
"350","","84.84848484848484","84.84848484848484","793.7424242424242","793.7424242424242","black","no","xpyriment","legacy","legacy","0","208","NA","uniform","NA","NA","NA","1","undefined","1","0","65","65","65","0","65","65","65","NA","0","65","NA","NA","0","65","NA","65","0","65","NA","NA","NA","65","0","0","NA","NA","65","65","65","65","65","66","z","Wed Jul  5 17:34:01 2023","Executes Python code","yes","m21-ba-lexicalDecision.osexp","C:\Users\emoore8\Desktop\m21_vsl-main","no","mono","no","18","no","white","no","yes","1080","legacy","65","65","C:/Users/emoore8/Desktop/m21_vsl-main/subject-214.csv","xpyriment","Lentiform Loewenfeld","3.3.11","0","z","NA","NA","NA","NA","space","z","635","NA","NA","NA","NA","36576","635","2","legacy","1024","2","48000","-16","AB_m21","214","even","FILL_NW","DARF","1769","323139","319833","321636","38515","NA","NA","NA","NA","NA","320334","NA","NA","NA","319333","NA","319307","1937","323489","NA","NA","NA","320374","1770","1920","NA","NA","321010","321033","319307","320334","320354","morph21_Oliver/Morris","56","52387","66","yes","1920","10"
"200","","85.07462686567165","85.07462686567165","792.9253731343283","792.9253731343283","black","no","xpyriment","legacy","legacy","0","203","NA","uniform","NA","NA","NA","1","undefined","1","0","66","66","66","0","66","66","66","NA","0","66","NA","NA","0","66","NA","66","0","66","NA","NA","NA","66","0","0","NA","NA","66","66","66","66","66","67","z","Wed Jul  5 17:34:01 2023","Executes Python code","yes","m21-ba-lexicalDecision.osexp","C:\Users\emoore8\Desktop\m21_vsl-main","no","mono","no","18","no","white","no","yes","1080","legacy","66","66","C:/Users/emoore8/Desktop/m21_vsl-main/subject-214.csv","xpyriment","Lentiform Loewenfeld","3.3.11","0","z","NA","NA","NA","NA","space","z","739","NA","NA","NA","NA","36576","739","2","legacy","1024","2","48000","-16","AB_m21","214","even","NW_S_COMP","MELTANGE","1769","326918","325011","321636","38515","NA","NA","NA","NA","NA","325511","NA","NA","NA","324510","NA","324481","1937","327118","NA","NA","NA","325551","1770","1920","NA","NA","326290","326314","324481","325511","325531","morph21_Oliver/Morris","57","53126","67","yes","1920","1"
"200","","85.29411764705883","85.29411764705883","788.1470588235294","788.1470588235294","black","no","xpyriment","legacy","legacy","0","207","NA","uniform","NA","NA","NA","1","undefined","1","0","67","67","67","0","67","67","67","NA","0","67","NA","NA","0","67","NA","67","0","67","NA","NA","NA","67","0","0","NA","NA","67","67","67","67","67","68","/","Wed Jul  5 17:34:01 2023","Executes Python code","yes","m21-ba-lexicalDecision.osexp","C:\Users\emoore8\Desktop\m21_vsl-main","no","mono","no","18","no","white","no","yes","1080","legacy","67","67","C:/Users/emoore8/Desktop/m21_vsl-main/subject-214.csv","xpyriment","Lentiform Loewenfeld","3.3.11","0","/","NA","NA","NA","NA","space","/","468","NA","NA","NA","NA","36576","468","2","legacy","1024","2","48000","-16","AB_m21","214","even","FILL_W","SAVE","1769","330255","328614","321636","38515","NA","NA","NA","NA","NA","329116","NA","NA","NA","328114","NA","328090","1937","330455","NA","NA","NA","329157","1770","1920","NA","NA","329626","329651","328090","329116","329137","morph21_Oliver/Morris","58","53594","68","yes","1920","46"
"400","","84.05797101449275","84.05797101449275","794.1159420289855","794.1159420289855","black","no","xpyriment","legacy","legacy","0","205","NA","uniform","NA","NA","NA","0","undefined","0","0","68","68","68","0","68","68","68","NA","0","68","NA","NA","0","68","NA","68","0","68","NA","NA","NA","68","0","0","NA","NA","68","68","68","68","68","69","z","Wed Jul  5 17:34:01 2023","Executes Python code","yes","m21-ba-lexicalDecision.osexp","C:\Users\emoore8\Desktop\m21_vsl-main","no","mono","no","18","no","white","no","yes","1080","legacy","68","68","C:/Users/emoore8/Desktop/m21_vsl-main/subject-214.csv","xpyriment","Lentiform Loewenfeld","3.3.11","0","None","NA","NA","NA","NA","space","None","1200","NA","NA","NA","NA","36576","1200","2","legacy","1024","2","48000","-16","AB_m21","214","even","NW_S_SIMP","URNIST","1769","335824","331947","334317","38515","NA","NA","NA","NA","NA","332448","NA","NA","NA","331446","NA","331422","1937","336224","NA","NA","NA","332489","1770","1920","NA","NA","333689","333714","331422","332448","332469","morph21_Oliver/Morris","58","54794","69","yes","1920","5"
"300","","84.28571428571429","84.28571428571429","797.2285714285714","797.2285714285714","black","no","xpyriment","legacy","legacy","0","202","NA","uniform","NA","NA","NA","1","undefined","1","0","69","69","69","0","69","69","69","NA","0","69","NA","NA","0","69","NA","69","0","69","NA","NA","NA","69","0","0","NA","NA","69","69","69","69","69","70","/","Wed Jul  5 17:34:01 2023","Executes Python code","yes","m21-ba-lexicalDecision.osexp","C:\Users\emoore8\Desktop\m21_vsl-main","no","mono","no","18","no","white","no","yes","1080","legacy","69","69","C:/Users/emoore8/Desktop/m21_vsl-main/subject-214.csv","xpyriment","Lentiform Loewenfeld","3.3.11","0","/","NA","NA","NA","NA","space","/","1012","NA","NA","NA","NA","36576","1012","2","legacy","1024","2","48000","-16","AB_m21","214","even","CW_L","WEEDY","1769","339949","337769","334317","38515","NA","NA","NA","NA","NA","338269","NA","NA","NA","337267","NA","337240","1937","340249","NA","NA","NA","338309","1770","1920","NA","NA","339322","339345","337240","338269","338289","morph21_Oliver/Morris","59","55806","70","yes","1920","48"
"250","","84.50704225352112","84.50704225352112","795.3239436619718","795.3239436619718","black","no","xpyriment","legacy","legacy","0","203","NA","uniform","NA","NA","NA","1","undefined","1","0","70","70","70","0","70","70","70","NA","0","70","NA","NA","0","70","NA","70","0","70","NA","NA","NA","70","0","0","NA","NA","70","70","70","70","70","71","z","Wed Jul  5 17:34:01 2023","Executes Python code","yes","m21-ba-lexicalDecision.osexp","C:\Users\emoore8\Desktop\m21_vsl-main","no","mono","no","18","no","white","no","yes","1080","legacy","70","70","C:/Users/emoore8/Desktop/m21_vsl-main/subject-214.csv","xpyriment","Lentiform Loewenfeld","3.3.11","0","z","NA","NA","NA","NA","space","z","662","NA","NA","NA","NA","36576","662","2","legacy","1024","2","48000","-16","AB_m21","214","even","NW_S_COMP","BEEREL","1769","343590","341759","334317","38515","NA","NA","NA","NA","NA","342260","NA","NA","NA","341258","NA","341234","1937","343840","NA","NA","NA","342300","1770","1920","NA","NA","342962","342987","341234","342260","342280","morph21_Oliver/Morris","60","56468","71","yes","1920","5"
"400","","84.72222222222223","84.72222222222223","796.4444444444445","796.4444444444445","black","no","xpyriment","legacy","legacy","0","205","NA","uniform","NA","NA","NA","1","undefined","1","0","71","71","71","0","71","71","71","NA","0","71","NA","NA","0","71","NA","71","0","71","NA","NA","NA","71","0","0","NA","NA","71","71","71","71","71","72","z","Wed Jul  5 17:34:01 2023","Executes Python code","yes","m21-ba-lexicalDecision.osexp","C:\Users\emoore8\Desktop\m21_vsl-main","no","mono","no","18","no","white","no","yes","1080","legacy","71","71","C:/Users/emoore8/Desktop/m21_vsl-main/subject-214.csv","xpyriment","Lentiform Loewenfeld","3.3.11","0","z","NA","NA","NA","NA","space","z","876","NA","NA","NA","NA","36576","876","2","legacy","1024","2","48000","-16","AB_m21","214","even","NW_S_SIMP","AIDIC","1769","348898","345344","347392","38515","NA","NA","NA","NA","NA","345844","NA","NA","NA","344843","NA","344821","1937","349298","NA","NA","NA","345885","1770","1920","NA","NA","346762","346787","344821","345844","345865","morph21_Oliver/Morris","61","57344","72","yes","1920","4"
"350","","84.93150684931507","84.93150684931507","795.5616438356165","795.5616438356165","black","no","xpyriment","legacy","legacy","0","205","NA","uniform","NA","NA","NA","1","undefined","1","0","72","72","72","0","72","72","72","NA","0","72","NA","NA","0","72","NA","72","0","72","NA","NA","NA","72","0","0","NA","NA","72","72","72","72","72","73","z","Wed Jul  5 17:34:01 2023","Executes Python code","yes","m21-ba-lexicalDecision.osexp","C:\Users\emoore8\Desktop\m21_vsl-main","no","mono","no","18","no","white","no","yes","1080","legacy","72","72","C:/Users/emoore8/Desktop/m21_vsl-main/subject-214.csv","xpyriment","Lentiform Loewenfeld","3.3.11","0","z","NA","NA","NA","NA","space","z","732","NA","NA","NA","NA","36576","732","2","legacy","1024","2","48000","-16","AB_m21","214","even","NW_S_SIMP","BASKORY","1769","352720","350816","347392","38515","NA","NA","NA","NA","NA","351318","NA","NA","NA","350316","NA","350291","1937","353070","NA","NA","NA","351358","1770","1920","NA","NA","352090","352115","350291","351317","351338","morph21_Oliver/Morris","62","58076","73","yes","1920","10"
"350","","85.13513513513513","85.13513513513513","795.3108108108108","795.3108108108108","black","no","xpyriment","legacy","legacy","0","201","NA","uniform","NA","NA","NA","1","undefined","1","0","73","73","73","0","73","73","73","NA","0","73","NA","NA","0","73","NA","73","0","73","NA","NA","NA","73","0","0","NA","NA","73","73","73","73","73","74","/","Wed Jul  5 17:34:01 2023","Executes Python code","yes","m21-ba-lexicalDecision.osexp","C:\Users\emoore8\Desktop\m21_vsl-main","no","mono","no","18","no","white","no","yes","1080","legacy","73","73","C:/Users/emoore8/Desktop/m21_vsl-main/subject-214.csv","xpyriment","Lentiform Loewenfeld","3.3.11","0","/","NA","NA","NA","NA","space","/","777","NA","NA","NA","NA","36576","777","2","legacy","1024","2","48000","-16","AB_m21","214","even","CW_S","BOSSY","1769","356527","354578","347392","38515","NA","NA","NA","NA","NA","355079","NA","NA","NA","354078","NA","354049","1937","356877","NA","NA","NA","355120","1770","1920","NA","NA","355898","355923","354049","355079","355100","morph21_Oliver/Morris","63","58853","74","yes","1920","49"
"300","","85.33333333333333","85.33333333333333","792.64","792.64","black","no","xpyriment","legacy","legacy","0","204","NA","uniform","NA","NA","NA","undefined","undefined","1","0","74","74","74","0","74","74","74","NA","0","74","NA","NA","0","74","NA","74","0","74","NA","NA","NA","74","0","0","NA","NA","74","74","74","74","74","75","z","Wed Jul  5 17:34:01 2023","Executes Python code","yes","m21-ba-lexicalDecision.osexp","C:\Users\emoore8\Desktop\m21_vsl-main","no","mono","no","18","no","white","no","yes","1080","legacy","74","74","C:/Users/emoore8/Desktop/m21_vsl-main/subject-214.csv","xpyriment","Lentiform Loewenfeld","3.3.11","0","space","space","NA","NA","NA","space","z","11432","11432","NA","NA","NA","36576","595","2","legacy","1024","2","48000","-16","AB_m21","214","even","NW_L_COMP","ADDMANT","1769","361653","358383","360149","38515","361961","NA","NA","NA","NA","358886","NA","NA","NA","357882","NA","357858","1937","373394","NA","NA","NA","358926","1770","1920","NA","NA","359522","359546","357858","358886","358906","morph21_Oliver/Morris","64","59448","75","yes","1920","13"
"350","","85.52631578947368","85.52631578947368","791.6973684210526","791.6973684210526","black","no","xpyriment","legacy","legacy","0","207","NA","uniform","NA","NA","NA","1","undefined","1","0","75","75","75","0","75","75","75","NA","0","75","NA","NA","0","75","NA","75","0","75","NA","NA","NA","75","0","0","NA","NA","75","75","75","75","75","76","/","Wed Jul  5 17:34:01 2023","Executes Python code","yes","m21-ba-lexicalDecision.osexp","C:\Users\emoore8\Desktop\m21_vsl-main","no","mono","no","18","no","white","no","yes","1080","legacy","75","75","C:/Users/emoore8/Desktop/m21_vsl-main/subject-214.csv","xpyriment","Lentiform Loewenfeld","3.3.11","0","/","space","NA","NA","NA","space","/","721","11432","NA","NA","NA","36576","721","2","legacy","1024","2","48000","-16","AB_m21","214","even","FILL_W","BRISK","1769","376804","374915","360149","38515","361961","NA","NA","NA","NA","375415","NA","NA","NA","374414","NA","374390","1937","377154","NA","NA","NA","375456","1770","1920","NA","NA","376178","376201","374390","375415","375436","morph21_Oliver/Morris","65","60169","76","yes","1920","8"
"350","","85.71428571428571","85.71428571428571","788.9350649350649","788.9350649350649","black","no","xpyriment","legacy","legacy","0","201","NA","uniform","NA","NA","NA","1","undefined","1","0","76","76","76","0","76","76","76","NA","0","76","NA","NA","0","76","NA","76","0","76","NA","NA","NA","76","0","0","NA","NA","76","76","76","76","76","77","/","Wed Jul  5 17:34:01 2023","Executes Python code","yes","m21-ba-lexicalDecision.osexp","C:\Users\emoore8\Desktop\m21_vsl-main","no","mono","no","18","no","white","no","yes","1080","legacy","76","76","C:/Users/emoore8/Desktop/m21_vsl-main/subject-214.csv","xpyriment","Lentiform Loewenfeld","3.3.11","0","/","space","NA","NA","NA","space","/","579","11432","NA","NA","NA","36576","579","2","legacy","1024","2","48000","-16","AB_m21","214","even","CW_S","RICHNESS","1769","380413","378665","360149","38515","361961","NA","NA","NA","NA","379165","NA","NA","NA","378165","NA","378139","1937","380764","NA","NA","NA","379206","1770","1920","NA","NA","379786","379810","378138","379165","379186","morph21_Oliver/Morris","66","60748","77","yes","1920","45"
"200","","85.8974358974359","85.8974358974359","793.8717948717949","793.8717948717949","black","no","xpyriment","legacy","legacy","0","206","NA","uniform","NA","NA","NA","1","undefined","1","0","77","77","77","0","77","77","77","NA","0","77","NA","NA","0","77","NA","77","0","77","NA","NA","NA","77","0","0","NA","NA","77","77","77","77","77","78","z","Wed Jul  5 17:34:01 2023","Executes Python code","yes","m21-ba-lexicalDecision.osexp","C:\Users\emoore8\Desktop\m21_vsl-main","no","mono","no","18","no","white","no","yes","1080","legacy","77","77","C:/Users/emoore8/Desktop/m21_vsl-main/subject-214.csv","xpyriment","Lentiform Loewenfeld","3.3.11","0","z","space","NA","NA","NA","space","z","1174","11432","NA","NA","NA","36576","1174","2","legacy","1024","2","48000","-16","AB_m21","214","even","NW_L_SIMP","TOWERLY","1769","386167","382317","384661","38515","361961","NA","NA","NA","NA","382819","NA","NA","NA","381815","NA","381789","1937","386367","NA","NA","NA","382859","1770","1920","NA","NA","384034","384058","381789","382819","382839","morph21_Oliver/Morris","67","61922","78","yes","1920","15"
"350","","84.81012658227849","84.81012658227849","799.0126582278481","799.0126582278481","black","no","xpyriment","legacy","legacy","0","203","NA","uniform","NA","NA","NA","0","undefined","0","0","78","78","78","0","78","78","78","NA","0","78","NA","NA","0","78","NA","78","0","78","NA","NA","NA","78","0","0","NA","NA","78","78","78","78","78","79","z","Wed Jul  5 17:34:01 2023","Executes Python code","yes","m21-ba-lexicalDecision.osexp","C:\Users\emoore8\Desktop\m21_vsl-main","no","mono","no","18","no","white","no","yes","1080","legacy","78","78","C:/Users/emoore8/Desktop/m21_vsl-main/subject-214.csv","xpyriment","Lentiform Loewenfeld","3.3.11","0","None","space","NA","NA","NA","space","None","1200","11432","NA","NA","NA","36576","1200","2","legacy","1024","2","48000","-16","AB_m21","214","even","NW_S_COMP","FIENDILM","1769","390265","387898","384661","38515","361961","NA","NA","NA","NA","388399","NA","NA","NA","387398","NA","387371","1937","390615","NA","NA","NA","388439","1770","1920","NA","NA","389639","389662","387371","388399","388419","morph21_Oliver/Morris","67","63122","79","yes","1920","24"
"350","","83.75","83.75","799.375","799.375","black","no","xpyriment","legacy","legacy","0","203","NA","uniform","NA","NA","NA","0","undefined","0","0","79","79","79","0","79","79","79","NA","0","79","NA","NA","0","79","NA","79","0","79","NA","NA","NA","79","0","0","NA","NA","79","79","79","79","79","80","z","Wed Jul  5 17:34:01 2023","Executes Python code","yes","m21-ba-lexicalDecision.osexp","C:\Users\emoore8\Desktop\m21_vsl-main","no","mono","no","18","no","white","no","yes","1080","legacy","79","79","C:/Users/emoore8/Desktop/m21_vsl-main/subject-214.csv","xpyriment","Lentiform Loewenfeld","3.3.11","0","/","space","NA","NA","NA","space","/","828","11432","NA","NA","NA","36576","828","2","legacy","1024","2","48000","-16","AB_m21","214","even","NW_S_COMP","WELDIG","1769","394118","392119","384661","38515","361961","NA","NA","NA","NA","392620","NA","NA","NA","391618","NA","391594","1937","394468","NA","NA","NA","392661","1770","1920","NA","NA","393490","393514","391594","392620","392641","morph21_Oliver/Morris","67","63950","80","yes","1920","21"
"200","","83.95061728395062","83.95061728395062","800.4691358024692","800.4691358024692","black","no","xpyriment","legacy","legacy","0","208","NA","uniform","NA","NA","NA","1","undefined","1","0","80","80","80","0","80","80","80","NA","0","80","NA","NA","0","80","NA","80","0","80","NA","NA","NA","80","0","0","NA","NA","80","80","80","80","80","81","z","Wed Jul  5 17:34:01 2023","Executes Python code","yes","m21-ba-lexicalDecision.osexp","C:\Users\emoore8\Desktop\m21_vsl-main","no","mono","no","18","no","white","no","yes","1080","legacy","80","80","C:/Users/emoore8/Desktop/m21_vsl-main/subject-214.csv","xpyriment","Lentiform Loewenfeld","3.3.11","0","z","space","NA","NA","NA","space","z","888","11432","NA","NA","NA","36576","888","2","legacy","1024","2","48000","-16","AB_m21","214","even","FILL_NW","FALONS","1769","399543","395981","398038","38515","361961","NA","NA","NA","NA","396482","NA","NA","NA","395481","NA","395458","1937","399743","NA","NA","NA","396522","1770","1920","NA","NA","397410","397435","395458","396482","396502","morph21_Oliver/Morris","68","64838","81","yes","1920","19"
"300","","84.14634146341463","84.14634146341463","798.4024390243902","798.4024390243902","black","no","xpyriment","legacy","legacy","0","202","NA","uniform","NA","NA","NA","1","undefined","1","0","81","81","81","0","81","81","81","NA","0","81","NA","NA","0","81","NA","81","0","81","NA","NA","NA","81","0","0","NA","NA","81","81","81","81","81","82","/","Wed Jul  5 17:34:01 2023","Executes Python code","yes","m21-ba-lexicalDecision.osexp","C:\Users\emoore8\Desktop\m21_vsl-main","no","mono","no","18","no","white","no","yes","1080","legacy","81","81","C:/Users/emoore8/Desktop/m21_vsl-main/subject-214.csv","xpyriment","Lentiform Loewenfeld","3.3.11","0","/","space","NA","NA","NA","space","/","631","11432","NA","NA","NA","36576","631","2","legacy","1024","2","48000","-16","AB_m21","214","even","CW_L","DOUBTFUL","1769","403077","401278","398038","38515","361961","NA","NA","NA","NA","401778","NA","NA","NA","400777","NA","400754","1937","403378","NA","NA","NA","401819","1770","1920","NA","NA","402450","402474","400754","401778","401799","morph21_Oliver/Morris","69","65469","82","yes","1920","21"
"350","","84.33734939759036","84.33734939759036","799.3253012048193","799.3253012048193","black","no","xpyriment","legacy","legacy","0","201","NA","uniform","NA","NA","NA","1","undefined","1","0","82","82","82","0","82","82","82","NA","0","82","NA","NA","0","82","NA","82","0","82","NA","NA","NA","82","0","0","NA","NA","82","82","82","82","82","83","/","Wed Jul  5 17:34:01 2023","Executes Python code","yes","m21-ba-lexicalDecision.osexp","C:\Users\emoore8\Desktop\m21_vsl-main","no","mono","no","18","no","white","no","yes","1080","legacy","82","82","C:/Users/emoore8/Desktop/m21_vsl-main/subject-214.csv","xpyriment","Lentiform Loewenfeld","3.3.11","0","/","space","NA","NA","NA","space","/","875","11432","NA","NA","NA","36576","875","2","legacy","1024","2","48000","-16","AB_m21","214","even","CW_S","LENDER","1769","406918","404874","398038","38515","361961","NA","NA","NA","NA","405374","NA","NA","NA","404374","NA","404349","1937","407268","NA","NA","NA","405414","1770","1920","NA","NA","406290","406314","404349","405374","405394","morph21_Oliver/Morris","70","66344","83","yes","1920","11"
"300","","83.33333333333333","83.33333333333333","804.0952380952381","804.0952380952381","black","no","xpyriment","legacy","legacy","0","206","NA","uniform","NA","NA","NA","0","undefined","0","0","83","83","83","0","83","83","83","NA","0","83","NA","NA","0","83","NA","83","0","83","NA","NA","NA","83","0","0","NA","NA","83","83","83","83","83","84","z","Wed Jul  5 17:34:01 2023","Executes Python code","yes","m21-ba-lexicalDecision.osexp","C:\Users\emoore8\Desktop\m21_vsl-main","no","mono","no","18","no","white","no","yes","1080","legacy","83","83","C:/Users/emoore8/Desktop/m21_vsl-main/subject-214.csv","xpyriment","Lentiform Loewenfeld","3.3.11","0","None","space","NA","NA","NA","space","None","1200","11432","NA","NA","NA","36576","1200","2","legacy","1024","2","48000","-16","AB_m21","214","even","NW_L_SIMP","LONGNESS","1769","412646","408774","411140","38515","361961","NA","NA","NA","NA","409274","NA","NA","NA","408274","NA","408248","1937","412946","NA","NA","NA","409314","1770","1920","NA","NA","410514","410537","408248","409274","409294","morph21_Oliver/Morris","70","67544","84","yes","1920","17"
"200","","83.52941176470588","83.52941176470588","808.1647058823529","808.1647058823529","black","no","xpyriment","legacy","legacy","0","206","NA","uniform","NA","NA","NA","1","undefined","1","0","84","84","84","0","84","84","84","NA","0","84","NA","NA","0","84","NA","84","0","84","NA","NA","NA","84","0","0","NA","NA","84","84","84","84","84","85","z","Wed Jul  5 17:34:01 2023","Executes Python code","yes","m21-ba-lexicalDecision.osexp","C:\Users\emoore8\Desktop\m21_vsl-main","no","mono","no","18","no","white","no","yes","1080","legacy","84","84","C:/Users/emoore8/Desktop/m21_vsl-main/subject-214.csv","xpyriment","Lentiform Loewenfeld","3.3.11","0","z","space","NA","NA","NA","space","z","1150","11432","NA","NA","NA","36576","1150","2","legacy","1024","2","48000","-16","AB_m21","214","even","NW_L_SIMP","GROWIST","1769","416773","414453","411140","38515","361961","NA","NA","NA","NA","414955","NA","NA","NA","413951","NA","413926","1937","416973","NA","NA","NA","414995","1770","1920","NA","NA","416146","416170","413926","414954","414975","morph21_Oliver/Morris","71","68694","85","yes","1920","20"
"250","","83.72093023255815","83.72093023255815","810.2209302325581","810.2209302325581","black","no","xpyriment","legacy","legacy","0","202","NA","uniform","NA","NA","NA","1","undefined","1","0","85","85","85","0","85","85","85","NA","0","85","NA","NA","0","85","NA","85","0","85","NA","NA","NA","85","0","0","NA","NA","85","85","85","85","85","86","/","Wed Jul  5 17:34:01 2023","Executes Python code","yes","m21-ba-lexicalDecision.osexp","C:\Users\emoore8\Desktop\m21_vsl-main","no","mono","no","18","no","white","no","yes","1080","legacy","85","85","C:/Users/emoore8/Desktop/m21_vsl-main/subject-214.csv","xpyriment","Lentiform Loewenfeld","3.3.11","0","/","space","NA","NA","NA","space","/","985","11432","NA","NA","NA","36576","985","2","legacy","1024","2","48000","-16","AB_m21","214","even","CW_L","LAUGHING","1769","420630","418477","411140","38515","361961","NA","NA","NA","NA","418977","NA","NA","NA","417977","NA","417954","1937","420880","NA","NA","NA","419017","1770","1920","NA","NA","420003","420027","417954","418977","418997","morph21_Oliver/Morris","72","69679","86","yes","1920","27"
"400","","83.9080459770115","83.9080459770115","808.735632183908","808.735632183908","black","no","xpyriment","legacy","legacy","0","202","NA","uniform","NA","NA","NA","1","undefined","1","0","86","86","86","0","86","86","86","NA","0","86","NA","NA","0","86","NA","86","0","86","NA","NA","NA","86","0","0","NA","NA","86","86","86","86","86","87","/","Wed Jul  5 17:34:01 2023","Executes Python code","yes","m21-ba-lexicalDecision.osexp","C:\Users\emoore8\Desktop\m21_vsl-main","no","mono","no","18","no","white","no","yes","1080","legacy","86","86","C:/Users/emoore8/Desktop/m21_vsl-main/subject-214.csv","xpyriment","Lentiform Loewenfeld","3.3.11","0","/","space","NA","NA","NA","space","/","681","11432","NA","NA","NA","36576","681","2","legacy","1024","2","48000","-16","AB_m21","214","even","CW_L","WRONGLY","1769","425748","422395","424245","38515","361961","NA","NA","NA","NA","422896","NA","NA","NA","421894","NA","421867","1937","426148","NA","NA","NA","422937","1770","1920","NA","NA","423619","423642","421867","422896","422917","morph21_Oliver/Morris","73","70360","87","yes","1920","37"
"300","","84.0909090909091","84.0909090909091","807.3409090909091","807.3409090909091","black","no","xpyriment","legacy","legacy","0","208","NA","uniform","NA","NA","NA","1","undefined","1","0","87","87","87","0","87","87","87","NA","0","87","NA","NA","0","87","NA","87","0","87","NA","NA","NA","87","0","0","NA","NA","87","87","87","87","87","88","z","Wed Jul  5 17:34:01 2023","Executes Python code","yes","m21-ba-lexicalDecision.osexp","C:\Users\emoore8\Desktop\m21_vsl-main","no","mono","no","18","no","white","no","yes","1080","legacy","87","87","C:/Users/emoore8/Desktop/m21_vsl-main/subject-214.csv","xpyriment","Lentiform Loewenfeld","3.3.11","0","z","space","NA","NA","NA","space","z","686","11432","NA","NA","NA","36576","686","2","legacy","1024","2","48000","-16","AB_m21","214","even","FILL_NW","VOGS","1769","429501","427647","424245","38515","361961","NA","NA","NA","NA","428147","NA","NA","NA","427147","NA","427124","1937","429801","NA","NA","NA","428188","1770","1920","NA","NA","428874","428898","427124","428147","428168","morph21_Oliver/Morris","74","71046","88","yes","1920","47"
"300","","84.26966292134831","84.26966292134831","806.3932584269663","806.3932584269663","black","no","xpyriment","legacy","legacy","0","208","NA","uniform","NA","NA","NA","1","undefined","1","0","88","88","88","0","88","88","88","NA","0","88","NA","NA","0","88","NA","88","0","88","NA","NA","NA","88","0","0","NA","NA","88","88","88","88","88","89","z","Wed Jul  5 17:34:01 2023","Executes Python code","yes","m21-ba-lexicalDecision.osexp","C:\Users\emoore8\Desktop\m21_vsl-main","no","mono","no","18","no","white","no","yes","1080","legacy","88","88","C:/Users/emoore8/Desktop/m21_vsl-main/subject-214.csv","xpyriment","Lentiform Loewenfeld","3.3.11","0","z","space","NA","NA","NA","space","z","723","11432","NA","NA","NA","36576","723","2","legacy","1024","2","48000","-16","AB_m21","214","even","FILL_NW","BAFED","1769","433196","431305","424245","38515","361961","NA","NA","NA","NA","431805","NA","NA","NA","430805","NA","430778","1937","433496","NA","NA","NA","431846","1770","1920","NA","NA","432570","432593","430778","431805","431826","morph21_Oliver/Morris","75","71769","89","yes","1920","1"
