"ITI","_prepare","acc","accuracy","average_response_time","avg_rt","background","bidi","canvas_backend","clock_backend","color_backend","compensation","cond_trig","condtrigtime","coordinates","coroutines_cycles","coroutines_duration","coroutines_mean_cycle_duration","correct","correct_instructions_1","correct_new_keyboard_response_1","count_AB_m21","count_ITI","count_blank_screen","count_blink_screen","count_block1","count_break1","count_break2","count_break3_1","count_canvas","count_close_port","count_cond_trigger","count_correct_trigger","count_def_chain","count_end_screen","count_fixation_1","count_getting_started","count_inc_counter","count_instructions_1","count_logger","count_logscript","count_new_inline_script","count_new_inline_script_2","count_new_keyboard_response_1","count_open_port","count_reset_counter_prep","count_reset_counter_run","count_reset_counter_run_1","count_response_trigger_trial","count_responsescreen","count_sequence","count_target_present","count_word_trigger","counter","cresp","datetime","description","disable_garbage_collection","experiment_file","experiment_path","font_bold","font_family","font_italic","font_size","font_underline","foreground","form_clicks","fullscreen","height","keyboard_backend","live_row","live_row_block1","logfile","mouse_backend","opensesame_codename","opensesame_version","repeat_cycle","response","response_break1","response_break2","response_break3_1","response_end_screen","response_instructions_1","response_new_keyboard_response_1","response_time","response_time_break1","response_time_break2","response_time_break3_1","response_time_end_screen","response_time_instructions_1","response_time_new_keyboard_response_1","round_decimals","sampler_backend","sound_buf_size","sound_channels","sound_freq","sound_sample_size","start","subject_nr","subject_parity","targ_type","target","time_AB_m21","time_ITI","time_blank_screen","time_blink_screen","time_block1","time_break1","time_break2","time_break3_1","time_canvas","time_close_port","time_cond_trigger","time_correct_trigger","time_def_chain","time_end_screen","time_fixation_1","time_getting_started","time_inc_counter","time_instructions_1","time_logger","time_logscript","time_new_inline_script","time_new_inline_script_2","time_new_keyboard_response_1","time_open_port","time_reset_counter_prep","time_reset_counter_run","time_reset_counter_run_1","time_response_trigger_trial","time_responsescreen","time_sequence","time_target_present","time_word_trigger","title","total_correct","total_response_time","total_responses","uniform_coordinates","width","word_trig"
"350","","0","0","1200","1200","black","no","xpyriment","legacy","legacy","0","206","NA","uniform","NA","NA","NA","0","undefined","0","0","0","0","0","0","0","0","0","NA","0","0","NA","NA","0","0","NA","0","0","0","NA","NA","NA","0","0","0","NA","NA","0","0","0","0","0","1","z","Tue Jun 27 19:20:05 2023","Executes Python code","yes","m21-ba-lexicalDecision.osexp","C:\Users\emoore8\Desktop\m21_vsl-main","no","mono","no","18","no","white","no","yes","1080","legacy","0","0","C:/Users/emoore8/Desktop/m21_vsl-main/subject-212.csv","xpyriment","Lentiform Loewenfeld","3.3.11","0","None","NA","NA","NA","NA","space","None","1200","NA","NA","NA","NA","27332","1200","2","legacy","1024","2","48000","-16","AB_m21","212","even","NW_L_SIMP","WIGISH","1567","33197","30830","NA","29069","NA","NA","NA","NA","NA","31330","NA","NA","NA","30329","NA","30296","1736","33547","NA","NA","NA","31370","1567","1725","NA","NA","32570","32593","30295","31330","31350","morph21_Oliver/Morris","0","1200","1","yes","1920","9"
"350","","50","50","1139.5","1139.5","black","no","xpyriment","legacy","legacy","0","202","NA","uniform","NA","NA","NA","1","undefined","1","0","1","1","1","0","1","1","1","NA","0","1","NA","NA","0","1","NA","1","0","1","NA","NA","NA","1","0","0","NA","NA","1","1","1","1","1","2","/","Tue Jun 27 19:20:05 2023","Executes Python code","yes","m21-ba-lexicalDecision.osexp","C:\Users\emoore8\Desktop\m21_vsl-main","no","mono","no","18","no","white","no","yes","1080","legacy","1","1","C:/Users/emoore8/Desktop/m21_vsl-main/subject-212.csv","xpyriment","Lentiform Loewenfeld","3.3.11","0","/","NA","NA","NA","NA","space","/","1079","NA","NA","NA","NA","27332","1079","2","legacy","1024","2","48000","-16","AB_m21","212","even","CW_L","PAINTER","1567","37336","35089","NA","29069","NA","NA","NA","NA","NA","35589","NA","NA","NA","34589","NA","34562","1736","37686","NA","NA","NA","35629","1567","1725","NA","NA","36708","36732","34562","35589","35609","morph21_Oliver/Morris","1","2279","2","yes","1920","18"
"350","","66.66666666666667","66.66666666666667","960.6666666666666","960.6666666666666","black","no","xpyriment","legacy","legacy","0","202","NA","uniform","NA","NA","NA","1","undefined","1","0","2","2","2","0","2","2","2","NA","0","2","NA","NA","0","2","NA","2","0","2","NA","NA","NA","2","0","0","NA","NA","2","2","2","2","2","3","/","Tue Jun 27 19:20:05 2023","Executes Python code","yes","m21-ba-lexicalDecision.osexp","C:\Users\emoore8\Desktop\m21_vsl-main","no","mono","no","18","no","white","no","yes","1080","legacy","2","2","C:/Users/emoore8/Desktop/m21_vsl-main/subject-212.csv","xpyriment","Lentiform Loewenfeld","3.3.11","0","/","NA","NA","NA","NA","space","/","603","NA","NA","NA","NA","27332","603","2","legacy","1024","2","48000","-16","AB_m21","212","even","CW_L","BOMBER","1567","42481","39203","40977","29069","NA","NA","NA","NA","NA","39705","NA","NA","NA","38702","NA","38679","1736","42832","NA","NA","NA","39745","1567","1725","NA","NA","40349","40374","38679","39704","39725","morph21_Oliver/Morris","2","2882","3","yes","1920","7"
"250","","75","75","864","864","black","no","xpyriment","legacy","legacy","0","207","NA","uniform","NA","NA","NA","1","undefined","1","0","3","3","3","0","3","3","3","NA","0","3","NA","NA","0","3","NA","3","0","3","NA","NA","NA","3","0","0","NA","NA","3","3","3","3","3","4","/","Tue Jun 27 19:20:05 2023","Executes Python code","yes","m21-ba-lexicalDecision.osexp","C:\Users\emoore8\Desktop\m21_vsl-main","no","mono","no","18","no","white","no","yes","1080","legacy","3","3","C:/Users/emoore8/Desktop/m21_vsl-main/subject-212.csv","xpyriment","Lentiform Loewenfeld","3.3.11","0","/","NA","NA","NA","NA","space","/","574","NA","NA","NA","NA","27332","574","2","legacy","1024","2","48000","-16","AB_m21","212","even","FILL_W","SOFT","1567","46087","44345","40977","29069","NA","NA","NA","NA","NA","44846","NA","NA","NA","43844","NA","43820","1736","46337","NA","NA","NA","44887","1567","1725","NA","NA","45461","45484","43820","44846","44867","morph21_Oliver/Morris","3","3456","4","yes","1920","43"
"200","","80","80","803","803","black","no","xpyriment","legacy","legacy","0","202","NA","uniform","NA","NA","NA","1","undefined","1","0","4","4","4","0","4","4","4","NA","0","4","NA","NA","0","4","NA","4","0","4","NA","NA","NA","4","0","0","NA","NA","4","4","4","4","4","5","/","Tue Jun 27 19:20:05 2023","Executes Python code","yes","m21-ba-lexicalDecision.osexp","C:\Users\emoore8\Desktop\m21_vsl-main","no","mono","no","18","no","white","no","yes","1080","legacy","4","4","C:/Users/emoore8/Desktop/m21_vsl-main/subject-212.csv","xpyriment","Lentiform Loewenfeld","3.3.11","0","/","NA","NA","NA","NA","space","/","559","NA","NA","NA","NA","27332","559","2","legacy","1024","2","48000","-16","AB_m21","212","even","CW_L","SAILOR","1567","49585","47855","40977","29069","NA","NA","NA","NA","NA","48356","NA","NA","NA","47354","NA","47328","1736","49785","NA","NA","NA","48397","1567","1725","NA","NA","48956","48982","47328","48356","48376","morph21_Oliver/Morris","4","4015","5","yes","1920","43"
"200","","83.33333333333333","83.33333333333333","753","753","black","no","xpyriment","legacy","legacy","0","207","NA","uniform","NA","NA","NA","1","undefined","1","0","5","5","5","0","5","5","5","NA","0","5","NA","NA","0","5","NA","5","0","5","NA","NA","NA","5","0","0","NA","NA","5","5","5","5","5","6","/","Tue Jun 27 19:20:05 2023","Executes Python code","yes","m21-ba-lexicalDecision.osexp","C:\Users\emoore8\Desktop\m21_vsl-main","no","mono","no","18","no","white","no","yes","1080","legacy","5","5","C:/Users/emoore8/Desktop/m21_vsl-main/subject-212.csv","xpyriment","Lentiform Loewenfeld","3.3.11","0","/","NA","NA","NA","NA","space","/","503","NA","NA","NA","NA","27332","503","2","legacy","1024","2","48000","-16","AB_m21","212","even","FILL_W","SAVE","1567","54463","51290","52960","29069","NA","NA","NA","NA","NA","51790","NA","NA","NA","50788","NA","50760","1736","54663","NA","NA","NA","51830","1567","1725","NA","NA","52333","52357","50760","51790","51810","morph21_Oliver/Morris","5","4518","6","yes","1920","46"
"300","","85.71428571428571","85.71428571428571","716.4285714285714","716.4285714285714","black","no","xpyriment","legacy","legacy","0","207","NA","uniform","NA","NA","NA","1","undefined","1","0","6","6","6","0","6","6","6","NA","0","6","NA","NA","0","6","NA","6","0","6","NA","NA","NA","6","0","0","NA","NA","6","6","6","6","6","7","/","Tue Jun 27 19:20:05 2023","Executes Python code","yes","m21-ba-lexicalDecision.osexp","C:\Users\emoore8\Desktop\m21_vsl-main","no","mono","no","18","no","white","no","yes","1080","legacy","6","6","C:/Users/emoore8/Desktop/m21_vsl-main/subject-212.csv","xpyriment","Lentiform Loewenfeld","3.3.11","0","/","NA","NA","NA","NA","space","/","497","NA","NA","NA","NA","27332","497","2","legacy","1024","2","48000","-16","AB_m21","212","even","FILL_W","SICK","1567","57856","56190","52960","29069","NA","NA","NA","NA","NA","56690","NA","NA","NA","55690","NA","55662","1736","58156","NA","NA","NA","56731","1567","1725","NA","NA","57228","57252","55662","56690","56711","morph21_Oliver/Morris","6","5015","7","yes","1920","36"
"200","","87.5","87.5","690.875","690.875","black","no","xpyriment","legacy","legacy","0","201","NA","uniform","NA","NA","NA","1","undefined","1","0","7","7","7","0","7","7","7","NA","0","7","NA","NA","0","7","NA","7","0","7","NA","NA","NA","7","0","0","NA","NA","7","7","7","7","7","8","/","Tue Jun 27 19:20:05 2023","Executes Python code","yes","m21-ba-lexicalDecision.osexp","C:\Users\emoore8\Desktop\m21_vsl-main","no","mono","no","18","no","white","no","yes","1080","legacy","7","7","C:/Users/emoore8/Desktop/m21_vsl-main/subject-212.csv","xpyriment","Lentiform Loewenfeld","3.3.11","0","/","NA","NA","NA","NA","space","/","512","NA","NA","NA","NA","27332","512","2","legacy","1024","2","48000","-16","AB_m21","212","even","CW_S","ENJOYMENT","1567","61344","59662","52960","29069","NA","NA","NA","NA","NA","60164","NA","NA","NA","59161","NA","59132","1736","61545","NA","NA","NA","60204","1567","1725","NA","NA","60716","60740","59132","60163","60184","morph21_Oliver/Morris","7","5527","8","yes","1920","40"
"250","","88.88888888888889","88.88888888888889","688.6666666666666","688.6666666666666","black","no","xpyriment","legacy","legacy","0","202","NA","uniform","NA","NA","NA","1","undefined","1","0","8","8","8","0","8","8","8","NA","0","8","NA","NA","0","8","NA","8","0","8","NA","NA","NA","8","0","0","NA","NA","8","8","8","8","8","9","/","Tue Jun 27 19:20:05 2023","Executes Python code","yes","m21-ba-lexicalDecision.osexp","C:\Users\emoore8\Desktop\m21_vsl-main","no","mono","no","18","no","white","no","yes","1080","legacy","8","8","C:/Users/emoore8/Desktop/m21_vsl-main/subject-212.csv","xpyriment","Lentiform Loewenfeld","3.3.11","0","/","NA","NA","NA","NA","space","/","671","NA","NA","NA","NA","27332","671","2","legacy","1024","2","48000","-16","AB_m21","212","even","CW_L","DREAMER","1567","66398","63056","64895","29069","NA","NA","NA","NA","NA","63556","NA","NA","NA","62556","NA","62529","1736","66648","NA","NA","NA","63597","1567","1725","NA","NA","64268","64292","62528","63556","63577","morph21_Oliver/Morris","8","6198","9","yes","1920","12"
"250","","90","90","706.3","706.3","black","no","xpyriment","legacy","legacy","0","207","NA","uniform","NA","NA","NA","1","undefined","1","0","9","9","9","0","9","9","9","NA","0","9","NA","NA","0","9","NA","9","0","9","NA","NA","NA","9","0","0","NA","NA","9","9","9","9","9","10","/","Tue Jun 27 19:20:05 2023","Executes Python code","yes","m21-ba-lexicalDecision.osexp","C:\Users\emoore8\Desktop\m21_vsl-main","no","mono","no","18","no","white","no","yes","1080","legacy","9","9","C:/Users/emoore8/Desktop/m21_vsl-main/subject-212.csv","xpyriment","Lentiform Loewenfeld","3.3.11","0","/","NA","NA","NA","NA","space","/","865","NA","NA","NA","NA","27332","865","2","legacy","1024","2","48000","-16","AB_m21","212","even","FILL_W","WEAVE","1567","70192","68158","64895","29069","NA","NA","NA","NA","NA","68658","NA","NA","NA","67657","NA","67631","1736","70442","NA","NA","NA","68699","1567","1725","NA","NA","69565","69589","67631","68658","68679","morph21_Oliver/Morris","9","7063","10","yes","1920","12"
"200","","81.81818181818181","81.81818181818181","751.1818181818181","751.1818181818181","black","no","xpyriment","legacy","legacy","0","201","NA","uniform","NA","NA","NA","0","undefined","0","0","10","10","10","0","10","10","10","NA","0","10","NA","NA","0","10","NA","10","0","10","NA","NA","NA","10","0","0","NA","NA","10","10","10","10","10","11","/","Tue Jun 27 19:20:05 2023","Executes Python code","yes","m21-ba-lexicalDecision.osexp","C:\Users\emoore8\Desktop\m21_vsl-main","no","mono","no","18","no","white","no","yes","1080","legacy","10","10","C:/Users/emoore8/Desktop/m21_vsl-main/subject-212.csv","xpyriment","Lentiform Loewenfeld","3.3.11","0","None","NA","NA","NA","NA","space","None","1200","NA","NA","NA","NA","27332","1200","2","legacy","1024","2","48000","-16","AB_m21","212","even","CW_S","CAMPAIGNER","1567","74334","71967","64895","29069","NA","NA","NA","NA","NA","72467","NA","NA","NA","71466","NA","71443","1736","74534","NA","NA","NA","72508","1567","1725","NA","NA","73708","73731","71443","72467","72488","morph21_Oliver/Morris","9","8263","11","yes","1920","15"
"300","","83.33333333333333","83.33333333333333","773.4166666666666","773.4166666666666","black","no","xpyriment","legacy","legacy","0","204","NA","uniform","NA","NA","NA","1","undefined","1","0","11","11","11","0","11","11","11","NA","0","11","NA","NA","0","11","NA","11","0","11","NA","NA","NA","11","0","0","NA","NA","11","11","11","11","11","12","z","Tue Jun 27 19:20:05 2023","Executes Python code","yes","m21-ba-lexicalDecision.osexp","C:\Users\emoore8\Desktop\m21_vsl-main","no","mono","no","18","no","white","no","yes","1080","legacy","11","11","C:/Users/emoore8/Desktop/m21_vsl-main/subject-212.csv","xpyriment","Lentiform Loewenfeld","3.3.11","0","z","NA","NA","NA","NA","space","z","1018","NA","NA","NA","NA","27332","1018","2","legacy","1024","2","48000","-16","AB_m21","212","even","NW_L_COMP","FELLOWOES","1567","79728","76037","78223","29069","NA","NA","NA","NA","NA","76538","NA","NA","NA","75536","NA","75514","1736","80028","NA","NA","NA","76578","1567","1725","NA","NA","77596","77620","75513","76538","76558","morph21_Oliver/Morris","10","9281","12","yes","1920","17"
"350","","84.61538461538461","84.61538461538461","790.6153846153846","790.6153846153846","black","no","xpyriment","legacy","legacy","0","203","NA","uniform","NA","NA","NA","1","undefined","1","0","12","12","12","0","12","12","12","NA","0","12","NA","NA","0","12","NA","12","0","12","NA","NA","NA","12","0","0","NA","NA","12","12","12","12","12","13","z","Tue Jun 27 19:20:05 2023","Executes Python code","yes","m21-ba-lexicalDecision.osexp","C:\Users\emoore8\Desktop\m21_vsl-main","no","mono","no","18","no","white","no","yes","1080","legacy","12","12","C:/Users/emoore8/Desktop/m21_vsl-main/subject-212.csv","xpyriment","Lentiform Loewenfeld","3.3.11","0","z","NA","NA","NA","NA","space","z","997","NA","NA","NA","NA","27332","997","2","legacy","1024","2","48000","-16","AB_m21","212","even","NW_S_COMP","HEIGHTENGE","1567","83703","81537","78223","29069","NA","NA","NA","NA","NA","82038","NA","NA","NA","81037","NA","81012","1736","84053","NA","NA","NA","82079","1567","1725","NA","NA","83077","83100","81012","82038","82059","morph21_Oliver/Morris","11","10278","13","yes","1920","18"
"200","","78.57142857142857","78.57142857142857","819.8571428571429","819.8571428571429","black","no","xpyriment","legacy","legacy","0","203","NA","uniform","NA","NA","NA","0","undefined","0","0","13","13","13","0","13","13","13","NA","0","13","NA","NA","0","13","NA","13","0","13","NA","NA","NA","13","0","0","NA","NA","13","13","13","13","13","14","z","Tue Jun 27 19:20:05 2023","Executes Python code","yes","m21-ba-lexicalDecision.osexp","C:\Users\emoore8\Desktop\m21_vsl-main","no","mono","no","18","no","white","no","yes","1080","legacy","13","13","C:/Users/emoore8/Desktop/m21_vsl-main/subject-212.csv","xpyriment","Lentiform Loewenfeld","3.3.11","0","None","NA","NA","NA","NA","space","None","1200","NA","NA","NA","NA","27332","1200","2","legacy","1024","2","48000","-16","AB_m21","212","even","NW_S_COMP","ELMILT","1567","87929","85562","78223","29069","NA","NA","NA","NA","NA","86062","NA","NA","NA","85062","NA","85034","1736","88129","NA","NA","NA","86103","1567","1725","NA","NA","87303","87326","85034","86062","86083","morph21_Oliver/Morris","11","11478","14","yes","1920","10"
"200","","80","80","811.7333333333333","811.7333333333333","black","no","xpyriment","legacy","legacy","0","208","NA","uniform","NA","NA","NA","1","undefined","1","0","14","14","14","0","14","14","14","NA","0","14","NA","NA","0","14","NA","14","0","14","NA","NA","NA","14","0","0","NA","NA","14","14","14","14","14","15","z","Tue Jun 27 19:20:05 2023","Executes Python code","yes","m21-ba-lexicalDecision.osexp","C:\Users\emoore8\Desktop\m21_vsl-main","no","mono","no","18","no","white","no","yes","1080","legacy","14","14","C:/Users/emoore8/Desktop/m21_vsl-main/subject-212.csv","xpyriment","Lentiform Loewenfeld","3.3.11","0","z","NA","NA","NA","NA","space","z","698","NA","NA","NA","NA","27332","698","2","legacy","1024","2","48000","-16","AB_m21","212","even","FILL_NW","GAIRS","1567","92993","89620","91491","29069","NA","NA","NA","NA","NA","90121","NA","NA","NA","89120","NA","89094","1736","93193","NA","NA","NA","90162","1567","1725","NA","NA","90861","90887","89094","90121","90142","morph21_Oliver/Morris","12","12176","15","yes","1920","23"
"300","","75","75","817.625","817.625","black","no","xpyriment","legacy","legacy","0","204","NA","uniform","NA","NA","NA","0","undefined","0","0","15","15","15","0","15","15","15","NA","0","15","NA","NA","0","15","NA","15","0","15","NA","NA","NA","15","0","0","NA","NA","15","15","15","15","15","16","z","Tue Jun 27 19:20:05 2023","Executes Python code","yes","m21-ba-lexicalDecision.osexp","C:\Users\emoore8\Desktop\m21_vsl-main","no","mono","no","18","no","white","no","yes","1080","legacy","15","15","C:/Users/emoore8/Desktop/m21_vsl-main/subject-212.csv","xpyriment","Lentiform Loewenfeld","3.3.11","0","/","NA","NA","NA","NA","space","/","906","NA","NA","NA","NA","27332","906","2","legacy","1024","2","48000","-16","AB_m21","212","even","NW_L_COMP","ADDMANT","1567","96872","94797","91491","29069","NA","NA","NA","NA","NA","95298","NA","NA","NA","94297","NA","94266","1736","97173","NA","NA","NA","95338","1567","1725","NA","NA","96245","96268","94266","95298","95318","morph21_Oliver/Morris","12","13082","16","yes","1920","13"
"350","","76.47058823529412","76.47058823529412","834.7058823529412","834.7058823529412","black","no","xpyriment","legacy","legacy","0","208","NA","uniform","NA","NA","NA","1","undefined","1","0","16","16","16","0","16","16","16","NA","0","16","NA","NA","0","16","NA","16","0","16","NA","NA","NA","16","0","0","NA","NA","16","16","16","16","16","17","z","Tue Jun 27 19:20:05 2023","Executes Python code","yes","m21-ba-lexicalDecision.osexp","C:\Users\emoore8\Desktop\m21_vsl-main","no","mono","no","18","no","white","no","yes","1080","legacy","16","16","C:/Users/emoore8/Desktop/m21_vsl-main/subject-212.csv","xpyriment","Lentiform Loewenfeld","3.3.11","0","z","NA","NA","NA","NA","space","z","1108","NA","NA","NA","NA","27332","1108","2","legacy","1024","2","48000","-16","AB_m21","212","even","FILL_NW","BLANTH","1567","100967","98692","91491","29069","NA","NA","NA","NA","NA","99192","NA","NA","NA","98192","NA","98165","1736","101317","NA","NA","NA","99233","1567","1725","NA","NA","100341","100364","98165","99192","99213","morph21_Oliver/Morris","13","14190","17","yes","1920","3"
"250","","77.77777777777777","77.77777777777777","821.1666666666666","821.1666666666666","black","no","xpyriment","legacy","legacy","0","207","NA","uniform","NA","NA","NA","1","undefined","1","0","17","17","17","0","17","17","17","NA","0","17","NA","NA","0","17","NA","17","0","17","NA","NA","NA","17","0","0","NA","NA","17","17","17","17","17","18","/","Tue Jun 27 19:20:05 2023","Executes Python code","yes","m21-ba-lexicalDecision.osexp","C:\Users\emoore8\Desktop\m21_vsl-main","no","mono","no","18","no","white","no","yes","1080","legacy","17","17","C:/Users/emoore8/Desktop/m21_vsl-main/subject-212.csv","xpyriment","Lentiform Loewenfeld","3.3.11","0","/","NA","NA","NA","NA","space","/","591","NA","NA","NA","NA","27332","591","2","legacy","1024","2","48000","-16","AB_m21","212","even","FILL_W","SHIP","1567","106120","102857","104617","29069","NA","NA","NA","NA","NA","103357","NA","NA","NA","102357","NA","102331","1736","106370","NA","NA","NA","103397","1567","1725","NA","NA","103988","104014","102331","103357","103377","morph21_Oliver/Morris","14","14781","18","yes","1920","37"
"400","","73.6842105263158","73.6842105263158","804.1578947368421","804.1578947368421","black","no","xpyriment","legacy","legacy","0","204","NA","uniform","NA","NA","NA","0","undefined","0","0","18","18","18","0","18","18","18","NA","0","18","NA","NA","0","18","NA","18","0","18","NA","NA","NA","18","0","0","NA","NA","18","18","18","18","18","19","z","Tue Jun 27 19:20:05 2023","Executes Python code","yes","m21-ba-lexicalDecision.osexp","C:\Users\emoore8\Desktop\m21_vsl-main","no","mono","no","18","no","white","no","yes","1080","legacy","18","18","C:/Users/emoore8/Desktop/m21_vsl-main/subject-212.csv","xpyriment","Lentiform Loewenfeld","3.3.11","0","/","NA","NA","NA","NA","space","/","498","NA","NA","NA","NA","27332","498","2","legacy","1024","2","48000","-16","AB_m21","212","even","NW_L_COMP","BOIL","1567","109551","107886","104617","29069","NA","NA","NA","NA","NA","108386","NA","NA","NA","107386","NA","107359","1736","109951","NA","NA","NA","108426","1567","1725","NA","NA","108925","108948","107359","108386","108406","morph21_Oliver/Morris","14","15279","19","yes","1920","18"
"400","","70","70","823.95","823.95","black","no","xpyriment","legacy","legacy","0","203","NA","uniform","NA","NA","NA","0","undefined","0","0","19","19","19","0","19","19","19","NA","0","19","NA","NA","0","19","NA","19","0","19","NA","NA","NA","19","0","0","NA","NA","19","19","19","19","19","20","z","Tue Jun 27 19:20:05 2023","Executes Python code","yes","m21-ba-lexicalDecision.osexp","C:\Users\emoore8\Desktop\m21_vsl-main","no","mono","no","18","no","white","no","yes","1080","legacy","19","19","C:/Users/emoore8/Desktop/m21_vsl-main/subject-212.csv","xpyriment","Lentiform Loewenfeld","3.3.11","0","None","NA","NA","NA","NA","space","None","1200","NA","NA","NA","NA","27332","1200","2","legacy","1024","2","48000","-16","AB_m21","212","even","NW_S_COMP","TRUENELS","1567","113822","111453","104617","29069","NA","NA","NA","NA","NA","111953","NA","NA","NA","110952","NA","110927","1736","114222","NA","NA","NA","111994","1567","1725","NA","NA","113194","113218","110927","111953","111974","morph21_Oliver/Morris","14","16479","20","yes","1920","15"
"200","","71.42857142857143","71.42857142857143","809.1428571428571","809.1428571428571","black","no","xpyriment","legacy","legacy","0","207","NA","uniform","NA","NA","NA","1","undefined","1","0","20","20","20","0","20","20","20","NA","0","20","NA","NA","0","20","NA","20","0","20","NA","NA","NA","20","0","0","NA","NA","20","20","20","20","20","21","/","Tue Jun 27 19:20:05 2023","Executes Python code","yes","m21-ba-lexicalDecision.osexp","C:\Users\emoore8\Desktop\m21_vsl-main","no","mono","no","18","no","white","no","yes","1080","legacy","20","20","C:/Users/emoore8/Desktop/m21_vsl-main/subject-212.csv","xpyriment","Lentiform Loewenfeld","3.3.11","0","/","NA","NA","NA","NA","space","/","513","NA","NA","NA","NA","27332","513","2","legacy","1024","2","48000","-16","AB_m21","212","even","FILL_W","OLD","1567","118916","115727","117410","29069","NA","NA","NA","NA","NA","116228","NA","NA","NA","115226","NA","115199","1736","119116","NA","NA","NA","116268","1567","1725","NA","NA","116781","116805","115199","116227","116248","morph21_Oliver/Morris","15","16992","21","yes","1920","44"
"200","","68.18181818181819","68.18181818181819","814.5909090909091","814.5909090909091","black","no","xpyriment","legacy","legacy","0","208","NA","uniform","NA","NA","NA","0","undefined","0","0","21","21","21","0","21","21","21","NA","0","21","NA","NA","0","21","NA","21","0","21","NA","NA","NA","21","0","0","NA","NA","21","21","21","21","21","22","z","Tue Jun 27 19:20:05 2023","Executes Python code","yes","m21-ba-lexicalDecision.osexp","C:\Users\emoore8\Desktop\m21_vsl-main","no","mono","no","18","no","white","no","yes","1080","legacy","21","21","C:/Users/emoore8/Desktop/m21_vsl-main/subject-212.csv","xpyriment","Lentiform Loewenfeld","3.3.11","0","/","NA","NA","NA","NA","space","/","929","NA","NA","NA","NA","27332","929","2","legacy","1024","2","48000","-16","AB_m21","212","even","FILL_NW","SMADE","1567","122720","120621","117410","29069","NA","NA","NA","NA","NA","121122","NA","NA","NA","120121","NA","120095","1736","122921","NA","NA","NA","121163","1567","1725","NA","NA","122093","122116","120095","121122","121142","morph21_Oliver/Morris","15","17921","22","yes","1920","42"
"350","","69.56521739130434","69.56521739130434","811.8695652173913","811.8695652173913","black","no","xpyriment","legacy","legacy","0","202","NA","uniform","NA","NA","NA","1","undefined","1","0","22","22","22","0","22","22","22","NA","0","22","NA","NA","0","22","NA","22","0","22","NA","NA","NA","22","0","0","NA","NA","22","22","22","22","22","23","/","Tue Jun 27 19:20:05 2023","Executes Python code","yes","m21-ba-lexicalDecision.osexp","C:\Users\emoore8\Desktop\m21_vsl-main","no","mono","no","18","no","white","no","yes","1080","legacy","22","22","C:/Users/emoore8/Desktop/m21_vsl-main/subject-212.csv","xpyriment","Lentiform Loewenfeld","3.3.11","0","/","NA","NA","NA","NA","space","/","752","NA","NA","NA","NA","27332","752","2","legacy","1024","2","48000","-16","AB_m21","212","even","CW_L","KICKING","1567","126353","124433","117410","29069","NA","NA","NA","NA","NA","124933","NA","NA","NA","123933","NA","123903","1736","126703","NA","NA","NA","124973","1567","1725","NA","NA","125725","125750","123903","124933","124953","morph21_Oliver/Morris","16","18673","23","yes","1920","23"
"250","","66.66666666666667","66.66666666666667","828.0416666666666","828.0416666666666","black","no","xpyriment","legacy","legacy","0","207","NA","uniform","NA","NA","NA","0","undefined","0","0","23","23","23","0","23","23","23","NA","0","23","NA","NA","0","23","NA","23","0","23","NA","NA","NA","23","0","0","NA","NA","23","23","23","23","23","24","/","Tue Jun 27 19:20:05 2023","Executes Python code","yes","m21-ba-lexicalDecision.osexp","C:\Users\emoore8\Desktop\m21_vsl-main","no","mono","no","18","no","white","no","yes","1080","legacy","23","23","C:/Users/emoore8/Desktop/m21_vsl-main/subject-212.csv","xpyriment","Lentiform Loewenfeld","3.3.11","0","None","NA","NA","NA","NA","space","None","1200","NA","NA","NA","NA","27332","1200","2","legacy","1024","2","48000","-16","AB_m21","212","even","FILL_W","SPLICE","1567","132072","128200","130567","29069","NA","NA","NA","NA","NA","128700","NA","NA","NA","127700","NA","127677","1736","132322","NA","NA","NA","128740","1567","1725","NA","NA","129940","129964","127677","128700","128720","morph21_Oliver/Morris","16","19873","24","yes","1920","22"
"350","","68","68","815.8","815.8","black","no","xpyriment","legacy","legacy","0","207","NA","uniform","NA","NA","NA","1","undefined","1","0","24","24","24","0","24","24","24","NA","0","24","NA","NA","0","24","NA","24","0","24","NA","NA","NA","24","0","0","NA","NA","24","24","24","24","24","25","/","Tue Jun 27 19:20:05 2023","Executes Python code","yes","m21-ba-lexicalDecision.osexp","C:\Users\emoore8\Desktop\m21_vsl-main","no","mono","no","18","no","white","no","yes","1080","legacy","24","24","C:/Users/emoore8/Desktop/m21_vsl-main/subject-212.csv","xpyriment","Lentiform Loewenfeld","3.3.11","0","/","NA","NA","NA","NA","space","/","522","NA","NA","NA","NA","27332","522","2","legacy","1024","2","48000","-16","AB_m21","212","even","FILL_W","LIFT","1567","135528","133837","130567","29069","NA","NA","NA","NA","NA","134337","NA","NA","NA","133335","NA","133311","1736","135878","NA","NA","NA","134378","1567","1725","NA","NA","134900","134925","133311","134337","134358","morph21_Oliver/Morris","17","20395","25","yes","1920","39"
"400","","65.38461538461539","65.38461538461539","830.5769230769231","830.5769230769231","black","no","xpyriment","legacy","legacy","0","208","NA","uniform","NA","NA","NA","0","undefined","0","0","25","25","25","0","25","25","25","NA","0","25","NA","NA","0","25","NA","25","0","25","NA","NA","NA","25","0","0","NA","NA","25","25","25","25","25","26","z","Tue Jun 27 19:20:05 2023","Executes Python code","yes","m21-ba-lexicalDecision.osexp","C:\Users\emoore8\Desktop\m21_vsl-main","no","mono","no","18","no","white","no","yes","1080","legacy","25","25","C:/Users/emoore8/Desktop/m21_vsl-main/subject-212.csv","xpyriment","Lentiform Loewenfeld","3.3.11","0","None","NA","NA","NA","NA","space","None","1200","NA","NA","NA","NA","27332","1200","2","legacy","1024","2","48000","-16","AB_m21","212","even","FILL_NW","VELT","1567","139784","137417","130567","29069","NA","NA","NA","NA","NA","137917","NA","NA","NA","136915","NA","136891","1736","140184","NA","NA","NA","137958","1567","1725","NA","NA","139158","139181","136891","137917","137938","morph21_Oliver/Morris","17","21595","26","yes","1920","46"
"350","","66.66666666666667","66.66666666666667","824.7777777777778","824.7777777777778","black","no","xpyriment","legacy","legacy","0","201","NA","uniform","NA","NA","NA","1","undefined","1","0","26","26","26","0","26","26","26","NA","0","26","NA","NA","0","26","NA","26","0","26","NA","NA","NA","26","0","0","NA","NA","26","26","26","26","26","27","/","Tue Jun 27 19:20:05 2023","Executes Python code","yes","m21-ba-lexicalDecision.osexp","C:\Users\emoore8\Desktop\m21_vsl-main","no","mono","no","18","no","white","no","yes","1080","legacy","26","26","C:/Users/emoore8/Desktop/m21_vsl-main/subject-212.csv","xpyriment","Lentiform Loewenfeld","3.3.11","0","/","NA","NA","NA","NA","space","/","674","NA","NA","NA","NA","27332","674","2","legacy","1024","2","48000","-16","AB_m21","212","even","CW_S","RICHNESS","1567","145032","141685","143529","29069","NA","NA","NA","NA","NA","142186","NA","NA","NA","141184","NA","141158","1736","145382","NA","NA","NA","142227","1567","1725","NA","NA","142901","142925","141158","142186","142207","morph21_Oliver/Morris","18","22269","27","yes","1920","45"
"200","","64.28571428571429","64.28571428571429","838.1785714285714","838.1785714285714","black","no","xpyriment","legacy","legacy","0","206","NA","uniform","NA","NA","NA","0","undefined","0","0","27","27","27","0","27","27","27","NA","0","27","NA","NA","0","27","NA","27","0","27","NA","NA","NA","27","0","0","NA","NA","27","27","27","27","27","28","z","Tue Jun 27 19:20:05 2023","Executes Python code","yes","m21-ba-lexicalDecision.osexp","C:\Users\emoore8\Desktop\m21_vsl-main","no","mono","no","18","no","white","no","yes","1080","legacy","27","27","C:/Users/emoore8/Desktop/m21_vsl-main/subject-212.csv","xpyriment","Lentiform Loewenfeld","3.3.11","0","None","NA","NA","NA","NA","space","None","1200","NA","NA","NA","NA","27332","1200","2","legacy","1024","2","48000","-16","AB_m21","212","even","NW_L_SIMP","TOWERLY","1567","149251","146882","143529","29069","NA","NA","NA","NA","NA","147382","NA","NA","NA","146380","NA","146355","1736","149451","NA","NA","NA","147423","1567","1725","NA","NA","148623","148647","146355","147382","147403","morph21_Oliver/Morris","18","23469","28","yes","1920","15"
"250","","65.51724137931035","65.51724137931035","833.4827586206897","833.4827586206897","black","no","xpyriment","legacy","legacy","0","202","NA","uniform","NA","NA","NA","1","undefined","1","0","28","28","28","0","28","28","28","NA","0","28","NA","NA","0","28","NA","28","0","28","NA","NA","NA","28","0","0","NA","NA","28","28","28","28","28","29","/","Tue Jun 27 19:20:05 2023","Executes Python code","yes","m21-ba-lexicalDecision.osexp","C:\Users\emoore8\Desktop\m21_vsl-main","no","mono","no","18","no","white","no","yes","1080","legacy","28","28","C:/Users/emoore8/Desktop/m21_vsl-main/subject-212.csv","xpyriment","Lentiform Loewenfeld","3.3.11","0","/","NA","NA","NA","NA","space","/","702","NA","NA","NA","NA","27332","702","2","legacy","1024","2","48000","-16","AB_m21","212","even","CW_L","DANCER","1567","152831","150961","143529","29069","NA","NA","NA","NA","NA","151461","NA","NA","NA","150460","NA","150434","1736","153082","NA","NA","NA","151502","1567","1725","NA","NA","152204","152228","150434","151461","151482","morph21_Oliver/Morris","19","24171","29","yes","1920","11"
"300","","63.333333333333336","63.333333333333336","829.8666666666667","829.8666666666667","black","no","xpyriment","legacy","legacy","0","206","NA","uniform","NA","NA","NA","0","undefined","0","0","29","29","29","0","29","29","29","NA","0","29","NA","NA","0","29","NA","29","0","29","NA","NA","NA","29","0","0","NA","NA","29","29","29","29","29","30","z","Tue Jun 27 19:20:05 2023","Executes Python code","yes","m21-ba-lexicalDecision.osexp","C:\Users\emoore8\Desktop\m21_vsl-main","no","mono","no","18","no","white","no","yes","1080","legacy","29","29","C:/Users/emoore8/Desktop/m21_vsl-main/subject-212.csv","xpyriment","Lentiform Loewenfeld","3.3.11","0","/","NA","NA","NA","NA","space","/","725","NA","NA","NA","NA","27332","725","2","legacy","1024","2","48000","-16","AB_m21","212","even","NW_L_SIMP","TAXFUL","1567","157998","154603","156495","29069","NA","NA","NA","NA","NA","155103","NA","NA","NA","154103","NA","154074","1736","158298","NA","NA","NA","155143","1567","1725","NA","NA","155869","155892","154074","155103","155123","morph21_Oliver/Morris","19","24896","30","yes","1920","6"
"350","","64.51612903225806","64.51612903225806","820.5483870967741","820.5483870967741","black","no","xpyriment","legacy","legacy","0","207","NA","uniform","NA","NA","NA","1","undefined","1","0","30","30","30","0","30","30","30","NA","0","30","NA","NA","0","30","NA","30","0","30","NA","NA","NA","30","0","0","NA","NA","30","30","30","30","30","31","/","Tue Jun 27 19:20:05 2023","Executes Python code","yes","m21-ba-lexicalDecision.osexp","C:\Users\emoore8\Desktop\m21_vsl-main","no","mono","no","18","no","white","no","yes","1080","legacy","30","30","C:/Users/emoore8/Desktop/m21_vsl-main/subject-212.csv","xpyriment","Lentiform Loewenfeld","3.3.11","0","/","NA","NA","NA","NA","space","/","541","NA","NA","NA","NA","27332","541","2","legacy","1024","2","48000","-16","AB_m21","212","even","FILL_W","GLOOM","1567","161520","159809","156495","29069","NA","NA","NA","NA","NA","160311","NA","NA","NA","159308","NA","159283","1736","161870","NA","NA","NA","160351","1567","1725","NA","NA","160892","160917","159283","160311","160331","morph21_Oliver/Morris","20","25437","31","yes","1920","14"
"400","","62.5","62.5","822.25","822.25","black","no","xpyriment","legacy","legacy","0","205","NA","uniform","NA","NA","NA","0","undefined","0","0","31","31","31","0","31","31","31","NA","0","31","NA","NA","0","31","NA","31","0","31","NA","NA","NA","31","0","0","NA","NA","31","31","31","31","31","32","z","Tue Jun 27 19:20:05 2023","Executes Python code","yes","m21-ba-lexicalDecision.osexp","C:\Users\emoore8\Desktop\m21_vsl-main","no","mono","no","18","no","white","no","yes","1080","legacy","31","31","C:/Users/emoore8/Desktop/m21_vsl-main/subject-212.csv","xpyriment","Lentiform Loewenfeld","3.3.11","0","/","NA","NA","NA","NA","space","/","875","NA","NA","NA","NA","27332","875","2","legacy","1024","2","48000","-16","AB_m21","212","even","NW_S_SIMP","URNIST","1567","165423","163380","156495","29069","NA","NA","NA","NA","NA","163880","NA","NA","NA","162880","NA","162854","1736","165823","NA","NA","NA","163921","1567","1725","NA","NA","164797","164820","162854","163880","163901","morph21_Oliver/Morris","20","26312","32","yes","1920","5"
"350","","63.63636363636363","63.63636363636363","821.969696969697","821.969696969697","black","no","xpyriment","legacy","legacy","0","201","NA","uniform","NA","NA","NA","1","undefined","1","0","32","32","32","0","32","32","32","NA","0","32","NA","NA","0","32","NA","32","0","32","NA","NA","NA","32","0","0","NA","NA","32","32","32","32","32","33","/","Tue Jun 27 19:20:05 2023","Executes Python code","yes","m21-ba-lexicalDecision.osexp","C:\Users\emoore8\Desktop\m21_vsl-main","no","mono","no","18","no","white","no","yes","1080","legacy","32","32","C:/Users/emoore8/Desktop/m21_vsl-main/subject-212.csv","xpyriment","Lentiform Loewenfeld","3.3.11","0","/","NA","NA","NA","NA","space","/","813","NA","NA","NA","NA","27332","813","2","legacy","1024","2","48000","-16","AB_m21","212","even","CW_S","NEATLY","1567","170833","167346","169328","29069","NA","NA","NA","NA","NA","167847","NA","NA","NA","166844","NA","166819","1736","171184","NA","NA","NA","167887","1567","1725","NA","NA","168700","168725","166819","167847","167867","morph21_Oliver/Morris","21","27125","33","yes","1920","33"
"300","","64.70588235294117","64.70588235294117","819.4705882352941","819.4705882352941","black","no","xpyriment","legacy","legacy","0","208","NA","uniform","NA","NA","NA","1","undefined","1","0","33","33","33","0","33","33","33","NA","0","33","NA","NA","0","33","NA","33","0","33","NA","NA","NA","33","0","0","NA","NA","33","33","33","33","33","34","z","Tue Jun 27 19:20:05 2023","Executes Python code","yes","m21-ba-lexicalDecision.osexp","C:\Users\emoore8\Desktop\m21_vsl-main","no","mono","no","18","no","white","no","yes","1080","legacy","33","33","C:/Users/emoore8/Desktop/m21_vsl-main/subject-212.csv","xpyriment","Lentiform Loewenfeld","3.3.11","0","z","NA","NA","NA","NA","space","z","737","NA","NA","NA","NA","27332","737","2","legacy","1024","2","48000","-16","AB_m21","212","even","FILL_NW","VOGS","1567","174632","172726","169328","29069","NA","NA","NA","NA","NA","173226","NA","NA","NA","172225","NA","172199","1736","174933","NA","NA","NA","173267","1567","1725","NA","NA","174005","174029","172199","173226","173247","morph21_Oliver/Morris","22","27862","34","yes","1920","47"
"350","","65.71428571428571","65.71428571428571","814.5142857142857","814.5142857142857","black","no","xpyriment","legacy","legacy","0","202","NA","uniform","NA","NA","NA","1","undefined","1","0","34","34","34","0","34","34","34","NA","0","34","NA","NA","0","34","NA","34","0","34","NA","NA","NA","34","0","0","NA","NA","34","34","34","34","34","35","/","Tue Jun 27 19:20:05 2023","Executes Python code","yes","m21-ba-lexicalDecision.osexp","C:\Users\emoore8\Desktop\m21_vsl-main","no","mono","no","18","no","white","no","yes","1080","legacy","34","34","C:/Users/emoore8/Desktop/m21_vsl-main/subject-212.csv","xpyriment","Lentiform Loewenfeld","3.3.11","0","/","NA","NA","NA","NA","space","/","646","NA","NA","NA","NA","27332","646","2","legacy","1024","2","48000","-16","AB_m21","212","even","CW_L","GUARDING","1567","178249","176433","169328","29069","NA","NA","NA","NA","NA","176933","NA","NA","NA","175932","NA","175908","1736","178599","NA","NA","NA","176974","1567","1725","NA","NA","177621","177646","175908","176933","176954","morph21_Oliver/Morris","23","28508","35","yes","1920","26"
"400","","66.66666666666667","66.66666666666667","822.8055555555555","822.8055555555555","black","no","xpyriment","legacy","legacy","0","208","NA","uniform","NA","NA","NA","1","undefined","1","0","35","35","35","0","35","35","35","NA","0","35","NA","NA","0","35","NA","35","0","35","NA","NA","NA","35","0","0","NA","NA","35","35","35","35","35","36","z","Tue Jun 27 19:20:05 2023","Executes Python code","yes","m21-ba-lexicalDecision.osexp","C:\Users\emoore8\Desktop\m21_vsl-main","no","mono","no","18","no","white","no","yes","1080","legacy","35","35","C:/Users/emoore8/Desktop/m21_vsl-main/subject-212.csv","xpyriment","Lentiform Loewenfeld","3.3.11","0","z","NA","NA","NA","NA","space","z","1113","NA","NA","NA","NA","27332","1113","2","legacy","1024","2","48000","-16","AB_m21","212","even","FILL_NW","BORMS","1567","183904","180117","182399","29069","NA","NA","NA","NA","NA","180618","NA","NA","NA","179617","NA","179590","1736","184304","NA","NA","NA","180659","1567","1725","NA","NA","181773","181796","179590","180618","180639","morph21_Oliver/Morris","24","29621","36","yes","1920","50"
"400","","64.86486486486487","64.86486486486487","833","833","black","no","xpyriment","legacy","legacy","0","206","NA","uniform","NA","NA","NA","0","undefined","0","0","36","36","36","0","36","36","36","NA","0","36","NA","NA","0","36","NA","36","0","36","NA","NA","NA","36","0","0","NA","NA","36","36","36","36","36","37","z","Tue Jun 27 19:20:05 2023","Executes Python code","yes","m21-ba-lexicalDecision.osexp","C:\Users\emoore8\Desktop\m21_vsl-main","no","mono","no","18","no","white","no","yes","1080","legacy","36","36","C:/Users/emoore8/Desktop/m21_vsl-main/subject-212.csv","xpyriment","Lentiform Loewenfeld","3.3.11","0","None","NA","NA","NA","NA","space","None","1200","NA","NA","NA","NA","27332","1200","2","legacy","1024","2","48000","-16","AB_m21","212","even","NW_L_SIMP","POORITY","1567","188210","185840","182399","29069","NA","NA","NA","NA","NA","186340","NA","NA","NA","185339","NA","185314","1736","188610","NA","NA","NA","186381","1567","1725","NA","NA","187581","187605","185314","186340","186361","morph21_Oliver/Morris","24","30821","37","yes","1920","13"
"250","","65.78947368421052","65.78947368421052","828.3157894736842","828.3157894736842","black","no","xpyriment","legacy","legacy","0","207","NA","uniform","NA","NA","NA","1","undefined","1","0","37","37","37","0","37","37","37","NA","0","37","NA","NA","0","37","NA","37","0","37","NA","NA","NA","37","0","0","NA","NA","37","37","37","37","37","38","/","Tue Jun 27 19:20:05 2023","Executes Python code","yes","m21-ba-lexicalDecision.osexp","C:\Users\emoore8\Desktop\m21_vsl-main","no","mono","no","18","no","white","no","yes","1080","legacy","37","37","C:/Users/emoore8/Desktop/m21_vsl-main/subject-212.csv","xpyriment","Lentiform Loewenfeld","3.3.11","0","/","NA","NA","NA","NA","space","/","655","NA","NA","NA","NA","27332","655","2","legacy","1024","2","48000","-16","AB_m21","212","even","FILL_W","SLIM","1567","191960","190137","182399","29069","NA","NA","NA","NA","NA","190637","NA","NA","NA","189636","NA","189613","1736","192210","NA","NA","NA","190678","1567","1725","NA","NA","191333","191357","189613","190637","190658","morph21_Oliver/Morris","25","31476","38","yes","1920","6"
"400","","64.1025641025641","64.1025641025641","837.8461538461538","837.8461538461538","black","no","xpyriment","legacy","legacy","0","202","NA","uniform","NA","NA","NA","0","undefined","0","0","38","38","38","0","38","38","38","NA","0","38","NA","NA","0","38","NA","38","0","38","NA","NA","NA","38","0","0","NA","NA","38","38","38","38","38","39","/","Tue Jun 27 19:20:05 2023","Executes Python code","yes","m21-ba-lexicalDecision.osexp","C:\Users\emoore8\Desktop\m21_vsl-main","no","mono","no","18","no","white","no","yes","1080","legacy","38","38","C:/Users/emoore8/Desktop/m21_vsl-main/subject-212.csv","xpyriment","Lentiform Loewenfeld","3.3.11","0","None","NA","NA","NA","NA","space","None","1200","NA","NA","NA","NA","27332","1200","2","legacy","1024","2","48000","-16","AB_m21","212","even","CW_L","CONDUCTOR","1567","197598","193727","196093","29069","NA","NA","NA","NA","NA","194227","NA","NA","NA","193227","NA","193200","1736","197998","NA","NA","NA","194267","1567","1725","NA","NA","195467","195490","193200","194227","194247","morph21_Oliver/Morris","25","32676","39","yes","1920","44"
"200","","65","65","837.75","837.75","black","no","xpyriment","legacy","legacy","0","204","NA","uniform","NA","NA","NA","1","undefined","1","0","39","39","39","0","39","39","39","NA","0","39","NA","NA","0","39","NA","39","0","39","NA","NA","NA","39","0","0","NA","NA","39","39","39","39","39","40","z","Tue Jun 27 19:20:05 2023","Executes Python code","yes","m21-ba-lexicalDecision.osexp","C:\Users\emoore8\Desktop\m21_vsl-main","no","mono","no","18","no","white","no","yes","1080","legacy","39","39","C:/Users/emoore8/Desktop/m21_vsl-main/subject-212.csv","xpyriment","Lentiform Loewenfeld","3.3.11","0","z","NA","NA","NA","NA","space","z","834","NA","NA","NA","NA","27332","834","2","legacy","1024","2","48000","-16","AB_m21","212","even","NW_L_COMP","FLIPODY","1567","201538","199533","196093","29069","NA","NA","NA","NA","NA","200033","NA","NA","NA","199033","NA","199010","1736","201738","NA","NA","NA","200074","1567","1725","NA","NA","200909","200934","199010","200033","200054","morph21_Oliver/Morris","26","33510","40","yes","1920","16"
"200","","65.85365853658537","65.85365853658537","833.4634146341464","833.4634146341464","black","no","xpyriment","legacy","legacy","0","202","NA","uniform","NA","NA","NA","1","undefined","1","0","40","40","40","0","40","40","40","NA","0","40","NA","NA","0","40","NA","40","0","40","NA","NA","NA","40","0","0","NA","NA","40","40","40","40","40","41","/","Tue Jun 27 19:20:05 2023","Executes Python code","yes","m21-ba-lexicalDecision.osexp","C:\Users\emoore8\Desktop\m21_vsl-main","no","mono","no","18","no","white","no","yes","1080","legacy","40","40","C:/Users/emoore8/Desktop/m21_vsl-main/subject-212.csv","xpyriment","Lentiform Loewenfeld","3.3.11","0","/","NA","NA","NA","NA","space","/","662","NA","NA","NA","NA","27332","662","2","legacy","1024","2","48000","-16","AB_m21","212","even","CW_L","COLLECTOR","1567","205081","203248","196093","29069","NA","NA","NA","NA","NA","203750","NA","NA","NA","202748","NA","202723","1736","205281","NA","NA","NA","203790","1567","1725","NA","NA","204453","204478","202723","203749","203770","morph21_Oliver/Morris","27","34172","41","yes","1920","46"
"250","","66.66666666666667","66.66666666666667","834.4047619047619","834.4047619047619","black","no","xpyriment","legacy","legacy","0","202","NA","uniform","NA","NA","NA","1","undefined","1","0","41","41","41","0","41","41","41","NA","0","41","NA","NA","0","41","NA","41","0","41","NA","NA","NA","41","0","0","NA","NA","41","41","41","41","41","42","/","Tue Jun 27 19:20:05 2023","Executes Python code","yes","m21-ba-lexicalDecision.osexp","C:\Users\emoore8\Desktop\m21_vsl-main","no","mono","no","18","no","white","no","yes","1080","legacy","41","41","C:/Users/emoore8/Desktop/m21_vsl-main/subject-212.csv","xpyriment","Lentiform Loewenfeld","3.3.11","0","/","NA","NA","NA","NA","space","/","873","NA","NA","NA","NA","27332","873","2","legacy","1024","2","48000","-16","AB_m21","212","even","CW_L","STRIKER","1567","210338","206790","208833","29069","NA","NA","NA","NA","NA","207290","NA","NA","NA","206288","NA","206262","1736","210588","NA","NA","NA","207331","1567","1725","NA","NA","208205","208229","206262","207290","207311","morph21_Oliver/Morris","28","35045","42","yes","1920","17"
"350","","67.44186046511628","67.44186046511628","836.9069767441861","836.9069767441861","black","no","xpyriment","legacy","legacy","0","206","NA","uniform","NA","NA","NA","1","undefined","1","0","42","42","42","0","42","42","42","NA","0","42","NA","NA","0","42","NA","42","0","42","NA","NA","NA","42","0","0","NA","NA","42","42","42","42","42","43","z","Tue Jun 27 19:20:05 2023","Executes Python code","yes","m21-ba-lexicalDecision.osexp","C:\Users\emoore8\Desktop\m21_vsl-main","no","mono","no","18","no","white","no","yes","1080","legacy","42","42","C:/Users/emoore8/Desktop/m21_vsl-main/subject-212.csv","xpyriment","Lentiform Loewenfeld","3.3.11","0","z","NA","NA","NA","NA","space","z","942","NA","NA","NA","NA","27332","942","2","legacy","1024","2","48000","-16","AB_m21","212","even","NW_L_SIMP","HABITIC","1567","214255","212144","208833","29069","NA","NA","NA","NA","NA","212646","NA","NA","NA","211642","NA","211618","1736","214605","NA","NA","NA","212686","1567","1725","NA","NA","213629","213652","211618","212645","212666","morph21_Oliver/Morris","29","35987","43","yes","1920","7"
"400","","68.18181818181819","68.18181818181819","832.8636363636364","832.8636363636364","black","no","xpyriment","legacy","legacy","0","208","NA","uniform","NA","NA","NA","1","undefined","1","0","43","43","43","0","43","43","43","NA","0","43","NA","NA","0","43","NA","43","0","43","NA","NA","NA","43","0","0","NA","NA","43","43","43","43","43","44","z","Tue Jun 27 19:20:05 2023","Executes Python code","yes","m21-ba-lexicalDecision.osexp","C:\Users\emoore8\Desktop\m21_vsl-main","no","mono","no","18","no","white","no","yes","1080","legacy","43","43","C:/Users/emoore8/Desktop/m21_vsl-main/subject-212.csv","xpyriment","Lentiform Loewenfeld","3.3.11","0","z","NA","NA","NA","NA","space","z","659","NA","NA","NA","NA","27332","659","2","legacy","1024","2","48000","-16","AB_m21","212","even","FILL_NW","BALFS","1567","217931","216101","208833","29069","NA","NA","NA","NA","NA","216601","NA","NA","NA","215601","NA","215578","1736","218331","NA","NA","NA","216642","1567","1725","NA","NA","217302","217327","215578","216601","216622","morph21_Oliver/Morris","30","36646","44","yes","1920","2"
"400","","68.88888888888889","68.88888888888889","828.7333333333333","828.7333333333333","black","no","xpyriment","legacy","legacy","0","207","NA","uniform","NA","NA","NA","1","undefined","1","0","44","44","44","0","44","44","44","NA","0","44","NA","NA","0","44","NA","44","0","44","NA","NA","NA","44","0","0","NA","NA","44","44","44","44","44","45","/","Tue Jun 27 19:20:05 2023","Executes Python code","yes","m21-ba-lexicalDecision.osexp","C:\Users\emoore8\Desktop\m21_vsl-main","no","mono","no","18","no","white","no","yes","1080","legacy","44","44","C:/Users/emoore8/Desktop/m21_vsl-main/subject-212.csv","xpyriment","Lentiform Loewenfeld","3.3.11","0","/","NA","NA","NA","NA","space","/","647","NA","NA","NA","NA","27332","647","2","legacy","1024","2","48000","-16","AB_m21","212","even","FILL_W","EAT","1567","223166","219846","221663","29069","NA","NA","NA","NA","NA","220348","NA","NA","NA","219344","NA","219320","1736","223566","NA","NA","NA","220389","1567","1725","NA","NA","221036","221060","219320","220348","220369","morph21_Oliver/Morris","31","37293","45","yes","1920","25"
"350","","69.56521739130434","69.56521739130434","828.8913043478261","828.8913043478261","black","no","xpyriment","legacy","legacy","0","208","NA","uniform","NA","NA","NA","1","undefined","1","0","45","45","45","0","45","45","45","NA","0","45","NA","NA","0","45","NA","45","0","45","NA","NA","NA","45","0","0","NA","NA","45","45","45","45","45","46","z","Tue Jun 27 19:20:05 2023","Executes Python code","yes","m21-ba-lexicalDecision.osexp","C:\Users\emoore8\Desktop\m21_vsl-main","no","mono","no","18","no","white","no","yes","1080","legacy","45","45","C:/Users/emoore8/Desktop/m21_vsl-main/subject-212.csv","xpyriment","Lentiform Loewenfeld","3.3.11","0","z","NA","NA","NA","NA","space","z","836","NA","NA","NA","NA","27332","836","2","legacy","1024","2","48000","-16","AB_m21","212","even","FILL_NW","JADS","1567","227089","225083","221663","29069","NA","NA","NA","NA","NA","225584","NA","NA","NA","224582","NA","224556","1736","227439","NA","NA","NA","225624","1567","1725","NA","NA","226461","226485","224556","225584","225604","morph21_Oliver/Morris","32","38129","46","yes","1920","31"
"250","","70.2127659574468","70.2127659574468","829.468085106383","829.468085106383","black","no","xpyriment","legacy","legacy","0","206","NA","uniform","NA","NA","NA","1","undefined","1","0","46","46","46","0","46","46","46","NA","0","46","NA","NA","0","46","NA","46","0","46","NA","NA","NA","46","0","0","NA","NA","46","46","46","46","46","47","z","Tue Jun 27 19:20:05 2023","Executes Python code","yes","m21-ba-lexicalDecision.osexp","C:\Users\emoore8\Desktop\m21_vsl-main","no","mono","no","18","no","white","no","yes","1080","legacy","46","46","C:/Users/emoore8/Desktop/m21_vsl-main/subject-212.csv","xpyriment","Lentiform Loewenfeld","3.3.11","0","z","NA","NA","NA","NA","space","z","856","NA","NA","NA","NA","27332","856","2","legacy","1024","2","48000","-16","AB_m21","212","even","NW_L_SIMP"," DRESSORY","1567","230968","228942","221663","29069","NA","NA","NA","NA","NA","229445","NA","NA","NA","228441","NA","228418","1736","231218","NA","NA","NA","229485","1567","1725","NA","NA","230342","230365","228418","229445","229465","morph21_Oliver/Morris","33","38985","47","yes","1920","21"
"300","","68.75","68.75","837.1875","837.1875","black","no","xpyriment","legacy","legacy","0","204","NA","uniform","NA","NA","NA","0","undefined","0","0","47","47","47","0","47","47","47","NA","0","47","NA","NA","0","47","NA","47","0","47","NA","NA","NA","47","0","0","NA","NA","47","47","47","47","47","48","z","Tue Jun 27 19:20:05 2023","Executes Python code","yes","m21-ba-lexicalDecision.osexp","C:\Users\emoore8\Desktop\m21_vsl-main","no","mono","no","18","no","white","no","yes","1080","legacy","47","47","C:/Users/emoore8/Desktop/m21_vsl-main/subject-212.csv","xpyriment","Lentiform Loewenfeld","3.3.11","0","None","NA","NA","NA","NA","space","None","1200","NA","NA","NA","NA","27332","1200","2","legacy","1024","2","48000","-16","AB_m21","212","even","NW_L_COMP","BINDIG","1567","236648","232772","235142","29069","NA","NA","NA","NA","NA","233273","NA","NA","NA","232270","NA","232246","1736","236948","NA","NA","NA","233314","1567","1725","NA","NA","234514","234538","232246","233273","233294","morph21_Oliver/Morris","33","40185","48","yes","1920","22"
"200","","69.38775510204081","69.38775510204081","837.5714285714286","837.5714285714286","black","no","xpyriment","legacy","legacy","0","205","NA","uniform","NA","NA","NA","1","undefined","1","0","48","48","48","0","48","48","48","NA","0","48","NA","NA","0","48","NA","48","0","48","NA","NA","NA","48","0","0","NA","NA","48","48","48","48","48","49","z","Tue Jun 27 19:20:05 2023","Executes Python code","yes","m21-ba-lexicalDecision.osexp","C:\Users\emoore8\Desktop\m21_vsl-main","no","mono","no","18","no","white","no","yes","1080","legacy","48","48","C:/Users/emoore8/Desktop/m21_vsl-main/subject-212.csv","xpyriment","Lentiform Loewenfeld","3.3.11","0","z","NA","NA","NA","NA","space","z","856","NA","NA","NA","NA","27332","856","2","legacy","1024","2","48000","-16","AB_m21","212","even","NW_S_SIMP","JAWLY","1567","240514","238487","235142","29069","NA","NA","NA","NA","NA","238987","NA","NA","NA","237987","NA","237959","1736","240714","NA","NA","NA","239028","1567","1725","NA","NA","239884","239910","237959","238987","239008","morph21_Oliver/Morris","34","41041","49","yes","1920","7"
"350","","70","70","833.48","833.48","black","no","xpyriment","legacy","legacy","0","201","NA","uniform","NA","NA","NA","1","undefined","1","0","49","49","49","0","49","49","49","NA","0","49","NA","NA","0","49","NA","49","0","49","NA","NA","NA","49","0","0","NA","NA","49","49","49","49","49","50","/","Tue Jun 27 19:20:05 2023","Executes Python code","yes","m21-ba-lexicalDecision.osexp","C:\Users\emoore8\Desktop\m21_vsl-main","no","mono","no","18","no","white","no","yes","1080","legacy","49","49","C:/Users/emoore8/Desktop/m21_vsl-main/subject-212.csv","xpyriment","Lentiform Loewenfeld","3.3.11","0","/","NA","NA","NA","NA","space","/","633","NA","NA","NA","NA","27332","633","2","legacy","1024","2","48000","-16","AB_m21","212","even","CW_S","BOSSY","1567","244032","242230","235142","29069","NA","NA","NA","NA","NA","242730","NA","NA","NA","241729","NA","241702","1736","244382","NA","NA","NA","242771","1567","1725","NA","NA","243406","243429","241702","242730","242751","morph21_Oliver/Morris","35","41674","50","yes","1920","49"
"200","","70.58823529411765","70.58823529411765","830.3137254901961","830.3137254901961","black","no","xpyriment","legacy","legacy","0","207","NA","uniform","NA","NA","NA","1","undefined","1","0","50","50","50","0","50","50","50","NA","0","50","NA","NA","0","50","NA","50","0","50","NA","NA","NA","50","0","0","NA","NA","50","50","50","50","50","51","/","Tue Jun 27 19:20:05 2023","Executes Python code","yes","m21-ba-lexicalDecision.osexp","C:\Users\emoore8\Desktop\m21_vsl-main","no","mono","no","18","no","white","no","yes","1080","legacy","50","50","C:/Users/emoore8/Desktop/m21_vsl-main/subject-212.csv","xpyriment","Lentiform Loewenfeld","3.3.11","0","/","NA","NA","NA","NA","space","/","672","NA","NA","NA","NA","27332","672","2","legacy","1024","2","48000","-16","AB_m21","212","even","FILL_W","BRASS","1567","249231","245888","247728","29069","NA","NA","NA","NA","NA","246388","NA","NA","NA","245388","NA","245362","1736","249431","NA","NA","NA","246428","1567","1725","NA","NA","247101","247125","245362","246388","246408","morph21_Oliver/Morris","36","42346","51","yes","1920","10"
"350","","71.15384615384616","71.15384615384616","830.1538461538462","830.1538461538462","black","no","xpyriment","legacy","legacy","0","203","NA","uniform","NA","NA","NA","1","undefined","1","0","51","51","51","0","51","51","51","NA","0","51","NA","NA","0","51","NA","51","0","51","NA","NA","NA","51","0","0","NA","NA","51","51","51","51","51","52","z","Tue Jun 27 19:20:05 2023","Executes Python code","yes","m21-ba-lexicalDecision.osexp","C:\Users\emoore8\Desktop\m21_vsl-main","no","mono","no","18","no","white","no","yes","1080","legacy","51","51","C:/Users/emoore8/Desktop/m21_vsl-main/subject-212.csv","xpyriment","Lentiform Loewenfeld","3.3.11","0","z","NA","NA","NA","NA","space","z","822","NA","NA","NA","NA","27332","822","2","legacy","1024","2","48000","-16","AB_m21","212","even","NW_S_COMP","WELDIG","1567","252953","250961","247728","29069","NA","NA","NA","NA","NA","251461","NA","NA","NA","250460","NA","250432","1736","253303","NA","NA","NA","251502","1567","1725","NA","NA","252325","252349","250432","251461","251482","morph21_Oliver/Morris","37","43168","52","yes","1920","21"
"300","","71.69811320754717","71.69811320754717","827.2264150943396","827.2264150943396","black","no","xpyriment","legacy","legacy","0","204","NA","uniform","NA","NA","NA","1","undefined","1","0","52","52","52","0","52","52","52","NA","0","52","NA","NA","0","52","NA","52","0","52","NA","NA","NA","52","0","0","NA","NA","52","52","52","52","52","53","z","Tue Jun 27 19:20:05 2023","Executes Python code","yes","m21-ba-lexicalDecision.osexp","C:\Users\emoore8\Desktop\m21_vsl-main","no","mono","no","18","no","white","no","yes","1080","legacy","52","52","C:/Users/emoore8/Desktop/m21_vsl-main/subject-212.csv","xpyriment","Lentiform Loewenfeld","3.3.11","0","z","NA","NA","NA","NA","space","z","675","NA","NA","NA","NA","27332","675","2","legacy","1024","2","48000","-16","AB_m21","212","even","NW_L_COMP","SHEETEL","1567","256657","254813","247728","29069","NA","NA","NA","NA","NA","255314","NA","NA","NA","254312","NA","254286","1736","256957","NA","NA","NA","255354","1567","1725","NA","NA","256029","256054","254286","255314","255334","morph21_Oliver/Morris","38","43843","53","yes","1920","5"
"400","","72.22222222222223","72.22222222222223","824.5370370370371","824.5370370370371","black","no","xpyriment","legacy","legacy","0","201","NA","uniform","NA","NA","NA","1","undefined","1","0","53","53","53","0","53","53","53","NA","0","53","NA","NA","0","53","NA","53","0","53","NA","NA","NA","53","0","0","NA","NA","53","53","53","53","53","54","/","Tue Jun 27 19:20:05 2023","Executes Python code","yes","m21-ba-lexicalDecision.osexp","C:\Users\emoore8\Desktop\m21_vsl-main","no","mono","no","18","no","white","no","yes","1080","legacy","53","53","C:/Users/emoore8/Desktop/m21_vsl-main/subject-212.csv","xpyriment","Lentiform Loewenfeld","3.3.11","0","/","NA","NA","NA","NA","space","/","682","NA","NA","NA","NA","27332","682","2","legacy","1024","2","48000","-16","AB_m21","212","even","CW_S","DESIGN","1567","261824","258469","260320","29069","NA","NA","NA","NA","NA","258969","NA","NA","NA","257969","NA","257939","1736","262224","NA","NA","NA","259010","1567","1725","NA","NA","259693","259716","257939","258969","258990","morph21_Oliver/Morris","39","44525","54","yes","1920","19"
"400","","72.72727272727273","72.72727272727273","821.9090909090909","821.9090909090909","black","no","xpyriment","legacy","legacy","0","204","NA","uniform","NA","NA","NA","1","undefined","1","0","54","54","54","0","54","54","54","NA","0","54","NA","NA","0","54","NA","54","0","54","NA","NA","NA","54","0","0","NA","NA","54","54","54","54","54","55","z","Tue Jun 27 19:20:05 2023","Executes Python code","yes","m21-ba-lexicalDecision.osexp","C:\Users\emoore8\Desktop\m21_vsl-main","no","mono","no","18","no","white","no","yes","1080","legacy","54","54","C:/Users/emoore8/Desktop/m21_vsl-main/subject-212.csv","xpyriment","Lentiform Loewenfeld","3.3.11","0","z","NA","NA","NA","NA","space","z","680","NA","NA","NA","NA","27332","680","2","legacy","1024","2","48000","-16","AB_m21","212","even","NW_L_COMP","FLITENGE","1567","265600","263752","260320","29069","NA","NA","NA","NA","NA","264253","NA","NA","NA","263252","NA","263226","1736","266000","NA","NA","NA","264293","1567","1725","NA","NA","264973","264997","263226","264253","264273","morph21_Oliver/Morris","40","45205","55","yes","1920","3"
"200","","71.42857142857143","71.42857142857143","828.1964285714286","828.1964285714286","black","no","xpyriment","legacy","legacy","0","208","NA","uniform","NA","NA","NA","0","undefined","0","0","55","55","55","0","55","55","55","NA","0","55","NA","NA","0","55","NA","55","0","55","NA","NA","NA","55","0","0","NA","NA","55","55","55","55","55","56","z","Tue Jun 27 19:20:05 2023","Executes Python code","yes","m21-ba-lexicalDecision.osexp","C:\Users\emoore8\Desktop\m21_vsl-main","no","mono","no","18","no","white","no","yes","1080","legacy","55","55","C:/Users/emoore8/Desktop/m21_vsl-main/subject-212.csv","xpyriment","Lentiform Loewenfeld","3.3.11","0","/","NA","NA","NA","NA","space","/","1174","NA","NA","NA","NA","27332","1174","2","legacy","1024","2","48000","-16","AB_m21","212","even","FILL_NW","FALONS","1567","269874","267529","260320","29069","NA","NA","NA","NA","NA","268029","NA","NA","NA","267029","NA","267000","1736","270074","NA","NA","NA","268071","1567","1725","NA","NA","269245","269270","266999","268029","268051","morph21_Oliver/Morris","40","46379","56","yes","1920","19"
"350","","71.9298245614035","71.9298245614035","826.4035087719299","826.4035087719299","black","no","xpyriment","legacy","legacy","0","208","NA","uniform","NA","NA","NA","1","undefined","1","0","56","56","56","0","56","56","56","NA","0","56","NA","NA","0","56","NA","56","0","56","NA","NA","NA","56","0","0","NA","NA","56","56","56","56","56","57","z","Tue Jun 27 19:20:05 2023","Executes Python code","yes","m21-ba-lexicalDecision.osexp","C:\Users\emoore8\Desktop\m21_vsl-main","no","mono","no","18","no","white","no","yes","1080","legacy","56","56","C:/Users/emoore8/Desktop/m21_vsl-main/subject-212.csv","xpyriment","Lentiform Loewenfeld","3.3.11","0","z","NA","NA","NA","NA","space","z","726","NA","NA","NA","NA","27332","726","2","legacy","1024","2","48000","-16","AB_m21","212","even","FILL_NW","DELP","1567","274985","271585","273481","29069","NA","NA","NA","NA","NA","272086","NA","NA","NA","271084","NA","271057","1736","275335","NA","NA","NA","272126","1567","1725","NA","NA","272853","272877","271057","272086","272106","morph21_Oliver/Morris","41","47105","57","yes","1920","14"
"250","","72.41379310344827","72.41379310344827","827.2758620689655","827.2758620689655","black","no","xpyriment","legacy","legacy","0","203","NA","uniform","NA","NA","NA","1","undefined","1","0","57","57","57","0","57","57","57","NA","0","57","NA","NA","0","57","NA","57","0","57","NA","NA","NA","57","0","0","NA","NA","57","57","57","57","57","58","z","Tue Jun 27 19:20:05 2023","Executes Python code","yes","m21-ba-lexicalDecision.osexp","C:\Users\emoore8\Desktop\m21_vsl-main","no","mono","no","18","no","white","no","yes","1080","legacy","57","57","C:/Users/emoore8/Desktop/m21_vsl-main/subject-212.csv","xpyriment","Lentiform Loewenfeld","3.3.11","0","z","NA","NA","NA","NA","space","z","877","NA","NA","NA","NA","27332","877","2","legacy","1024","2","48000","-16","AB_m21","212","even","NW_S_COMP","LIDADY","1567","278915","276867","273481","29069","NA","NA","NA","NA","NA","277367","NA","NA","NA","276366","NA","276334","1736","279166","NA","NA","NA","277408","1567","1725","NA","NA","278285","278311","276334","277367","277388","morph21_Oliver/Morris","42","47982","58","yes","1920","3"
"350","","72.88135593220339","72.88135593220339","825.9491525423729","825.9491525423729","black","no","xpyriment","legacy","legacy","0","205","NA","uniform","NA","NA","NA","1","undefined","1","0","58","58","58","0","58","58","58","NA","0","58","NA","NA","0","58","NA","58","0","58","NA","NA","NA","58","0","0","NA","NA","58","58","58","58","58","59","z","Tue Jun 27 19:20:05 2023","Executes Python code","yes","m21-ba-lexicalDecision.osexp","C:\Users\emoore8\Desktop\m21_vsl-main","no","mono","no","18","no","white","no","yes","1080","legacy","58","58","C:/Users/emoore8/Desktop/m21_vsl-main/subject-212.csv","xpyriment","Lentiform Loewenfeld","3.3.11","0","z","NA","NA","NA","NA","space","z","749","NA","NA","NA","NA","27332","749","2","legacy","1024","2","48000","-16","AB_m21","212","even","NW_S_SIMP","BASKORY","1567","282593","280673","273481","29069","NA","NA","NA","NA","NA","281175","NA","NA","NA","280171","NA","280148","1736","282943","NA","NA","NA","281215","1567","1725","NA","NA","281965","281989","280148","281175","281195","morph21_Oliver/Morris","43","48731","59","yes","1920","10"
"300","","73.33333333333333","73.33333333333333","821.3","821.3","black","no","xpyriment","legacy","legacy","0","201","NA","uniform","NA","NA","NA","1","undefined","1","0","59","59","59","0","59","59","59","NA","0","59","NA","NA","0","59","NA","59","0","59","NA","NA","NA","59","0","0","NA","NA","59","59","59","59","59","60","/","Tue Jun 27 19:20:05 2023","Executes Python code","yes","m21-ba-lexicalDecision.osexp","C:\Users\emoore8\Desktop\m21_vsl-main","no","mono","no","18","no","white","no","yes","1080","legacy","59","59","C:/Users/emoore8/Desktop/m21_vsl-main/subject-212.csv","xpyriment","Lentiform Loewenfeld","3.3.11","0","/","NA","NA","NA","NA","space","/","547","NA","NA","NA","NA","27332","547","2","legacy","1024","2","48000","-16","AB_m21","212","even","CW_S","MAGICAL","1567","287663","284444","286160","29069","NA","NA","NA","NA","NA","284945","NA","NA","NA","283942","NA","283917","1736","287963","NA","NA","NA","284985","1567","1725","NA","NA","285533","285557","283917","284945","284965","morph21_Oliver/Morris","44","49278","60","yes","1920","4"
"250","","73.77049180327869","73.77049180327869","818.5573770491803","818.5573770491803","black","no","xpyriment","legacy","legacy","0","201","NA","uniform","NA","NA","NA","1","undefined","1","0","60","60","60","0","60","60","60","NA","0","60","NA","NA","0","60","NA","60","0","60","NA","NA","NA","60","0","0","NA","NA","60","60","60","60","60","61","/","Tue Jun 27 19:20:05 2023","Executes Python code","yes","m21-ba-lexicalDecision.osexp","C:\Users\emoore8\Desktop\m21_vsl-main","no","mono","no","18","no","white","no","yes","1080","legacy","60","60","C:/Users/emoore8/Desktop/m21_vsl-main/subject-212.csv","xpyriment","Lentiform Loewenfeld","3.3.11","0","/","NA","NA","NA","NA","space","/","654","NA","NA","NA","NA","27332","654","2","legacy","1024","2","48000","-16","AB_m21","212","even","CW_S","MILDNESS","1567","291313","289490","286160","29069","NA","NA","NA","NA","NA","289990","NA","NA","NA","288989","NA","288963","1736","291563","NA","NA","NA","290030","1567","1725","NA","NA","290685","290708","288963","289990","290010","morph21_Oliver/Morris","45","49932","61","yes","1920","42"
"400","","74.19354838709677","74.19354838709677","813.741935483871","813.741935483871","black","no","xpyriment","legacy","legacy","0","202","NA","uniform","NA","NA","NA","1","undefined","1","0","61","61","61","0","61","61","61","NA","0","61","NA","NA","0","61","NA","61","0","61","NA","NA","NA","61","0","0","NA","NA","61","61","61","61","61","62","/","Tue Jun 27 19:20:05 2023","Executes Python code","yes","m21-ba-lexicalDecision.osexp","C:\Users\emoore8\Desktop\m21_vsl-main","no","mono","no","18","no","white","no","yes","1080","legacy","61","61","C:/Users/emoore8/Desktop/m21_vsl-main/subject-212.csv","xpyriment","Lentiform Loewenfeld","3.3.11","0","/","NA","NA","NA","NA","space","/","520","NA","NA","NA","NA","27332","520","2","legacy","1024","2","48000","-16","AB_m21","212","even","CW_L","LOCKER","1567","294759","293071","286160","29069","NA","NA","NA","NA","NA","293572","NA","NA","NA","292570","NA","292547","1736","295159","NA","NA","NA","293612","1567","1725","NA","NA","294133","294156","292547","293572","293592","morph21_Oliver/Morris","46","50452","62","yes","1920","8"
"400","","73.01587301587301","73.01587301587301","808.3492063492064","808.3492063492064","black","no","xpyriment","legacy","legacy","0","208","NA","uniform","NA","NA","NA","0","undefined","0","0","62","62","62","0","62","62","62","NA","0","62","NA","NA","0","62","NA","62","0","62","NA","NA","NA","62","0","0","NA","NA","62","62","62","62","62","63","z","Tue Jun 27 19:20:05 2023","Executes Python code","yes","m21-ba-lexicalDecision.osexp","C:\Users\emoore8\Desktop\m21_vsl-main","no","mono","no","18","no","white","no","yes","1080","legacy","62","62","C:/Users/emoore8/Desktop/m21_vsl-main/subject-212.csv","xpyriment","Lentiform Loewenfeld","3.3.11","0","/","NA","NA","NA","NA","space","/","474","NA","NA","NA","NA","27332","474","2","legacy","1024","2","48000","-16","AB_m21","212","even","FILL_NW","CORG","1567","299816","296669","298313","29069","NA","NA","NA","NA","NA","297170","NA","NA","NA","296168","NA","296141","1736","300216","NA","NA","NA","297210","1567","1725","NA","NA","297685","297709","296141","297170","297190","morph21_Oliver/Morris","46","50926","63","yes","1920","7"
"300","","73.4375","73.4375","805","805","black","no","xpyriment","legacy","legacy","0","201","NA","uniform","NA","NA","NA","1","undefined","1","0","63","63","63","0","63","63","63","NA","0","63","NA","NA","0","63","NA","63","0","63","NA","NA","NA","63","0","0","NA","NA","63","63","63","63","63","64","/","Tue Jun 27 19:20:05 2023","Executes Python code","yes","m21-ba-lexicalDecision.osexp","C:\Users\emoore8\Desktop\m21_vsl-main","no","mono","no","18","no","white","no","yes","1080","legacy","63","63","C:/Users/emoore8/Desktop/m21_vsl-main/subject-212.csv","xpyriment","Lentiform Loewenfeld","3.3.11","0","/","NA","NA","NA","NA","space","/","594","NA","NA","NA","NA","27332","594","2","legacy","1024","2","48000","-16","AB_m21","212","even","CW_S","BUYER","1567","303496","301734","298313","29069","NA","NA","NA","NA","NA","302233","NA","NA","NA","301233","NA","301210","1736","303796","NA","NA","NA","302274","1567","1725","NA","NA","302869","302893","301210","302233","302254","morph21_Oliver/Morris","47","51520","64","yes","1920","21"
"350","","73.84615384615384","73.84615384615384","801.2615384615384","801.2615384615384","black","no","xpyriment","legacy","legacy","0","202","NA","uniform","NA","NA","NA","1","undefined","1","0","64","64","64","0","64","64","64","NA","0","64","NA","NA","0","64","NA","64","0","64","NA","NA","NA","64","0","0","NA","NA","64","64","64","64","64","65","/","Tue Jun 27 19:20:05 2023","Executes Python code","yes","m21-ba-lexicalDecision.osexp","C:\Users\emoore8\Desktop\m21_vsl-main","no","mono","no","18","no","white","no","yes","1080","legacy","64","64","C:/Users/emoore8/Desktop/m21_vsl-main/subject-212.csv","xpyriment","Lentiform Loewenfeld","3.3.11","0","/","NA","NA","NA","NA","space","/","562","NA","NA","NA","NA","27332","562","2","legacy","1024","2","48000","-16","AB_m21","212","even","CW_L","HUNTER","1567","307033","305301","298313","29069","NA","NA","NA","NA","NA","305803","NA","NA","NA","304800","NA","304778","1736","307383","NA","NA","NA","305843","1567","1725","NA","NA","306406","306429","304778","305803","305823","morph21_Oliver/Morris","48","52082","65","yes","1920","10"
"350","","74.24242424242425","74.24242424242425","803.7121212121212","803.7121212121212","black","no","xpyriment","legacy","legacy","0","206","NA","uniform","NA","NA","NA","1","undefined","1","0","65","65","65","0","65","65","65","NA","0","65","NA","NA","0","65","NA","65","0","65","NA","NA","NA","65","0","0","NA","NA","65","65","65","65","65","66","z","Tue Jun 27 19:20:05 2023","Executes Python code","yes","m21-ba-lexicalDecision.osexp","C:\Users\emoore8\Desktop\m21_vsl-main","no","mono","no","18","no","white","no","yes","1080","legacy","65","65","C:/Users/emoore8/Desktop/m21_vsl-main/subject-212.csv","xpyriment","Lentiform Loewenfeld","3.3.11","0","z","NA","NA","NA","NA","space","z","963","NA","NA","NA","NA","27332","963","2","legacy","1024","2","48000","-16","AB_m21","212","even","NW_L_SIMP","CRITICANCE","1567","312538","308901","311034","29069","NA","NA","NA","NA","NA","309401","NA","NA","NA","308401","NA","308378","1736","312888","NA","NA","NA","309442","1567","1725","NA","NA","310406","310430","308378","309401","309422","morph21_Oliver/Morris","49","53045","66","yes","1920","22"
"400","","74.6268656716418","74.6268656716418","801.4776119402985","801.4776119402985","black","no","xpyriment","legacy","legacy","0","204","NA","uniform","NA","NA","NA","1","undefined","1","0","66","66","66","0","66","66","66","NA","0","66","NA","NA","0","66","NA","66","0","66","NA","NA","NA","66","0","0","NA","NA","66","66","66","66","66","67","z","Tue Jun 27 19:20:05 2023","Executes Python code","yes","m21-ba-lexicalDecision.osexp","C:\Users\emoore8\Desktop\m21_vsl-main","no","mono","no","18","no","white","no","yes","1080","legacy","66","66","C:/Users/emoore8/Desktop/m21_vsl-main/subject-212.csv","xpyriment","Lentiform Loewenfeld","3.3.11","0","z","NA","NA","NA","NA","space","z","654","NA","NA","NA","NA","27332","654","2","legacy","1024","2","48000","-16","AB_m21","212","even","NW_L_COMP","COLDIDY","1567","316240","314417","311034","29069","NA","NA","NA","NA","NA","314917","NA","NA","NA","313917","NA","313890","1736","316641","NA","NA","NA","314958","1567","1725","NA","NA","315613","315636","313890","314917","314938","morph21_Oliver/Morris","50","53699","67","yes","1920","10"
"300","","75","75","798.7647058823529","798.7647058823529","black","no","xpyriment","legacy","legacy","0","204","NA","uniform","NA","NA","NA","1","undefined","1","0","67","67","67","0","67","67","67","NA","0","67","NA","NA","0","67","NA","67","0","67","NA","NA","NA","67","0","0","NA","NA","67","67","67","67","67","68","z","Tue Jun 27 19:20:05 2023","Executes Python code","yes","m21-ba-lexicalDecision.osexp","C:\Users\emoore8\Desktop\m21_vsl-main","no","mono","no","18","no","white","no","yes","1080","legacy","67","67","C:/Users/emoore8/Desktop/m21_vsl-main/subject-212.csv","xpyriment","Lentiform Loewenfeld","3.3.11","0","z","NA","NA","NA","NA","space","z","617","NA","NA","NA","NA","27332","617","2","legacy","1024","2","48000","-16","AB_m21","212","even","NW_L_COMP","IME","1567","319935","318150","311034","29069","NA","NA","NA","NA","NA","318650","NA","NA","NA","317650","NA","317624","1736","320235","NA","NA","NA","318691","1567","1725","NA","NA","319309","319332","317624","318650","318671","morph21_Oliver/Morris","51","54316","68","yes","1920","20"
"200","","75.3623188405797","75.3623188405797","796.1594202898551","796.1594202898551","black","no","xpyriment","legacy","legacy","0","201","NA","uniform","NA","NA","NA","1","undefined","1","0","68","68","68","0","68","68","68","NA","0","68","NA","NA","0","68","NA","68","0","68","NA","NA","NA","68","0","0","NA","NA","68","68","68","68","68","69","/","Tue Jun 27 19:20:05 2023","Executes Python code","yes","m21-ba-lexicalDecision.osexp","C:\Users\emoore8\Desktop\m21_vsl-main","no","mono","no","18","no","white","no","yes","1080","legacy","68","68","C:/Users/emoore8/Desktop/m21_vsl-main/subject-212.csv","xpyriment","Lentiform Loewenfeld","3.3.11","0","/","NA","NA","NA","NA","space","/","619","NA","NA","NA","NA","27332","619","2","legacy","1024","2","48000","-16","AB_m21","212","even","CW_S","LOCALLY","1567","325055","321765","323551","29069","NA","NA","NA","NA","NA","322265","NA","NA","NA","321264","NA","321240","1736","325256","NA","NA","NA","322305","1567","1725","NA","NA","322925","322948","321240","322265","322285","morph21_Oliver/Morris","52","54935","69","yes","1920","37"
"250","","75.71428571428571","75.71428571428571","793.9571428571429","793.9571428571429","black","no","xpyriment","legacy","legacy","0","207","NA","uniform","NA","NA","NA","1","undefined","1","0","69","69","69","0","69","69","69","NA","0","69","NA","NA","0","69","NA","69","0","69","NA","NA","NA","69","0","0","NA","NA","69","69","69","69","69","70","/","Tue Jun 27 19:20:05 2023","Executes Python code","yes","m21-ba-lexicalDecision.osexp","C:\Users\emoore8\Desktop\m21_vsl-main","no","mono","no","18","no","white","no","yes","1080","legacy","69","69","C:/Users/emoore8/Desktop/m21_vsl-main/subject-212.csv","xpyriment","Lentiform Loewenfeld","3.3.11","0","/","NA","NA","NA","NA","space","/","642","NA","NA","NA","NA","27332","642","2","legacy","1024","2","48000","-16","AB_m21","212","even","FILL_W","TREAT","1567","328568","326759","323551","29069","NA","NA","NA","NA","NA","327259","NA","NA","NA","326259","NA","326231","1736","328818","NA","NA","NA","327299","1567","1725","NA","NA","327942","327965","326231","327259","327279","morph21_Oliver/Morris","53","55577","70","yes","1920","48"
"300","","74.64788732394366","74.64788732394366","792.1408450704225","792.1408450704225","black","no","xpyriment","legacy","legacy","0","205","NA","uniform","NA","NA","NA","0","undefined","0","0","70","70","70","0","70","70","70","NA","0","70","NA","NA","0","70","NA","70","0","70","NA","NA","NA","70","0","0","NA","NA","70","70","70","70","70","71","z","Tue Jun 27 19:20:05 2023","Executes Python code","yes","m21-ba-lexicalDecision.osexp","C:\Users\emoore8\Desktop\m21_vsl-main","no","mono","no","18","no","white","no","yes","1080","legacy","70","70","C:/Users/emoore8/Desktop/m21_vsl-main/subject-212.csv","xpyriment","Lentiform Loewenfeld","3.3.11","0","/","NA","NA","NA","NA","space","/","665","NA","NA","NA","NA","27332","665","2","legacy","1024","2","48000","-16","AB_m21","212","even","NW_S_SIMP","YIELDIST","1567","332152","330319","323551","29069","NA","NA","NA","NA","NA","330819","NA","NA","NA","329819","NA","329794","1736","332452","NA","NA","NA","330860","1567","1725","NA","NA","331526","331549","329794","330819","330840","morph21_Oliver/Morris","53","56242","71","yes","1920","20"
"300","","75","75","790.5416666666666","790.5416666666666","black","no","xpyriment","legacy","legacy","0","201","NA","uniform","NA","NA","NA","1","undefined","1","0","71","71","71","0","71","71","71","NA","0","71","NA","NA","0","71","NA","71","0","71","NA","NA","NA","71","0","0","NA","NA","71","71","71","71","71","72","/","Tue Jun 27 19:20:05 2023","Executes Python code","yes","m21-ba-lexicalDecision.osexp","C:\Users\emoore8\Desktop\m21_vsl-main","no","mono","no","18","no","white","no","yes","1080","legacy","71","71","C:/Users/emoore8/Desktop/m21_vsl-main/subject-212.csv","xpyriment","Lentiform Loewenfeld","3.3.11","0","/","NA","NA","NA","NA","space","/","677","NA","NA","NA","NA","27332","677","2","legacy","1024","2","48000","-16","AB_m21","212","even","CW_S","INSISTENT","1567","337303","333956","335800","29069","NA","NA","NA","NA","NA","334456","NA","NA","NA","333456","NA","333430","1736","337603","NA","NA","NA","334496","1567","1725","NA","NA","335174","335197","333430","334456","334476","morph21_Oliver/Morris","54","56919","72","yes","1920","9"
"200","","75.34246575342466","75.34246575342466","787.3835616438356","787.3835616438356","black","no","xpyriment","legacy","legacy","0","202","NA","uniform","NA","NA","NA","1","undefined","1","0","72","72","72","0","72","72","72","NA","0","72","NA","NA","0","72","NA","72","0","72","NA","NA","NA","72","0","0","NA","NA","72","72","72","72","72","73","/","Tue Jun 27 19:20:05 2023","Executes Python code","yes","m21-ba-lexicalDecision.osexp","C:\Users\emoore8\Desktop\m21_vsl-main","no","mono","no","18","no","white","no","yes","1080","legacy","72","72","C:/Users/emoore8/Desktop/m21_vsl-main/subject-212.csv","xpyriment","Lentiform Loewenfeld","3.3.11","0","/","NA","NA","NA","NA","space","/","560","NA","NA","NA","NA","27332","560","2","legacy","1024","2","48000","-16","AB_m21","212","even","CW_L","BONELESS","1567","340854","339128","335800","29069","NA","NA","NA","NA","NA","339628","NA","NA","NA","338628","NA","338600","1736","341055","NA","NA","NA","339668","1567","1725","NA","NA","340229","340252","338600","339628","339648","morph21_Oliver/Morris","55","57479","73","yes","1920","34"
"350","","75.67567567567568","75.67567567567568","784.1756756756756","784.1756756756756","black","no","xpyriment","legacy","legacy","0","202","NA","uniform","NA","NA","NA","1","undefined","1","0","73","73","73","0","73","73","73","NA","0","73","NA","NA","0","73","NA","73","0","73","NA","NA","NA","73","0","0","NA","NA","73","73","73","73","73","74","/","Tue Jun 27 19:20:05 2023","Executes Python code","yes","m21-ba-lexicalDecision.osexp","C:\Users\emoore8\Desktop\m21_vsl-main","no","mono","no","18","no","white","no","yes","1080","legacy","73","73","C:/Users/emoore8/Desktop/m21_vsl-main/subject-212.csv","xpyriment","Lentiform Loewenfeld","3.3.11","0","/","NA","NA","NA","NA","space","/","550","NA","NA","NA","NA","27332","550","2","legacy","1024","2","48000","-16","AB_m21","212","even","CW_L","JUMPING","1567","344314","342594","335800","29069","NA","NA","NA","NA","NA","343094","NA","NA","NA","342094","NA","342064","1736","344664","NA","NA","NA","343135","1567","1725","NA","NA","343685","343710","342064","343094","343115","morph21_Oliver/Morris","56","58029","74","yes","1920","30"
"200","","74.66666666666667","74.66666666666667","789.72","789.72","black","no","xpyriment","legacy","legacy","0","205","NA","uniform","NA","NA","NA","undefined","undefined","0","0","74","74","74","0","74","74","74","NA","0","74","NA","NA","0","74","NA","74","0","74","NA","NA","NA","74","0","0","NA","NA","74","74","74","74","74","75","z","Tue Jun 27 19:20:05 2023","Executes Python code","yes","m21-ba-lexicalDecision.osexp","C:\Users\emoore8\Desktop\m21_vsl-main","no","mono","no","18","no","white","no","yes","1080","legacy","74","74","C:/Users/emoore8/Desktop/m21_vsl-main/subject-212.csv","xpyriment","Lentiform Loewenfeld","3.3.11","0","space","space","NA","NA","NA","space","None","7170","7170","NA","NA","NA","27332","1200","2","legacy","1024","2","48000","-16","AB_m21","212","even","NW_S_SIMP","OPPOSEMENT","1567","350062","346190","348556","29069","350266","NA","NA","NA","NA","346690","NA","NA","NA","345690","NA","345661","1736","357437","NA","NA","NA","346730","1567","1725","NA","NA","347930","347953","345661","346690","346710","morph21_Oliver/Morris","56","59229","75","yes","1920","8"
"400","","75","75","794.6842105263158","794.6842105263158","black","no","xpyriment","legacy","legacy","0","202","NA","uniform","NA","NA","NA","1","undefined","1","0","75","75","75","0","75","75","75","NA","0","75","NA","NA","0","75","NA","75","0","75","NA","NA","NA","75","0","0","NA","NA","75","75","75","75","75","76","/","Tue Jun 27 19:20:05 2023","Executes Python code","yes","m21-ba-lexicalDecision.osexp","C:\Users\emoore8\Desktop\m21_vsl-main","no","mono","no","18","no","white","no","yes","1080","legacy","75","75","C:/Users/emoore8/Desktop/m21_vsl-main/subject-212.csv","xpyriment","Lentiform Loewenfeld","3.3.11","0","/","space","NA","NA","NA","space","/","1167","7170","NA","NA","NA","27332","1167","2","legacy","1024","2","48000","-16","AB_m21","212","even","CW_L","SPELLER","1567","361296","358961","348556","29069","350266","NA","NA","NA","NA","359461","NA","NA","NA","358461","NA","358430","1736","361696","NA","NA","NA","359502","1567","1725","NA","NA","360669","360693","358430","359461","359482","morph21_Oliver/Morris","57","60396","76","yes","1920","3"
"300","","74.02597402597402","74.02597402597402","799.9480519480519","799.9480519480519","black","no","xpyriment","legacy","legacy","0","205","NA","uniform","NA","NA","NA","0","undefined","0","0","76","76","76","0","76","76","76","NA","0","76","NA","NA","0","76","NA","76","0","76","NA","NA","NA","76","0","0","NA","NA","76","76","76","76","76","77","z","Tue Jun 27 19:20:05 2023","Executes Python code","yes","m21-ba-lexicalDecision.osexp","C:\Users\emoore8\Desktop\m21_vsl-main","no","mono","no","18","no","white","no","yes","1080","legacy","76","76","C:/Users/emoore8/Desktop/m21_vsl-main/subject-212.csv","xpyriment","Lentiform Loewenfeld","3.3.11","0","None","space","NA","NA","NA","space","None","1200","7170","NA","NA","NA","27332","1200","2","legacy","1024","2","48000","-16","AB_m21","212","even","NW_S_SIMP","SOCKETER","1567","365569","363202","348556","29069","350266","NA","NA","NA","NA","363702","NA","NA","NA","362701","NA","362675","1736","365869","NA","NA","NA","363743","1567","1725","NA","NA","364943","364966","362675","363702","363723","morph21_Oliver/Morris","57","61596","77","yes","1920","1"
"300","","74.35897435897436","74.35897435897436","798.9871794871794","798.9871794871794","black","no","xpyriment","legacy","legacy","0","207","NA","uniform","NA","NA","NA","1","undefined","1","0","77","77","77","0","77","77","77","NA","0","77","NA","NA","0","77","NA","77","0","77","NA","NA","NA","77","0","0","NA","NA","77","77","77","77","77","78","/","Tue Jun 27 19:20:05 2023","Executes Python code","yes","m21-ba-lexicalDecision.osexp","C:\Users\emoore8\Desktop\m21_vsl-main","no","mono","no","18","no","white","no","yes","1080","legacy","77","77","C:/Users/emoore8/Desktop/m21_vsl-main/subject-212.csv","xpyriment","Lentiform Loewenfeld","3.3.11","0","/","space","NA","NA","NA","space","/","725","7170","NA","NA","NA","27332","725","2","legacy","1024","2","48000","-16","AB_m21","212","even","FILL_W","BLUNT","1567","370777","367377","369273","29069","350266","NA","NA","NA","NA","367879","NA","NA","NA","366876","NA","366852","1736","371077","NA","NA","NA","367919","1567","1725","NA","NA","368645","368669","366852","367879","367899","morph21_Oliver/Morris","58","62321","78","yes","1920","4"
"400","","74.68354430379746","74.68354430379746","803.7215189873418","803.7215189873418","black","no","xpyriment","legacy","legacy","0","206","NA","uniform","NA","NA","NA","1","undefined","1","0","78","78","78","0","78","78","78","NA","0","78","NA","NA","0","78","NA","78","0","78","NA","NA","NA","78","0","0","NA","NA","78","78","78","78","78","79","z","Tue Jun 27 19:20:05 2023","Executes Python code","yes","m21-ba-lexicalDecision.osexp","C:\Users\emoore8\Desktop\m21_vsl-main","no","mono","no","18","no","white","no","yes","1080","legacy","78","78","C:/Users/emoore8/Desktop/m21_vsl-main/subject-212.csv","xpyriment","Lentiform Loewenfeld","3.3.11","0","z","space","NA","NA","NA","space","z","1173","7170","NA","NA","NA","27332","1173","2","legacy","1024","2","48000","-16","AB_m21","212","even","NW_L_SIMP","CLASSOUS","1567","374947","372602","369273","29069","350266","NA","NA","NA","NA","373102","NA","NA","NA","372102","NA","372079","1736","375347","NA","NA","NA","373143","1567","1725","NA","NA","374317","374343","372079","373102","373123","morph21_Oliver/Morris","59","63494","79","yes","1920","18"
"400","","75","75","804.8625","804.8625","black","no","xpyriment","legacy","legacy","0","203","NA","uniform","NA","NA","NA","1","undefined","1","0","79","79","79","0","79","79","79","NA","0","79","NA","NA","0","79","NA","79","0","79","NA","NA","NA","79","0","0","NA","NA","79","79","79","79","79","80","z","Tue Jun 27 19:20:05 2023","Executes Python code","yes","m21-ba-lexicalDecision.osexp","C:\Users\emoore8\Desktop\m21_vsl-main","no","mono","no","18","no","white","no","yes","1080","legacy","79","79","C:/Users/emoore8/Desktop/m21_vsl-main/subject-212.csv","xpyriment","Lentiform Loewenfeld","3.3.11","0","z","space","NA","NA","NA","space","z","895","7170","NA","NA","NA","27332","895","2","legacy","1024","2","48000","-16","AB_m21","212","even","NW_S_COMP","ARIDILM","1567","378929","376865","369273","29069","350266","NA","NA","NA","NA","377365","NA","NA","NA","376365","NA","376341","1736","379329","NA","NA","NA","377406","1567","1725","NA","NA","378302","378326","376341","377365","377386","morph21_Oliver/Morris","60","64389","80","yes","1920","9"
"350","","75.30864197530865","75.30864197530865","801.5432098765432","801.5432098765432","black","no","xpyriment","legacy","legacy","0","207","NA","uniform","NA","NA","NA","1","undefined","1","0","80","80","80","0","80","80","80","NA","0","80","NA","NA","0","80","NA","80","0","80","NA","NA","NA","80","0","0","NA","NA","80","80","80","80","80","81","/","Tue Jun 27 19:20:05 2023","Executes Python code","yes","m21-ba-lexicalDecision.osexp","C:\Users\emoore8\Desktop\m21_vsl-main","no","mono","no","18","no","white","no","yes","1080","legacy","80","80","C:/Users/emoore8/Desktop/m21_vsl-main/subject-212.csv","xpyriment","Lentiform Loewenfeld","3.3.11","0","/","space","NA","NA","NA","space","/","536","7170","NA","NA","NA","27332","536","2","legacy","1024","2","48000","-16","AB_m21","212","even","FILL_W","FAINT","1567","384064","380857","382560","29069","350266","NA","NA","NA","NA","381357","NA","NA","NA","380356","NA","380330","1736","384414","NA","NA","NA","381397","1567","1725","NA","NA","381933","381957","380330","381357","381377","morph21_Oliver/Morris","61","64925","81","yes","1920","31"
"300","","75.60975609756098","75.60975609756098","801.0487804878048","801.0487804878048","black","no","xpyriment","legacy","legacy","0","202","NA","uniform","NA","NA","NA","1","undefined","1","0","81","81","81","0","81","81","81","NA","0","81","NA","NA","0","81","NA","81","0","81","NA","NA","NA","81","0","0","NA","NA","81","81","81","81","81","82","/","Tue Jun 27 19:20:05 2023","Executes Python code","yes","m21-ba-lexicalDecision.osexp","C:\Users\emoore8\Desktop\m21_vsl-main","no","mono","no","18","no","white","no","yes","1080","legacy","81","81","C:/Users/emoore8/Desktop/m21_vsl-main/subject-212.csv","xpyriment","Lentiform Loewenfeld","3.3.11","0","/","space","NA","NA","NA","space","/","761","7170","NA","NA","NA","27332","761","2","legacy","1024","2","48000","-16","AB_m21","212","even","CW_L","HEATER","1567","387904","385973","382560","29069","350266","NA","NA","NA","NA","386474","NA","NA","NA","385472","NA","385449","1736","388204","NA","NA","NA","386515","1567","1725","NA","NA","387277","387300","385449","386474","386495","morph21_Oliver/Morris","62","65686","82","yes","1920","16"
"250","","74.6987951807229","74.6987951807229","797.722891566265","797.722891566265","black","no","xpyriment","legacy","legacy","0","201","NA","uniform","NA","NA","NA","0","undefined","0","0","82","82","82","0","82","82","82","NA","0","82","NA","NA","0","82","NA","82","0","82","NA","NA","NA","82","0","0","NA","NA","82","82","82","82","82","83","/","Tue Jun 27 19:20:05 2023","Executes Python code","yes","m21-ba-lexicalDecision.osexp","C:\Users\emoore8\Desktop\m21_vsl-main","no","mono","no","18","no","white","no","yes","1080","legacy","82","82","C:/Users/emoore8/Desktop/m21_vsl-main/subject-212.csv","xpyriment","Lentiform Loewenfeld","3.3.11","0","z","space","NA","NA","NA","space","z","525","7170","NA","NA","NA","27332","525","2","legacy","1024","2","48000","-16","AB_m21","212","even","CW_S","GRIMLY","1567","391450","389755","382560","29069","350266","NA","NA","NA","NA","390255","NA","NA","NA","389255","NA","389228","1736","391700","NA","NA","NA","390296","1567","1725","NA","NA","390822","390846","389228","390255","390276","morph21_Oliver/Morris","62","66211","83","yes","1920","31"
"400","","75","75","798.0119047619048","798.0119047619048","black","no","xpyriment","legacy","legacy","0","207","NA","uniform","NA","NA","NA","1","undefined","1","0","83","83","83","0","83","83","83","NA","0","83","NA","NA","0","83","NA","83","0","83","NA","NA","NA","83","0","0","NA","NA","83","83","83","83","83","84","/","Tue Jun 27 19:20:05 2023","Executes Python code","yes","m21-ba-lexicalDecision.osexp","C:\Users\emoore8\Desktop\m21_vsl-main","no","mono","no","18","no","white","no","yes","1080","legacy","83","83","C:/Users/emoore8/Desktop/m21_vsl-main/subject-212.csv","xpyriment","Lentiform Loewenfeld","3.3.11","0","/","space","NA","NA","NA","space","/","822","7170","NA","NA","NA","27332","822","2","legacy","1024","2","48000","-16","AB_m21","212","even","FILL_W","FLIRT","1567","396723","393224","395217","29069","350266","NA","NA","NA","NA","393725","NA","NA","NA","392724","NA","392696","1736","397123","NA","NA","NA","393766","1567","1725","NA","NA","394589","394613","392696","393725","393746","morph21_Oliver/Morris","63","67033","84","yes","1920","1"
"200","","75.29411764705883","75.29411764705883","797.2941176470588","797.2941176470588","black","no","xpyriment","legacy","legacy","0","203","NA","uniform","NA","NA","NA","1","undefined","1","0","84","84","84","0","84","84","84","NA","0","84","NA","NA","0","84","NA","84","0","84","NA","NA","NA","84","0","0","NA","NA","84","84","84","84","84","85","z","Tue Jun 27 19:20:05 2023","Executes Python code","yes","m21-ba-lexicalDecision.osexp","C:\Users\emoore8\Desktop\m21_vsl-main","no","mono","no","18","no","white","no","yes","1080","legacy","84","84","C:/Users/emoore8/Desktop/m21_vsl-main/subject-212.csv","xpyriment","Lentiform Loewenfeld","3.3.11","0","z","space","NA","NA","NA","space","z","737","7170","NA","NA","NA","27332","737","2","legacy","1024","2","48000","-16","AB_m21","212","even","NW_S_COMP","PILLIME","1567","400570","398662","395217","29069","350266","NA","NA","NA","NA","399162","NA","NA","NA","398163","NA","398136","1736","400770","NA","NA","NA","399203","1567","1725","NA","NA","399941","399967","398136","399162","399183","morph21_Oliver/Morris","64","67770","85","yes","1920","13"
"250","","75.5813953488372","75.5813953488372","794.8139534883721","794.8139534883721","black","no","xpyriment","legacy","legacy","0","201","NA","uniform","NA","NA","NA","1","undefined","1","0","85","85","85","0","85","85","85","NA","0","85","NA","NA","0","85","NA","85","0","85","NA","NA","NA","85","0","0","NA","NA","85","85","85","85","85","86","/","Tue Jun 27 19:20:05 2023","Executes Python code","yes","m21-ba-lexicalDecision.osexp","C:\Users\emoore8\Desktop\m21_vsl-main","no","mono","no","18","no","white","no","yes","1080","legacy","85","85","C:/Users/emoore8/Desktop/m21_vsl-main/subject-212.csv","xpyriment","Lentiform Loewenfeld","3.3.11","0","/","space","NA","NA","NA","space","/","584","7170","NA","NA","NA","27332","584","2","legacy","1024","2","48000","-16","AB_m21","212","even","CW_S","HARMLESS","1567","404033","402279","395217","29069","350266","NA","NA","NA","NA","402780","NA","NA","NA","401778","NA","401753","1736","404283","NA","NA","NA","402821","1567","1725","NA","NA","403406","403429","401753","402780","402801","morph21_Oliver/Morris","65","68354","86","yes","1920","29"
"400","","75.86206896551724","75.86206896551724","793.0229885057471","793.0229885057471","black","no","xpyriment","legacy","legacy","0","202","NA","uniform","NA","NA","NA","1","undefined","1","0","86","86","86","0","86","86","86","NA","0","86","NA","NA","0","86","NA","86","0","86","NA","NA","NA","86","0","0","NA","NA","86","86","86","86","86","87","/","Tue Jun 27 19:20:05 2023","Executes Python code","yes","m21-ba-lexicalDecision.osexp","C:\Users\emoore8\Desktop\m21_vsl-main","no","mono","no","18","no","white","no","yes","1080","legacy","86","86","C:/Users/emoore8/Desktop/m21_vsl-main/subject-212.csv","xpyriment","Lentiform Loewenfeld","3.3.11","0","/","space","NA","NA","NA","space","/","639","7170","NA","NA","NA","27332","639","2","legacy","1024","2","48000","-16","AB_m21","212","even","CW_L","CLEANER","1567","409112","405802","407610","29069","350266","NA","NA","NA","NA","406302","NA","NA","NA","405302","NA","405275","1736","409513","NA","NA","NA","406342","1567","1725","NA","NA","406981","407006","405275","406302","406322","morph21_Oliver/Morris","66","68993","87","yes","1920","15"
"400","","76.13636363636364","76.13636363636364","790.5113636363636","790.5113636363636","black","no","xpyriment","legacy","legacy","0","202","NA","uniform","NA","NA","NA","1","undefined","1","0","87","87","87","0","87","87","87","NA","0","87","NA","NA","0","87","NA","87","0","87","NA","NA","NA","87","0","0","NA","NA","87","87","87","87","87","88","/","Tue Jun 27 19:20:05 2023","Executes Python code","yes","m21-ba-lexicalDecision.osexp","C:\Users\emoore8\Desktop\m21_vsl-main","no","mono","no","18","no","white","no","yes","1080","legacy","87","87","C:/Users/emoore8/Desktop/m21_vsl-main/subject-212.csv","xpyriment","Lentiform Loewenfeld","3.3.11","0","/","space","NA","NA","NA","space","/","572","7170","NA","NA","NA","27332","572","2","legacy","1024","2","48000","-16","AB_m21","212","even","CW_L","CLOUDLESS","1567","412769","411028","407610","29069","350266","NA","NA","NA","NA","411528","NA","NA","NA","410528","NA","410499","1736","413169","NA","NA","NA","411569","1567","1725","NA","NA","412142","412165","410499","411528","411549","morph21_Oliver/Morris","67","69565","88","yes","1920","33"
"300","","75.28089887640449","75.28089887640449","795.1123595505618","795.1123595505618","black","no","xpyriment","legacy","legacy","0","204","NA","uniform","NA","NA","NA","0","undefined","0","0","88","88","88","0","88","88","88","NA","0","88","NA","NA","0","88","NA","88","0","88","NA","NA","NA","88","0","0","NA","NA","88","88","88","88","88","89","z","Tue Jun 27 19:20:05 2023","Executes Python code","yes","m21-ba-lexicalDecision.osexp","C:\Users\emoore8\Desktop\m21_vsl-main","no","mono","no","18","no","white","no","yes","1080","legacy","88","88","C:/Users/emoore8/Desktop/m21_vsl-main/subject-212.csv","xpyriment","Lentiform Loewenfeld","3.3.11","0","None","space","NA","NA","NA","space","None","1200","7170","NA","NA","NA","27332","1200","2","legacy","1024","2","48000","-16","AB_m21","212","even","NW_L_COMP","EMPLOYNELS","1567","417036","414668","407610","29069","350266","NA","NA","NA","NA","415169","NA","NA","NA","414167","NA","414140","1736","417336","NA","NA","NA","415209","1567","1725","NA","NA","416409","416433","414140","415169","415189","morph21_Oliver/Morris","67","70765","89","yes","1920","21"
"300","","75.55555555555556","75.55555555555556","795.3222222222222","795.3222222222222","black","no","xpyriment","legacy","legacy","0","208","NA","uniform","NA","NA","NA","1","undefined","1","0","89","89","89","0","89","89","89","NA","0","89","NA","NA","0","89","NA","89","0","89","NA","NA","NA","89","0","0","NA","NA","89","89","89","89","89","90","z","Tue Jun 27 19:20:05 2023","Executes Python code","yes","m21-ba-lexicalDecision.osexp","C:\Users\emoore8\Desktop\m21_vsl-main","no","mono","no","18","no","white","no","yes","1080","legacy","89","89","C:/Users/emoore8/Desktop/m21_vsl-main/subject-212.csv","xpyriment","Lentiform Loewenfeld","3.3.11","0","z","space","NA","NA","NA","space","z","814","7170","NA","NA","NA","27332","814","2","legacy","1024","2","48000","-16","AB_m21","212","even","FILL_NW","KEMT","1567","422322","418835","420818","29069","350266","NA","NA","NA","NA","419335","NA","NA","NA","418335","NA","418309","1736","422622","NA","NA","NA","419375","1567","1725","NA","NA","420189","420214","418309","419335","419355","morph21_Oliver/Morris","68","71579","90","yes","1920","32"
